time,seconds_elapsed,z,y,x
1748140842739580000,0.098579833984375,0.8781188130378723,-0.9515753388404846,-0.950506329536438
1748140842757854500,0.1168544921875,0.8281805515289307,-1.0322095155715942,-0.8987354636192322
1748140842776115000,0.135114990234375,0.75105881690979,-1.0257954597473145,-0.4080579876899719
1748140842794377700,0.153377685546875,0.6102544069290161,-0.9418014883995056,0.46960264444351196
1748140842812637400,0.171637451171875,0.3901901841163635,-0.3764457106590271,1.289994716644287
1748140842830903000,0.189903076171875,-0.010079276748001575,-0.3323107063770294,1.7667750120162964
1748140842849166300,0.208166259765625,-0.4973970353603363,-0.6801984310150146,1.591456651687622
1748140842867426800,0.2264267578125,-0.5612324476242065,-0.4021020531654358,0.7550294399261475
1748140842885692000,0.24469189453125,-0.4466952085494995,0.10949759185314178,-0.004581489134579897
1748140842903953400,0.262953369140625,-0.42302417755126953,-0.14492778480052948,-0.17669276893138885
1748140842922217200,0.28121728515625,-0.4804455041885376,-0.645684540271759,-0.12476922571659088
1748140842940478500,0.299478515625,-0.5436700582504272,-1.0561859607696533,0.024434609338641167
1748140842958741000,0.317740966796875,-0.5662720799446106,-0.7096726894378662,-0.12110403180122375
1748140842977003800,0.336003662109375,-0.5703954100608826,-0.00733038317412138,-0.39706242084503174
1748140842995267600,0.354267578125,-0.5218316316604614,0.17547103762626648,-0.327729195356369
1748140843013529000,0.372529052734375,-0.3937026560306549,0.23594669997692108,-0.15531249344348907
1748140843031791900,0.3907919921875,-0.265573650598526,0.2321287989616394,0.07819075137376785
1748140843050053600,0.4090537109375,-0.20128010213375092,0.06108652427792549,0.3006984293460846
1748140843068319500,0.427319580078125,-0.23671028017997742,-0.04932736977934837,0.4251621961593628
1748140843086580500,0.44558056640625,-0.28237244486808777,0.14645494520664215,0.3649919927120209
1748140843104842000,0.463842041015625,-0.28435778617858887,0.11575896292924881,0.25564709305763245
1748140843123104800,0.482104736328125,-0.28725937008857727,-0.14676037430763245,0.23457226157188416
1748140843141368800,0.500368896484375,-0.26939156651496887,-0.22739458084106445,0.21181751787662506
1748140843159625700,0.518625732421875,-0.21365012228488922,-0.14645494520664215,0.09972374886274338
1748140843177892900,0.536892822265625,-0.09239336848258972,-0.1420261710882187,-0.07360926270484924
1748140843196155600,0.55515576171875,0.02932153269648552,-0.22968533635139465,-0.21273382008075714
1748140843214419500,0.57341943359375,0.13637566566467285,-0.10491610318422318,-0.3214678466320038
1748140843232681000,0.591680908203125,0.3139847218990326,-0.07116580009460449,-0.5097670555114746
1748140843250943700,0.60994384765625,0.34162637591362,-0.1612684279680252,-0.6389650702476501
1748140843269206300,0.628206298828125,0.3245221674442291,-0.27320948243141174,-0.5523748993873596
1748140843287469800,0.6464697265625,0.30115658044815063,-0.45494189858436584,-0.4040873646736145
1748140843305731300,0.6647314453125,0.18005253374576569,-0.2652682363986969,-0.34147366881370544
1748140843323994000,0.682994140625,0.009773843921720982,0.09407325088977814,-0.27091872692108154
1748140843342256600,0.701256591796875,-0.15729780495166779,0.4075998365879059,-0.19349156320095062
1748140843360520400,0.7195205078125,-0.21151208877563477,0.6331618428230286,-0.1999056488275528
1748140843378782000,0.737781982421875,-0.1498146951198578,0.7050912380218506,-0.36789360642433167
1748140843397044500,0.75604443359375,-0.0007635815418325365,0.6533203721046448,-0.49495357275009155
1748140843415307500,0.7743076171875,0.06261368840932846,0.3562871515750885,-0.2921462953090668
1748140843433571300,0.7925712890625,0.1774563491344452,-0.3430008292198181,0.11301007121801376
1748140843451832600,0.81083251953125,0.34773504734039307,-1.2974777221679688,0.5954409241676331
1748140843470095600,0.829095703125,0.5881105065345764,-2.425898551940918,1.1582005023956299
1748140843488358100,0.847358154296875,0.816421389579773,-3.6170859336853027,1.4448490142822266
1748140843506622000,0.8656220703125,0.9408851861953735,-4.538423538208008,1.674839735031128
1748140843524883000,0.883883056640625,1.0575604438781738,-5.169600009918213,1.7595973014831543
1748140843543146000,0.90214599609375,1.2705997228622437,-5.635537147521973,1.5346461534500122
1748140843561409000,0.920408935546875,1.5890132188796997,-6.052605628967285,1.2722796201705933
1748140843579669500,0.93866943359375,1.6942347288131714,-6.265033721923828,1.1059715747833252
1748140843597937000,0.95693701171875,2.165822744369507,-6.484029293060303,1.1731667518615723
1748140843616183800,0.975183837890625,2.316706418991089,-6.48051643371582,1.3306171894073486
1748140843634460200,0.993460205078125,2.5671610832214355,-6.269615650177002,1.7402023077011108
1748140843652723000,1.011722900390625,2.9765937328338623,-6.070931434631348,2.253329277038574
1748140843670984400,1.029984375,3.5474472045898438,-6.084064960479736,2.6542093753814697
1748140843689248000,1.048248046875,4.026670932769775,-5.920964241027832,2.754696846008301
1748140843707509200,1.06650927734375,4.136474132537842,-5.398979663848877,2.5618162155151367
1748140843725780000,1.084780029296875,3.822183847427368,-5.37714147567749,2.0925188064575195
1748140843744035300,1.103035400390625,3.841884136199951,-5.411044120788574,1.201724648475647
1748140843762297000,1.121297119140625,3.8542542457580566,-3.7986655235290527,0.6455318331718445
1748140843780562000,1.13956201171875,3.6354117393493652,-1.7956384420394897,0.8268061280250549
1748140843798820400,1.1578203125,3.2736268043518066,-0.651945948600769,1.3043500185012817
1748140843817078300,1.176078369140625,3.1137328147888184,0.0555887371301651,1.5221234560012817
1748140843835351600,1.1943515625,2.886491060256958,0.2554943859577179,1.5830572843551636
1748140843853611300,1.212611328125,2.4465153217315674,0.48685958981513977,2.284025192260742
1748140843871882500,1.230882568359375,1.8831448554992676,0.5531384944915771,2.6430611610412598
1748140843890136600,1.249136474609375,1.1968377828598022,0.5780312418937683,2.1452059745788574
1748140843908399400,1.2673994140625,0.732122004032135,1.0149526596069336,1.430799126625061
1748140843926662000,1.285661865234375,0.5908594131469727,1.327257513999939,0.6391177773475647
1748140843944920800,1.3039208984375,0.4127921760082245,1.766927719116211,0.05115996301174164
1748140843963187200,1.322187255859375,-0.0074830991216003895,2.0195205211639404,-0.08002334833145142
1748140843981450000,1.340449951171875,-0.6096435189247131,2.1671972274780273,-0.04489859566092491
1748140843999712800,1.358712646484375,-1.091616153717041,1.9619464874267578,-0.4277583956718445
1748140844017976000,1.37697607421875,-1.426675796508789,1.30496084690094,-0.8935431241989136
1748140844036238600,1.395238525390625,-1.4886785745620728,0.5936083197593689,-0.6743952035903931
1748140844054500400,1.413500244140625,-1.3527610301971436,-0.13072516024112701,-0.04902193695306778
1748140844072763100,1.43176318359375,-1.1937834024429321,-0.39248090982437134,0.19914206862449646
1748140844091027000,1.45002685546875,-1.1554516553878784,-0.5916230082511902,0.021838432177901268
1748140844109287700,1.46828759765625,-1.3041973114013672,-0.8593347072601318,0.02672535367310047
1748140844127552800,1.486552734375,-1.7104226350784302,-1.2260065078735352,0.02932153269648552
1748140844145800000,1.504800048828125,-2.247525930404663,-1.5838208198547363,-0.13026700913906097
1748140844164077800,1.523077880859375,-2.5130996704101562,-1.9620991945266724,-0.4538728892803192
1748140844182339600,1.541339599609375,-2.612670660018921,-1.8784105777740479,-0.5963571667671204
1748140844200602600,1.5596025390625,-2.387108564376831,-1.3967434167861938,-0.6247624158859253
1748140844218850600,1.5778505859375,-2.090533494949341,-1.3321443796157837,-0.6882924437522888
1748140844246258000,1.6052578125,-1.7624989748001099,-0.9471465349197388,-0.4645630121231079
1748140844264524000,1.62352392578125,-1.0948232412338257,-0.49067750573158264,-0.46868637204170227
1748140844282784300,1.6417841796875,-0.4605923891067505,-0.0679587572813034,-0.6516404747962952
1748140844301048600,1.660048583984375,0.05971207842230797,0.1463022232055664,-0.7904596328735352
1748140844319308500,1.67830859375,0.41523563861846924,0.19028452038764954,-0.7950411438941956
1748140844337574700,1.69657470703125,0.7334964275360107,0.20295998454093933,-0.7400632500648499
1748140844355816400,1.71481640625,0.8223773241043091,0.15302173793315887,-0.7869471311569214
1748140844374099000,1.733098876953125,0.6392704844474792,0.05100724846124649,-0.7654141783714294
1748140844392360700,1.751360595703125,0.42959097027778625,-0.37629300355911255,-0.7469354867935181
1748140844410624500,1.76962451171875,0.5363397002220154,-0.43646320700645447,-0.6873761415481567
1748140844428885800,1.7878857421875,1.16293466091156,-0.04932736977934837,-0.4466952085494995
1748140844447146200,1.806146240234375,1.718058466911316,0.3240640163421631,-0.10231992602348328
1748140844465411000,1.8244111328125,2.0978639125823975,-0.5829181671142578,0.056352317333221436
1748140844483675100,1.842675048828125,2.3214406967163086,-2.1094703674316406,0.08949175477027893
1748140844501931800,1.860931884765625,2.409710645675659,-3.120452404022217,0.24205535650253296
1748140844520201000,1.879200927734375,2.414902925491333,-1.9323195219039917,0.2718350291252136
1748140844538462000,1.8974619140625,2.144442558288574,0.4103487432003021,0.34208452701568604
1748140844556726000,1.91572607421875,1.5209017992019653,0.6716463565826416,0.22220222651958466
1748140844574987500,1.933987548828125,0.9572258591651917,0.07223481684923172,-0.027641652151942253
1748140844593252000,1.952252197265625,0.6559165716171265,-0.2816088795661926,0.04199698567390442
1748140844611511800,1.97051171875,0.5699372887611389,-0.12751811742782593,0.24419337511062622
1748140844629777000,1.98877685546875,0.6336199641227722,0.08552113175392151,0.2565633952617645
1748140844648027100,2.007027099609375,0.790154218673706,0.28680121898651123,0.11774427443742752
1748140844666301000,2.025301025390625,1.1252137422561646,0.37827831506729126,-0.03833179548382759
1748140844684564500,2.043564453125,1.5668693780899048,0.5143485069274902,-0.09865473955869675
1748140844702823200,2.0618232421875,2.1041252613067627,0.07299839705228806,-0.07254024595022202
1748140844721089000,2.080089111328125,2.3999369144439697,-0.2817615866661072,-0.03084869496524334
1748140844739352800,2.098352783203125,2.6453518867492676,-0.34666603803634644,0.030237829312682152
1748140844757614600,2.116614501953125,2.912147283554077,-0.22815817594528198,0.16951510310173035
1748140844775866600,2.13486669921875,3.1120529174804688,-0.07040221989154816,0.37827831506729126
1748140844794140000,2.153139892578125,3.2791247367858887,0.31932979822158813,0.5251913666725159
1748140844812403700,2.17140380859375,3.4626896381378174,0.71318519115448,0.37690386176109314
1748140844830665200,2.189665283203125,3.4263432025909424,0.9030115604400635,0.10002918541431427
1748140844848929300,2.20792919921875,3.2618677616119385,0.9095783233642578,0.041233405470848083
1748140844867187200,2.226187255859375,2.9681942462921143,0.7553348541259766,0.10354165732860565
1748140844885454600,2.24445458984375,2.6511552333831787,0.23426681756973267,0.07452555745840073
1748140844903715800,2.2627158203125,2.501798629760742,-0.5658139586448669,-0.04596760869026184
1748140844921980200,2.280980224609375,2.5813639163970947,-0.9656252264976501,-0.00855211354792118
1748140844940242000,2.299241943359375,2.405892848968506,-0.6551529765129089,0.7411322593688965
1748140844958505000,2.3175048828125,1.7922786474227905,-0.022602014243602753,1.564578652381897
1748140844976767000,2.33576708984375,0.7790058851242065,0.8300131559371948,1.6972891092300415
1748140844995030800,2.35403076171875,-0.42638394236564636,1.3371840715408325,0.5109887719154358
1748140845013286400,2.372286376953125,-0.7228062748908997,0.2871066629886627,-0.5798638463020325
1748140845031556000,2.39055615234375,-0.6206390857696533,-1.6351335048675537,-0.08750644326210022
1748140845049822500,2.408822509765625,-0.7232644557952881,-2.732858419418335,0.10644327104091644
1748140845068081700,2.42708154296875,-1.0939068794250488,-3.116023540496826,-0.27977627515792847
1748140845086343400,2.445343505859375,-1.136056661605835,-1.3750576972961426,-0.6097962260246277
1748140845104607000,2.46360693359375,-1.183704137802124,1.13758385181427,-0.39935314655303955
1748140845122864400,2.481864501953125,-0.47448956966400146,2.2009475231170654,-0.26282477378845215
1748140845141133000,2.500133056640625,0.4280638098716736,1.9120081663131714,-0.39614611864089966
1748140845159394000,2.51839404296875,1.0352638959884644,1.0965031385421753,-0.4524984359741211
1748140845177658000,2.536658203125,1.0955867767333984,0.11255192011594772,-0.03940080851316452
1748140845195919600,2.554919677734375,0.6910412907600403,-1.3933836221694946,0.8217664957046509
1748140845214183400,2.573183349609375,0.07788532227277756,-2.4194846153259277,1.5586227178573608
1748140845232444400,2.5914443359375,-0.49984049797058105,-2.6945266723632812,2.043344259262085
1748140845250710000,2.6097099609375,-0.7328855991363525,-2.5804474353790283,2.3206770420074463
1748140845268966000,2.6279658203125,-0.5879577994346619,-2.143526077270508,2.412612199783325
1748140845287234600,2.646234619140625,-0.16050484776496887,-1.3385584354400635,2.16964054107666
1748140845305495800,2.664495849609375,0.18448130786418915,-0.2819143235683441,0.8300131559371948
1748140845323759600,2.682759521484375,0.057879481464624405,0.3240640163421631,-0.5487096905708313
1748140845342021600,2.701021728515625,-0.19013181328773499,0.5187773108482361,-0.816421389579773
1748140845360284400,2.719284423828125,-0.2638937830924988,0.6629415154457092,-0.47418415546417236
1748140845378548000,2.7375478515625,-0.24205535650253296,0.6284276247024536,-0.013286318629980087
1748140845396812300,2.755812255859375,-0.15302173793315887,0.35353827476501465,0.2791654169559479
1748140845415072300,2.774072265625,-0.023060163483023643,0.038026362657547,0.3920227587223053
1748140845433336000,2.792336181640625,0.059864792972803116,-0.16264286637306213,0.48655417561531067
1748140845451597800,2.810597900390625,0.09392052888870239,-0.21533000469207764,0.6058256030082703
1748140845469856300,2.828856201171875,0.10797043144702911,-0.328340083360672,0.6939429044723511
1748140845488125000,2.847125,0.10995574295520782,-0.4740314185619354,0.6687447428703308
1748140845506387000,2.865386962890625,0.08979719132184982,-0.43127086758613586,0.4323398768901825
1748140845524648700,2.883648681640625,0.047800205647945404,-0.17699819803237915,0.06169738993048668
1748140845542911200,2.9019111328125,0.010995574295520782,0.13545936346054077,-0.17211128771305084
1748140845561175600,2.920175537109375,0.001832595793530345,0.27488934993743896,-0.1719585657119751
1748140845579438000,2.93843798828125,0.004123340360820293,0.2382374405860901,-0.0708603709936142
1748140845597699600,2.956699462890625,0.03726277872920036,0.11804971098899841,0.04581489413976669
1748140845615963400,2.97496337890625,0.07895433157682419,0.0025961773935705423,0.14798210561275482
1748140845634225200,2.99322509765625,0.07987063378095627,-0.06688974797725677,0.24266621470451355
1748140845652487700,3.01148779296875,0.05390885844826698,-0.08735372871160507,0.2958115041255951
1748140845670751700,3.029751708984375,0.04046982154250145,-0.1014036312699318,0.21930062770843506
1748140845689002500,3.04800244140625,0.030237829312682152,-0.1537853181362152,-0.010231993161141872
1748140845707274800,3.066274658203125,0.01542434748262167,-0.2064724564552307,-0.23457226157188416
1748140845725524200,3.084524169921875,0.027947084978222847,-0.204487144947052,-0.3295617997646332
1748140845743802400,3.10280224609375,0.04184427112340927,-0.21700987219810486,-0.24633140861988068
1748140845762065700,3.121065673828125,0.031001411378383636,-0.23518311977386475,-0.12553280591964722
1748140845780322600,3.139322509765625,0.013133603148162365,-0.20402899384498596,-0.11209376901388168
1748140845798589700,3.157589599609375,0.00427605677396059,-0.13347405195236206,-0.16508632898330688
1748140845816849000,3.175848876953125,0.0003054326225537807,-0.08750644326210022,-0.22388210892677307
1748140845835116500,3.194116455078125,0.00045814894838258624,-0.08399397134780884,-0.2623666226863861
1748140845853378000,3.2123779296875,0.038637228310108185,-0.060322944074869156,-0.2525927722454071
1748140845871641600,3.2306416015625,0.13255776464939117,0.050854530185461044,-0.24846944212913513
1748140845889903600,3.248903564453125,0.2272418737411499,0.25274550914764404,-0.3159700334072113
1748140845908167400,3.26716748046875,0.2874121069908142,0.470060795545578,-0.44180828332901
1748140845926416400,3.28541650390625,0.31459560990333557,0.6023131608963013,-0.5549710988998413
1748140845944694300,3.3036943359375,0.28787025809288025,0.5648976564407349,-0.6514877676963806
1748140845962954800,3.321954833984375,0.2116648107767105,0.3646865487098694,-0.7783950567245483
1748140845981218000,3.340218017578125,0.15653422474861145,0.12171489745378494,-0.8730791807174683
1748140845999480600,3.35848046875,0.1267545372247696,-0.044287730008363724,-0.8804095387458801
1748140846017743600,3.37674365234375,0.1281289905309677,-0.22388210892677307,-0.8730791807174683
1748140846036005600,3.395005615234375,0.16783522069454193,-0.4294382631778717,-0.8962920308113098
1748140846054268200,3.41326806640625,0.24174992740154266,-0.4680754840373993,-0.874453604221344
1748140846072531200,3.43153125,0.31291571259498596,-0.39446622133255005,-0.8054258227348328
1748140846090796300,3.44979638671875,0.3243694305419922,-0.2819143235683441,-0.7394523620605469
1748140846109056800,3.468056884765625,0.28985556960105896,-0.2301434874534607,-0.8052731156349182
1748140846127320300,3.4863203125,0.30146199464797974,-0.05650503560900688,-0.7663304209709167
1748140846145582000,3.50458203125,0.30711251497268677,0.1973094791173935,-0.43279802799224854
1748140846163841000,3.522841064453125,0.20830504596233368,0.0731511116027832,-0.2376265823841095
1748140846182108000,3.54110791015625,0.06688974797725677,-0.4127921760082245,-0.5190827250480652
1748140846200371500,3.559371337890625,0.055283304303884506,-0.7026477456092834,-0.7244861721992493
1748140846218633200,3.57763330078125,-0.012675453908741474,-0.607200026512146,-0.5088507533073425
1748140846236897300,3.595897216796875,-0.01038470957428217,-0.3933972120285034,-0.3562871515750885
1748140846255158500,3.614158447265625,-0.07116580009460449,-0.4369213581085205,-0.3643811047077179
1748140846273422300,3.63242236328125,-0.2223549485206604,-0.7941248416900635,-0.5059491395950317
1748140846291684000,3.65068408203125,-0.37461310625076294,-1.1873693466186523,-0.708450973033905
1748140846309948400,3.668948486328125,-0.47510045766830444,-1.034194827079773,-0.7641924023628235
1748140846328209400,3.68720947265625,-0.4590652287006378,-0.6233879923820496,-0.827111542224884
1748140846346473700,3.7054736328125,-0.20372356474399567,-0.11026117950677872,-1.042441487312317
1748140846364735200,3.7237353515625,-0.019394971430301666,0.4349360466003418,-1.291063666343689
1748140846382994400,3.741994384765625,-0.058948494493961334,0.7921395301818848,-1.4092661142349243
1748140846401258800,3.7602587890625,-0.03420845419168472,0.936609148979187,-1.3051135540008545
1748140846419527000,3.77852685546875,0.13698652386665344,0.9567676782608032,-1.1290316581726074
1748140846437786400,3.796786376953125,0.22846360504627228,0.8723155856132507,-0.9381362795829773
1748140846456050200,3.81505029296875,0.2730567753314972,0.7177666425704956,-0.6890559792518616
1748140846474313700,3.833313720703125,0.3150537610054016,0.4069889783859253,-0.4605923891067505
1748140846492573200,3.8515732421875,0.2993239760398865,0.008246680721640587,-0.3335324227809906
1748140846510833700,3.869833740234375,0.24037547409534454,-0.35414913296699524,-0.25503623485565186
1748140846529101000,3.88810107421875,0.19837848842144012,-0.64217209815979,-0.1472185254096985
1748140846547360800,3.90636083984375,0.23060162365436554,-0.794277548789978,0.02535090781748295
1748140846565629200,3.924629150390625,0.33307427167892456,-0.9166033267974854,0.2929098904132843
1748140846583888400,3.942888427734375,0.3442225754261017,-0.9506590366363525,0.5978843569755554
1748140846602152400,3.96115234375,0.1488984078168869,-0.6582072973251343,0.8385652899742126
1748140846620414000,3.9794140625,0.19715675711631775,0.17821992933750153,1.031293272972107
1748140846638678000,3.997677978515625,0.30405816435813904,1.2107349634170532,1.0228939056396484
1748140846656939500,4.015939453125,0.4453207552433014,1.835650086402893,0.9382890462875366
1748140846675203800,4.034203857421875,0.48915034532546997,1.6597208976745605,0.9230173826217651
1748140846693465000,4.052465087890625,0.36361753940582275,1.1426234245300293,0.9718865752220154
1748140846711729200,4.070729248046875,0.3191770911216736,0.8894197940826416,0.9433286786079407
1748140846729991000,4.088990966796875,0.4242459237575531,0.9039278626441956,0.8087855577468872
1748140846748255200,4.107255126953125,0.4170682430267334,1.2350168228149414,0.801913321018219
1748140846766520300,4.125520263671875,0.27550023794174194,1.641547679901123,0.9272934198379517
1748140846784780000,4.143780029296875,0.1310305893421173,1.6362025737762451,1.1201741695404053
1748140846803041500,4.16204150390625,-0.00015271631127689034,0.9066767692565918,1.1246029138565063
1748140846821302800,4.180302734375,-0.11010845750570297,-0.2597704529762268,1.042441487312317
1748140846839567600,4.198567626953125,-0.24923302233219147,-1.2516628503799438,0.8552113175392151
1748140846857826600,4.21682666015625,-0.42210787534713745,-1.4182764291763306,0.1768454909324646
1748140846876093200,4.23509326171875,-0.4625777006149292,-0.7371616363525391,-0.8243626356124878
1748140846894356700,4.253356689453125,-0.3501785099506378,0.294437050819397,-1.3573426008224487
1748140846912618200,4.2716181640625,-0.18967366218566895,1.1186469793319702,-1.216843605041504
1748140846930882800,4.2898828125,-0.03878994286060333,1.4228578805923462,-0.8718574047088623
1748140846949143800,4.308143798828125,0.09743300825357437,1.031598687171936,-0.5849034786224365
1748140846967407900,4.326407958984375,0.16783522069454193,0.21380282938480377,-0.3927863538265228
1748140846985669600,4.344669677734375,0.13866640627384186,-0.4512766897678375,-0.10506882518529892
1748140847003933400,4.362933349609375,0.005192354787141085,-1.063821792602539,0.3309362530708313
1748140847022195200,4.3811953125,-0.1368338167667389,-1.621694564819336,0.8764389157295227
1748140847040459300,4.399459228515625,-0.19135354459285736,-1.6525431871414185,1.2867876291275024
1748140847058720800,4.417720703125,-0.22021691501140594,-1.0349584817886353,1.1899654865264893
1748140847076984600,4.435984619140625,-0.3410155177116394,-0.41233405470848083,0.8200865983963013
1748140847095246600,4.45424658203125,-0.5267185568809509,-0.1563815027475357,0.6123924255371094
1748140847113510100,4.47251025390625,-0.5855143666267395,-0.11591167747974396,0.7150177955627441
1748140847131772000,4.49077197265625,-0.5167919993400574,-0.11148291081190109,0.9332493543624878
1748140847150036000,4.509035888671875,-0.545655369758606,-0.09224065393209457,1.0160216093063354
1748140847168297700,4.527297607421875,-0.5346598029136658,-0.00733038317412138,1.0520626306533813
1748140847186561500,4.5455615234375,-0.4964807331562042,0.05513058975338936,1.0487029552459717
1748140847204823300,4.5638232421875,-0.37048977613449097,0.010995574295520782,0.8739954233169556
1748140847223087000,4.582087158203125,-0.1160643994808197,0.07941248267889023,0.5097670555114746
1748140847241348900,4.600348876953125,0.08170322328805923,0.4245513379573822,0.22372940182685852
1748140847259612700,4.61861279296875,0.19456058740615845,1.0816895961761475,0.07941248267889023
1748140847277874400,4.63687451171875,0.2704605758190155,1.871996521949768,-0.1059851199388504
1748140847296138200,4.65513818359375,0.13454307615756989,2.027308940887451,-0.40973785519599915
1748140847314400000,4.67339990234375,-0.025961773470044136,1.326341152191162,-0.47189339995384216
1748140847332663800,4.691663818359375,0.0027488935738801956,0.4599815309047699,-0.1235474944114685
1748140847350925300,4.70992529296875,0.01572977937757969,-0.17989981174468994,0.4222606122493744
1748140847369189600,4.728189697265625,-0.12140946835279465,-0.6171266436576843,0.6882924437522888
1748140847387451100,4.746451171875,-0.2275473028421402,-0.8666650652885437,0.4437935948371887
1748140847405715000,4.76471484375,-0.29626965522766113,-0.9717338681221008,0.13988813757896423
1748140847423976400,4.7829765625,-0.32986724376678467,-0.8681922554969788,0.039706241339445114
1748140847442240800,4.80124072265625,-0.2562579810619354,-0.5997169613838196,0.05711590126156807
1748140847460502500,4.81950244140625,-0.19120082259178162,-0.18417587876319885,0.13958270847797394
1748140847478766000,4.83776611328125,-0.14446963369846344,0.2915354371070862,0.24342979490756989
1748140847497027800,4.85602783203125,-0.024587325751781464,0.5763513445854187,0.3410155177116394
1748140847515292000,4.8742919921875,0.09208793938159943,0.5126686692237854,0.43768495321273804
1748140847533553400,4.892553466796875,0.1592831164598465,0.24068090319633484,0.5346598029136658
1748140847551817500,4.9108173828125,0.1817324161529541,-0.027183502912521362,0.5280929803848267
1748140847570079200,4.929079345703125,0.14844025671482086,-0.15256360173225403,0.34895676374435425
1748140847588343000,4.947343017578125,0.09789115190505981,-0.13729196786880493,0.1563815027475357
1748140847606604800,4.965604736328125,0.06750060617923737,-0.12049316614866257,0.15561792254447937
1748140847624868600,4.98386865234375,0.05910121276974678,-0.1918116807937622,0.29397889971733093
1748140847643130400,5.00213037109375,0.06261368840932846,-0.2678644061088562,0.41661009192466736
1748140847661391400,5.020391357421875,0.06291911751031876,-0.3396410644054413,0.4795292317867279
1748140847679659000,5.038658935546875,0.06887505948543549,-0.4411974251270294,0.4815145432949066
1748140847697919500,5.05691943359375,0.05971207842230797,-0.5195409059524536,0.42638394236564636
1748140847716181500,5.075181396484375,0.04505131021142006,-0.5803219676017761,0.24068090319633484
1748140847734445300,5.0934453125,0.11041389405727386,-0.5433646440505981,0.038637228310108185
1748140847752707300,5.111707275390625,0.23121249675750732,-0.27030786871910095,-0.12767083942890167
1748140847770971100,5.12997119140625,0.3153591752052307,0.07528914511203766,-0.3045163154602051
1748140847789233000,5.14823291015625,0.2817615866661072,0.16264286637306213,-0.342695415019989
1748140847807496700,5.16649658203125,0.18860463798046112,-0.004734205547720194,-0.20799961686134338
1748140847825750500,5.18475048828125,0.11743884533643723,-0.3162754774093628,-0.11911872029304504
1748140847844022500,5.2030224609375,0.038637228310108185,-0.6395758986473083,-0.20754146575927734
1748140847862284000,5.221283935546875,-0.004886921960860491,-0.8003861904144287,-0.41004329919815063
1748140847880547600,5.239547607421875,-0.007024950347840786,-0.7783950567245483,-0.6704245805740356
1748140847898809600,5.2578095703125,0.04214970022439957,-0.5338962078094482,-0.9631817936897278
1748140847917066500,5.27606640625,0.10384709388017654,-0.22128593921661377,-1.1582005023956299
1748140847935335400,5.29433544921875,0.14385876059532166,-0.13011430203914642,-1.1650726795196533
1748140847953599200,5.31259912109375,0.1823432743549347,-0.31780263781547546,-1.0626001358032227
1748140847971861000,5.330861083984375,0.3032945990562439,-0.8342891931533813,-1.0317513942718506
1748140847990124800,5.349124755859375,0.4056145250797272,-1.2043207883834839,-1.0192286968231201
1748140848008386600,5.367386474609375,0.48655417561531067,-0.5199990272521973,-0.7811439037322998
1748140848026650600,5.385650634765625,0.5629123449325562,0.5693264007568359,-0.6210972666740417
1748140848044912000,5.403912109375,0.5378668308258057,1.2968668937683105,-0.7238753437995911
1748140848063176000,5.422176025390625,0.4911356568336487,1.3466523885726929,-0.7768678665161133
1748140848081438200,5.440438232421875,0.3246748745441437,0.9158397316932678,-0.7434229850769043
1748140848099701800,5.45870166015625,0.21471913158893585,0.471129834651947,-0.8405506014823914
1748140848117963500,5.476963623046875,0.08384125679731369,0.197004035115242,-0.8315402865409851
1748140848136227300,5.495227294921875,-0.02886338345706463,-0.12996158003807068,-0.49357911944389343
1748140848154489300,5.5134892578125,-0.18081611394882202,-0.7115052938461304,-0.2649627923965454
1748140848172753000,5.5317529296875,-0.3962988257408142,-0.956156849861145,-0.1592831164598465
1748140848191015200,5.55001513671875,-0.5406157374382019,-1.3927727937698364,-0.11667526513338089
1748140848209278700,5.56827880859375,-0.49357911944389343,-1.9737056493759155,-0.013133603148162365
1748140848227540700,5.586540771484375,-0.3729332387447357,-2.094198703765869,-0.05803219974040985
1748140848245792500,5.60479248046875,-0.2249511331319809,-1.3810136318206787,-0.36850446462631226
1748140848264065800,5.623065673828125,-0.07956519722938538,0.07299839705228806,-0.8127561807632446
1748140848282330000,5.641330078125,-0.05115996301174164,1.5317445993423462,-1.1061242818832397
1748140848300591900,5.659591796875,-0.046273041516542435,2.2015583515167236,-1.1229230165481567
1748140848318856000,5.67785595703125,0.012980886735022068,2.0227274894714355,-1.0613783597946167
1748140848337117400,5.696117431640625,0.044135015457868576,1.5354098081588745,-0.9595165848731995
1748140848355381200,5.71438134765625,0.1287398487329483,0.8597928285598755,-0.8907942175865173
1748140848373643000,5.73264306640625,0.27641651034355164,-0.2643519341945648,-0.8315402865409851
1748140848391907300,5.7509072265625,0.49205195903778076,-1.6916385889053345,-0.6940956115722656
1748140848410168800,5.7691689453125,0.6783658266067505,-2.313957452774048,-0.4697553813457489
1748140848428432600,5.7874326171875,0.811687171459198,-2.724000930786133,-0.27259862422943115
1748140848446694400,5.8056943359375,0.894001305103302,-3.2731688022613525,-0.18295414745807648
1748140848464958200,5.823958251953125,0.9019425511360168,-2.8124237060546875,-0.24678955972194672
1748140848483220000,5.842219970703125,0.7180721163749695,-1.3141238689422607,-0.2730567753314972
1748140848501484300,5.860484375,0.4479169547557831,-0.11743884533643723,0.008399397134780884
1748140848519745800,5.878745849609375,0.28496864438056946,0.15225815773010254,0.42348232865333557
1748140848538009600,5.897009521484375,0.33475416898727417,-0.06291911751031876,0.6966918110847473
1748140848556271400,5.915271240234375,0.2984076738357544,-0.6647741198539734,0.9486737251281738
1748140848574535000,5.933534912109375,0.22220222651958466,-0.8689557909965515,1.2333369255065918
1748140848592797200,5.951797119140625,0.1547016203403473,-0.41263946890830994,1.3486377000808716
1748140848611061200,5.970061279296875,0.09437867999076843,0.0708603709936142,1.2394455671310425
1748140848629322800,5.98832275390625,0.0757472887635231,0.31749722361564636,1.182176947593689
1748140848647586600,6.006586669921875,0.08735372871160507,0.5100724697113037,1.2148582935333252
1748140848665837000,6.024837158203125,0.09789115190505981,0.7480044960975647,1.2875511646270752
1748140848684112400,6.0431123046875,-0.14095716178417206,0.644768238067627,1.2712105512619019
1748140848702374100,6.0613740234375,-0.33460143208503723,0.2837468981742859,1.2192870378494263
1748140848720638200,6.07963818359375,-0.27061331272125244,0.19532416760921478,1.1693488359451294
1748140848738895600,6.0978955078125,-0.15683965384960175,0.041233405470848083,1.1856894493103027
1748140848757167900,6.11616796875,-0.1469130963087082,-0.2770273983478546,1.3144292831420898
1748140848775425300,6.13442529296875,-0.29275718331336975,-0.3576616048812866,1.3516920804977417
1748140848793689300,6.152689453125,-0.3917173445224762,0.16768251359462738,1.0713049173355103
1748140848811951400,6.170951416015625,-0.23839016258716583,0.9983065128326416,0.4164573848247528
1748140848830215200,6.189215087890625,-0.06230825558304787,1.2432634830474854,-0.3248275816440582
1748140848848476700,6.2074765625,-0.050243668258190155,0.988990843296051,-0.9905179738998413
1748140848866740700,6.22574072265625,-0.07864890247583389,0.9121745228767395,-1.1620184183120728
1748140848885002500,6.24400244140625,-0.052839845418930054,1.286634922027588,-0.9246972799301147
1748140848903266600,6.2622666015625,0.09789115190505981,1.563356876373291,-0.8045095205307007
1748140848921528000,6.280528076171875,0.31383201479911804,1.4219415187835693,-0.9599747061729431
1748140848939792400,6.29879248046875,0.5445863604545593,0.9236282706260681,-1.1820242404937744
1748140848958041600,6.31704150390625,0.6230825781822205,0.22510384023189545,-1.2481504678726196
1748140848976317700,6.335317626953125,0.5140430927276611,-0.1892155110836029,-1.2655600309371948
1748140848994564400,6.353564453125,0.15454891324043274,-0.4789183437824249,-1.0403034687042236
1748140849012843500,6.371843505859375,-0.3724750876426697,-0.8784242272377014,-0.29077184200286865
1748140849031105300,6.390105224609375,-1.0140362977981567,-1.080162525177002,0.8831584453582764
1748140849049368800,6.408368896484375,-1.672243595123291,0.6288857460021973,1.232573390007019
1748140849067631000,6.426631103515625,-2.2291998863220215,2.373364210128784,1.0361801385879517
1748140849085896700,6.444896728515625,-2.5302038192749023,2.86999773979187,0.6229298114776611
1748140849104156400,6.463156494140625,-2.523331642150879,2.202932834625244,0.12797626852989197
1748140849122422500,6.481422607421875,-1.9646953344345093,0.7739662528038025,0.023976460099220276
1748140849140668700,6.499668701171875,-1.2753338813781738,0.017409659922122955,0.09254608303308487
1748140849158946000,6.517946044921875,-0.7192938327789307,0.10491610318422318,0.2577851414680481
1748140849177207800,6.536207763671875,-0.3119994103908539,0.26633724570274353,0.3727805018424988
1748140849195472100,6.55447216796875,-0.21441370248794556,0.41661009192466736,0.37751471996307373
1748140849213733400,6.5727333984375,-0.4726569950580597,0.9272934198379517,0.40515637397766113
1748140849231997700,6.590997802734375,-0.6788240075111389,1.6814066171646118,0.4957171380519867
1748140849250259500,6.609259521484375,-0.6517932415008545,2.0780107975006104,0.6777549982070923
1748140849268523300,6.627523193359375,-0.49205195903778076,1.5764905214309692,0.5123631954193115
1748140849286785000,6.645784912109375,-0.1992947906255722,1.154382586479187,0.2125810980796814
1748140849305049000,6.664049072265625,0.32039880752563477,1.7238616943359375,0.23167064785957336
1748140849323310600,6.682310546875,1.0299187898635864,2.618321180343628,-0.1595885455608368
1748140849341575000,6.700574951171875,0.304669052362442,2.34786057472229,0.10354165732860565
1748140849359836400,6.71883642578125,0.5155702829360962,0.351400226354599,-0.12110403180122375
1748140849378100500,6.7371005859375,0.8188648819923401,-0.5123631954193115,-0.15225815773010254
1748140849396362200,6.7553623046875,1.021519422531128,0.45204028487205505,0.1316414624452591
1748140849414626000,6.7736259765625,0.9648616313934326,1.5048664808273315,0.34804046154022217
1748140849432887800,6.7918876953125,0.9043859839439392,1.0942124128341675,0.16752979159355164
1748140849451152100,6.810152099609375,0.36789360642433167,0.22357667982578278,-0.1794416606426239
1748140849469413400,6.828413330078125,-0.16493362188339233,-0.03848451003432274,-0.29306259751319885
1748140849487677400,6.846677490234375,-0.39706242084503174,0.23869559168815613,-0.18646661937236786
1748140849505939200,6.864939208984375,-0.49296826124191284,0.22082778811454773,0.05497787147760391
1748140849524203300,6.883203369140625,-0.4990769028663635,-0.22189679741859436,0.36422839760780334
1748140849542465000,6.901465087890625,0.1385136991739273,-0.6574437022209167,0.2499966025352478
1748140849560728800,6.919728759765625,0.6572909951210022,-0.7713701128959656,0.2871066629886627
1748140849578990600,6.937990478515625,0.5624541640281677,-0.5221370458602905,0.46379944682121277
1748140849597254700,6.956254638671875,0.31383201479911804,-0.23487769067287445,0.29474249482154846
1748140849615516200,6.97451611328125,0.010842857882380486,0.2428189367055893,0.10415252298116684
1748140849633780200,6.9927802734375,-0.14935655891895294,0.3839288055896759,0.05543602257966995
1748140849652042000,7.0110419921875,-0.6438519954681396,0.4202753007411957,0.21273382008075714
1748140849670306300,7.029306396484375,-1.406822681427002,0.38148534297943115,0.5073235630989075
1748140849688568000,7.047568115234375,-1.6152803897857666,0.9442449808120728,0.6243042945861816
1748140849706831600,7.06583154296875,-2.1148154735565186,1.7493653297424316,0.6333145499229431
1748140849725093600,7.08409375,-2.4246768951416016,1.8909333944320679,0.20631973445415497
1748140849743357400,7.102357421875,-3.218648910522461,1.6488779783248901,0.4053090810775757
1748140849761619200,7.120619140625,-3.8363864421844482,0.8527678847312927,0.8155050873756409
1748140849779883000,7.138883056640625,-4.061490535736084,0.27259862422943115,1.265865445137024
1748140849798145000,7.15714501953125,-3.86891508102417,0.14248432219028473,1.7238616943359375
1748140849816405800,7.17540576171875,-2.7256808280944824,-0.7043276429176331,1.41690194606781
1748140849834674000,7.193673828125,-0.7628179788589478,-0.6400340795516968,0.984867513179779
1748140849852934700,7.2119345703125,0.5488623976707458,-0.669966459274292,0.717308521270752
1748140849871193900,7.23019384765625,0.7147123217582703,-1.306793451309204,0.6372851729393005
1748140849889462800,7.248462890625,0.23319780826568604,-1.7637206315994263,0.24068090319633484
1748140849907722200,7.26672216796875,-0.4046982228755951,-0.6548475623130798,0.04566217586398125
1748140849925985800,7.28498583984375,-0.4161519408226013,0.8252789378166199,-0.10613783448934555
1748140849944247600,7.30324755859375,0.1895209401845932,0.6272059082984924,-0.447000652551651
1748140849962512000,7.321511962890625,0.3445279896259308,0.77472984790802,-0.4395175576210022
1748140849980773600,7.339773681640625,0.1267545372247696,0.6113234162330627,-0.06215553730726242
1748140849999037400,7.358037353515625,0.10018189996480942,0.04566217586398125,0.23716843128204346
1748140850017299200,7.37629931640625,0.3666718602180481,0.06765332818031311,0.8248208165168762
1748140850035555800,7.394555908203125,0.3927863538265228,-0.1621847152709961,1.0057896375656128
1748140850053824800,7.41282470703125,0.5097670555114746,-0.3692680299282074,0.790154218673706
1748140850072078600,7.43107861328125,0.6050620079040527,0.15515977144241333,0.3933972120285034
1748140850090350600,7.4493505859375,0.7012733221054077,0.45204028487205505,-0.012217304669320583
1748140850108600800,7.467600830078125,0.04230241850018501,0.8037459254264832,-0.18799377977848053
1748140850126876200,7.485876220703125,-0.3822489380836487,0.34544429183006287,0.03940080851316452
1748140850145140500,7.504140380859375,-0.5873469114303589,-0.6638578176498413,0.42959097027778625
1748140850163402200,7.52240234375,-0.8155050873756409,-1.7218763828277588,0.5791002511978149
1748140850181663200,7.540663330078125,-1.1381946802139282,-0.5734497308731079,0.1976149082183838
1748140850199931000,7.558930908203125,-1.1368201971054077,0.005345070734620094,0.32620203495025635
1748140850218192000,7.57719189453125,-1.4072808027267456,0.5083925724029541,0.6737843751907349
1748140850236453400,7.595453369140625,-1.7209601402282715,-0.3700316250324249,0.7538077235221863
1748140850254717400,7.613717529296875,-2.2041544914245605,-2.448042392730713,0.5152648091316223
1748140850272979200,7.631979248046875,-2.9637653827667236,-4.985118389129639,-0.1976149082183838
1748140850291240200,7.650240234375,-3.2087223529815674,-6.1459150314331055,-1.8582520484924316
1748140850309508000,7.668508056640625,-2.4921774864196777,-5.106527805328369,-2.900235414505005
1748140850327768800,7.686768798828125,-1.5001323223114014,-2.9210047721862793,-2.830291509628296
1748140850346030800,7.70503076171875,-0.6520986557006836,1.0517572164535522,-1.821447491645813
1748140850364295000,7.723294921875,-0.08475755155086517,3.8767035007476807,-0.6104071140289307
1748140850382556400,7.741556396484375,0.4411974251270294,2.660928964614868,-0.9966266751289368
1748140850400820500,7.759820556640625,-0.04108068719506264,2.194533348083496,-1.5219707489013672
1748140850419082200,7.778082275390625,-0.7324274182319641,1.9393444061279297,-1.903914213180542
1748140850437346300,7.79634619140625,-1.0057896375656128,0.9531024694442749,-2.5117251873016357
1748140850455604700,7.814604736328125,-0.9477574229240417,0.5067127346992493,-2.6644415855407715
1748140850473874700,7.832874755859375,-0.5477933883666992,1.1928671598434448,-2.4252877235412598
1748140850492134000,7.8511337890625,-0.4153883755207062,2.137875556945801,-2.068084239959717
1748140850510398000,7.86939794921875,-0.827111542224884,2.1791090965270996,-1.6044375896453857
1748140850528659500,7.887659423828125,-0.9494373202323914,1.326035737991333,-1.4407256841659546
1748140850546923500,7.905923583984375,-0.7145596146583557,1.129489779472351,-1.4445436000823975
1748140850565185500,7.924185546875,-0.9221010804176331,0.7641924023628235,-1.292285442352295
1748140850583449000,7.942448974609375,-1.5763378143310547,0.27641651034355164,-0.9208793640136719
1748140850601711000,7.960711181640625,-1.7114917039871216,-0.10186178237199783,-1.1809552907943726
1748140850619975000,7.978974853515625,-1.5221234560012817,0.761443555355072,-1.0088438987731934
1748140850638236700,7.997236572265625,-1.971109390258789,1.0364855527877808,-0.607810914516449
1748140850656500500,8.01550048828125,-2.3524420261383057,0.547182559967041,-0.6328563690185547
1748140850674762800,8.0337626953125,-2.3802363872528076,1.0760390758514404,-0.7973318696022034
1748140850693026300,8.0520263671875,-2.5298984050750732,1.7127134799957275,-1.0566442012786865
1748140850711285200,8.07028515625,-2.3492350578308105,1.1397218704223633,-1.2709051370620728
1748140850729539800,8.088539794921875,-1.9443840980529785,1.4637858867645264,-1.015868902206421
1748140850747817200,8.106817138671875,-1.6352862119674683,1.6044375896453857,-1.1178834438323975
1748140850766078000,8.125077880859376,-1.4833335876464844,2.023491144180298,-1.0216721296310425
1748140850784339700,8.143339599609375,-1.1595749855041504,2.6587910652160645,-0.8171849846839905
1748140850802603500,8.161603515625,-0.864679753780365,3.088076591491699,-0.8429940342903137
1748140850820865500,8.179865478515625,-0.5902485251426697,3.5436291694641113,-0.6305656433105469
1748140850839129600,8.198129638671874,-0.3303253948688507,3.6523633003234863,-0.26633724570274353
1748140850857388500,8.216388427734374,-0.2808452844619751,3.4429893493652344,0.23655757308006287
1748140850875658000,8.234657958984375,-0.375071257352829,3.7007744312286377,0.7695375084877014
1748140850893914000,8.2529140625,-0.5091561675071716,4.722599029541016,1.0073168277740479
1748140850912184000,8.27118408203125,-1.2084441184997559,4.7693305015563965,1.067945122718811
1748140850930442800,8.28944287109375,-1.1673635244369507,3.8734965324401855,0.6879869699478149
1748140850948706600,8.30770654296875,-1.0800096988677979,3.785226583480835,0.13347405195236206
1748140850966968600,8.325968505859375,-1.3796391487121582,4.1468586921691895,-0.16920967400074005
1748140850985232400,8.344232421875,-0.6305656433105469,3.4127514362335205,-0.5590944290161133
1748140851003494100,8.362494140625,0.31322115659713745,2.796693801879883,-0.922711968421936
1748140851021758500,8.380758544921875,0.327271044254303,3.0970869064331055,-1.070388674736023
1748140851040020000,8.39902001953125,-0.42791110277175903,2.5199718475341797,-1.19912850856781
1748140851058284000,8.417283935546875,-1.2767083644866943,1.5745052099227905,-0.9935722947120667
1748140851076545800,8.4355458984375,-1.5178474187850952,0.6038402915000916,-0.4951062798500061
1748140851094809600,8.4538095703125,-1.069472312927246,0.8422304391860962,0.1820378452539444
1748140851113071000,8.472071044921876,-0.1661553531885147,0.6536257863044739,-0.02733621932566166
1748140851131334400,8.49033447265625,0.27611109614372253,0.5337435007095337,-0.8280278444290161
1748140851149598200,8.50859814453125,0.09269879758358002,1.0044151544570923,-1.0374019145965576
1748140851167861200,8.526861328125,-0.19456058740615845,1.563356876373291,-0.8781188130378723
1748140851186123000,8.545123046875,-0.523511528968811,1.814880609512329,-0.8115344643592834
1748140851204387000,8.563386962890625,-0.9378308653831482,1.7655532360076904,-0.542142927646637
1748140851222648800,8.58164892578125,-0.7852672934532166,1.2160799503326416,-0.16768251359462738
1748140851240913000,8.599912841796876,0.045204028487205505,0.42867469787597656,-0.07330382615327835
1748140851259174400,8.61817431640625,0.17272214591503143,0.4415028691291809,-0.3251330256462097
1748140851277438500,8.6364384765625,-0.22082778811454773,0.9810495972633362,-0.3998112976551056
1748140851295700200,8.6547001953125,-0.7064656615257263,0.9332493543624878,0.15393804013729095
1748140851313963800,8.6729638671875,-0.8739954233169556,0.3781255781650543,0.8895725011825562
1748140851332226000,8.69122607421875,-0.5694791078567505,-0.1511891484260559,1.0276280641555786
1748140851350490000,8.709489990234376,-0.05451972410082817,-0.03680463135242462,0.47937649488449097
1748140851368751600,8.727751708984375,0.25335636734962463,0.39324450492858887,-0.04230241850018501
1748140851387015700,8.746015625,0.2102903574705124,0.6739370822906494,-0.1440114825963974
1748140851405277400,8.76427734375,0.022449297830462456,0.7060074806213379,-0.17852537333965302
1748140851423541500,8.78254150390625,-0.15241087973117828,0.6627888083457947,-0.29474249482154846
1748140851441803300,8.80080322265625,-0.17638733983039856,0.4268420934677124,-0.3436116874217987
1748140851460067000,8.819067138671874,-0.07590000331401825,0.2532036304473877,0.0377209298312664
1748140851478328800,8.837328857421875,0.07040221989154816,-0.09728029370307922,0.4072943925857544
1748140851496593000,8.855593017578125,0.17730364203453064,-0.10674870014190674,0.40301835536956787
1748140851514854100,8.873854248046875,0.17562375962734222,0.038026362657547,0.07009678333997726
1748140851533119000,8.892118896484375,0.12140946835279465,0.3527746796607971,-0.2716823220252991
1748140851551368400,8.910368408203125,-0.02977968007326126,0.6035348773002625,-0.5112941861152649
1748140851569644500,8.92864453125,-0.10354165732860565,0.7867944240570068,-0.709061861038208
1748140851587905800,8.94690576171875,-0.03833179548382759,0.6588181853294373,-0.7122688889503479
1748140851606171000,8.9651708984375,0.02779436856508255,0.32788193225860596,-0.37797287106513977
1748140851624431900,8.983431884765626,0.07956519722938538,0.20387627184391022,-0.06215553730726242
1748140851642696200,9.0016962890625,0.11255192011594772,0.294895201921463,-0.03573561832308769
1748140851660957700,9.019957763671876,0.1414152979850769,0.294895201921463,-0.0858265683054924
1748140851679218700,9.03821875,0.20341812074184418,0.21380282938480377,-0.014966198243200779
1748140851697486800,9.05648681640625,0.23671028017997742,0.10659598559141159,0.05696318298578262
1748140851715747600,9.07474755859375,0.21319197118282318,0.06841690838336945,0.02474004216492176
1748140851734009300,9.09300927734375,0.14034628868103027,0.06887505948543549,0.010995574295520782
1748140851752273200,9.111273193359375,0.11255192011594772,0.08231408894062042,0.01191187184303999
1748140851770535200,9.12953515625,0.0907134860754013,0.16523905098438263,0.03405573591589928
1748140851788796200,9.147796142578125,0.0884227454662323,0.342695415019989,-0.06200282275676727
1748140851807064000,9.16606396484375,0.07819075137376785,0.5145012736320496,-0.2854267954826355
1748140851825324500,9.184324462890626,0.10995574295520782,0.6125451326370239,-0.44425174593925476
1748140851843586600,9.202586669921875,0.18112154304981232,0.5969680547714233,-0.4072943925857544
1748140851861850000,9.22085009765625,0.27947086095809937,0.4870123267173767,-0.20295998454093933
1748140851880112400,9.2391123046875,0.28725937008857727,0.37568211555480957,0.09392052888870239
1748140851898376200,9.257376220703126,0.25274550914764404,0.32162055373191833,0.31932979822158813
1748140851916638200,9.27563818359375,0.18814650177955627,0.304210901260376,0.33017265796661377
1748140851934902300,9.29390234375,0.2791654169559479,0.11423180252313614,0.19333885610103607
1748140851953163500,9.31216357421875,0.5418374538421631,0.14508049190044403,0.054367005825042725
1748140851971425500,9.330425537109376,0.6298020482063293,-0.05390885844826698,-0.03329215571284294
1748140851989689300,9.348689453125,0.5786421298980713,0.1385136991739273,0.06750060617923737
1748140852007953700,9.36695361328125,0.43386703729629517,0.11438451707363129,0.1371392458677292
1748140852026215700,9.385215576171875,0.3787364661693573,0.19578230381011963,0.15195272862911224
1748140852044479200,9.403479248046875,0.39797869324684143,0.04199698567390442,0.15546520054340363
1748140852062741200,9.4217412109375,0.4346306324005127,-0.3156646192073822,0.3150537610054016
1748140852081005300,9.44000537109375,0.5103778839111328,-0.49144110083580017,0.5761986374855042
1748140852099266800,9.458266845703125,0.5641340613365173,-0.5177083015441895,0.6490443348884583
1748140852117531100,9.47653125,0.6444628238677979,-0.30802878737449646,0.4986187517642975
1748140852135780900,9.49478076171875,0.7469354867935181,-0.05100724846124649,0.19486601650714874
1748140852154056400,9.513056396484375,0.7422012686729431,0.11255192011594772,-0.12003502249717712
1748140852172318700,9.531318603515626,0.6183483600616455,0.28649580478668213,-0.33628132939338684
1748140852190582800,9.549582763671875,0.3136793076992035,0.28649580478668213,-0.4196644127368927
1748140852208844300,9.56784423828125,-0.013591751456260681,0.16768251359462738,-0.34116822481155396
1748140852227107800,9.58610791015625,-0.09758572280406952,0.036041051149368286,-0.24083362519741058
1748140852245370000,9.6043701171875,0.08750644326210022,0.03649919852614403,-0.16630806028842926
1748140852263634200,9.62263427734375,0.4343251883983612,0.043676864355802536,-0.1794416606426239
1748140852281895000,9.64089501953125,0.7724391222000122,0.022602014243602753,-0.1670716404914856
1748140852300159700,9.65915966796875,0.940732479095459,-0.05467243865132332,-0.05406157299876213
1748140852318422800,9.6774228515625,0.8278751373291016,-0.06994406878948212,0.1563815027475357
1748140852336685300,9.695685302734375,0.5760459303855896,-0.0555887371301651,0.3208569586277008
1748140852354949000,9.71394921875,0.4112650156021118,-0.04337143152952194,0.3410155177116394
1748140852373209300,9.732209228515625,0.266184538602829,-0.029932396486401558,0.24923302233219147
1748140852391468000,9.750468017578125,0.21762074530124664,-0.12202033400535583,0.061391957104206085
1748140852409737500,9.768737548828126,0.3591887652873993,-0.21212296187877655,-0.17791450023651123
1748140852427998700,9.786998779296875,0.45524731278419495,-0.1849394589662552,-0.3032945990562439
1748140852446263000,9.805262939453126,0.34895676374435425,-0.21533000469207764,-0.11698069423437119
1748140852464520700,9.823520751953126,0.13607023656368256,-0.2768746614456177,0.19532416760921478
1748140852482784000,9.841783935546875,-0.12308934330940247,-0.16249015927314758,0.3871358633041382
1748140852501049600,9.860049560546875,-0.24236078560352325,-0.2223549485206604,0.5135849714279175
1748140852519315700,9.878315673828125,-0.21960605680942535,-0.47189339995384216,0.4369213581085205
1748140852537576000,9.896575927734375,-0.06918048858642578,-0.4440990388393402,0.1820378452539444
1748140852555837200,9.914837158203126,-0.01542434748262167,-0.4138612151145935,-0.06017022579908371
1748140852574102000,9.93310205078125,-0.01817324012517929,-0.24419337511062622,-0.24877487123012543
1748140852592365800,9.95136572265625,-0.0377209298312664,-0.16982053220272064,-0.28206703066825867
1748140852610625300,9.969625244140625,-0.12064588814973831,-0.2837468981742859,-0.14416420459747314
1748140852628895200,9.987895263671875,-0.2701551616191864,-0.4236350357532501,0.06505715101957321
1748140852647153000,10.00615283203125,-0.3732386529445648,-0.432034432888031,0.22052235901355743
1748140852665417500,10.02441748046875,-0.38209620118141174,-0.4138612151145935,0.289244681596756
1748140852683679200,10.04267919921875,-0.3367394804954529,-0.31031954288482666,0.3686571717262268
1748140852701940700,10.060940673828124,-0.2765692472457886,-0.25503623485565186,0.35873061418533325
1748140852720207600,10.07920751953125,-0.23396138846874237,-0.21930062770843506,0.1739438772201538
1748140852738465000,10.097465087890624,-0.10445795953273773,0.09529497474431992,-0.20525072515010834
1748140852756731100,10.115731201171876,-0.08796459436416626,0.12140946835279465,-0.6210972666740417
1748140852774995000,10.133994873046875,0.02428189292550087,0.2739730477333069,-0.9292787313461304
1748140852793256400,10.15225634765625,0.16844609379768372,0.24908030033111572,-1.1012372970581055
1748140852811520800,10.170520751953125,0.1889100819826126,0.0328340083360672,-0.993114173412323
1748140852829782500,10.188782470703124,0.04581489413976669,-0.33857205510139465,-0.5858197808265686
1748140852848046600,10.207046630859375,-0.13897185027599335,-0.5061018466949463,-0.11438451707363129
1748140852866308000,10.22530810546875,-0.28420504927635193,-0.4479169547557831,0.1498146951198578
1748140852884572200,10.243572265625,-0.370947927236557,-0.21365012228488922,0.05115996301174164
1748140852902834200,10.261834228515625,-0.39965859055519104,0.28725937008857727,-0.12034045159816742
1748140852921098000,10.280097900390626,-0.4216497242450714,0.6264423131942749,-0.15714508295059204
1748140852939359700,10.29835986328125,-0.41859540343284607,0.694248378276825,-0.0679587572813034
1748140852957623800,10.316623779296876,-0.3430008292198181,0.6033821702003479,0.01038470957428217
1748140852975875600,10.33487548828125,-0.2715296149253845,0.5134322643280029,0.001679879380390048
1748140852994148600,10.353148681640626,-0.2817615866661072,0.45036038756370544,-0.05451972410082817
1748140853012410400,10.371410400390625,-0.26313021779060364,0.2782491147518158,-0.10262536257505417
1748140853030676700,10.3896767578125,-0.2099849283695221,0.046731192618608475,-0.11988230794668198
1748140853048936000,10.40793603515625,-0.16814066469669342,-0.20143280923366547,-0.1508837193250656
1748140853067202300,10.426202392578125,-0.12690725922584534,-0.2692388594150543,-0.2942843437194824
1748140853085459000,10.444458984375,-0.09773843735456467,-0.1586722433567047,-0.42348232865333557
1748140853103727000,10.46272705078125,-0.16630806028842926,-0.12782354652881622,-0.3877467215061188
1748140853121988900,10.48098876953125,-0.18738290667533875,-0.03878994286060333,-0.21242839097976685
1748140853140255000,10.4992548828125,-0.20372356474399567,-0.05925392732024193,-0.01664607785642147
1748140853158518300,10.517518310546874,-0.1944078654050827,-0.14095716178417206,0.0988074541091919
1748140853176778500,10.535778564453125,-0.15241087973117828,-0.08765916526317596,0.07819075137376785
1748140853195040300,10.554040283203125,-0.08491026610136032,0.08689557760953903,0.03145955875515938
1748140853213304300,10.57230419921875,-0.05375614017248154,0.12018773704767227,-0.00366519158706069
1748140853231566000,10.590566162109376,-0.02779436856508255,0.07452555745840073,-0.016798794269561768
1748140853249830400,10.608830322265625,-0.06001751124858856,-0.05360342562198639,0.06688974797725677
1748140853268091000,10.6270908203125,-0.009010262787342072,-0.019853120669722557,0.15363261103630066
1748140853286357500,10.645357421875,0.009773843921720982,-0.016035212203860283,0.15332718193531036
1748140853304617700,10.66361767578125,0.050854530185461044,0.0429132841527462,0.08048149943351746
1748140853322882000,10.681882080078125,0.05100724846124649,0.13775011897087097,-0.003817907767370343
1748140853341143600,10.7001435546875,0.020922135561704636,0.18997909128665924,-0.06291911751031876
1748140853359407600,10.71840771484375,0.013897184282541275,0.22113321721553802,-0.09560041129589081
1748140853377669400,10.73666943359375,0.013439035043120384,0.256868839263916,-0.08994990587234497
1748140853395932400,10.754932373046875,0.030237829312682152,0.19318613409996033,-0.03573561832308769
1748140853414196200,10.7731962890625,0.02932153269648552,0.07177666574716568,0.013133603148162365
1748140853432455700,10.79145556640625,-0.02367102913558483,0.08597928285598755,0.025656340643763542
1748140853450717200,10.80971728515625,-0.027488935738801956,0.0555887371301651,0.09987647086381912
1748140853468988700,10.82798876953125,-0.02580905705690384,-0.08338310569524765,0.22510384023189545
1748140853487246800,10.846246826171875,-0.025503624230623245,-0.23686300218105316,0.3205515444278717
1748140853505506800,10.8645068359375,-0.08765916526317596,-0.2889392673969269,0.346818745136261
1748140853523772400,10.8827724609375,-0.10399980843067169,-0.18936823308467865,0.29046642780303955
1748140853542036700,10.90103662109375,-0.13545936346054077,-0.20723603665828705,0.26771169900894165
1748140853560299500,10.919299560546875,-0.14676037430763245,-0.1010981947183609,0.11927144229412079
1748140853578561500,10.9375615234375,-0.15729780495166779,0.03787364438176155,-0.0455094613134861
1748140853596824000,10.955823974609375,-0.12247848510742188,0.24404066801071167,-0.12446379661560059
1748140853615088000,10.974088134765625,-0.1469130963087082,0.3501785099506378,-0.08170322328805923
1748140853633349600,10.992349609375,-0.11530081182718277,0.2620611786842346,0.0630718395113945
1748140853651614000,11.010614013671875,-0.048258353024721146,0.08139779418706894,0.2945897579193115
1748140853669876000,11.0288759765625,0.006719517521560192,-0.02932153269648552,0.48258355259895325
1748140853688139800,11.047139892578125,0.14065171778202057,0.23594669997692108,0.2646573781967163
1748140853706390000,11.06539013671875,0.26908615231513977,0.7538077235221863,-0.2945897579193115
1748140853724661200,11.0836611328125,0.36942076683044434,1.0824532508850098,-0.740368664264679
1748140853742926000,11.101926025390625,0.31413745880126953,1.204779028892517,-0.7096726894378662
1748140853761191700,11.120191650390625,-0.07162395119667053,0.29626965522766113,-0.22937989234924316
1748140853779458000,11.1384580078125,-0.17898350954055786,-0.14553864300251007,-0.1293507218360901
1748140853797717200,11.15671728515625,-0.16890424489974976,-0.28069257736206055,-0.23976461589336395
1748140853815979000,11.17497900390625,-0.13820825517177582,-0.4602869749069214,-0.3341432809829712
1748140853834242800,11.193242919921875,-0.0988074541091919,-0.6629415154457092,-0.19196440279483795
1748140853852500200,11.211500244140625,-0.14248432219028473,-0.7476990818977356,0.31352660059928894
1748140853870769000,11.229768798828125,-0.22372940182685852,-0.8573493957519531,0.854905903339386
1748140853889030700,11.24803076171875,-0.016798794269561768,-0.9033169746398926,1.1276572942733765
1748140853907294700,11.266294677734376,0.0013744467869400978,-0.5586362481117249,1.2473868131637573
1748140853925544000,11.2845439453125,-0.10903944820165634,-0.2591595947742462,1.1293370723724365
1748140853943823400,11.3028232421875,-0.18188512325286865,-0.019394971430301666,0.7473936080932617
1748140853962082300,11.321082275390625,-0.26710084080696106,0.24556782841682434,0.25473082065582275
1748140853980346400,11.339346435546876,-0.32940909266471863,0.3901901841163635,-0.2344195395708084
1748140853998608100,11.357608154296875,-0.3222314119338989,0.3620903789997101,-0.6192646622657776
1748140854016872000,11.375871826171876,-0.2551889419555664,0.2968805134296417,-0.746019184589386
1748140854035133700,11.3941337890625,-0.12064588814973831,0.027488935738801956,-0.6348416805267334
1748140854053397800,11.412397705078124,0.026572637259960175,-0.2102903574705124,-0.39538252353668213
1748140854071659300,11.4306591796875,0.08292495459318161,-0.3271183371543884,-0.19486601650714874
1748140854089922600,11.448922607421874,0.05696318298578262,-0.22678372263908386,-0.11224649101495743
1748140854108186600,11.4671865234375,-0.02015855349600315,-0.03222314268350601,-0.10934487730264664
1748140854126452700,11.48545263671875,-0.08338310569524765,0.08368854224681854,-0.1846340149641037
1748140854144706600,11.50370654296875,-0.10461067408323288,0.19043724238872528,-0.3423899710178375
1748140854162975500,11.5219755859375,-0.1258382350206375,0.26542094349861145,-0.4625777006149292
1748140854181234200,11.540234130859375,-0.1333213448524475,0.22647829353809357,-0.4980078935623169
1748140854199500500,11.55850048828125,-0.1411098688840866,0.078343465924263,-0.5167919993400574
1748140854217762800,11.5767626953125,-0.028099801391363144,-0.03451388701796532,-0.5849034786224365
1748140854236027100,11.595027099609375,0.22968533635139465,-0.016798794269561768,-0.5952881574630737
1748140854254289000,11.613288818359376,0.5314527750015259,-0.027947084978222847,-0.4317290186882019
1748140854272552700,11.631552734375,0.6417139172554016,-0.03191770985722542,-0.18829920887947083
1748140854290814500,11.649814453125,0.5050328373908997,0.08216137439012527,0.024434609338641167
1748140854309078800,11.668078857421875,0.26969701051712036,0.12660181522369385,0.17531833052635193
1748140854327340500,11.686340576171874,0.15882496535778046,0.08827003091573715,0.2093740701675415
1748140854345604600,11.7046044921875,0.11682797968387604,-0.076052725315094,0.13118331134319305
1748140854363861500,11.722861572265625,0.128434419631958,-0.18967366218566895,0.047189339995384216
1748140854382129000,11.74112890625,0.12568552792072296,-0.1742493063211441,-0.040164388716220856
1748140854400393500,11.7593935546875,0.043676864355802536,-0.040622539818286896,-0.05619960278272629
1748140854418656000,11.777656005859376,-0.0354301854968071,0.07223481684923172,0.023518312722444534
1748140854436917000,11.7959169921875,-0.035582900047302246,0.02672535367310047,0.096211276948452
1748140854455171300,11.81417138671875,0.05696318298578262,-0.11194105446338654,0.07009678333997726
1748140854473444000,11.832444091796875,0.1647808998823166,-0.1791362315416336,0.005497787147760391
1748140854491708200,11.850708251953124,0.22067506611347198,-0.2301434874534607,0.06368270516395569
1748140854509970000,11.868969970703125,0.19532416760921478,-0.33460143208503723,0.24068090319633484
1748140854528233700,11.887233642578124,0.1472185254096985,-0.47250425815582275,0.3735440969467163
1748140854546491100,11.9054912109375,0.1333213448524475,-0.5772676467895508,0.41233405470848083
1748140854564755700,11.923755615234375,0.20525072515010834,-0.6064364910125732,0.43447789549827576
1748140854583021000,11.94202099609375,0.2713768780231476,-0.5862779021263123,0.5138903856277466
1748140854601282600,11.960282470703126,0.18814650177955627,-0.5636758804321289,0.599564254283905
1748140854619550000,11.978550048828126,-0.05421429127454758,-0.594524621963501,0.5455026626586914
1748140854637811200,11.996811279296875,-0.35414913296699524,-0.4531092941761017,0.289244681596756
1748140854656073000,12.015072998046875,-0.4847215712070465,-0.18127426505088806,0.029474247246980667
1748140854674336800,12.033336669921875,-0.40286561846733093,-0.19120082259178162,-0.04734205827116966
1748140854692599000,12.05159912109375,-0.19975294172763824,-0.33826664090156555,0.060322944074869156
1748140854710863400,12.06986328125,-0.12202033400535583,-0.561079740524292,0.1918116807937622
1748140854729124600,12.08812451171875,-0.1840231567621231,-0.8112290501594543,0.2542726695537567
1748140854747388400,12.106388427734375,-0.24113905429840088,-0.993725061416626,0.2548835277557373
1748140854765650700,12.124650634765626,-0.251218318939209,-1.1325441598892212,0.16569720208644867
1748140854783913500,12.14291357421875,-0.2945897579193115,-1.1087204217910767,0.011453723534941673
1748140854802177300,12.16117724609375,-0.2848159074783325,-0.782976508140564,-0.1794416606426239
1748140854820440800,12.17944091796875,-0.16920967400074005,-0.4434881806373596,-0.3790418803691864
1748140854838702000,12.1977021484375,-0.03726277872920036,-0.2565633952617645,-0.498924195766449
1748140854856966000,12.2159658203125,0.03741549700498581,-0.22052235901355743,-0.4795292317867279
1748140854875227600,12.2342275390625,0.06200282275676727,-0.30741792917251587,-0.2739730477333069
1748140854893487000,12.252487060546875,0.017867809161543846,-0.513126790523529,-0.01664607785642147
1748140854911753500,12.27075341796875,-0.06169738993048668,-0.711963415145874,0.09239336848258972
1748140854930018000,12.28901806640625,-0.1238529309630394,-0.48640143871307373,-0.09178250283002853
1748140854948279300,12.307279296875,-0.17119498550891876,0.10644327104091644,-0.6154467463493347
1748140854966543600,12.325543701171876,-0.15561792254447937,0.44318273663520813,-0.9944885969161987
1748140854984801500,12.343801513671876,-0.204487144947052,0.5082398653030396,-0.8657487630844116
1748140855003069400,12.3620693359375,-0.2767219543457031,0.35033121705055237,-0.3026837408542633
1748140855021331200,12.380331298828125,-0.3075706362724304,-0.01817324012517929,0.304210901260376
1748140855039595300,12.39859521484375,-0.21823160350322723,-0.3220787048339844,0.5387831330299377
1748140855057857000,12.41685693359375,-0.020922135561704636,-0.361174076795578,0.41141775250434875
1748140855076121000,12.43512109375,0.12034045159816742,-0.19303341209888458,0.22647829353809357
1748140855094370800,12.453370849609374,0.11988230794668198,-0.018325956538319588,0.06551529467105865
1748140855112647000,12.47164697265625,0.0705549344420433,0.1518000066280365,-0.052228979766368866
1748140855130905900,12.48990576171875,-0.035582900047302246,0.1843285858631134,-0.14813482761383057
1748140855149174500,12.508174560546875,-0.15057829022407532,0.16722436249256134,-0.23808473348617554
1748140855167436300,12.526436279296876,-0.2145664244890213,0.20387627184391022,-0.26939156651496887
1748140855185698600,12.544698486328125,-0.22143864631652832,0.2822197377681732,-0.24113905429840088
1748140855203960600,12.562960693359376,-0.21594086289405823,0.46761733293533325,-0.12736541032791138
1748140855222224400,12.581224365234375,-0.22632557153701782,0.5722280144691467,-0.036651913076639175
1748140855240481800,12.599481689453125,-0.37171149253845215,0.6649268269538879,0.05360342562198639
1748140855258750500,12.61775048828125,-0.3269656300544739,0.632398247718811,0.1788308024406433
1748140855277012000,12.636011962890626,-0.23319780826568604,0.5190827250480652,0.23228150606155396
1748140855295268600,12.6542685546875,-0.2255619913339615,0.3703370690345764,0.1595885455608368
1748140855313537500,12.67253759765625,-0.1966986060142517,0.24159720540046692,0.005497787147760391
1748140855331802000,12.690802001953125,-0.1589776873588562,0.15913039445877075,-0.08765916526317596
1748140855350063900,12.70906396484375,-0.18875735998153687,0.1408044397830963,-0.06551529467105865
1748140855368327700,12.72732763671875,-0.25442537665367126,0.252287358045578,-0.02275473065674305
1748140855386580700,12.745580810546874,-0.28008171916007996,0.35934147238731384,0.020005837082862854
1748140855404852200,12.763852294921875,-0.2790127098560333,0.3205515444278717,0.06169738993048668
1748140855423116800,12.78211669921875,-0.3484986126422882,0.24877487123012543,0.12828169763088226
1748140855441379600,12.800379638671876,-0.346818745136261,0.247094988822937,0.1667662113904953
1748140855459641600,12.8186416015625,-0.2952006161212921,0.289244681596756,0.1667662113904953
1748140855477904100,12.836904052734376,-0.2675589919090271,0.2528982162475586,0.18051068484783173
1748140855496168200,12.855168212890625,-0.26404649019241333,0.22067506611347198,0.2687807083129883
1748140855514431000,12.873430908203124,-0.22449298202991486,0.19532416760921478,0.33246341347694397
1748140855532693000,12.89169287109375,-0.1690569519996643,0.2041817009449005,0.26022860407829285
1748140855550957300,12.909957275390624,-0.1514945775270462,0.31520646810531616,0.1563815027475357
1748140855569218600,12.928218505859375,-0.1463022232055664,0.46105054020881653,0.06429356336593628
1748140855587478000,12.94647802734375,-0.19318613409996033,0.52702397108078,0.04245513305068016
1748140855605745200,12.9647451171875,-0.26908615231513977,0.4579962193965912,0.0806342139840126
1748140855624009000,12.983009033203125,-0.3550654351711273,0.10262536257505417,0.07971791177988052
1748140855642270500,13.0012705078125,-0.3842342495918274,0.098502017557621,0.17333301901817322
1748140855660534800,13.01953466796875,-0.29764407873153687,0.29917123913764954,0.1466076523065567
1748140855678796500,13.037796630859376,-0.22831088304519653,0.30283644795417786,-0.016340645030140877
1748140855697060400,13.056060302734375,-0.13118331134319305,0.2658790946006775,-0.1281289905309677
1748140855715322400,13.074322265625,-0.08277224004268646,0.18738290667533875,-0.21105393767356873
1748140855733581600,13.09258154296875,-0.14492778480052948,0.18295414745807648,-0.20815233886241913
1748140855751848200,13.11084814453125,-0.16523905098438263,0.3553708493709564,-0.1264491081237793
1748140855770111200,13.129111328125,0.204487144947052,0.014813481830060482,0.17318029701709747
1748140855788375000,13.147375,0.36880987882614136,-0.26511552929878235,0.49846604466438293
1748140855806638000,13.16563818359375,0.13973543047904968,-0.7272350788116455,0.7228062748908997
1748140855824898800,13.18389892578125,-0.24724771082401276,-0.875064492225647,0.669966459274292
1748140855843165200,13.202165283203126,-0.6050620079040527,-0.5383250117301941,0.4908302128314972
1748140855861426000,13.220426025390625,-0.8098546266555786,-0.32681289315223694,0.23808473348617554
1748140855879690000,13.23868994140625,-0.8165740966796875,-0.17287486791610718,-0.005955935921519995
1748140855897952500,13.256952392578125,-0.584750771522522,-0.03573561832308769,-0.49205195903778076
1748140855916213500,13.275213623046875,-0.4444044530391693,-0.15073099732398987,-0.7322747111320496
1748140855934474200,13.29347412109375,-0.5426010489463806,0.5491678714752197,-1.0015136003494263
1748140855952741400,13.311741455078124,-0.5682573914527893,0.612850546836853,-0.88361656665802
1748140855971003400,13.33000341796875,-0.6388123035430908,0.13316862285137177,-0.6053674817085266
1748140855989262800,13.348262939453125,-0.7629706859588623,-0.20952677726745605,-0.4992296099662781
1748140856007529200,13.366529296875,-0.5905539989471436,-0.3263547718524933,-0.5542075037956238
1748140856025781200,13.38478125,-0.28267788887023926,-0.2554943859577179,-0.5021312236785889
1748140856044055000,13.403054931640625,-0.14645494520664215,-0.0656680166721344,-0.19868391752243042
1748140856062319000,13.421319091796875,0.06918048858642578,0.10002918541431427,0.2678644061088562
1748140856080580900,13.439580810546875,0.41722095012664795,0.5768095254898071,0.526107668876648
1748140856098845200,13.45784521484375,0.5623014569282532,0.5302310585975647,0.541532039642334
1748140856117106700,13.476106689453125,0.36132678389549255,0.1966986060142517,0.3956879675388336
1748140856135359000,13.49435888671875,0.18127426505088806,-0.03084869496524334,-0.16401731967926025
1748140856153632300,13.51263232421875,0.3413209617137909,0.03298672288656235,-1.0144944190979004
1748140856171895800,13.530895751953125,0.3952298164367676,-0.3459024429321289,-1.2554807662963867
1748140856190158300,13.549158447265626,0.3191770911216736,-1.0998629331588745,-0.6411030888557434
1748140856208424000,13.567423828125,0.1359175145626068,-2.216524600982666,-0.12950342893600464
1748140856226684400,13.585684326171876,0.2938261926174164,-3.0946433544158936,-0.3712533414363861
1748140856244946000,13.60394580078125,0.5820018649101257,-3.0854804515838623,-0.3643811047077179
1748140856263207400,13.62220751953125,0.660192608833313,-2.922532081604004,-0.044745877385139465
1748140856281470700,13.640470703125,0.5510004758834839,-2.9494102001190186,-0.038179077208042145
1748140856299736600,13.658736572265624,0.2909245789051056,-3.1448869705200195,-0.16691893339157104
1748140856318000400,13.67700048828125,0.09682214260101318,-3.291036605834961,-0.22617286443710327
1748140856336262100,13.69526220703125,0.09636399149894714,-3.620445489883423,-0.3019201457500458
1748140856354534400,13.713534423828126,0.25366178154945374,-4.239252090454102,-0.1443169116973877
1748140856372788200,13.731788330078125,0.47418415546417236,-4.851033687591553,0.08888089656829834
1748140856391052300,13.75005224609375,0.7451028823852539,-5.167614459991455,0.0039706239476799965
1748140856409313800,13.768313720703125,0.9967793822288513,-5.316207408905029,-0.3142901659011841
1748140856427577900,13.786577880859374,1.2809844017028809,-5.281388282775879,-0.6108652353286743
1748140856445837600,13.804837646484375,1.5893186330795288,-4.986645698547363,-0.736245334148407
1748140856473233000,13.83223291015625,1.9579758644104004,-4.5486555099487305,-0.6655376553535461
1748140856491494000,13.850493896484375,2.1200077533721924,-4.167322635650635,-0.584750771522522
1748140856509760800,13.8687607421875,1.9129245281219482,-3.567300319671631,-0.19792033731937408
1748140856528023300,13.887023193359376,1.9324722290039062,-3.4327571392059326,-0.11743884533643723
1748140856546286000,13.9052861328125,2.2238550186157227,-2.7759244441986084,-0.22831088304519653
1748140856564548900,13.923548828125,2.472935199737549,-2.015702486038208,-0.4349360466003418
1748140856582813000,13.94181298828125,2.573575258255005,-1.5320500135421753,-0.9101892113685608
1748140856601063200,13.960063232421875,2.7030787467956543,-1.605353832244873,-1.5824464559555054
1748140856619337700,13.978337646484375,2.6897923946380615,-1.455691933631897,-1.6988162994384766
1748140856637600500,13.9966005859375,2.125047445297241,-0.4547891616821289,-1.0757336616516113
1748140856655853000,14.01485302734375,1.8949040174484253,0.060475658625364304,-0.7417431473731995
1748140856674126300,14.033126220703124,1.7780760526657104,0.3686571717262268,-0.4960225820541382
1748140856692389600,14.0513896484375,1.727832317352295,0.8672759532928467,-0.38377609848976135
1748140856710652200,14.069652099609375,1.5738942623138428,1.153160810470581,-0.47479501366615295
1748140856728915500,14.08791552734375,1.4114041328430176,0.6858489513397217,-0.5978843569755554
1748140856747179500,14.106179443359375,1.2635747194290161,0.5096143484115601,-0.39156460762023926
1748140856765442000,14.124442138671874,0.6760751008987427,0.5108360648155212,-0.09285151958465576
1748140856783704000,14.1427041015625,0.022907447069883347,0.08674286305904388,0.10567969083786011
1748140856801963500,14.160963623046875,0.10216721147298813,-0.013591751456260681,0.08185594528913498
1748140856820229000,14.17922900390625,0.45173484086990356,0.34376442432403564,-0.08078692853450775
1748140856838481400,14.1974814453125,0.5665774941444397,0.5125159621238708,-0.47311514616012573
1748140856856756200,14.215756103515625,0.29856038093566895,0.33505958318710327,-0.9714284539222717
1748140856875019800,14.234019775390625,0.0936150997877121,0.41172316670417786,-0.8880453705787659
1748140856893279200,14.252279296875,0.050854530185461044,1.599703311920166,-0.503047525882721
1748140856911547600,14.270547607421875,-0.18035796284675598,2.0470094680786133,-0.8535314798355103
1748140856929808000,14.288807861328126,-0.10445795953273773,2.101987361907959,-0.9214902520179749
1748140856948072000,14.307072021484375,-0.15195272862911224,1.8851301670074463,-0.4352414906024933
1748140856966331000,14.325330810546875,-0.2727513313293457,1.4957035779953003,0.014049900695681572
1748140856984599800,14.343599853515625,-0.40775254368782043,1.2357803583145142,0.1817324161529541
1748140857002859800,14.36185986328125,-0.8384125232696533,1.0648908615112305,0.1498146951198578
1748140857021123800,14.380123779296875,-1.3046554327011108,0.7878634333610535,0.07009678333997726
1748140857039383000,14.398383056640625,-1.6125315427780151,0.3732386529445648,-0.03649919852614403
1748140857057646300,14.416646240234375,-2.0450241565704346,-0.3410155177116394,-0.11056660860776901
1748140857075910400,14.434910400390624,-2.4824037551879883,-1.132238745689392,-0.10445795953273773
1748140857094162000,14.453161865234375,-3.1557297706604004,-1.6340645551681519,0.09147707372903824
1748140857121560600,14.480560546875,-3.1279354095458984,-1.7863227128982544,-0.256868839263916
1748140857139834600,14.498834716796875,-3.4985780715942383,-1.5850425958633423,-0.6409503817558289
1748140857158083800,14.517083740234375,-2.986825704574585,-1.3750576972961426,-0.9162978529930115
1748140857176357000,14.535357177734374,-2.4669792652130127,-1.0421360731124878,-0.8659014701843262
1748140857194611200,14.553611083984375,-2.2209532260894775,-0.697760820388794,-0.5658139586448669
1748140857212882400,14.57188232421875,-1.6777414083480835,-0.3747658133506775,-0.35705074667930603
1748140857231149000,14.590149169921874,-1.2811371088027954,-0.07971791177988052,-0.5687155723571777
1748140857249409500,14.608409423828125,-0.9837985038757324,0.10735956579446793,-0.7509061098098755
1748140857267673900,14.626673828125,-0.6850853562355042,0.2921462953090668,-0.9234755635261536
1748140857285934000,14.64493408203125,-0.385303258895874,0.23029619455337524,-1.200197458267212
1748140857304200700,14.66320068359375,-0.1498146951198578,0.14385876059532166,-1.4427109956741333
1748140857322457000,14.68145703125,0.29565876722335815,0.4248567819595337,-1.486387848854065
1748140857340725800,14.699725830078124,0.5262604355812073,0.7053966522216797,-1.434922456741333
1748140857358982700,14.717982666015626,0.8303185701370239,0.3764457106590271,-1.4384349584579468
1748140857377251300,14.736251220703124,1.46424400806427,-0.19532416760921478,-1.3871222734451294
1748140857395509200,14.75450927734375,2.1485657691955566,-0.4622722864151001,-1.0575604438781738
1748140857413777200,14.772777099609375,3.2849278450012207,-0.5467243790626526,-0.33337971568107605
1748140857432039200,14.7910390625,4.3365325927734375,-0.4060726761817932,0.4063780903816223
1748140857450302500,14.809302490234375,4.185343265533447,-0.5450445413589478,0.8825475573539734
1748140857468566000,14.82756591796875,3.255453586578369,-1.2064588069915771,0.9802860021591187
1748140857486829300,14.845829345703125,2.7087292671203613,-1.817171335220337,0.9549350738525391
1748140857505090800,14.8640908203125,2.5161540508270264,-1.255022644996643,1.0955867767333984
1748140857523355100,14.882355224609375,2.771648406982422,0.294895201921463,1.291063666343689
1748140857541617200,14.9006171875,3.610060930252075,0.8526151776313782,1.131933331489563
1748140857559881200,14.918881103515625,3.3012685775756836,-0.15622878074645996,0.3170390725135803
1748140857578142700,14.937142822265624,3.2682816982269287,-0.9995282292366028,0.18295414745807648
1748140857596406500,14.955406494140625,3.5049920082092285,-1.3110694885253906,0.7191411256790161
1748140857614664200,14.973664306640625,3.5998289585113525,-1.7052303552627563,1.034194827079773
1748140857632931600,14.991931640625,3.9203803539276123,-1.9900462627410889,0.7110471725463867
1748140857651193600,15.010193603515624,4.09279727935791,-0.8594874143600464,0.09300423413515091
1748140857669458200,15.028458251953126,2.456900119781494,2.1419990062713623,-0.039248090237379074
1748140857687720400,15.046720458984375,0.4127921760082245,3.704745054244995,-0.024129176512360573
1748140857705984500,15.064984619140626,-0.45066583156585693,3.0560061931610107,0.10018189996480942
1748140857724246500,15.08324658203125,-0.42699480056762695,1.560302495956421,0.40515637397766113
1748140857751641900,15.110641845703125,-0.057879481464624405,-0.2422080636024475,0.7522805333137512
1748140857769903000,15.128903076171875,0.14263702929019928,-0.6186537742614746,0.4268420934677124
1748140857788168000,15.14716796875,0.1817324161529541,0.07987063378095627,0.03405573591589928
1748140857806429700,15.1654296875,0.06276640295982361,0.9317222237586975,-0.24434609711170197
1748140857824689400,15.183689453125,0.22800545394420624,0.9440922141075134,-0.33887749910354614
1748140857842954800,15.201954833984376,0.7490735054016113,0.46700647473335266,-0.4761694669723511
1748140857861219000,15.220218994140625,1.1091785430908203,-0.07192938029766083,-0.313373863697052
1748140857879477800,15.238477783203125,1.3242031335830688,-0.6110179424285889,0.17318029701709747
1748140857897745700,15.25674560546875,1.4993687868118286,-0.922711968421936,0.6398813724517822
1748140857916007400,15.27500732421875,1.5060882568359375,-0.9738719463348389,0.8316930532455444
1748140857934270500,15.2932705078125,1.5083789825439453,-0.864068865776062,0.7900014519691467
1748140857952533500,15.311533447265624,1.6314682960510254,-0.8749117255210876,0.6748533844947815
1748140857970797800,15.3297978515625,1.4344643354415894,-0.9266825914382935,0.4411974251270294
1748140857989059600,15.3480595703125,0.7970264554023743,-0.6954700946807861,-0.00931569468230009
1748140858007322400,15.366322265625,0.351400226354599,-0.027488935738801956,-0.34406983852386475
1748140858025585200,15.384585205078125,0.18509216606616974,1.0835222005844116,-0.27000242471694946
1748140858043849500,15.402849365234376,0.26343563199043274,1.693318486213684,-0.05146539583802223
1748140858062111500,15.421111572265625,0.39584067463874817,1.709811806678772,0.03451388701796532
1748140858080373200,15.439373291015626,0.45433104038238525,1.494939923286438,-0.029016099870204926
1748140858098638600,15.457638671875,0.36193767189979553,0.7385360598564148,-0.009010262787342072
1748140858116900400,15.475900390625,0.27748554944992065,0.37659841775894165,0.07437284290790558
1748140858135164700,15.49416455078125,0.23609942197799683,0.8475755453109741,-0.0006108652451075613
1748140858153426400,15.512426513671874,0.29917123913764954,0.9941831827163696,-0.2739730477333069
1748140858171684400,15.530684326171874,0.33368512988090515,0.8594874143600464,-0.6185010671615601
1748140858189952500,15.548952392578125,0.17959438264369965,0.7154759168624878,-0.9662361145019531
1748140858208216300,15.56721630859375,-0.08429940044879913,0.9175195693969727,-1.3458888530731201
1748140858226473500,15.585473388671875,-0.3194825351238251,1.4621059894561768,-1.6320792436599731
1748140858244736500,15.603736572265625,-0.3819434940814972,1.9172005653381348,-1.6360498666763306
1748140858263005200,15.622005126953125,-0.00427605677396059,1.0682506561279297,-1.5920675992965698
1748140858281263400,15.640263427734375,0.7286095023155212,-0.247094988822937,-2.0254764556884766
1748140858299534000,15.6585341796875,1.3487904071807861,-0.7686212062835693,-2.660623550415039
1748140858317793000,15.67679296875,1.5528194904327393,-0.24007004499435425,-3.112358331680298
1748140858336052500,15.695052490234374,0.7472409009933472,0.5233588218688965,-3.0694451332092285
1748140858354318800,15.71331884765625,0.30115658044815063,1.2428053617477417,-2.5199718475341797
1748140858372582100,15.73158203125,0.7157813310623169,1.7531832456588745,-1.9434677362442017
1748140858390846200,15.74984619140625,0.8694139719009399,1.8054121732711792,-1.581377387046814
1748140858409108000,15.76810791015625,0.8344419002532959,1.8223637342453003,-1.4498887062072754
1748140858427364400,15.7863642578125,0.70692378282547,2.1033618450164795,-1.2724323272705078
1748140858445635800,15.8046357421875,0.4738787114620209,2.152078151702881,-0.997237503528595
1748140858463895800,15.822895751953125,0.4153883755207062,1.7493653297424316,-0.7843509912490845
1748140858482162400,15.841162353515625,0.6052147150039673,0.9068294763565063,-0.7047857642173767
1748140858500423000,15.8594228515625,0.6966918110847473,-0.06169738993048668,-0.631481945514679
1748140858518686000,15.87768603515625,0.5222898125648499,-0.6085745096206665,-0.484416127204895
1748140858536950500,15.895950439453125,0.21594086289405823,-0.7170031070709229,-0.3897320330142975
1748140858555211300,15.914211181640624,0.09896016865968704,-0.7533495426177979,-0.4421137273311615
1748140858573470200,15.93247021484375,0.2116648107767105,-0.6056728959083557,-0.6188064813613892
1748140858591738000,15.950738037109375,0.34574973583221436,-0.027183502912521362,-0.7263187766075134
1748140858610001200,15.969001220703126,0.4115704596042633,0.8452847599983215,-0.7660250067710876
1748140858628259000,15.987259033203125,0.40194934606552124,1.540602207183838,-0.8371908068656921
1748140858646531800,16.00553173828125,0.32757648825645447,1.7857118844985962,-0.8775079250335693
1748140858664785200,16.02378515625,0.35414913296699524,1.5066990852355957,-0.6736316680908203
1748140858683041300,16.042041259765625,0.4392121136188507,0.6017022728919983,-0.33918291330337524
1748140858701315800,16.06031591796875,0.384845107793808,-0.346818745136261,-0.01114829070866108
1748140858719574000,16.078573974609377,0.29168814420700073,-0.9578366875648499,0.22357667982578278
1748140858737841700,16.096841552734375,0.2606867551803589,-1.3492486476898193,0.3113885521888733
1748140858756104400,16.1151044921875,0.2151772826910019,-1.490511178970337,0.22708915174007416
1748140858774368800,16.13336865234375,0.26801711320877075,-1.1119275093078613,0.11881329119205475
1748140858792630500,16.151630615234374,0.22113321721553802,-0.3039054572582245,0.048258353024721146
1748140858810893300,16.169893310546875,0.16844609379768372,0.4268420934677124,-0.00855211354792118
1748140858829157400,16.188157470703125,0.13041973114013672,0.654542088508606,-0.03527746722102165
1748140858847420700,16.206420654296874,0.13148874044418335,0.40256020426750183,0.035582900047302246
1748140858865682400,16.224682373046875,0.22143864631652832,-0.20555615425109863,0.15485434234142303
1748140858883947300,16.242947265625,0.25671613216400146,-0.7695375084877014,0.21670444309711456
1748140858902207000,16.26120703125,0.23976461589336395,-0.7715228199958801,0.29886582493782043
1748140858920468000,16.279468017578125,0.14828753471374512,-0.1765400618314743,0.327271044254303
1748140858938729700,16.297729736328126,0.050854530185461044,0.7150177955627441,0.2295326143503189
1748140858956996600,16.31599658203125,0.04046982154250145,1.363909363746643,0.1472185254096985
1748140858975262200,16.33426220703125,0.03329215571284294,1.2886202335357666,0.22067506611347198
1748140858993524500,16.3525244140625,0.0039706239476799965,0.38576140999794006,0.37751471996307373
1748140859011786500,16.370786376953124,-0.0019853119738399982,-0.6882924437522888,0.4830417037010193
1748140859030049800,16.3890498046875,0.039248090237379074,-1.0335839986801147,0.4983133375644684
1748140859048312600,16.4073125,0.0656680166721344,-0.5464189648628235,0.44852781295776367
1748140859066576600,16.42557666015625,-0.06536258012056351,0.14614951610565186,0.3016147017478943
1748140859084834300,16.443834228515627,-0.2177734673023224,0.5006040930747986,0.15256360173225403
1748140859103101400,16.462101318359377,-0.24602597951889038,0.4607451260089874,0.07910704612731934
1748140859121364700,16.48036474609375,-0.18936823308467865,0.2837468981742859,0.032681290060281754
1748140859139628500,16.498628662109375,-0.13607023656368256,0.2785545587539673,-0.01878410577774048
1748140859157891300,16.516891357421876,-0.06414084881544113,0.46593746542930603,-0.04841107130050659
1748140859176152600,16.535152587890625,0.02382374368607998,0.5497786998748779,-0.06872233748435974
1748140859194411800,16.553411865234374,0.04352414980530739,0.4288274049758911,-0.06734789162874222
1748140859212679400,16.571679443359375,0.04596760869026184,0.17348572611808777,-0.04657847434282303
1748140859230942700,16.589942626953125,0.021838432177901268,-0.1508837193250656,-0.05161811411380768
1748140859249206500,16.60820654296875,-0.02733621932566166,-0.3520110845565796,-0.11728613078594208
1748140859267463700,16.626463623046874,-0.04077525436878204,-0.33307427167892456,-0.1797471046447754
1748140859285732600,16.644732666015624,-0.01817324012517929,-0.15454891324043274,-0.23808473348617554
1748140859303994600,16.66299462890625,-0.02825251780450344,-0.008704829961061478,-0.3156646192073822
1748140859322257200,16.681257080078126,-0.013744467869400978,-0.004581489134579897,-0.36819902062416077
1748140859340521000,16.69952099609375,-0.04566217586398125,-0.017562376335263252,-0.35750889778137207
1748140859358784500,16.717784423828125,-0.02367102913558483,0.019547687843441963,-0.2405281960964203
1748140859377046300,16.73604638671875,0.08139779418706894,0.05696318298578262,-0.20143280923366547
1748140859395307000,16.75430712890625,0.1595885455608368,0.05955936014652252,-0.2993239760398865
1748140859413575000,16.772574951171876,0.11148291081190109,-0.06291911751031876,-0.37079519033432007
1748140859431836400,16.79083642578125,0.11957687139511108,-0.0685696229338646,-0.23579397797584534
1748140859450097200,16.80909716796875,0.26022860407829285,0.29367345571517944,-0.05314527451992035
1748140859468362500,16.827362548828123,0.275958389043808,0.740368664264679,-0.08246681094169617
1748140859486624300,16.845624267578124,0.19425514340400696,0.9323330521583557,-0.16783522069454193
1748140859504887600,16.863887451171873,0.10399980843067169,0.6440047025680542,-0.07788532227277756
1748140859523149300,16.8821494140625,0.07910704612731934,0.2076941877603531,0.12492194026708603
1748140859541413000,16.9004130859375,0.02428189292550087,0.07880161702632904,0.24297164380550385
1748140859559676400,16.918676513671876,-0.0377209298312664,0.26145032048225403,0.2756529450416565
1748140859577939500,16.936939453125,-0.061391957104206085,0.39965859055519104,0.2796235680580139
1748140859596203500,16.95520361328125,-0.10216721147298813,0.31352660059928894,0.31154128909111023
1748140859614461000,16.9734609375,-0.13271047174930573,0.270766019821167,0.38896843791007996
1748140859632728600,16.991728515625,-0.07513642311096191,0.4043927788734436,0.499382346868515
1748140859650992400,17.009992431640626,-0.09147707372903824,0.5326744914054871,0.5862779021263123
1748140859669251300,17.028251220703126,-0.11056660860776901,0.6824892163276672,0.6467535495758057
1748140859687522300,17.046522216796873,-0.13286319375038147,0.8110763430595398,0.6856962442398071
1748140859705775600,17.064775634765624,-0.13209961354732513,0.775340735912323,0.7409795522689819
1748140859724043300,17.083043212890626,-0.11041389405727386,0.6172793507575989,0.7991644740104675
1748140859742307800,17.101307861328124,-0.1443169116973877,0.5316054821014404,0.8144360780715942
1748140859760568800,17.11956884765625,-0.12018773704767227,0.5871942043304443,0.8385652899742126
1748140859778832400,17.137832275390625,-0.07024950534105301,0.7634288668632507,0.9066767692565918
1748140859797085200,17.156085205078124,-0.06994406878948212,0.9957103729248047,0.9724974632263184
1748140859815358200,17.174358154296876,-0.11484266817569733,1.145830512046814,1.0618364810943604
1748140859833622000,17.1926220703125,-0.10293079167604446,1.088714599609375,1.1314750909805298
1748140859851885000,17.210885009765626,-0.10170906037092209,0.873842716217041,1.0490083694458008
1748140859870146600,17.229146484375,-0.1696678251028061,0.8460483551025391,0.8084801435470581
1748140859888412000,17.247411865234376,-0.15302173793315887,1.136362075805664,0.5768095254898071
1748140859906673400,17.26567333984375,-0.07467827945947647,1.4621059894561768,0.4375322461128235
1748140859924935700,17.283935791015626,-0.050243668258190155,1.688889741897583,0.3341432809829712
1748140859943201500,17.302201416015624,-0.14263702929019928,1.8083138465881348,0.25763240456581116
1748140859961458400,17.32045849609375,-0.28695395588874817,1.8029687404632568,0.20036379992961884
1748140859979725600,17.3387255859375,-0.3439171314239502,1.6391041278839111,0.1215621829032898
1748140859997988400,17.35698828125,-0.5254968404769897,1.1520918607711792,0.18188512325286865
1748140860016252700,17.375252685546876,-0.7463245987892151,0.5885686874389648,0.4060726761817932
1748140860034510600,17.393510498046876,-0.9224064946174622,0.14324790239334106,0.7376197576522827
1748140860052772600,17.411772705078125,-0.9005680680274963,-0.1661553531885147,0.9097310900688171
1748140860071039200,17.430039306640627,-0.5966626405715942,-0.2646573781967163,0.6279694437980652
1748140860089306000,17.44830615234375,-0.3500257730484009,-0.2912299931049347,0.299018532037735
1748140860107566800,17.46656689453125,-0.5198463201522827,-0.4847215712070465,0.16081027686595917
1748140860125829600,17.48482958984375,-0.6739370822906494,-0.5406157374382019,-0.03084869496524334
1748140860144092700,17.5030927734375,-0.43875396251678467,0.06994406878948212,-0.4938845634460449
1748140860162356700,17.521356689453125,-0.15622878074645996,0.2483167201280594,-0.6774495840072632
1748140860180618500,17.539618408203125,0.030543262138962746,-0.13775011897087097,-0.48258355259895325
1748140860198881800,17.5578818359375,0.13347405195236206,-0.3404046595096588,-0.1459967941045761
1748140860217144600,17.57614453125,0.14263702929019928,-0.11071932315826416,0.20845776796340942
1748140860235405800,17.59440576171875,-0.021991148591041565,0.22296582162380219,0.526107668876648
1748140860253674200,17.61267431640625,-0.2880229651927948,0.47510045766830444,0.7240280508995056
1748140860271932400,17.630932373046875,-0.45692721009254456,0.7426594495773315,0.7770205736160278
1748140860290195000,17.64919482421875,-0.40301835536956787,1.1595749855041504,0.9024006724357605
1748140860308452600,17.66745263671875,-0.20311269164085388,1.8180876970291138,1.2631165981292725
1748140860326721500,17.685721435546874,-0.19028452038764954,1.9591975212097168,1.202030062675476
1748140860344987000,17.70398681640625,-0.29016098380088806,1.1076513528823853,0.4804455041885376
1748140860363248600,17.72224853515625,-0.14813482761383057,0.3113885521888733,-0.30894508957862854
1748140860381520100,17.74052001953125,-0.12782354652881622,0.10002918541431427,-0.3459024429321289
1748140860399775000,17.75877490234375,-0.03985895588994026,0.42241331934928894,-0.07910704612731934
1748140860418037500,17.77703759765625,0.039248090237379074,0.7052439451217651,0.02932153269648552
1748140860436300500,17.795300537109377,0.07024950534105301,0.7597636580467224,0.06215553730726242
1748140860454565000,17.813565185546874,0.08735372871160507,0.7586946487426758,0.13255776464939117
1748140860472827000,17.831826904296875,0.06658431142568588,0.6885978579521179,0.156686931848526
1748140860491089700,17.850089599609376,0.017409659922122955,0.48838675022125244,0.06001751124858856
1748140860509353200,17.868353271484374,-0.03527746722102165,0.2889392673969269,-0.059864792972803116
1748140860527616800,17.88661669921875,-0.11484266817569733,0.23976461589336395,-0.11285735666751862
1748140860545879000,17.904879150390624,-0.13988813757896423,0.2958115041255951,-0.1290452778339386
1748140860564137000,17.923136962890624,-0.04993823543190956,0.3318525552749634,-0.14752395451068878
1748140860582403600,17.941403564453125,0.049785517156124115,0.29657506942749023,-0.12339477986097336
1748140860600670500,17.95967041015625,0.11667526513338089,0.24266621470451355,-0.039248090237379074
1748140860618928400,17.977928466796875,0.1059851199388504,0.16844609379768372,0.02076941914856434
1748140860637196500,17.996196533203126,0.05421429127454758,0.10277807712554932,0.06185010448098183
1748140860655457000,18.01445703125,0.013439035043120384,0.06368270516395569,0.09025534242391586
1748140860673721300,18.032721435546875,-0.009010262787342072,0.04841107130050659,0.06475171446800232
1748140860691982800,18.05098291015625,-0.009468411095440388,0.09560041129589081,0.027641652151942253
1748140860710249200,18.069249267578126,0.011759156361222267,0.17531833052635193,0.033139441162347794
1748140860728501800,18.087501708984377,0.03329215571284294,0.11133018881082535,0.001527163083665073
1748140860746773200,18.105773193359376,0.051770828664302826,-0.0403171069920063,-0.031001411378383636
1748140860765035300,18.12403515625,0.06918048858642578,-0.11850785464048386,0.01771509274840355
1748140860783298000,18.142298095703126,0.07696902006864548,-0.15302173793315887,0.02229658141732216
1748140860801561000,18.16056103515625,0.06322455406188965,-0.15042556822299957,-0.10170906037092209
1748140860819820800,18.17882080078125,0.014813481830060482,-0.09208793938159943,-0.17333301901817322
1748140860838073900,18.197073974609374,-0.01771509274840355,-0.03329215571284294,-0.14935655891895294
1748140860856351700,18.215351806640626,-0.03588833287358284,-0.08048149943351746,-0.2399173229932785
1748140860874613500,18.233613525390624,-0.07238753139972687,-0.16142113506793976,-0.4346306324005127
1748140860892877600,18.251877685546877,-0.09437867999076843,-0.12308934330940247,-0.5206099152565002
1748140860911139300,18.270139404296874,-0.06582073122262955,0.052228979766368866,-0.47800204157829285
1748140860929402400,18.28840234375,-0.01191187184303999,0.1713477075099945,-0.4680754840373993
1748140860947665400,18.30666552734375,-0.0025961773935705423,0.14523321390151978,-0.5134322643280029
1748140860965928400,18.324928466796877,-0.019547687843441963,0.10735956579446793,-0.5247332453727722
1748140860984192800,18.34319287109375,-0.046273041516542435,0.08949175477027893,-0.5035057067871094
1748140861002459100,18.361459228515624,-0.06704246252775192,0.0708603709936142,-0.4668537676334381
1748140861020717300,18.37971728515625,-0.07467827945947647,-0.028099801391363144,-0.43829581141471863
1748140861038981600,18.397981689453125,-0.03497203439474106,-0.1293507218360901,-0.43997567892074585
1748140861057243600,18.41624365234375,0.012675453908741474,-0.09605856239795685,-0.4642575979232788
1748140861075501800,18.434501708984374,0.09269879758358002,0.001832595793530345,-0.4723515510559082
1748140861093768400,18.4527685546875,0.22739458084106445,0.23029619455337524,-0.5345070958137512
1748140861112034800,18.471034912109374,0.28985556960105896,0.5181664228439331,-0.6702718734741211
1748140861130296600,18.489296630859375,0.2741257846355438,0.6102544069290161,-0.8139779567718506
1748140861148557600,18.5075576171875,0.23609942197799683,0.5745187401771545,-0.8797986507415771
1748140861166817000,18.525817138671876,0.25595253705978394,0.4899139404296875,-0.822682797908783
1748140861185086200,18.544086181640626,0.28619036078453064,0.35445454716682434,-0.6976081132888794
1748140861203347700,18.56234765625,0.3072652220726013,0.2321287989616394,-0.569631814956665
1748140861221611000,18.580611083984376,0.2675589919090271,0.1062905490398407,-0.5732970237731934
1748140861239864300,18.5988642578125,0.28909197449684143,0.24572055041790009,-0.575893223285675
1748140861258137600,18.6171376953125,0.34345898032188416,0.5407684445381165,-0.3390302062034607
1748140861276399900,18.63539990234375,0.29856038093566895,0.3672827184200287,-0.16554448008537292
1748140861294659000,18.6536591796875,0.1895209401845932,-0.12476922571659088,-0.31871894001960754
1748140861312924700,18.671924560546874,0.07162395119667053,-0.2701551616191864,-0.470060795545578
1748140861331191000,18.69019091796875,-0.025656340643763542,-0.036041051149368286,-0.521984338760376
1748140861349456000,18.708455810546877,0.02932153269648552,0.3130684494972229,-0.5322163701057434
1748140861367714800,18.72671484375,0.14065171778202057,0.4479169547557831,-0.31291571259498596
1748140861385978000,18.74497802734375,0.1342376321554184,0.08857546001672745,-0.032681290060281754
1748140861404242700,18.76324267578125,0.11239920556545258,-0.36590829491615295,0.0455094613134861
1748140861422499600,18.78149951171875,0.06765332818031311,-0.4352414906024933,0.09483683109283447
1748140861440767200,18.799767333984374,0.01878410577774048,-0.08949175477027893,0.28130343556404114
1748140861459030500,18.818030517578126,0.07040221989154816,0.1667662113904953,0.3061962127685547
1748140861477294600,18.836294677734376,0.20387627184391022,0.17348572611808777,0.19944749772548676
1748140861495556400,18.854556396484377,0.34086281061172485,0.23625212907791138,0.15332718193531036
1748140861513819400,18.8728193359375,0.4259257912635803,0.4918992519378662,0.04199698567390442
1748140861532082400,18.89108251953125,0.4314235746860504,0.6772968173027039,-0.18096883594989777
1748140861550346500,18.909346435546876,0.3831652104854584,0.6136141419410706,-0.34834590554237366
1748140861568608500,18.9276083984375,0.3104722499847412,0.3165809214115143,-0.4847215712070465
1748140861586871600,18.94587158203125,0.24297164380550385,0.046273041516542435,-0.6742424964904785
1748140861605133000,18.964133056640627,0.18677204847335815,0.003359758760780096,-0.8663596510887146
1748140861623400000,18.98239990234375,0.14248432219028473,0.06505715101957321,-0.9721920490264893
1748140861641660400,19.000660400390625,0.0981965884566307,0.013133603148162365,-1.065043568611145
1748140861659920600,19.018920654296874,0.06627888232469559,-0.0981965884566307,-1.163851022720337
1748140861678183000,19.037182861328127,0.058948494493961334,-0.04230241850018501,-1.23394775390625
1748140861696449500,19.055449462890625,0.0555887371301651,0.14385876059532166,-1.2631165981292725
1748140861714712600,19.073712646484374,0.09666942805051804,0.20341812074184418,-1.2556334733963013
1748140861732975600,19.0919755859375,0.14584407210350037,0.003817907767370343,-1.1986702680587769
1748140861751238700,19.11023876953125,0.24327708780765533,-0.2073887437582016,-1.1403326988220215
1748140861769498600,19.12849853515625,0.31932979822158813,-0.41752639412879944,-1.0192286968231201
1748140861787764700,19.1467646484375,0.3039054572582245,-0.4764748811721802,-0.7898487448692322
1748140861806028000,19.165028076171875,0.2252565622329712,-0.21868975460529327,-0.5635231733322144
1748140861824291000,19.183291015625,0.1160643994808197,0.18448130786418915,-0.432034432888031
1748140861842555000,19.201554931640626,0.05955936014652252,0.40851613879203796,-0.37522396445274353
1748140861860817200,19.219817138671875,0.10430523753166199,0.3306308090686798,-0.29596421122550964
1748140861879080000,19.238079833984376,0.17623461782932281,0.13637566566467285,-0.2168571650981903
1748140861897343200,19.25634326171875,0.242513507604599,0.0027488935738801956,-0.128434419631958
1748140861915607000,19.27460693359375,0.2528982162475586,-0.16340644657611847,0.03497203439474106
1748140861933864700,19.29286474609375,0.23655757308006287,-0.23884831368923187,0.17256943881511688
1748140861952130600,19.311130615234376,0.22571471333503723,-0.27229318022727966,0.35063666105270386
1748140861970396400,19.329396484375,0.37048977613449097,-0.08735372871160507,0.5247332453727722
1748140861988647200,19.347647216796876,0.44593164324760437,0.31413745880126953,0.5958990454673767
1748140862006920000,19.365919921875,0.3978259861469269,0.8000807762145996,0.6550002694129944
1748140862025185800,19.384185791015625,0.25473082065582275,1.165683627128601,0.6805039048194885
1748140862043447600,19.402447509765626,0.056352317333221436,1.1444560289382935,0.6582072973251343
1748140862061711600,19.420711669921875,-0.04795292019844055,0.8028296232223511,0.6780604124069214
1748140862079961600,19.438961669921873,-0.025656340643763542,0.4801400899887085,0.8600982427597046
1748140862098236400,19.457236328125,-0.07131851464509964,0.38469240069389343,1.0795515775680542
1748140862116496000,19.475495849609374,-0.1722639948129654,0.3349068760871887,1.1954632997512817
1748140862134759400,19.493759521484375,-0.1875356286764145,0.1791362315416336,1.306182622909546
1748140862153025500,19.512025634765624,-0.16814066469669342,-0.07208210229873657,1.5120441913604736
1748140862171288600,19.53028857421875,-0.11178833991289139,-0.2799290120601654,1.6450600624084473
1748140862189547000,19.548547119140625,-0.025045474991202354,-0.3474296033382416,1.4998269081115723
1748140862207814700,19.566814697265624,0.032528575509786606,-0.27809640765190125,1.1870639324188232
1748140862226079200,19.585079345703125,0.04337143152952194,-0.2477058619260788,0.7831292152404785
1748140862244341000,19.603341064453126,0.11178833991289139,-0.2548835277557373,0.18677204847335815
1748140862262604000,19.62160400390625,0.0959058403968811,0.011453723534941673,-0.49846604466438293
1748140862280868000,19.6398681640625,-0.05910121276974678,0.41172316670417786,-1.208902359008789
1748140862299130000,19.658130126953125,-0.24587325751781464,0.7796167731285095,-1.681712031364441
1748140862317393000,19.676392822265626,-0.375529408454895,1.0024298429489136,-1.8177822828292847
1748140862335656200,19.69465625,-0.39446622133255005,0.8920159935951233,-1.7701348066329956
1748140862353919200,19.712919189453125,-0.3323107063770294,0.43218716979026794,-1.5963436365127563
1748140862372183300,19.731183349609374,-0.21135938167572021,-0.19379699230194092,-1.3808609247207642
1748140862390445600,19.749445556640627,-0.055894169956445694,-0.7970264554023743,-1.1536190509796143
1748140862408708000,19.7677080078125,0.01817324012517929,-1.126588225364685,-0.8378016948699951
1748140862426972200,19.78597216796875,-0.02015855349600315,-1.0392345190048218,-0.5445863604545593
1748140862445229800,19.804229736328125,-0.044745877385139465,-0.5745187401771545,-0.29886582493782043
1748140862463491800,19.822491943359374,-0.062460970133543015,0.039248090237379074,-0.09896016865968704
1748140862481761500,19.840761474609376,-0.08933904021978378,0.3153591752052307,0.09162978827953339
1748140862500024600,19.859024658203126,-0.08628471940755844,0.22571471333503723,0.27320948243141174
1748140862518286300,19.877286376953126,-0.055283304303884506,0.14874568581581116,0.403323769569397
1748140862536544800,19.895544677734375,0.0025961773935705423,0.2154827117919922,0.5363397002220154
1748140862554824400,19.913824462890624,0.043218716979026794,0.4127921760082245,0.6855435371398926
1748140862573076700,19.93207666015625,0.06750060617923737,0.6114761233329773,0.8098546266555786
1748140862591338800,19.9503388671875,0.09636399149894714,0.6520986557006836,0.8445212244987488
1748140862609601800,19.968601806640624,0.12171489745378494,0.532369077205658,0.8799513578414917
1748140862627864600,19.986864501953125,0.14492778480052948,0.4268420934677124,1.0093021392822266
1748140862646129000,20.00512890625,0.17516560852527618,0.34956762194633484,1.130406141281128
1748140862664391000,20.023390869140623,0.15531249344348907,0.23945917189121246,1.1039862632751465
1748140862682654000,20.041654052734376,0.13790282607078552,0.16249015927314758,0.8894197940826416
1748140862700915700,20.059915771484373,0.0705549344420433,0.20799961686134338,0.5836817622184753
1748140862719181000,20.07818115234375,-0.0959058403968811,0.2984076738357544,0.2664899528026581
1748140862737445600,20.096445556640624,-0.25213462114334106,0.351400226354599,0.021532999351620674
1748140862755702000,20.114701904296876,-0.3274237811565399,0.19074267148971558,-0.14844025671482086
1748140862773971500,20.132971435546875,-0.28328874707221985,-0.10262536257505417,-0.318566232919693
1748140862792234200,20.151234130859375,-0.21670444309711456,-0.21212296187877655,-0.4547891616821289
1748140862810489600,20.169489501953127,-0.23839016258716583,-0.09376781433820724,-0.46761733293533325
1748140862828759000,20.187759033203125,-0.30054569244384766,0.12782354652881622,-0.30970868468284607
1748140862847021300,20.206021240234374,-0.37430769205093384,0.2695443034172058,-0.027947084978222847
1748140862865282000,20.224281982421875,-0.4502076804637909,0.29397889971733093,0.35552358627319336
1748140862883551000,20.242551025390625,-0.3147483170032501,0.011759156361222267,0.7861835956573486
1748140862901810400,20.260810546875,-0.08261952549219131,-0.531758189201355,0.9749409556388855
1748140862920074200,20.27907421875,-0.058795779943466187,-0.9033169746398926,0.7974845767021179
1748140862938336800,20.297336669921876,-0.10186178237199783,-0.6265950202941895,0.4951062798500061
1748140862956599600,20.315599609375,-0.19853121042251587,0.09254608303308487,0.36010506749153137
1748140862974857200,20.333857177734377,-0.3436116874217987,0.6724098920822144,0.39446622133255005
1748140862993127000,20.352126953125,-0.4369213581085205,0.783892810344696,0.44425174593925476
1748140863011390000,20.370389892578125,-0.3833179473876953,0.6743952035903931,0.4124867618083954
1748140863029651500,20.3886513671875,-0.29046642780303955,0.5517640113830566,0.547182559967041
1748140863047908900,20.406908935546873,-0.11560624837875366,0.4311181604862213,1.0343475341796875
1748140863066180000,20.42518017578125,0.27611109614372253,-0.10415252298116684,1.0974193811416626
1748140863084444000,20.44344384765625,0.40301835536956787,-0.8472700715065002,0.11759155988693237
1748140863102704000,20.4617041015625,0.41493022441864014,-0.41340306401252747,-0.7806857824325562
1748140863120967000,20.479966796875,0.3000875413417816,0.12980885803699493,-0.9347765445709229
1748140863139230200,20.498230224609376,0.11041389405727386,0.2298380434513092,-0.4957171380519867
1748140863157490000,20.516489990234376,-0.022143865004181862,0.39904773235321045,0.3081815242767334
1748140863175756000,20.534756103515626,0.008399397134780884,0.7704538106918335,0.9761626720428467
1748140863194019600,20.55301953125,0.025503624230623245,1.1598803997039795,1.3180944919586182
1748140863212282000,20.5712822265625,-0.036651913076639175,0.6334672570228577,1.1467467546463013
1748140863230546200,20.589546142578126,0.08261952549219131,-0.4758640229701996,0.43676865100860596
1748140863248808200,20.60780810546875,0.11698069423437119,-0.7353290319442749,-0.12889257073402405
1748140863267071500,20.626071533203124,0.07177666574716568,-0.2606867551803589,-0.2226603776216507
1748140863285330400,20.644330322265624,0.04657847434282303,0.0913243517279625,0.03985895588994026
1748140863303597800,20.662597900390626,0.02076941914856434,0.08139779418706894,0.38469240069389343
1748140863321860000,20.680860107421875,0.0009162978967651725,-0.022907447069883347,0.6155994534492493
1748140863340122400,20.699122314453124,-0.06505715101957321,-0.1589776873588562,0.6872233748435974
1748140863358387700,20.7173876953125,-0.1498146951198578,-0.3862195611000061,0.5963571667671204
1748140863376650800,20.735650634765626,-0.1693623960018158,-0.46334129571914673,0.4282165467739105
1748140863394911700,20.753911865234375,-0.13500121235847473,-0.21578814089298248,0.2721404731273651
1748140863413177000,20.772177001953125,-0.13255776464939117,0.035582900047302246,0.20815233886241913
1748140863431440000,20.79043994140625,-0.11728613078594208,0.13607023656368256,0.2577851414680481
1748140863449703000,20.808702880859375,-0.04108068719506264,0.10797043144702911,0.36422839760780334
1748140863467965000,20.82696484375,0.05604688450694084,-0.06185010448098183,0.3553708493709564
1748140863486236700,20.845236572265627,0.09758572280406952,-0.2321287989616394,0.2454151064157486
1748140863504489500,20.863489501953126,0.07819075137376785,-0.19837848842144012,0.10949759185314178
1748140863522755000,20.881755126953124,0.02122756652534008,-0.10445795953273773,-0.004581489134579897
1748140863541017000,20.90001708984375,-0.021532999351620674,-0.052381694316864014,0.027947084978222847
1748140863559275300,20.918275146484376,-0.058795779943466187,-0.02733621932566166,0.19058994948863983
1748140863577542100,20.936542236328126,-0.08368854224681854,-0.10064005106687546,0.3724750876426697
1748140863595808800,20.954808837890624,-0.06811147183179855,-0.30344730615615845,0.4596760869026184
1748140863614069500,20.973069580078125,-0.02687807008624077,-0.4893030524253845,0.3822489380836487
1748140863632332500,20.99133251953125,-0.01191187184303999,-0.447000652551651,0.1736384481191635
1748140863650595300,21.00959521484375,-0.03940080851316452,-0.21044307947158813,0.003359758760780096
1748140863668859400,21.027859375,-0.06643159687519073,-0.014966198243200779,-0.027030786499381065
1748140863687121700,21.04612158203125,-0.05009094998240471,0.013744467869400978,0.07192938029766083
1748140863705381600,21.064381591796874,0.01160643994808197,-0.06673702597618103,0.11911872029304504
1748140863723650800,21.08265087890625,0.07757988572120667,-0.098502017557621,0.0025961773935705423
1748140863741910500,21.10091064453125,0.11713340878486633,0.05864306539297104,-0.1270599663257599
1748140863760173800,21.119173828125,0.13408492505550385,0.25335636734962463,-0.1976149082183838
1748140863778438400,21.1374384765625,0.1189660057425499,0.30711251497268677,-0.2292271852493286
1748140863796700000,21.155699951171876,0.09407325088977814,0.20876319706439972,-0.20326541364192963
1748140863814959900,21.1739599609375,0.07116580009460449,0.0503963828086853,-0.1371392458677292
1748140863833224700,21.192224609375,0.06291911751031876,-0.023365596309304237,-0.038026362657547
1748140863851486000,21.21048583984375,0.06185010448098183,-0.09285151958465576,-0.008399397134780884
1748140863869751600,21.22875146484375,0.024434609338641167,-0.17287486791610718,0.009162978269159794
1748140863888011800,21.24701171875,-0.03573561832308769,-0.2243402600288391,0.07590000331401825
1748140863906282500,21.265282470703124,-0.07330382615327835,-0.25595253705978394,0.14156801998615265
1748140863924541400,21.28354150390625,-0.07483099400997162,-0.2623666226863861,0.16004669666290283
1748140863942804500,21.301804443359377,-0.06062837690114975,-0.17547103762626648,0.1722639948129654
1748140863961068300,21.320068359375,-0.03481931984424591,-0.04444044828414917,0.15653422474861145
1748140863979330600,21.33833056640625,-0.00045814894838258624,0.005345070734620094,0.03878994286060333
1748140863997593600,21.356593505859376,0.020311269909143448,-0.09651670604944229,-0.03878994286060333
1748140864015856600,21.374856689453125,0.020463986322283745,-0.17104226350784302,0.05711590126156807
1748140864034120700,21.39312060546875,0.004123340360820293,-0.2102903574705124,0.20952677726745605
1748140864052382500,21.411382568359375,-0.014508049935102463,-0.2617557644844055,0.313373863697052
1748140864070640600,21.429640625,-0.009926560334861279,-0.30604347586631775,0.3321579694747925
1748140864088907500,21.447907470703125,0.012217304669320583,-0.27259862422943115,0.3149010241031647
1748140864107179000,21.466178955078124,0.04596760869026184,-0.15012013912200928,0.27351492643356323
1748140864125435000,21.484434814453124,0.07238753139972687,-0.036651913076639175,0.2070833146572113
1748140864143694300,21.5026943359375,0.08338310569524765,0.014049900695681572,0.152105450630188
1748140864161961000,21.5209609375,0.0933096632361412,0.024129176512360573,0.09407325088977814
1748140864180216000,21.539216064453125,0.10674870014190674,-0.005650503560900688,0.010231993161141872
1748140864198483200,21.557483154296875,0.1160643994808197,-0.038026362657547,-0.11270463466644287
1748140864216749800,21.575749755859373,0.10506882518529892,-0.04596760869026184,-0.2422080636024475
1748140864235013000,21.59401318359375,0.0806342139840126,-0.049785517156124115,-0.2528982162475586
1748140864253277200,21.612277099609376,0.049785517156124115,-0.055283304303884506,-0.14355333149433136
1748140864271539200,21.630539306640625,0.029626963660120964,-0.13469578325748444,-0.08384125679731369
1748140864289802200,21.64880224609375,0.023365596309304237,-0.26939156651496887,-0.12461651116609573
1748140864308065300,21.667065185546875,0.02626720629632473,-0.3266601860523224,-0.1820378452539444
1748140864326329300,21.685329345703124,0.02871066704392433,-0.2791654169559479,-0.2171625941991806
1748140864344590300,21.70359033203125,0.03176499158143997,-0.21288654208183289,-0.23686300218105316
1748140864362855700,21.721855712890626,0.03756821155548096,-0.20097467303276062,-0.3084869384765625
1748140864381117400,21.740117431640623,0.03298672288656235,-0.2200642079114914,-0.38637226819992065
1748140864399381800,21.7583818359375,0.014813481830060482,-0.2125810980796814,-0.41951170563697815
1748140864417639000,21.776638916015624,0.0009162978967651725,-0.1976149082183838,-0.44028112292289734
1748140864435905500,21.794905517578126,0.01191187184303999,-0.16523905098438263,-0.5146539807319641
1748140864454171100,21.813171142578124,0.03527746722102165,-0.07040221989154816,-0.6223189830780029
1748140864472434000,21.831433837890625,0.07635815441608429,0.04734205827116966,-0.6960809230804443
1748140864490695700,21.84969580078125,0.12965615093708038,0.076052725315094,-0.7556403279304504
1748140864508959000,21.867958984375,0.17989981174468994,0.01160643994808197,-0.8788823485374451
1748140864527221800,21.8862216796875,0.22052235901355743,0.031154127791523933,-1.0348057746887207
1748140864545481500,21.9044814453125,0.23273965716362,0.20494529604911804,-1.0977247953414917
1748140864563748000,21.922748046875,0.1849394589662552,0.39736783504486084,-1.0479393005371094
1748140864582011100,21.94101123046875,0.17440202832221985,0.3891211748123169,-0.9902125597000122
1748140864600273000,21.95927294921875,0.2376265823841095,0.26251932978630066,-0.9906707406044006
1748140864618539300,21.977539306640626,0.2837468981742859,0.2541199326515198,-0.9915869832038879
1748140864636800300,21.99580029296875,0.24678955972194672,0.30604347586631775,-0.977689802646637
1748140864655063600,22.0140634765625,0.15561792254447937,0.42760565876960754,-0.988990843296051
1748140864673326600,22.03232666015625,0.08292495459318161,0.5351179838180542,-0.9844093322753906
1748140864691590400,22.05059033203125,0.10842858254909515,0.5907067060470581,-0.7098253965377808
1748140864709834500,22.06883447265625,0.15729780495166779,0.20402899384498596,-0.17302757501602173
1748140864728115700,22.08711572265625,0.08032877743244171,-0.7063129544258118,0.152105450630188
1748140864746378800,22.105378662109374,-0.09040805697441101,-1.5146403312683105,-0.2877175211906433
1748140864764641800,22.123641845703126,-0.2054034322500229,-1.0447323322296143,-0.6890559792518616
1748140864782903800,22.14190380859375,-0.26022860407829285,0.051770828664302826,-0.5693264007568359
1748140864801169000,22.1601689453125,-0.32650747895240784,0.3972151279449463,-0.3605632185935974
1748140864828563500,22.1875634765625,-0.054825156927108765,0.03130684420466423,-0.04948008432984352
1748140864855958300,22.214958251953124,0.19364428520202637,0.21884247660636902,-0.11499538272619247
1748140864874219000,22.233218994140625,0.2509129047393799,0.6207917928695679,-0.18448130786418915
1748140864892478200,22.251478271484373,0.2483167201280594,0.6965391039848328,-0.28237244486808777
1748140864910747400,22.269747314453124,0.24633140861988068,0.5908594131469727,-0.3361285924911499
1748140864929004300,22.28800439453125,0.25732699036598206,0.41370847821235657,-0.3197879493236542
1748140864947271000,22.30627099609375,0.303600013256073,0.2002110779285431,-0.3006984293460846
1748140864965535200,22.32453515625,0.3423899710178375,0.025656340643763542,-0.299018532037735
1748140864983800800,22.34280078125,0.36590829491615295,0.016798794269561768,-0.2971859276294708
1748140865002061300,22.361061279296877,0.3669773042201996,0.05207626149058342,-0.30711251497268677
1748140865020324400,22.379324462890626,0.3315471112728119,0.00015271631127689034,-0.3462078869342804
1748140865038587400,22.39758740234375,0.25992316007614136,-0.1134682223200798,-0.4103487432003021
1748140865056851700,22.415851806640624,0.19165897369384766,-0.3081815242767334,-0.46334129571914673
1748140865075113500,22.434113525390625,0.15042556822299957,-0.5097670555114746,-0.4804455041885376
1748140865093376800,22.452376708984374,0.12400564551353455,-0.6498079299926758,-0.5134322643280029
1748140865111639600,22.4706396484375,0.09285151958465576,-0.6870706677436829,-0.5818491578102112
1748140865129899000,22.48889892578125,0.07299839705228806,-0.5922338366508484,-0.6404922008514404
1748140865148167000,22.5071669921875,0.006108652334660292,-0.2626720666885376,-0.6130032539367676
1748140865166429200,22.52542919921875,-0.07895433157682419,0.19028452038764954,-0.6834055185317993
1748140865184687000,22.54368701171875,-0.11209376901388168,0.5238169431686401,-0.8307767510414124
1748140865202955000,22.561955078125,-0.11682797968387604,0.5798638463020325,-0.7415903806686401
1748140865221207000,22.58020703125,-0.08567385375499725,0.3292563557624817,-0.46181413531303406
1748140865239476200,22.598476318359374,-0.06963863968849182,0.020005837082862854,-0.20494529604911804
1748140865257739500,22.616739501953123,-0.011759156361222267,-0.1469130963087082,-0.09926560521125793
1748140865276005600,22.635005615234373,0.10461067408323288,-0.24846944212913513,-0.1365283876657486
