time,seconds_elapsed,z,y,x
1749919812055345200,0.16334521484375,-0.7761874794960022,-0.7528125047683716,0.2881999909877777
1749919812065358000,0.173358154296875,-0.8614374995231628,-1.13423752784729,0.3339875042438507
1749919812075370800,0.183370849609375,-0.9934374690055847,-1.4089624881744385,0.44577500224113464
1749919812085383700,0.1933837890625,-1.0957374572753906,-1.6103999614715576,0.5895999670028687
1749919812095396600,0.203396728515625,-1.091475009918213,-1.6465624570846558,0.7121124863624573
1749919812105409500,0.213409423828125,-0.9646999835968018,-1.6667749881744385,0.8292624950408936
1749919812115422500,0.22342236328125,-0.7910374999046326,-1.8958499431610107,0.935824990272522
1749919812125435400,0.233435302734375,-0.6962999701499939,-1.725350022315979,1.1552749872207642
1749919812135448300,0.2434482421875,-0.46626248955726624,-1.485687494277954,1.3789875507354736
1749919812145461200,0.253461181640625,-0.011274999938905239,-0.9370625019073486,1.4961374998092651
1749919812155474200,0.26347412109375,0.4094749987125397,-0.4684624969959259,1.535599946975708
1749919812165487000,0.273487060546875,0.6193000078201294,-0.5696625113487244,1.4557124376296997
1749919812175500000,0.2835,0.6949250102043152,-0.8604750037193298,1.311887502670288
1749919812185513000,0.293512939453125,0.8430125117301941,-1.0137875080108643,1.0679625272750854
1749919812205538800,0.313538818359375,1.377750039100647,-0.6206749677658081,0.5704874992370605
1749919812215551700,0.3235517578125,1.4214749336242676,-0.2564375102519989,0.4809750020503998
1749919812225564700,0.333564697265625,1.229662537574768,0.08016250282526016,0.49486249685287476
1749919812235577300,0.343577392578125,0.9953625202178955,0.23361249268054962,0.5065500140190125
1749919812245590500,0.353590576171875,0.8515374660491943,0.17393749952316284,0.4787749946117401
1749919812255603200,0.363603271484375,0.8057500123977661,-0.01993750035762787,0.4820750057697296
1749919812265616100,0.3736162109375,0.7503374814987183,-0.16802500188350677,0.5682874917984009
1749919812275629000,0.383629150390625,0.6917625069618225,0.08772499859333038,0.7515749931335449
1749919812285642000,0.39364208984375,0.696025013923645,0.8013499975204468,0.9944000244140625
1749919812295655000,0.403655029296875,0.8163374662399292,1.8346624374389648,1.268162488937378
1749919812305667800,0.413667724609375,1.0016875267028809,3.027750015258789,1.5163500308990479
1749919812315680800,0.4236806640625,1.102887511253357,4.444550037384033,1.6794250011444092
1749919812325693700,0.433693603515625,1.1892374753952026,5.917862415313721,1.710224986076355
1749919812335706600,0.44370654296875,1.2637624740600586,7.1024250984191895,1.6282750368118286
1749919812345719600,0.453719482421875,1.2850749492645264,6.8616623878479,1.6197500228881836
1749919812355732500,0.463732421875,1.119937539100647,6.493162631988525,1.5153875350952148
1749919812365745400,0.473745361328125,0.7972249984741211,6.3141374588012695,1.3789875507354736
1749919812375758300,0.48375830078125,0.46488749980926514,5.811299800872803,1.3096874952316284
1749919812385771300,0.493771240234375,0.15702499449253082,4.964437484741211,1.1382249593734741
1749919812395784400,0.503784423828125,-0.047575000673532486,3.625462532043457,0.5054500102996826
1749919812405797400,0.51379736328125,-0.14877499639987946,1.885812520980835,-0.17957499623298645
1749919812415810000,0.52381005859375,-0.28929999470710754,0.15056249499320984,-0.5906999707221985
1749919812425823200,0.5338232421875,-0.5205749869346619,-1.5944499969482422,-1.154175043106079
1749919812435836000,0.5438359375,-0.7357624769210815,-2.728825092315674,-1.8775625228881836
1749919812445848800,0.553848876953125,-0.897599995136261,-2.886537551879883,-2.6423375606536865
1749919812455862000,0.563862060546875,-1.2204500436782837,-0.42899999022483826,-3.0513999462127686
1749919812465875000,0.573875,-1.3237124681472778,0.5766749978065491,-3.0993874073028564
1749919812475887900,0.583887939453125,-1.4121249914169312,1.1827750205993652,-2.9961249828338623
1749919812485900800,0.59390087890625,-1.5272125005722046,1.496000051498413,-2.7170000076293945
1749919812495913700,0.603913818359375,-1.532575011253357,1.4511749744415283,-2.4315500259399414
1749919812505926700,0.6139267578125,-1.3642749786376953,1.3564374446868896,-2.171537399291992
1749919812515939600,0.623939697265625,-1.0595749616622925,1.0432125329971313,-1.9381999969482422
1749919812525952500,0.633952392578125,-0.7207750082015991,0.6213625073432922,-1.7689374685287476
1749919812535965200,0.643965087890625,-0.5120499730110168,0.3507624864578247,-1.608062505722046
1749919812545978000,0.65397802734375,-0.45237499475479126,0.34966251254081726,-1.3619375228881836
1749919812555991300,0.6639912109375,-0.4916999936103821,0.6074749827384949,-1.0125499963760376
1749919812566004000,0.67400390625,-0.5365250110626221,0.8897625207901001,-0.5981249809265137
1749919812576017200,0.68401708984375,-0.5066875219345093,1.0144749879837036,-0.1667875051498413
1749919812586029800,0.69402978515625,-0.3745499849319458,0.9312874674797058,0.23058749735355377
1749919812596043000,0.70404296875,-0.12952500581741333,0.7726125121116638,0.5449125170707703
1749919812606056000,0.714055908203125,0.19538749754428864,0.8013499975204468,0.7184374928474426
1749919812616068900,0.72406884765625,0.5149375200271606,0.9110749959945679,0.73232501745224
1749919812626081800,0.734081787109375,0.7077124714851379,0.9814749956130981,0.6268625259399414
1749919812636094700,0.7440947265625,0.7023500204086304,1.054900050163269,0.4670875072479248
1749919812646107600,0.754107666015625,0.5170000195503235,1.1571999788284302,0.33605000376701355
1749919812656120600,0.76412060546875,0.2326499968767166,1.3414499759674072,0.2550624907016754
1749919812666133500,0.774133544921875,-0.0411125011742115,1.2658250331878662,0.170912504196167
1749919812676146400,0.784146484375,-0.17641249299049377,1.0080125331878662,0.050599999725818634
1749919812686159400,0.794159423828125,-0.11577499657869339,0.6767749786376953,-0.12196250259876251
1749919812696172300,0.80417236328125,0.11550000309944153,0.30717501044273376,-0.27541249990463257
1749919812706185200,0.814185302734375,0.25286251306533813,0.06737499684095383,0.026124998927116394
1749919812716198400,0.824198486328125,0.33701249957084656,-0.260699987411499,0.45746248960494995
1749919812726211000,0.834211181640625,0.35516250133514404,-0.45567500591278076,0.7930999994277954
1749919812736224300,0.844224365234375,0.4030124843120575,-0.2937000095844269,0.9123125076293945
1749919812746237200,0.8542373046875,0.5266249775886536,0.195250004529953,0.8857749700546265
1749919812756250000,0.86425,0.6257625222206116,0.605412483215332,0.8868749737739563
1749919812766263000,0.874262939453125,0.6895624995231628,0.7748125195503235,0.9571374654769897
1749919812776276000,0.88427587890625,0.8025875091552734,0.9388499855995178,1.0114500522613525
1749919812786289000,0.894288818359375,0.8834375143051147,1.2274625301361084,1.0561374425888062
1749919812796301800,0.9043017578125,0.9154750108718872,1.5853749513626099,1.2223750352859497
1749919812806314800,0.914314697265625,0.9069499969482422,1.8900749683380127,1.5015000104904175
1749919812816327700,0.92432763671875,0.8568999767303467,2.134000062942505,1.699637532234192
1749919812826340600,0.934340576171875,0.641712486743927,2.2171874046325684,1.6505500078201294
1749919812836353500,0.944353515625,0.2124374955892563,1.885812520980835,1.3832499980926514
1749919812846366500,0.954366455078125,-0.28613749146461487,1.277512550354004,0.8963624835014343
1749919812856379400,0.96437939453125,-0.7144500017166138,0.6639875173568726,0.27541249990463257
1749919812866392300,0.974392333984375,-1.1383625268936157,0.35612499713897705,-0.37441250681877136
1749919812876405200,0.9844052734375,-1.6059999465942383,0.2569875121116638,-0.9721249938011169
1749919812886418200,0.994418212890625,-2.157787561416626,0.19208750128746033,-1.4482874870300293
1749919812896431000,1.00443115234375,-2.734187602996826,0.47437500953674316,-1.7113250494003296
1749919812906444000,1.014444091796875,-3.1868374347686768,1.0623250007629395,-1.7539499998092651
1749919812916457000,1.02445703125,-3.5117499828338623,1.5673625469207764,-1.6719999313354492
1749919812926470000,1.034469970703125,-3.7866125106811523,1.9497499465942383,-1.4801875352859497
1749919812936482800,1.04448291015625,-3.9474875926971436,2.4248125553131104,-1.1904749870300293
1749919812946495700,1.054495849609375,-3.9028000831604004,2.538800001144409,-0.8410875201225281
1749919812956508700,1.0645087890625,-3.3041250705718994,2.050950050354004,-0.3478749990463257
1749919812966521600,1.074521484375,-2.2302498817443848,2.469637393951416,-0.016499999910593033
1749919812976534800,1.08453466796875,-1.1980375051498413,3.570050001144409,0.02928750030696392
1749919812986547700,1.094547607421875,-0.48647499084472656,4.443587303161621,-0.04853750020265579
1749919812996560600,1.104560546875,-0.25423750281333923,4.815249919891357,-0.25616249442100525
1749919813006573600,1.114573486328125,-0.390500009059906,5.18072509765625,-0.6418499946594238
1749919813016586500,1.12458642578125,-0.8497499823570251,5.450224876403809,-1.0978000164031982
1749919813026599400,1.134599365234375,-1.699774980545044,5.699512481689453,-0.4670875072479248
1749919813036612400,1.1446123046875,-2.4102375507354736,5.14662504196167,0.34031251072883606
1749919813046625500,1.15462548828125,-2.9162375926971436,4.24641227722168,1.0231374502182007
1749919813056638500,1.164638427734375,-3.298762559890747,2.8775999546051025,1.4301375150680542
1749919813066651400,1.1746513671875,-3.4733874797821045,1.8379625082015991,1.5952750444412231
1749919813076664300,1.184664306640625,-3.485212564468384,1.463962435722351,1.5185500383377075
1749919813086677200,1.19467724609375,-3.361599922180176,1.9997999668121338,1.3704625368118286
1749919813096690200,1.204690185546875,-3.0281624794006348,2.9233875274658203,1.3235750198364258
1749919813106703000,1.214703125,-2.366650104522705,3.515737533569336,1.3800874948501587
1749919813116716000,1.224716064453125,-1.607100009918213,3.472012519836426,1.3853124380111694
1749919813126729000,1.23472900390625,-0.9211124777793884,2.9893875122070312,1.2564749717712402
1749919813136742000,1.244741943359375,-0.40658751130104065,2.2618749141693115,1.0561374425888062
1749919813146754800,1.2547548828125,-0.2638624906539917,1.3149124383926392,0.8271999955177307
1749919813156767700,1.264767822265625,-0.5535749793052673,0.19208750128746033,0.5693874955177307
1749919813166780700,1.27478076171875,-1.1468875408172607,-0.7624375224113464,0.2839374840259552
1749919813176793900,1.2847939453125,-1.8404375314712524,-1.275862455368042,-0.03891250118613243
1749919813186806800,1.294806884765625,-2.608375072479248,-1.2769625186920166,-0.4127750098705292
1749919813196819500,1.3048193359375,-3.250775098800659,-0.978725016117096,-0.815512478351593
1749919813206832400,1.314832275390625,-3.5437874794006348,-0.5333625078201294,-1.1478500366210938
1749919813216845300,1.32484521484375,-3.51601243019104,-0.24255000054836273,-1.259637475013733
1749919813226858500,1.3348583984375,-3.1901373863220215,-0.1956624984741211,-1.0583374500274658
1749919813236871200,1.34487109375,-2.8012874126434326,-0.36506250500679016,-0.5523374676704407
1749919813246884000,1.354884033203125,-2.6116750240325928,-0.6931374669075012,0.17201249301433563
1749919813256897300,1.364897216796875,-2.6787750720977783,-0.9413250088691711,0.861299991607666
1749919813266910200,1.37491015625,-2.900287389755249,-0.859375,1.1967999935150146
1749919813276923100,1.384923095703125,-3.0974624156951904,-0.49816250801086426,1.0881749391555786
1749919813286936000,1.39493603515625,-3.240187406539917,-0.16060000658035278,0.7376874685287476
1749919813296949000,1.404948974609375,-3.30192494392395,-0.0017874999903142452,0.3605250120162964
1749919813306962000,1.4149619140625,-3.1688249111175537,0.18672500550746918,0.14643749594688416
1749919813316974800,1.424974853515625,-2.9375500679016113,0.3592875003814697,0.16775000095367432
1749919813326987800,1.43498779296875,-2.687299966812134,0.44343748688697815,0.4138749837875366
1749919813337000700,1.445000732421875,-2.4241249561309814,0.5702124834060669,0.7834749817848206
1749919813347013600,1.455013671875,-2.2239248752593994,0.7555624842643738,1.0987625122070312
1749919813357026600,1.465026611328125,-2.1077375411987305,0.8556625247001648,1.2405250072479248
1749919813367039500,1.47503955078125,-1.8797625303268433,0.9101125001907349,1.204224944114685
1749919813377052400,1.485052490234375,-1.433437466621399,0.8291249871253967,1.0348249673843384
1749919813387065300,1.4950654296875,-0.8390250205993652,0.5392749905586243,0.7781124711036682
1749919813397078300,1.505078369140625,-0.19030000269412994,0.2560249865055084,0.49912500381469727
1749919813407091500,1.515091552734375,0.414837509393692,0.04399999976158142,0.24021250009536743
1749919813417104400,1.5251044921875,0.7812749743461609,-0.1274625062942505,0.043175000697374344
1749919813427117300,1.535117431640625,0.8248624801635742,-0.42253750562667847,-0.010174999944865704
1749919813437130200,1.545130126953125,0.6630250215530396,-1.091612458229065,0.007974999956786633
1749919813447143200,1.55514306640625,0.4265249967575073,-1.9023125171661377,0.03987500071525574
1749919813457156000,1.565156005859375,0.22728750109672546,-2.510474920272827,0.023924998939037323
1749919813467169000,1.5751689453125,0.010999999940395355,-3.005887508392334,-0.21147499978542328
1749919813477182000,1.585181884765625,-0.15936249494552612,-3.0186750888824463,-0.7068874835968018
1749919813487195000,1.59519482421875,0.018562499433755875,-2.6905999183654785,-1.2330999374389648
1749919813497207800,1.605207763671875,0.5746124982833862,-2.390162467956543,-1.5122250318527222
1749919813507220700,1.615220703125,1.2457499504089355,-2.269712448120117,-1.4929749965667725
1749919813517233700,1.625233642578125,1.8368624448776245,-2.4125750064849854,-1.3480499982833862
1749919813527246800,1.635246826171875,2.262974977493286,-2.1557250022888184,-1.210687518119812
1749919813537259800,1.645259765625,2.5048375129699707,-1.5859249830245972,-1.1734249591827393
1749919813547272700,1.655272705078125,2.659250020980835,-1.016950011253357,-1.1254374980926514
1749919813557285600,1.66528564453125,2.8286499977111816,-0.7251750230789185,-0.9965999722480774
1749919813577311700,1.685311767578125,3.050299882888794,-1.1064624786376953,-0.668524980545044
1749919813587324400,1.695324462890625,3.106674909591675,-1.366474986076355,-0.7026249766349792
1749919813597337600,1.705337646484375,3.2451374530792236,-1.5101624727249146,-0.8420500159263611
1749919813607350500,1.7153505859375,3.5264625549316406,-1.532575011253357,-0.9624999761581421
1749919813617363500,1.725363525390625,3.9184749126434326,-1.5357375144958496,-0.9923374652862549
1749919813627376400,1.73537646484375,4.378687381744385,-1.6220874786376953,-0.927299976348877
1749919813637389300,1.745389404296875,4.81538724899292,-1.6913875341415405,-0.8463125228881836
1749919813647402200,1.75540234375,5.15625,-1.8308124542236328,-0.8463125228881836
1749919813657415200,1.765415283203125,5.359749794006348,-2.142937421798706,-0.9283999800682068
1749919813667428000,1.775427978515625,5.4077372550964355,-2.5669875144958496,-1.0381250381469727
1749919813677441000,1.78544091796875,5.300075054168701,-2.9951624870300293,-1.1233749389648438
1749919813687454200,1.7954541015625,5.070037364959717,-3.305224895477295,-1.1521124839782715
1749919813697467000,1.805466796875,4.78665018081665,-3.453312397003174,-1.0733250379562378
1749919813707480000,1.81547998046875,4.509587287902832,-3.428837537765503,-0.8761500120162964
1749919813717493000,1.825492919921875,4.264699935913086,-3.263700008392334,-0.5406500101089478
1749919813727506000,1.835505859375,4.066562652587891,-3.119874954223633,-0.10491249710321426
1749919813737518800,1.845518798828125,3.8812124729156494,-3.0601999759674072,0.3306874930858612
1749919813747531800,1.85553173828125,3.6893999576568604,-3.0036873817443848,0.6844750046730042
1749919813757545000,1.865544921875,3.4849374294281006,-2.962162494659424,0.8750500082969666
1749919813767558000,1.875557861328125,3.2558624744415283,-2.933424949645996,0.8878374695777893
1749919813777570600,1.885570556640625,3.031049966812134,-2.8780124187469482,0.8027250170707703
1749919813787583500,1.89558349609375,2.861649990081787,-2.751237392425537,0.7078499794006348
1749919813797596400,1.905596435546875,2.731712579727173,-2.582937479019165,0.6674249768257141
1749919813807609600,1.915609619140625,2.6401374340057373,-2.5647873878479004,0.6674249768257141
1749919813817622500,1.92562255859375,2.603837490081787,-2.5808749198913574,0.6535375118255615
1749919813827635500,1.935635498046875,2.5943500995635986,-2.507312536239624,0.6364874839782715
1749919813837648600,1.945648681640625,2.5878875255584717,-2.4157373905181885,0.604449987411499
1749919813847661300,1.955661376953125,2.5847249031066895,-2.3166000843048096,0.5554999709129333
1749919813857674500,1.965674560546875,2.561349868774414,-2.180337429046631,0.49912500381469727
1749919813867687400,1.9756875,2.4877874851226807,-2.0246875286102295,0.4329875111579895
1749919813877700000,1.9857001953125,2.3674750328063965,-1.8554250001907349,0.4255625009536743
1749919813887713000,1.995713134765625,2.228874921798706,-1.6582499742507935,0.5321249961853027
1749919813897726200,2.005726318359375,2.125612497329712,-1.4878875017166138,0.6811749935150146
1749919813907739100,2.0157392578125,2.079824924468994,-1.3952125310897827,0.7962625026702881
1749919813917752000,2.025751953125,2.0127248764038086,-1.4089624881744385,0.8133124709129333
1749919813927765000,2.035764892578125,1.8444249629974365,-1.4293124675750732,0.7004249691963196
1749919813937778200,2.045778076171875,1.5982999801635742,-1.3909499645233154,0.5193374752998352
1749919813947790800,2.055790771484375,1.3469499349594116,-1.265275001525879,0.36162498593330383
1749919813957803800,2.0658037109375,1.1966625452041626,-1.1107250452041626,0.3008500039577484
1749919813967816700,2.075816650390625,1.1838749647140503,-1.0020999908447266,0.3755125105381012
1749919813977830000,2.085829833984375,1.1903375387191772,-0.9498500227928162,0.5160375237464905
1749919813987842800,2.0958427734375,1.1071499586105347,-0.9285374879837036,0.6140750050544739
1749919813997855700,2.105855712890625,0.9431124925613403,-0.9072250127792358,0.6012874841690063
1749919814007868700,2.11586865234375,0.7673875093460083,-0.8369625210762024,0.49156248569488525
1749919814017881600,2.125881591796875,0.6278250217437744,-0.7517125010490417,0.3605250120162964
1749919814027894500,2.13589453125,0.5191999673843384,-0.6814500093460083,0.2806375026702881
1749919814037907500,2.145907470703125,0.41909998655319214,-0.6015625,0.2806375026702881
1749919814047920400,2.15592041015625,0.33274999260902405,-0.5120499730110168,0.3158375024795532
1749919814057933300,2.165933349609375,0.27623748779296875,-0.4300999939441681,0.345674991607666
1749919814067946200,2.1759462890625,0.24117499589920044,-0.37152498960494995,0.37661248445510864
1749919814077959400,2.18595947265625,0.2059749960899353,-0.35653749108314514,0.38940000534057617
1749919814087972400,2.195972412109375,0.15056249499320984,-0.3587374985218048,0.33605000376701355
1749919814097985300,2.2059853515625,0.07603749632835388,-0.30855000019073486,0.23704999685287476
1749919814107998200,2.215998291015625,-0.006049999967217445,-0.22343750298023224,0.17201249301433563
1749919814118011100,2.22601123046875,-0.05926249921321869,-0.1350249946117401,0.16142499446868896
1749919814128024000,2.236024169921875,-0.07095000147819519,-0.030524998903274536,0.1751749962568283
1749919814138037000,2.246037109375,-0.045375000685453415,0.13667500019073486,0.2092749923467636
1749919814148050200,2.25605029296875,0.010037500411272049,0.34966251254081726,0.2657875120639801
1749919814158063000,2.26606298828125,0.10271249711513519,0.568149983882904,0.3328875005245209
1749919814168076000,2.276075927734375,0.2400749921798706,0.7492374777793884,0.4010874927043915
1749919814178089200,2.286089111328125,0.38499999046325684,0.8663874864578247,0.42762500047683716
1749919814188102100,2.29610205078125,0.49994999170303345,0.8855000138282776,0.345674991607666
1749919814198115000,2.306114990234375,0.5553625226020813,0.8428750038146973,0.16458749771118164
1749919814208128000,2.3161279296875,0.5468375086784363,0.7640874981880188,-0.06984999775886536
1749919814218141000,2.326140869140625,0.48083749413490295,0.688462495803833,-0.2870999872684479
1749919814228153900,2.33615380859375,0.36258751153945923,0.6543624997138977,-0.41167500615119934
1749919814238167000,2.3461669921875,0.179299995303154,0.7012500166893005,-0.3936625123023987
1749919814248180000,2.356179931640625,-0.062424998730421066,0.7992874979972839,-0.2679874897003174
1749919814258193000,2.36619287109375,-0.3489750027656555,0.9196000099182129,-0.0943249985575676
1749919814268205800,2.376205810546875,-0.6067875027656555,1.121037483215332,0.1251250058412552
1749919814278218800,2.38621875,-0.7528125047683716,1.4213374853134155,0.3669874966144562
1749919814288231700,2.396231689453125,-0.7442874908447266,1.7835124731063843,0.5842375159263611
1749919814298244600,2.40624462890625,-0.6269999742507935,2.1212124824523926,0.73232501745224
1749919814308257500,2.416257568359375,-0.5141124725341797,2.3864500522613525,0.806850016117096
1749919814318270700,2.426270751953125,-0.47148749232292175,2.5878875255584717,0.7803124785423279
1749919814328283600,2.43628369140625,-0.519474983215332,2.744499921798706,0.6641250252723694
1749919814338296600,2.446296630859375,-0.6440500020980835,2.9020750522613525,0.5224999785423279
1749919814348309500,2.4563095703125,-0.8156499862670898,3.0948500633239746,0.4372499883174896
1749919814358322400,2.466322509765625,-1.025475025177002,3.323925018310547,0.46818751096725464
1749919814368335400,2.47633544921875,-1.3077625036239624,3.6627249717712402,0.6503750085830688
1749919814378348500,2.4863486328125,-1.6295125484466553,3.958899974822998,0.9208375215530396
1749919814388361500,2.496361572265625,-1.9863250255584717,4.003587245941162,1.1328624486923218
1749919814398374400,2.50637451171875,-2.4144999980926514,3.949275016784668,1.2340625524520874
1749919814408387300,2.51638720703125,-2.8598625659942627,3.9577999114990234,1.2670625448226929
1749919814418400300,2.526400146484375,-3.2998623847961426,4.046212673187256,1.2905750274658203
1749919814428413200,2.5364130859375,-3.729137420654297,4.155937671661377,1.3417249917984009
1749919814438426000,2.546426025390625,-4.027374744415283,4.1431498527526855,1.42683744430542
1749919814448439000,2.55643896484375,-4.10726261138916,3.9546375274658203,1.469462513923645
1749919814458452000,2.566451904296875,-4.034800052642822,3.7489373683929443,1.377887487411499
1749919814468465200,2.576465087890625,-3.878187417984009,3.623262405395508,1.1137499809265137
1749919814478478000,2.58647802734375,-3.7024624347686768,3.657362461090088,0.7803124785423279
1749919814488491000,2.596490966796875,-3.612950086593628,3.8714499473571777,0.4735499918460846
1749919814498504000,2.60650390625,-3.629999876022339,4.226200103759766,0.23485000431537628
1749919814508516900,2.616516845703125,-3.6214749813079834,4.633200168609619,0.170912504196167
1749919814518529800,2.62652978515625,-3.5213749408721924,4.659737586975098,0.21037499606609344
1749919814528542700,2.636542724609375,-3.366962432861328,4.205987453460693,0.21889999508857727
1749919814538556000,2.646555908203125,-3.2465124130249023,3.5828375816345215,0.15812499821186066
1749919814548568800,2.65656884765625,-3.2081499099731445,3.0149624347686768,0.0611874982714653
1749919814558581800,2.666581787109375,-3.3413875102996826,2.6240499019622803,0.07617499679327011
1749919814568594700,2.6765947265625,-3.5586373805999756,2.3065624237060547,-0.026124998927116394
1749919814578607600,2.686607666015625,-3.8431248664855957,2.3226499557495117,-0.09968750178813934
1749919814588620500,2.69662060546875,-4.090212345123291,2.783824920654297,0.03987500071525574
1749919814598633500,2.706633544921875,-4.138199806213379,3.2844624519348145,0.42336249351501465
1749919814608646400,2.716646484375,-4.0060625076293945,3.2568249702453613,0.927299976348877
1749919814618659300,2.726659423828125,-3.7855124473571777,2.797712564468384,1.3853124380111694
1749919814628672500,2.736672607421875,-3.4776499271392822,2.1968374252319336,1.7507874965667725
1749919814638685400,2.746685546875,-3.1293625831604004,1.5395874977111816,1.9318749904632568
1749919814648698400,2.756698486328125,-2.804450035095215,0.8962249755859375,1.8264124393463135
1749919814658711300,2.766711181640625,-2.5711123943328857,0.45512500405311584,1.4162499904632568
1749919814668724200,2.77672412109375,-2.4817373752593994,0.41263750195503235,0.852774977684021
1749919814678737400,2.7867373046875,-2.5210623741149902,0.5979874730110168,0.35103750228881836
1749919814688750300,2.796750244140625,-2.5136375427246094,0.5872625112533569,0.035612501204013824
1749919814698763300,2.80676318359375,-2.345337390899658,0.2782999873161316,-0.09542500227689743
1749919814708776200,2.816776123046875,-2.0619499683380127,-0.23622499406337738,-0.06984999775886536
1749919814718789000,2.8267890625,-1.7296124696731567,-0.7655999660491943,0.060224998742341995
1749919814728802300,2.83680224609375,-1.4654749631881714,-1.1214499473571777,0.19965000450611115
1749919814738815000,2.84681494140625,-1.3216500282287598,-1.292912483215332,0.27114999294281006
1749919814748828000,2.856827880859375,-1.2480875253677368,-1.3355374336242676,0.2465374916791916
1749919814758841000,2.866841064453125,-1.1415250301361084,-1.1448249816894531,0.18053749203681946
1749919814768853800,2.876853759765625,-0.951912522315979,-0.805062472820282,0.19552500545978546
1749919814778867000,2.886866943359375,-0.7016624808311462,-0.6058250069618225,0.28283751010894775
1749919814788880000,2.8968798828125,-0.4086500108242035,-0.6356624960899353,0.4031499922275543
1749919814798892800,2.906892822265625,-0.11041250079870224,-0.6803500056266785,0.5927624702453613
1749919814808905700,2.91690576171875,0.1260875016450882,-0.7635374665260315,0.8207374811172485
1749919814818918700,2.926918701171875,0.24323749542236328,-0.9659374952316284,0.9773499965667725
1749919814828931600,2.936931640625,0.2102375030517578,-1.1981749534606934,1.0498124361038208
1749919814838944500,2.946944580078125,0.0695749968290329,-1.5069999694824219,1.0839124917984009
1749919814848957700,2.956957763671875,-0.0006874999962747097,-1.8202250003814697,1.1169124841690063
1749919814858970600,2.966970703125,0.08662500232458115,-1.9608874320983887,1.1158125400543213
1749919814868983600,2.976983642578125,0.32958748936653137,-1.892687439918518,1.0390875339508057
1749919814878996200,2.986996337890625,0.604449987411499,-1.8213249444961548,0.7653250098228455
1749919814889009400,2.997009521484375,0.8003875017166138,-1.7764999866485596,0.29672500491142273
1749919814899022300,3.007022216796875,0.9857375025749207,-1.7210874557495117,-0.18479999899864197
1749919814909035500,3.017035400390625,1.2446500062942505,-1.584825038909912,-0.4670875072479248
1749919814919048400,3.02704833984375,1.5130499601364136,-1.4537874460220337,-0.49912500381469727
1749919814929061400,3.037061279296875,1.6036624908447266,-1.6093000173568726,-0.5608624815940857
1749919814939074300,3.04707421875,1.4683624505996704,-1.3312749862670898,-0.7121124863624573
1749919814949087200,3.057087158203125,1.0720875263214111,-0.7880125045776367,-0.7621625065803528
1749919814959100200,3.06710009765625,0.6821374893188477,-0.19030000269412994,-0.6589000225067139
1749919814969113000,3.077113037109375,0.5777750015258789,0.42102500796318054,-0.28503748774528503
1749919814979126300,3.087126220703125,0.7481374740600586,1.0687874555587769,0.37014999985694885
1749919814989139000,3.097138916015625,0.8046500086784363,1.654675006866455,1.110450029373169
1749919814999152000,3.107152099609375,0.5883625149726868,2.036099910736084,1.6953749656677246
1749919815009165000,3.1171650390625,0.27623748779296875,2.2789249420166016,2.024549961090088
1749919815019178000,3.127177978515625,-0.1541374921798706,2.3758625984191895,2.1118624210357666
1749919815029191000,3.13719091796875,-0.6664624810218811,2.039262533187866,1.9958125352859497
1749919815039203800,3.147203857421875,-1.191575050354004,1.4565374851226807,1.784887433052063
1749919815049217000,3.157217041015625,-1.5303750038146973,1.0315250158309937,1.6249749660491943
1749919815059230200,3.167230224609375,-1.6102625131607056,0.688462495803833,1.5984375476837158
1749919815069243100,3.1772431640625,-1.53353750705719,0.21449999511241913,1.6388624906539917
1749919815079256000,3.187256103515625,-1.424912452697754,-0.2447499930858612,1.627174973487854
1749919815089269000,3.19726904296875,-1.226775050163269,-0.4961000084877014,1.4737249612808228
1749919815099282000,3.207281982421875,-0.8625375032424927,-0.6410250067710876,1.2340625524520874
1749919815109294800,3.217294921875,-0.42996248602867126,-0.7550125122070312,0.9539750218391418
1749919815119307800,3.227307861328125,-0.11041250079870224,-0.7933750152587891,0.6620625257492065
1749919815129320700,3.23732080078125,0.08662500232458115,-0.7645000219345093,0.3605250120162964
1749919815139334000,3.247333984375,0.15702499449253082,-0.6249374747276306,0.05596249923110008
1749919815149346800,3.257346923828125,0.1260875016450882,-0.2447499930858612,-0.2381500005722046
1749919815159359700,3.26735986328125,0.05252499878406525,0.40837499499320984,-0.45333749055862427
1749919815169372700,3.27737255859375,0.018562499433755875,1.0528374910354614,-0.47671249508857727
1749919815179385600,3.287385498046875,0.15482500195503235,1.4000250101089478,-0.2040500044822693
1749919815189398500,3.2973984375,0.421162486076355,1.3308625221252441,0.16568750143051147
1749919815199411500,3.307411376953125,0.780174970626831,0.7896624803543091,0.511775016784668
1749919815219437300,3.327437255859375,1.195562481880188,-0.31185001134872437,0.4437125027179718
1749919815229450500,3.337450439453125,1.203125,-0.6121500134468079,-0.0826374962925911
1749919815239463400,3.34746337890625,1.187037467956543,-0.9563124775886536,-0.6748499870300293
1749919815249476400,3.357476318359375,1.277649998664856,-1.7115999460220337,-1.202162504196167
1749919815259489300,3.3674892578125,1.3490124940872192,-2.442275047302246,-1.450350046157837
1749919815269502200,3.377502197265625,1.2329624891281128,-2.937687397003174,-1.3278374671936035
1749919815279515100,3.38751513671875,0.7418124675750732,-3.1145124435424805,-1.0700249671936035
1749919815289528000,3.397528076171875,-0.07315000146627426,-2.8694875240325928,-0.8729875087738037
1749919815299541200,3.407541259765625,-0.9114875197410583,-2.163287401199341,-0.7462124824523926
1749919815309554200,3.41755419921875,-1.5016374588012695,-1.1512874364852905,-0.6301624774932861
1749919815319567000,3.427567138671875,-1.733875036239624,-0.1765500009059906,-0.39476248621940613
1749919815329580000,3.437580078125,-1.5709375143051147,0.5830000042915344,0.10491249710321426
1749919815339593000,3.447593017578125,-1.052150011062622,1.1688874959945679,0.7397499680519104
1749919815349606000,3.45760595703125,-0.5535749793052673,1.4554375410079956,1.47798752784729
1749919815359619000,3.467619140625,-0.2915000021457672,1.212612509727478,2.066075086593628
1749919815369632000,3.477632080078125,-0.24997499585151672,0.9025499820709229,2.2364375591278076
1749919815379644700,3.487644775390625,-0.4353249967098236,0.7640874981880188,1.8605124950408936
1749919815389657900,3.497657958984375,-0.8091874718666077,0.6745749711990356,1.1606374979019165
1749919815399670800,3.5076708984375,-1.1490875482559204,0.24323749542236328,0.7419499754905701
1749919815409683700,3.51768359375,-1.1064624786376953,-0.41304999589920044,0.6844750046730042
1749919815419696600,3.527696533203125,-0.9466875195503235,-0.9136874675750732,0.669487476348877
1749919815429709600,3.53770947265625,-0.7485499978065491,-1.1299749612808228,0.40741249918937683
1749919815439722500,3.547722412109375,-0.7495124936103821,-1.060675024986267,-0.009074999950826168
1749919815449735700,3.557735595703125,-1.0734624862670898,-0.8690000176429749,-0.16885000467300415
1749919815459748600,3.56774853515625,-1.3407624959945679,-0.6356624960899353,0.052662499248981476
1749919815469761500,3.577761474609375,-1.3429625034332275,-0.41304999589920044,0.4596624970436096
1749919815479774500,3.5877744140625,-1.069200038909912,-0.04331250116229057,0.8516749739646912
1749919815489787400,3.597787353515625,-0.630299985408783,0.5937250256538391,0.9965999722480774
1749919815499800300,3.60780029296875,-0.2616625130176544,1.2434124946594238,0.861299991607666
1749919815509813500,3.6178134765625,-0.10078749805688858,1.618512511253357,0.6481750011444092
1749919815519826400,3.627826416015625,0.0695749968290329,1.453374981880188,0.41593748331069946
1749919815529839400,3.63783935546875,0.14739999175071716,1.3297624588012695,0.3306874930858612
1749919815539852300,3.647852294921875,0.09735000133514404,1.3255000114440918,0.44261249899864197
1749919815549865200,3.657865234375,0.24213749170303345,1.2157750129699707,0.6012874841690063
1749919815559878100,3.667878173828125,0.549037516117096,0.8769749999046326,0.9347249865531921
1749919815569891000,3.67789111328125,1.103987455368042,0.07699999958276749,1.0614999532699585
1749919815579904000,3.687904052734375,1.7048624753952026,-1.1607749462127686,0.8047875165939331
1749919815589917000,3.6979169921875,2.321549892425537,-2.6127750873565674,0.1634874939918518
1749919815599930000,3.70793017578125,2.4505250453948975,-3.463900089263916,-0.6663249731063843
1749919815609943000,3.717943115234375,1.4075875282287598,-2.7182374000549316,-1.1126500368118286
1749919815619956000,3.7279560546875,-0.35749998688697815,-1.0819875001907349,-0.944350004196167
1749919815629969000,3.737968994140625,-1.8126624822616577,0.7470374703407288,-0.6503750085830688
1749919815639981800,3.74798193359375,-2.4880623817443848,2.4344375133514404,0.1251250058412552
1749919815649995000,3.7579951171875,-2.975912570953369,4.059000015258789,2.3302125930786133
1749919815660008000,3.768008056640625,-2.4550623893737793,4.595799922943115,3.0578625202178955
1749919815670020900,3.778020751953125,-1.7114624977111816,4.418012619018555,2.815999984741211
1749919815680033800,3.78803369140625,-1.1873124837875366,4.269925117492676,2.5976500511169434
1749919815690046700,3.798046630859375,-0.9967374801635742,4.16872501373291,2.203437566757202
1749919815700059600,3.8080595703125,-0.868862509727478,4.029162406921387,1.6623749732971191
1749919815710072600,3.818072509765625,-0.7665625214576721,3.319662570953369,1.2255375385284424
1749919815720085800,3.828085693359375,-0.6184750199317932,2.2171874046325684,0.8601999878883362
1749919815730098700,3.8380986328125,-0.5631999969482422,1.3670250177383423,0.6066499948501587
1749919815740111600,3.848111572265625,-0.8634999990463257,1.0741499662399292,0.5097125172615051
1749919815760137500,3.868137451171875,-1.975737452507019,1.4926999807357788,0.8399875164031982
1749919815770150400,3.878150390625,-2.491225004196167,2.3417625427246094,1.110450029373169
1749919815780163300,3.888163330078125,-2.722362518310547,3.2844624519348145,1.2522125244140625
1749919815790176300,3.89817626953125,-2.690462589263916,4.01321268081665,1.0731874704360962
1749919815800189400,3.908189453125,-2.4028124809265137,4.667299747467041,0.7675250172615051
1749919815810202400,3.918202392578125,-1.9362750053405762,5.369237422943115,0.6247999668121338
1749919815820215300,3.92821533203125,-1.600637435913086,6.272612571716309,0.6140750050544739
1749919815830228200,3.938228271484375,-1.707200050354004,7.440124988555908,0.6140750050544739
1749919815840241200,3.9482412109375,-2.366650104522705,8.820762634277344,0.6546375155448914
1749919815850254000,3.958254150390625,-3.2934000492095947,10.215149879455566,0.9795500040054321
1749919815860267300,3.968267333984375,-4.016787528991699,10.331199645996094,1.9563499689102173
1749919815870280200,3.9782802734375,-4.074262619018555,8.844137191772461,3.1238625049591064
1749919815880293000,3.988293212890625,-3.495800018310547,6.3460373878479,4.082650184631348
1749919815890306000,3.99830615234375,-2.9834749698638916,3.499650001525879,4.642962455749512
1749919815900319000,4.008319091796875,-2.1653499603271484,0.5713124871253967,4.100662708282471
1749919815910332000,4.018331787109375,-0.5715875029563904,-1.834112524986267,2.1533875465393066
1749919815920344800,4.0283447265625,1.2275999784469604,-3.656674861907959,-0.8207374811172485
1749919815930358000,4.03835791015625,1.5855125188827515,-4.670875072479248,-2.9044125080108643
1749919815940371000,4.048370849609375,0.42336249351501465,-4.1392998695373535,-3.4157750606536865
1749919815950383900,4.0583837890625,-0.47464999556541443,-3.067625045776367,-3.173912525177002
1749919815960396800,4.068396728515625,-0.2798124849796295,-2.098249912261963,-2.915137529373169
1749919815970410000,4.078409912109375,0.8238999843597412,-1.1309374570846558,-2.8682498931884766
1749919815980423000,4.0884228515625,2.3152248859405518,-0.44288748502731323,-3.0120749473571777
1749919815990435600,4.098435546875,3.5785748958587646,-0.24681249260902405,-3.131424903869629
1749919816000448800,4.10844873046875,4.6385626792907715,-0.6313999891281128,-3.242112398147583
1749919816010461700,4.118461669921875,5.746399879455566,-1.8244874477386475,-3.47228741645813
1749919816020474600,4.128474609375,6.740250110626221,-3.6844499111175537,-4.046487331390381
1749919816030487800,4.13848779296875,6.82453727722168,-5.213037490844727,-4.920987606048584
1749919816040500700,4.148500732421875,5.301175117492676,-5.679712295532227,-5.054224967956543
1749919816050513700,4.158513671875,3.060887575149536,-5.923637390136719,-4.7399001121521
1749919816060526600,4.168526611328125,1.546049952507019,-6.245387554168701,-4.2233123779296875
1749919816070539500,4.17853955078125,0.9601625204086304,-6.075987339019775,-3.4359874725341797
1749919816080552400,4.188552490234375,0.871749997138977,-5.42080020904541,-2.4666125774383545
1749919816090565600,4.198565673828125,1.2329624891281128,-4.235137462615967,-1.5813875198364258
1749919816100578600,4.20857861328125,1.3287999629974365,-3.2850124835968018,-0.9219374656677246
1749919816110591500,4.218591552734375,1.2392874956130981,-2.806649923324585,-1.093537449836731
1749919816120604700,4.228604736328125,1.4225749969482422,-2.8470749855041504,-1.967074990272522
1749919816130617300,4.238617431640625,1.8070249557495117,-3.2455499172210693,-3.052500009536743
1749919816140630300,4.24863037109375,2.096874952316284,-3.619412422180176,-3.9078874588012695
1749919816150643500,4.2586435546875,2.435537576675415,-4.084987640380859,-4.088974952697754
1749919816160656400,4.268656494140625,2.812700033187866,-4.385425090789795,-4.127337455749512
1749919816170669300,4.27866943359375,3.2143375873565674,-3.6023623943328857,-4.390512466430664
1749919816180682500,4.2886826171875,3.230287551879883,-0.1498750001192093,-4.634437561035156
1749919816190695200,4.298695068359375,2.671074867248535,2.804037570953369,-3.7386250495910645
1749919816200708000,4.3087080078125,2.2193875312805176,2.1106250286102295,-2.2844250202178955
1749919816210721000,4.318720947265625,1.767699956893921,0.6287875175476074,-1.468500018119812
1749919816220734200,4.328734130859375,1.2541375160217285,0.49348750710487366,-1.375825047492981
1749919816230747100,4.3387470703125,1.169987440109253,1.4053875207901,-1.6772249937057495
1749919816240760300,4.34876025390625,1.8166500329971313,1.1379499435424805,-2.1555874347686768
1749919816250773200,4.358773193359375,2.297075033187866,-0.7815499901771545,-2.2621500492095947
1749919816260786200,4.3687861328125,2.0765249729156494,-1.6263500452041626,-1.5207500457763672
1749919816270798800,4.378798828125,0.9260625243186951,-0.5813499689102173,-0.34677499532699585
1749919816280811800,4.388811767578125,-0.5396875143051147,1.205187439918518,0.5267624855041504
1749919816290825000,4.398824951171875,-1.3301750421524048,2.814762592315674,0.9326624870300293
1749919816300838000,4.408837890625,-1.6933125257492065,3.7276248931884766,1.3213750123977661
1749919816310851000,4.41885107421875,-2.0630500316619873,4.114412307739258,1.8273749351501465
1749919816320863700,4.42886376953125,-2.5679500102996826,4.112212657928467,2.0681374073028564
1749919816330877000,4.438876953125,-3.037787437438965,3.83308744430542,1.610124945640564
1749919816340889900,4.448889892578125,-3.6651999950408936,3.9546375274658203,0.7024874687194824
1749919816350902800,4.45890283203125,-4.246824741363525,4.489375114440918,0.14327499270439148
1749919816360915700,4.468915771484375,-4.97763729095459,4.721612453460693,0.36588749289512634
1749919816370928600,4.4789287109375,-5.70734977722168,3.90348744392395,2.095912456512451
1749919816380941800,4.48894189453125,-5.749837398529053,4.250675201416016,3.981450080871582
1749919816390954800,4.498954833984375,-4.581362247467041,3.2770373821258545,3.586137533187866
1749919816400967700,4.5089677734375,-3.4190750122070312,1.4565374851226807,2.059612512588501
1749919816410980600,4.518980712890625,-4.083887577056885,2.0743250846862793,0.3669874966144562
1749919816420993500,4.52899365234375,-5.16298770904541,3.7628250122070312,-0.28283751010894775
1749919816431006500,4.53900634765625,-4.735774993896484,4.464900016784668,0.5139750242233276
1749919816441019600,4.54901953125,-2.4092750549316406,4.944224834442139,2.1735999584198
1749919816451032600,4.559032470703125,0.06435000151395798,4.6224751472473145,3.740687370300293
1749919816461045500,4.56904541015625,0.9922000169754028,3.8065500259399414,4.166800022125244
1749919816471058400,4.579058349609375,0.7864999771118164,2.0211124420166016,3.734225034713745
1749919816481071400,4.5890712890625,0.20487499237060547,-0.2457125037908554,3.2165374755859375
1749919816491084300,4.599084228515625,-0.16788749396800995,-2.5232625007629395,2.8831000328063965
1749919816501097200,4.60909716796875,-0.37991249561309814,-4.783762454986572,2.248262405395508
1749919816511110100,4.619110107421875,-0.8401250243186951,-6.610724925994873,0.8016250133514404
1749919816521123000,4.629123046875,-1.0510499477386475,-7.578037261962891,-0.9710249900817871
1749919816531136000,4.639135986328125,-0.23608750104904175,-8.065887451171875,-2.436774969100952
1749919816541149000,4.64914892578125,1.0795124769210815,-6.82165002822876,-3.1601624488830566
1749919816551162000,4.659162109375,0.7375500202178955,-3.695037364959717,-3.8440873622894287
1749919816561175000,4.669175048828125,-0.6579374670982361,-0.4641999900341034,-4.221112251281738
1749919816571188000,4.67918798828125,-1.092574954032898,0.8386124968528748,-3.5521750450134277
1749919816581201200,4.689201171875,-0.14767499268054962,2.9841625690460205,-1.0498124361038208
1749919816591214000,4.699214111328125,1.5578750371932983,3.6542000770568848,2.4644124507904053
1749919816601227000,4.70922705078125,2.789187431335449,1.7228749990463257,3.8620998859405518
1749919816611240000,4.719239990234375,2.3513875007629395,0.24956250190734863,3.7736873626708984
1749919816621252900,4.7292529296875,1.5002624988555908,0.42528748512268066,3.0962250232696533
1749919816631265800,4.739265869140625,1.2083499431610107,0.9207000136375427,2.5273873805999756
1749919816641279000,4.749279052734375,1.7910749912261963,0.9653875231742859,2.5007123947143555
1749919816651292000,4.7592919921875,3.043837547302246,-0.02199999988079071,2.578399896621704
1749919816661304800,4.769304931640625,3.9983625411987305,-2.0801000595092773,2.4463999271392822
1749919816671317800,4.77931787109375,4.2741875648498535,-1.467674970626831,1.9222500324249268
1749919816681330700,4.78933056640625,3.9440500736236572,-0.4961000084877014,-0.09638749808073044
1749919816691343600,4.799343505859375,2.469637393951416,-1.7275500297546387,-3.217637538909912
1749919816701356800,4.809356689453125,1.0869375467300415,-2.38700008392334,-3.716212511062622
1749919816711369700,4.81936962890625,1.0135124921798706,-2.363487482070923,-3.0078125
1749919816721382700,4.829382568359375,1.470425009727478,-3.0463125705718994,-3.1942625045776367
1749919816731395600,4.8393955078125,1.543987512588501,-4.124450206756592,-4.428874969482422
1749919816741408500,4.849408447265625,1.3831125497817993,-4.120187282562256,-5.124487400054932
1749919816751421700,4.859421630859375,1.2105499505996704,-3.80049991607666,-5.176737308502197
1749919816761434600,4.8694345703125,1.2574374675750732,-3.515049934387207,-5.392887592315674
1749919816771447600,4.879447509765625,1.4896750450134277,-2.139775037765503,-5.277937412261963
1749919816781460500,4.88946044921875,1.4928375482559204,-0.24901250004768372,-4.462975025177002
1749919816791473400,4.899473388671875,1.3404874801635742,2.567537546157837,-3.117537498474121
1749919816801486600,4.909486572265625,0.9229000210762024,4.285874843597412,-1.8338375091552734
1749919816811499500,4.91949951171875,0.8930624723434448,3.8799750804901123,-0.45649999380111694
1749919816821512400,4.929512451171875,0.5106750130653381,2.8775999546051025,0.32010000944137573
1749919816831525400,4.939525390625,-0.5024250149726868,1.5950000286102295,1.0978000164031982
1749919816851551500,4.959551513671875,-0.8646000027656555,-0.1765500009059906,1.919087529182434
1749919816861564700,4.969564697265625,-1.101099967956543,-0.06462500244379044,1.7496874332427979
1749919816881590500,4.989590576171875,-2.3388750553131104,-0.31927499175071716,1.9254125356674194
1749919816891603500,4.999603515625,-1.4163874387741089,0.4328500032424927,1.3363624811172485
1749919816901616400,5.009616455078125,-0.5684249997138977,1.37128746509552,1.3129874467849731
1749919816911629300,5.01962939453125,-0.3713875114917755,1.471387505531311,2.3941500186920166
1749919816921642200,5.029642333984375,-0.4970625042915344,1.4085500240325928,3.1898624897003174
1749919816931655400,5.039655517578125,-0.35653749108314514,1.7419874668121338,3.463624954223633
1749919816941668400,5.04966845703125,-0.07315000146627426,2.078587532043457,3.475450038909912
1749919816951681300,5.059681396484375,-0.10078749805688858,2.442962408065796,3.177074909210205
1749919816961694200,5.069694091796875,-0.38417500257492065,1.8517124652862549,2.928887367248535
1749919816971707100,5.07970703125,-0.7613375186920166,0.8791750073432922,2.753162384033203
1749919816981720300,5.08972021484375,-1.2449250221252441,1.3095500469207764,2.28552508354187
1749919816991733200,5.099733154296875,-2.0215249061584473,1.3925999402999878,1.994712471961975
1749919817001746200,5.10974609375,-2.665987491607666,0.9846374988555908,1.6058624982833862
1749919817011759000,5.119759033203125,-2.8747124671936035,1.6567374467849731,1.744325041770935
1749919817021772000,5.12977197265625,-2.2867624759674072,3.0874249935150146,2.850100040435791
1749919817031785000,5.139784912109375,-1.2000999450683594,5.759187698364258,3.6543374061584473
1749919817041798100,5.149798095703125,-0.7623000144958496,4.688475131988525,3.4817750453948975
1749919817051811000,5.15981103515625,-0.5257999897003174,2.5717999935150146,2.5251874923706055
1749919817061824000,5.169823974609375,-0.3489750027656555,1.1625624895095825,1.7050000429153442
1749919817071837000,5.1798369140625,-0.3852750062942505,0.41690000891685486,0.9028249979019165
1749919817081849900,5.189849853515625,-0.3745499849319458,-0.05939999967813492,0.5245624780654907
1749919817091862800,5.19986279296875,-0.24777500331401825,-0.03904999792575836,0.5895999670028687
1749919817101876000,5.2098759765625,-0.10724999755620956,1.214674949645996,0.9486125111579895
1749919817111888600,5.219888671875,0.16554999351501465,2.1564126014709473,0.9028249979019165
1749919817121901600,5.229901611328125,-0.3011249899864197,1.6834124326705933,0.15070000290870667
1749919817131914800,5.239914794921875,0.23471249639987946,2.097837448120117,0.7056499719619751
1749919817141927700,5.249927734375,1.0539374351501465,1.2402499914169312,0.5321249961853027
1749919817151940600,5.259940673828125,0.8441125154495239,-0.6984999775886536,-0.603487491607666
1749919817161953500,5.26995361328125,0.5937250256538391,-2.0268874168395996,-1.3619375228881836
1749919817171966700,5.279966796875,0.4222624897956848,-2.5190000534057617,-1.6911125183105469
1749919817181979600,5.289979736328125,-0.48647499084472656,-3.1486124992370605,-2.5177624225616455
1749919817191992600,5.29999267578125,-1.3546500205993652,-3.3350625038146973,-3.3475749492645264
1749919817202005800,5.310005859375,-1.733875036239624,-2.3847999572753906,-3.2091124057769775
1749919817212018700,5.320018798828125,-1.926650047302246,-0.38747498393058777,-2.090549945831299
1749919817222031600,5.330031494140625,-2.4263250827789307,1.1635249853134155,-1.0988999605178833
1749919817232044500,5.34004443359375,-2.787400007247925,1.9071249961853027,0.011137500405311584
1749919817242057700,5.3500576171875,-2.539212465286255,1.9432874917984009,0.4926624894142151
1749919817262083600,5.37008349609375,-1.9692749977111816,0.9431124925613403,0.12828749418258667
1749919817272096500,5.380096435546875,-1.7307125329971313,0.5915250182151794,-0.6077499985694885
1749919817292122400,5.400122314453125,-1.1692999601364136,0.30387499928474426,-1.037024974822998
1749919817302135300,5.41013525390625,-1.2885124683380127,-0.0006874999962747097,-0.9624999761581421
1749919817312148500,5.4201484375,-1.735937476158142,-0.5365250110626221,-1.3129874467849731
1749919817322161200,5.4301611328125,-2.3559250831604004,-0.7794874906539917,-1.29277503490448
1749919817332174000,5.440174072265625,-2.5775749683380127,0.28366249799728394,-1.019974946975708
1749919817342187300,5.450187255859375,-2.4774749279022217,1.5204750299453735,-0.6972625255584717
1749919817352200200,5.4602001953125,-2.7788748741149902,0.050324998795986176,-0.32862499356269836
1749919817362213000,5.470213134765625,-3.664099931716919,-0.8295375108718872,-0.2839374840259552
1749919817372226300,5.480226318359375,-3.372187376022339,-0.5046250224113464,-0.6429499983787537
1749919817382239200,5.4902392578125,-2.783137559890747,-0.9563124775886536,-0.4959625005722046
1749919817392252200,5.500252197265625,-2.566849946975708,-2.5595624446868896,0.5299249887466431
1749919817402265000,5.51026513671875,-2.2367124557495117,-2.9930999279022217,1.3001999855041504
1749919817412278000,5.520278076171875,-1.866012454032898,-2.8173749446868896,2.451624870300293
1749919817422291000,5.530291015625,-2.0981125831604004,-3.005887508392334,3.974987506866455
1749919817432304000,5.54030419921875,-2.522162437438965,-2.922837495803833,4.254112243652344
1749919817442317000,5.550317138671875,-2.6307873725891113,-3.264662504196167,3.4700875282287598
1749919817452330200,5.560330322265625,-1.8020750284194946,-4.090350151062012,1.111549973487854
1749919817462343200,5.57034326171875,-1.2651374340057373,-3.013312578201294,0.25189998745918274
1749919817472356000,5.580356201171875,-0.9689624905586243,-1.0958750247955322,0.1975875049829483
1749919817482369000,5.590369140625,-1.4547499418258667,-0.21697500348091125,-0.03891250118613243
1749919817492382000,5.6003818359375,-2.6478374004364014,-0.31817498803138733,-0.6183375120162964
1749919817502395000,5.610394775390625,-2.8769125938415527,-0.3843125104904175,-0.7515749931335449
1749919817512407800,5.62040771484375,-2.031012535095215,-0.3639625012874603,-0.14121249318122864
1749919817522420700,5.630420654296875,-1.3194500207901,-0.7474499940872192,0.07727500051259995
1749919817532434000,5.640433837890625,-0.8219749927520752,0.10999999940395355,-0.2765125036239624
1749919817542446800,5.65044677734375,-0.6153125166893005,-0.15729999542236328,0.030387500301003456
1749919817552459800,5.660459716796875,-0.07837499678134918,-0.8071249723434448,0.26358750462532043
1749919817562472700,5.67047265625,-0.0411125011742115,-1.0478874444961548,0.567187488079071
1749919817572485600,5.680485595703125,-0.16472500562667847,-1.3003374338150024,0.5779125094413757
1749919817582498800,5.690498779296875,-0.2733500003814697,-1.1405625343322754,0.612975001335144
1749919817592511700,5.70051171875,-0.32133749127388,-0.9722625017166138,0.7451124787330627
1749919817602524700,5.710524658203125,-0.3404499888420105,-0.8636375069618225,0.8218374848365784
1749919817612537600,5.72053759765625,-0.344712495803833,-0.5248374938964844,0.7834749817848206
1749919817622550500,5.730550537109375,-0.3713875114917755,-0.15207499265670776,0.769587516784668
1749919817632563500,5.7405634765625,-0.4501749873161316,0.029012499377131462,0.7089499831199646
1749919817642576600,5.75057666015625,-0.5504124760627747,-0.16266250610351562,0.6556000113487244
1749919817652589600,5.760589599609375,-0.6078875064849854,-0.527037501335144,0.5310249924659729
1749919817662602500,5.7706025390625,-0.5908374786376953,-0.8178499937057495,0.5714499950408936
1749919817672615400,5.780615478515625,-0.5993624925613403,-0.8188124895095825,0.73232501745224
1749919817682628400,5.79062841796875,-0.6089875102043152,-0.4395875036716461,0.8027250170707703
1749919817692641300,5.800641357421875,-0.41401249170303345,0.05142499879002571,0.723800003528595
1749919817702654200,5.810654296875,0.443574994802475,0.5297874808311462,0.5416125059127808
1749919817712667400,5.82066748046875,1.8401625156402588,0.6736124753952026,0.5853375196456909
1749919817722680300,5.830680419921875,3.0597875118255615,0.7981874942779541,0.7387874722480774
1749919817732693200,5.840693359375,4.124037265777588,1.0144749879837036,0.5330874919891357
1749919817742706200,5.8507060546875,5.221287250518799,0.9207000136375427,0.0952875018119812
1749919817752719000,5.860718994140625,6.240712642669678,0.42858749628067017,-0.4916999936103821
1749919817762732300,5.870732177734375,6.7850751876831055,-0.6931374669075012,-1.9392999410629272
1749919817772745200,5.8807451171875,7.238824844360352,-4.2458624839782715,-3.2815749645233154
1749919817782758100,5.890758056640625,5.509900093078613,-4.638975143432617,-2.729787588119507
1749919817792771000,5.90077099609375,2.5090999603271484,-2.022624969482422,-1.800837516784668
1749919817802784000,5.910783935546875,1.045412540435791,-0.2745875120162964,-0.7675250172615051
1749919817812797200,5.920797119140625,0.5724124908447266,-0.2564375102519989,0.6919000148773193
1749919817822810000,5.93081005859375,0.24213749170303345,1.1145750284194946,1.4876124858856201
1749919817832823000,5.940822998046875,-0.41827499866485596,1.3734874725341797,1.4748250246047974
1749919817842836000,5.9508359375,-0.8091874718666077,1.445812463760376,1.276687502861023
1749919817852849200,5.96084912109375,-0.8305000066757202,1.8272374868392944,1.2297999858856201
1749919817862862000,5.970862060546875,-0.4395875036716461,2.336400032043457,1.3960374593734741
1749919817872875300,5.980875244140625,-0.006049999967217445,2.3375000953674316,1.2874125242233276
1749919817882888200,5.99088818359375,0.17723749577999115,2.173462390899658,1.0753874778747559
1749919817892901000,6.000901123046875,0.1676124930381775,2.1553125381469727,0.9773499965667725
1749919817902914000,6.0109140625,0.23154999315738678,1.7644000053405762,0.7590000033378601
1749919817912927200,6.02092724609375,0.5170000195503235,1.4586000442504883,0.6098124980926514
1749919817922940200,6.030940185546875,0.871749997138977,1.4565374851226807,0.5288249850273132
1749919817932953300,6.040953369140625,1.2329624891281128,1.3564374446868896,0.22632500529289246
1749919817942966300,6.05096630859375,1.3330625295639038,1.239150047302246,-0.05912499874830246
1749919817952979200,6.060979248046875,1.0687874555587769,1.685612440109253,0.011137500405311584
1749919817962992000,6.0709921875,0.43821248412132263,1.967900037765503,0.15070000290870667
1749919817973005300,6.08100537109375,-0.14657500386238098,2.002000093460083,0.44151249527931213
1749919817983018200,6.091018310546875,-0.6931374669075012,2.4248125553131104,0.7942000031471252
1749919817993031200,6.10103125,-1.2992374897003174,2.346024990081787,1.0305625200271606
1749919818003044000,6.111044189453125,-1.8456624746322632,2.088212490081787,0.9997624754905701
1749919818013057000,6.12105712890625,-2.269712448120117,1.9901750087738037,0.4628250002861023
1749919818023070200,6.1310703125,-2.6531999111175537,1.86986243724823,-0.09858749806880951
1749919818033083100,6.141083251953125,-3.01001238822937,2.0690999031066895,-0.6599999666213989
1749919818043096000,6.151095947265625,-3.354175090789795,2.9085373878479004,-1.2000999450683594
1749919818053109000,6.16110888671875,-3.6108875274658203,3.271674871444702,-1.7593125104904175
1749919818063122200,6.1711220703125,-3.619412422180176,2.537837505340576,-2.327049970626831
1749919818073135000,6.181135009765625,-3.367924928665161,1.3329249620437622,-2.615799903869629
1749919818083148000,6.19114794921875,-3.0196375846862793,0.5937250256538391,-2.7244250774383545
1749919818093161000,6.201160888671875,-2.4656500816345215,0.6532624959945679,-2.5720748901367188
1749919818103174000,6.211173828125,-1.7637125253677368,2.1404623985290527,-1.8243499994277954
1749919818113187000,6.22118701171875,-0.9541124701499939,2.821087598800659,-1.211787462234497
1749919818123200000,6.231199951171875,-0.2488749921321869,2.900012493133545,-1.3343000411987305
1749919818133213000,6.241212890625,-0.29260000586509705,3.0885250568389893,-1.1660000085830688
1749919818143226000,6.25122607421875,-1.644362449645996,3.072575092315674,0.4553999900817871
1749919818153239000,6.261239013671875,-2.838550090789795,1.7143499851226807,2.5859625339508057
1749919818163252000,6.271251953125,-2.787400007247925,-0.8827499747276306,4.603499889373779
1749919818173265000,6.281264892578125,-1.9127625226974487,-1.8713749647140503,6.217337608337402
1749919818183278000,6.291278076171875,-0.9763875007629395,-1.4399000406265259,7.547924995422363
1749919818193291000,6.301291015625,-0.47574999928474426,-4.073299884796143,8.158287048339844
1749919818203304000,6.311303955078125,-0.45980000495910645,-10.975112915039062,6.097024917602539
1749919818213317000,6.321317138671875,-0.9029625058174133,-13.586099624633789,2.8660500049591064
1749919818223329800,6.331329833984375,-1.2034000158309937,-11.022000312805176,-0.27114999294281006
1749919818233342700,6.3413427734375,-1.1565124988555908,-7.83144998550415,-1.3183499574661255
1749919818243356000,6.35135595703125,-1.1053625345230103,-6.8024001121521,0.8687250018119812
1749919818253368800,6.361368896484375,-1.0393625497817993,-4.82212495803833,1.910562515258789
1749919818263382000,6.371382080078125,-1.108525037765503,-3.6375625133514404,1.6410624980926514
1749919818273395200,6.381395263671875,-0.4725874960422516,-3.288174867630005,1.0551749467849731
1749919818283408100,6.391408203125,0.7694500088691711,-1.423949956893921,-0.2433750033378601
1749919818293421000,6.401421142578125,1.7356624603271484,-0.2404875010251999,-1.118012547492981
1749919818303434000,6.41143408203125,1.646287441253662,0.08772499859333038,-1.0785499811172485
1749919818313447200,6.421447265625,1.304324984550476,0.634149968624115,-0.6472125053405762
1749919818323460000,6.431460205078125,1.2978625297546387,1.2828749418258667,-0.5523374676704407
1749919818333473000,6.44147314453125,1.7037625312805176,1.7697625160217285,-0.7834749817848206
1749919818343486000,6.45148583984375,2.538937568664551,2.1905124187469482,-0.9124500155448914
1749919818353499000,6.461498779296875,3.838587522506714,2.8818624019622803,-1.0231374502182007
1749919818363512000,6.471511962890625,5.103037357330322,3.358025074005127,-1.1574749946594238
1749919818373525000,6.48152490234375,5.453525066375732,2.8318123817443848,-1.6303374767303467
1749919818383538200,6.4915380859375,5.74007511138916,0.5755749940872192,-2.884200096130371
1749919818393551000,6.501551025390625,6.290762424468994,-2.930262565612793,-2.78410005569458
1749919818403564000,6.51156396484375,6.229024887084961,-3.2850124835968018,-0.5002250075340271
1749919818413577000,6.521576904296875,5.352324962615967,0.9323874711990356,1.3139499425888062
1749919818423590000,6.53158984375,4.059000015258789,0.5531625151634216,0.49582499265670776
1749919818433603000,6.54160302734375,2.9277875423431396,-1.127774953842163,-0.39902499318122864
1749919818443616000,6.551615966796875,2.2407000064849854,-0.14561249315738678,-0.018699999898672104
1749919818453629000,6.56162890625,1.6025625467300415,1.6407874822616577,0.6503750085830688
1749919818463642000,6.57164208984375,0.806850016117096,2.3929123878479004,0.7973625063896179
1749919818473655300,6.5816552734375,0.2975499927997589,2.5921499729156494,0.669487476348877
1749919818483668000,6.59166796875,0.27623748779296875,2.507999897003174,0.5449125170707703
1749919818493681200,6.60168115234375,0.6554625034332275,3.532787561416626,0.7226999998092651
1749919818503694300,6.6116943359375,0.9922000169754028,4.734399795532227,0.8570374846458435
1749919818513707300,6.621707275390625,0.8003875017166138,4.03232479095459,0.604449987411499
1749919818523720200,6.63172021484375,0.6554625034332275,3.1055750846862793,0.016499999910593033
1749919818533733400,6.6417333984375,0.7471749782562256,3.071475028991699,-0.6737499833106995
1749919818543746300,6.651746337890625,0.9186375141143799,2.9574875831604004,-1.0125499963760376
1749919818553759200,6.66175927734375,0.7727500200271606,3.6872000694274902,-1.3991999626159668
1749919818563772400,6.6717724609375,-0.09019999951124191,4.30498743057251,-2.086287498474121
1749919818573785300,6.681785400390625,-1.2310374975204468,4.1186747550964355,-2.073499917984009
1749919818583798500,6.691798583984375,-1.866974949836731,3.866225004196167,-0.9304624795913696
1749919818593811500,6.7018115234375,-1.7881875038146973,3.2078750133514404,0.44261249899864197
1749919818603824400,6.711824462890625,-1.2545499801635742,2.566575050354004,1.5408250093460083
1749919818613837600,6.721837646484375,-1.2896125316619873,1.6066875457763672,1.634600043296814
1749919818623850500,6.7318505859375,-1.8446999788284302,0.7822374701499939,1.0114500522613525
1749919818633863400,6.741863525390625,-2.700087547302246,0.18892499804496765,0.3871999979019165
1749919818643876400,6.75187646484375,-2.963124990463257,0.2677125036716461,0.6183375120162964
1749919818653889500,6.7618896484375,-2.646737575531006,0.03973750025033951,1.8327374458312988
1749919818663902500,6.77190234375,-2.019325017929077,-1.3195874691009521,3.23895001411438
1749919818673915400,6.781915283203125,-1.175624966621399,-2.5605249404907227,4.1560750007629395
1749919818683928600,6.791928466796875,-0.32243749499320984,-2.796062469482422,4.5406622886657715
1749919818693941500,6.80194140625,0.4254249930381775,-3.6716625690460205,3.3475749492645264
1749919818703954700,6.81195458984375,1.0763499736785889,-6.282649993896484,1.268162488937378
1749919818713967900,6.8219677734375,1.4075875282287598,-8.808387756347656,-0.09858749806880951
1749919818723980800,6.831980712890625,1.4672625064849854,-9.88858699798584,-0.7526749968528748
1749919818733994000,6.841993896484375,1.3160125017166138,-7.644037246704102,-0.7578999996185303
1749919818744007000,6.8520068359375,0.8834375143051147,-3.0112500190734863,-1.4994374513626099
1749919818754019800,6.862019775390625,0.4819374978542328,0.9505375027656555,-2.970550060272217
1749919818764033000,6.872032958984375,0.2400749921798706,0.03973750025033951,-3.3231000900268555
1749919818774046000,6.8820458984375,0.11329999566078186,-1.8233875036239624,-2.601912498474121
1749919818784059000,6.892058837890625,0.24969999492168427,-2.808850049972534,-1.2223750352859497
1749919818794072000,6.902072021484375,0.5288249850273132,-2.5988874435424805,0.3957250118255615
1749919818804085000,6.9120849609375,0.6832374930381775,-0.805062472820282,1.0753874778747559
1749919818814098000,6.922097900390625,1.0741499662399292,0.6565625071525574,0.9847750067710876
1749919818824111000,6.932111083984375,1.6878124475479126,0.8951249718666077,1.1382249593734741
1749919818834124000,6.9421240234375,2.135237455368042,1.1253000497817993,1.5025999546051025
1749919818844137000,6.952136962890625,2.1575124263763428,1.8431874513626099,1.9830249547958374
1749919818854150100,6.962150146484375,1.7964375019073486,2.7656750679016113,2.393049955368042
1749919818864163000,6.9721630859375,1.3894374370574951,3.36861252784729,2.5348124504089355
1749919818874176300,6.98217626953125,1.1317625045776367,3.3111374378204346,2.3291125297546387
1749919818884189200,6.992189208984375,1.2893375158309937,3.1908249855041504,1.8870500326156616
1749919818894202400,7.002202392578125,1.710087537765503,2.700774908065796,1.452412486076355
1749919818904215300,7.01221533203125,1.9541499614715576,2.2342374324798584,0.7973625063896179
1749919818914228200,7.022228271484375,1.5237749814987183,3.780974864959717,-2.523124933242798
1749919818924241400,7.032241455078125,0.3636874854564667,4.112212657928467,-4.44276237487793
1749919818934254600,7.042254638671875,-0.8731250166893005,3.2227249145507812,-3.9047250747680664
1749919818944267800,7.052267822265625,-1.659350037574768,1.2339249849319458,-3.1942625045776367
1749919818954280700,7.06228076171875,-1.7125624418258667,-2.8950624465942383,-2.7616875171661377
1749919818964293600,7.072293701171875,-1.433437466621399,-5.948112487792969,-1.5952750444412231
1749919818974306800,7.082306884765625,-1.660312533378601,-3.734499931335449,-2.134274959564209
1749919818984319700,7.09231982421875,-2.308074951171875,-2.9664249420166016,-2.7861623764038086
1749919818994332700,7.102332763671875,-3.384974956512451,-2.679874897003174,-1.303362488746643
1749919819004345900,7.112345947265625,-4.095574855804443,-0.40974998474121094,-0.17531250417232513
1749919819014358800,7.12235888671875,-3.4691250324249268,1.4341249465942383,0.36588749289512634
1749919819024372000,7.1323720703125,-1.993749976158142,2.8360750675201416,0.5927624702453613
1749919819034385000,7.142385009765625,-1.5037000179290771,3.5199999809265137,0.6003249883651733
1749919819044397800,7.152397705078125,-2.1461000442504883,3.3963875770568848,0.5469750165939331
1749919819054411000,7.162410888671875,-2.9130749702453613,2.6751999855041504,0.5458750128746033
1749919819064424200,7.172424072265625,-3.2198374271392822,1.2680250406265259,0.5065500140190125
1749919819074437400,7.182437255859375,-3.6140499114990234,0.466949999332428,0.4830375015735626
1749919819084450300,7.1924501953125,-3.7237749099731445,0.40191251039505005,0.6353874802589417
1749919819094463200,7.202463134765625,-3.637424945831299,0.3348124921321869,0.9602999687194824
1749919819104476400,7.212476318359375,-3.5234375,1.4500750303268433,0.8175749778747559
1749919819114489600,7.222489501953125,-3.367924928665161,2.0477874279022217,0.7195374965667725
1749919819124502500,7.23250244140625,-3.0984249114990234,1.2626625299453735,0.4329875111579895
1749919819134515500,7.242515380859375,-2.6841375827789307,0.9110749959945679,0.2998875081539154
1749919819144528600,7.252528564453125,-2.4869625568389893,0.7108749747276306,0.7834749817848206
1749919819154541600,7.26254150390625,-2.6574625968933105,0.43174999952316284,1.0572375059127808
1749919819164554500,7.272554443359375,-2.9909000396728516,0.12168750166893005,1.0881749391555786
1749919819174567700,7.282567626953125,-3.216675043106079,-0.17765000462532043,1.120074987411499
1749919819184580600,7.29258056640625,-3.154937505722046,-0.48124998807907104,1.168062448501587
1749919819194593800,7.30259375,-2.907712459564209,-0.6580749750137329,1.228700041770935
1749919819204607000,7.31260693359375,-2.7234625816345215,-1.069200038909912,1.2905750274658203
1749919819214620000,7.322619873046875,-2.641512393951416,-1.798912525177002,1.0551749467849731
1749919819224633000,7.332633056640625,-2.9599623680114746,-1.1991374492645264,0.8346250057220459
1749919819234646000,7.34264599609375,-3.2422499656677246,-0.5302000045776367,1.0668624639511108
1749919819244659000,7.352658935546875,-3.1495749950408936,0.37097498774528503,1.5578750371932983
1749919819254672100,7.362672119140625,-2.900287389755249,0.780037522315979,1.867937445640564
1749919819264685300,7.372685302734375,-2.646737575531006,0.3326124846935272,2.220487594604492
1749919819274698200,7.3826982421875,-2.5647873878479004,-0.19359999895095825,2.70847487449646
1749919819284711400,7.39271142578125,-2.474174976348877,-0.008249999955296516,3.1898624897003174
1749919819294724400,7.402724365234375,-2.0587875843048096,0.09941250085830688,3.779049873352051
1749919819304737500,7.412737548828125,-1.6411999464035034,-0.4162124991416931,3.9866750240325928
1749919819314750500,7.42275048828125,-1.424912452697754,-1.1490875482559204,3.1387124061584473
1749919819324763600,7.432763671875,-1.035099983215332,-1.2024375200271606,1.7315374612808228
1749919819334776600,7.442776611328125,-0.4054875075817108,-0.28943750262260437,0.4713499844074249
1749919819344789500,7.45278955078125,0.010999999940395355,0.8556625247001648,-0.8772500157356262
1749919819354802700,7.462802734375,0.26881250739097595,2.3641750812530518,-2.0469624996185303
1749919819364815600,7.472815673828125,0.817437469959259,3.65310001373291,-2.6977500915527344
1749919819374828800,7.482828857421875,1.3245375156402588,4.520174980163574,-2.6977500915527344
1749919819394855000,7.50285498046875,1.4001624584197998,1.5300999879837036,-1.5452250242233276
1749919819404868000,7.5128681640625,0.9197375178337097,0.07163749635219574,-0.510812520980835
1749919819414881000,7.522881103515625,0.4487999975681305,-0.09556250274181366,1.0305625200271606
1749919819424894200,7.532894287109375,0.3807374835014343,-1.2534500360488892,1.9925124645233154
1749919819434907400,7.542907470703125,0.6747124791145325,-3.0250000953674316,1.9243124723434448
1749919819444920300,7.55292041015625,1.0016875267028809,-4.054049968719482,1.4577749967575073
1749919819454933200,7.562933349609375,1.3575375080108643,-3.8090250492095947,0.8303624987602234
1749919819464946400,7.572946533203125,1.9232125282287598,-2.9771499633789062,0.12732499837875366
1749919819474959400,7.58295947265625,2.958587408065796,-2.033212423324585,-0.5224999785423279
1749919819484972500,7.59297265625,4.670462608337402,-0.519474983215332,-1.0221749544143677
1749919819494985700,7.60298583984375,6.300387382507324,2.0350000858306885,-0.9411875009536743
1749919819504998700,7.61299853515625,7.65957498550415,3.7105748653411865,-1.950987458229065
1749919819515011800,7.62301171875,9.473750114440918,2.273562431335449,-5.093550205230713
1749919819525024800,7.633024658203125,10.999175071716309,3.329287528991699,-7.180387496948242
1749919819535038000,7.643037841796875,10.130037307739258,4.401925086975098,-7.896349906921387
1749919819545051100,7.653051025390625,7.756512641906738,-0.4002625048160553,-5.117062568664551
1749919819555064000,7.66306396484375,5.867812633514404,-5.922537326812744,-1.9467250108718872
1749919819565077200,7.6730771484375,4.069725036621094,-8.44937515258789,-0.6557375192642212
1749919819575090200,7.683090087890625,3.1226248741149902,-8.096824645996094,0.20817500352859497
1749919819585103400,7.693103271484375,3.546674966812134,-5.017099857330322,1.933937430381775
1749919819595116300,7.7031162109375,4.312550067901611,0.4988499879837036,2.249224901199341
1749919819605129500,7.71312939453125,4.398900032043457,5.855024814605713,0.9890375137329102
1749919819615142700,7.723142578125,3.6968250274658203,7.508325099945068,0.11453749984502792
1749919819625155800,7.73315576171875,3.8236000537872314,5.15625,-0.5640249848365784
1749919819635168800,7.743168701171875,4.3147501945495605,2.174562454223633,-0.8388875126838684
1749919819645182000,7.753181884765625,3.7021875381469727,1.6908375024795532,-0.3573625087738037
1749919819655195000,7.76319482421875,1.9764249324798584,2.538800001144409,-0.5673249959945679
1749919819665208000,7.7732080078125,0.22618749737739563,4.429699897766113,-1.3183499574661255
1749919819675221000,7.783220947265625,-0.06888750195503235,4.269925117492676,-1.3960374593734741
1749919819685234200,7.793234130859375,-0.6175125241279602,3.587100028991699,-0.9602999687194824
1749919819695247000,7.8032470703125,-1.3353999853134155,3.316499948501587,-0.944350004196167
1749919819705260300,7.81326025390625,-1.608199954032898,2.7955124378204346,-1.3576749563217163
1749919819715273200,7.823273193359375,-1.8350750207901,2.1499500274658203,-1.7337374687194824
1749919819725286400,7.833286376953125,-2.1003124713897705,1.2754499912261963,-1.9542875289916992
1749919819735299300,7.84329931640625,-2.364449977874756,0.42858749628067017,-1.883887529373169
1749919819745312500,7.8533125,-2.5583250522613525,0.10793749988079071,-1.5707999467849731
1749919819755325700,7.86332568359375,-2.7703499794006348,0.1494625061750412,-1.1137499809265137
1749919819765339000,7.8733388671875,-2.9781124591827393,0.5616874694824219,-0.5065500140190125
1749919819775351800,7.883351806640625,-3.0366873741149902,1.1167750358581543,0.3232625126838684
1749919819785365000,7.893364990234375,-2.8406124114990234,1.305287480354309,1.4108874797821045
1749919819795378000,7.9033779296875,-2.4604249000549316,1.1507375240325928,2.636975049972534
1749919819805391000,7.91339111328125,-2.1375749111175537,0.5852000117301941,3.845050096511841
1749919819815404300,7.923404296875,-1.660312533378601,0.2517625093460083,4.689849853515625
1749919819825417200,7.933417236328125,-1.2417625188827515,0.7044125199317932,5.137274742126465
1749919819835430400,7.943430419921875,-0.8848124742507935,0.7331500053405762,5.157487392425537
1749919819845443600,7.953443603515625,-0.4970625042915344,-0.03382499888539314,5.130812644958496
1749919819855456800,7.963456787109375,-0.6430875062942505,-4.992624759674072,3.600024938583374
1749919819865469700,7.9734697265625,-0.7420874834060669,-6.905799865722656,1.6388624906539917
1749919819875483000,7.98348291015625,-0.7293000221252441,-6.980324745178223,-0.13048750162124634
1749919819885495800,7.993495849609375,-0.9998999834060669,-6.483950138092041,-1.118012547492981
1749919819895509000,8.003509033203125,-1.4664374589920044,-5.398387432098389,-1.360837459564209
1749919819905522000,8.01352197265625,-1.7040375471115112,-4.05831241607666,-1.154175043106079
1749919819915535000,8.02353515625,-1.5921125411987305,-3.1070873737335205,-0.6344249844551086
1749919819925548300,8.03354833984375,-1.0734624862670898,-2.696924924850464,0.0611874982714653
1749919819935561500,8.0435615234375,-0.6323624849319458,-2.2165000438690186,0.6428124904632568
1749919819945574400,8.053574462890625,-0.5407875180244446,-1.4719375371932983,0.8218374848365784
1749919819955587600,8.063587646484375,-0.4768500030040741,-1.069200038909912,0.7078499794006348
1749919819965600800,8.073600830078124,-0.2457125037908554,-0.7933750152587891,0.4852375090122223
1749919819975613700,8.08361376953125,-0.02736249938607216,-0.3170749843120575,0.2391124963760376
1749919819985627000,8.093626953125,0.08030000329017639,0.36038750410079956,0.028187500312924385
1749919819995639800,8.103639892578125,0.062150001525878906,0.7726125121116638,-0.15289999544620514
1749919820005653000,8.113653076171875,0.010999999940395355,0.6043124794960022,-0.2274249941110611
1749919820015666200,8.123666259765624,-0.09116250276565552,-0.27665001153945923,-0.0943249985575676
1749919820025679000,8.13367919921875,-0.2264624983072281,-1.5027375221252441,0.2550624907016754
1749919820035692300,8.1436923828125,-0.3554374873638153,-2.5701498985290527,0.7590000033378601
1749919820045705500,8.15370556640625,-0.20941250026226044,-2.1823999881744385,0.5832750201225281
1749919820055718700,8.16371875,0.19318750500679016,-1.4185874462127686,0.1358499974012375
1749919820065731600,8.173731689453126,0.4499000012874603,-0.6132500171661377,-0.4596624970436096
1749919820075744800,8.183744873046875,0.3349500000476837,0.010999999940395355,-1.459975004196167
1749919820085758000,8.193758056640625,-0.14767499268054962,0.9900000095367432,-1.0008624792099
1749919820095771000,8.20377099609375,-0.4651624858379364,1.4033249616622925,-0.018699999898672104
1749919820105784000,8.2137841796875,-0.30002498626708984,0.6788374781608582,0.06338749825954437
1749919820115797000,8.223796875,-0.06462500244379044,0.2975499927997589,-0.03464999794960022
1749919820125810200,8.23381005859375,0.057887498289346695,0.3550249934196472,-0.09006249904632568
1749919820135823400,8.2438232421875,0.09844999760389328,0.5478000044822693,-0.24131250381469727
1749919820145836500,8.25383642578125,0.04399999976158142,1.085837483406067,-0.6226000189781189
1749919820155849500,8.263849365234375,0.03451250120997429,2.111725091934204,-1.1308000087738037
1749919820165862700,8.273862548828125,0.31679999828338623,3.3250250816345215,-1.3150500059127808
1749919820195902000,8.30390185546875,0.5010499954223633,1.618512511253357,-0.3862375020980835
1749919820215928000,8.323927978515625,0.4828999936580658,-1.4634125232696533,0.1975875049829483
1749919820225941200,8.333941162109374,0.5330874919891357,-2.159024953842163,0.3147374987602234
1749919820235954400,8.343954345703125,0.0695749968290329,-1.2439625263214111,0.26688748598098755
1749919820245967600,8.353967529296876,-0.7517125010490417,1.0665874481201172,-0.18809999525547028
1749919820255980500,8.36398046875,-1.3546500205993652,3.557262420654297,-0.7814124822616577
1749919820265994000,8.373993896484375,-1.5794625282287598,5.190212249755859,-1.3641375303268433
1749919820276007000,8.3840068359375,-1.5377999544143677,5.217987537384033,-1.9819250106811523
1749919820286020000,8.39402001953125,-1.4004374742507935,3.9470748901367188,-2.4910874366760254
1749919820296033000,8.404032958984375,-1.1213124990463257,2.2724626064300537,-2.5177624225616455
1749919820306046200,8.414046142578124,-0.6877750158309937,0.558525025844574,-1.8625749349594116
1749919820316059400,8.424059326171875,-0.35007500648498535,-0.8167499899864197,-0.7962625026702881
1749919820326072300,8.434072265625,-0.4534749984741211,-1.0819875001907349,0.19965000450611115
1749919820336085500,8.44408544921875,-1.6230499744415283,0.12278749793767929,0.8793125152587891
1749919820346098700,8.4540986328125,-2.5403125286102295,0.8152375221252441,0.8878374695777893
1749919820356112000,8.46411181640625,-2.3293874263763428,0.30607500672340393,0.5619624853134155
1749919820366125000,8.474125,-1.9106999635696411,-0.13708749413490295,0.2465374916791916
1749919820376138000,8.484137939453126,-1.4035999774932861,-0.4151124954223633,0.1060125008225441
1749919820386151200,8.494151123046874,-0.8188124895095825,-0.5611374974250793,-0.03355000168085098
1749919820396164400,8.504164306640625,-0.4703874886035919,-0.1691250056028366,-0.15399999916553497
1749919820406177300,8.51417724609375,-0.7645000219345093,0.12278749793767929,0.02928750030696392
1749919820416190500,8.5241904296875,-1.4067624807357788,0.16335000097751617,0.17627499997615814
1749919820426203600,8.53420361328125,-1.9596500396728516,0.22398750483989716,-0.07507500052452087
1749919820436216800,8.544216796875,-2.3826000690460205,0.18562500178813934,-0.12622499465942383
1749919820446230000,8.55422998046875,-2.0619499683380127,0.40617498755455017,-0.2807750105857849
1749919820456243200,8.5642431640625,-1.626212477684021,0.9579625129699707,-0.24763749539852142
1749919820466256100,8.574256103515625,-1.7859874963760376,1.3573999404907227,0.141075000166893
1749919820476269300,8.584269287109375,-1.983162522315979,1.0506374835968018,0.5608624815940857
1749919820486282200,8.5942822265625,-1.8467625379562378,0.7129374742507935,0.6279624700546265
1749919820496295400,8.60429541015625,-1.4302749633789062,0.40933749079704285,0.3957250118255615
1749919820506308600,8.61430859375,-0.7921375036239624,0.07590000331401825,0.0719124972820282
1749919820516321800,8.62432177734375,-0.09652499854564667,-0.007149999961256981,-0.19552500545978546
1749919820526335000,8.6343349609375,0.4637874960899353,-0.17008750140666962,-0.16775000095367432
1749919820536348000,8.644347900390626,0.9570000171661377,-0.630299985408783,0.03671250119805336
1749919820546361300,8.654361328125,1.4118499755859375,-1.0458250045776367,0.24873749911785126
1749919820556374300,8.664374267578125,1.737862467765808,-1.4069000482559204,0.4926624894142151
1749919820566387500,8.674387451171874,1.9828875064849854,-1.616724967956543,0.7397499680519104
1749919820576400600,8.684400634765625,2.298175096511841,-1.375962495803833,0.8324249982833862
1749919820586413600,8.69441357421875,2.810499906539917,-0.8827499747276306,0.8079500198364258
1749919820596426800,8.7044267578125,3.046999931335449,-0.3394874930381775,0.46502500772476196
1749919820606439700,8.714439697265625,2.758387565612793,-0.13392500579357147,-0.01759999990463257
1749919820616453000,8.724453125,2.3535873889923096,-0.30855000019073486,-0.21779999136924744
1749919820626466300,8.73446630859375,2.0722625255584717,-0.5961999893188477,-0.18906250596046448
1749919820636479500,8.7444794921875,1.4097875356674194,-0.9702000021934509,-0.14863750338554382
1749919820646492400,8.754492431640625,0.47437500953674316,-1.4932500123977661,-0.09858749806880951
1749919820656505600,8.764505615234375,0.1868624985218048,-1.7499624490737915,-0.2722499966621399
1749919820666518800,8.774518798828124,0.04619999974966049,-1.3824249505996704,-0.29026249051094055
1749919820676531700,8.78453173828125,-0.1274625062942505,-0.830637514591217,-0.08786249905824661
1749919820686545000,8.794544921875,-0.23828749358654022,-0.5131499767303467,0.17737500369548798
1749919820696558000,8.80455810546875,-0.20418749749660492,-0.5376250147819519,0.45649999380111694
1749919820716584400,8.82458447265625,0.5160375237464905,-1.1479874849319458,0.06655000150203705
1749919820726597600,8.83459765625,0.5394124984741211,-0.9446250200271606,-0.2316875010728836
1749919820736610800,8.84461083984375,0.23897500336170197,-0.6516125202178955,-0.24667499959468842
1749919820746623700,8.854623779296874,0.03973750025033951,-0.4950000047683716,-0.006874999962747097
1749919820756637000,8.864636962890625,0.5703499913215637,-0.6675624847412109,0.2050125002861023
1749919820766650000,8.874650146484376,1.0741499662399292,-0.8338000178337097,0.2157374918460846
1749919820776663000,8.8846630859375,1.0400500297546387,-0.8849499821662903,0.03987500071525574
1749919820786676500,8.894676513671875,0.27953749895095825,-0.6197124719619751,-0.05706249922513962
1749919820796689400,8.904689453125,-0.7580375075340271,0.07383749634027481,0.18796250224113464
1749919820806702600,8.91470263671875,-1.4302749633789062,0.605412483215332,0.4170374870300293
1749919820816715800,8.9247158203125,-1.5666749477386475,0.8280249834060669,0.6098124980926514
1749919820826729000,8.93472900390625,-1.3365000486373901,0.8343499898910522,0.7269625067710876
1749919820836742100,8.9447421875,-0.8166124820709229,0.7246249914169312,0.5469750165939331
1749919820846755000,8.954755126953126,-0.31817498803138733,0.5841000080108643,0.04097500070929527
1749919820856768300,8.964768310546875,0.7992874979972839,0.8194999694824219,-0.06875000149011612
1749919820866781400,8.974781494140625,1.5322999954223633,0.5979874730110168,-0.11563749611377716
1749919820876794400,8.98479443359375,0.9303249716758728,0.10147500038146973,-0.44481250643730164
1749919820886807800,8.994807861328125,-0.25533750653266907,0.9568625092506409,-0.4969249963760376
1749919820896821000,9.004821044921876,-1.3216500282287598,1.8090875148773193,-0.10395000129938126
1749919820906834200,9.014834228515625,-2.199312448501587,2.1691999435424805,0.5150749683380127
1749919820916847000,9.02484716796875,-3.158099889755249,2.3247125148773193,0.8303624987602234
1749919820926860300,9.0348603515625,-3.8483500480651855,2.2767250537872314,0.7462124824523926
1749919820936873500,9.04487353515625,-3.7333998680114746,2.033900022506714,0.3445749878883362
1749919820946886700,9.05488671875,-3.450012445449829,1.9315999746322632,-0.38513749837875366
1749919820956899800,9.06489990234375,-2.7138373851776123,2.3002374172210693,-0.9944000244140625
1749919820966913000,9.0749130859375,-2.0630500316619873,2.7647125720977783,-1.4045624732971191
1749919820976926200,9.08492626953125,-1.4067624807357788,3.056487560272217,-1.578225016593933
1749919820986939400,9.094939453125,-0.8358625173568726,2.7369375228881836,-1.534500002861023
1749919820996952300,9.104952392578125,-0.3244999945163727,2.0583748817443848,-1.1712249517440796
1749919821006965500,9.114965576171874,0.11219999939203262,2.0114874839782715,-0.9721249938011169
1749919821016978700,9.124978759765625,0.7918624877929688,2.1234123706817627,-0.7398874759674072
1749919821026991900,9.134991943359376,1.4203749895095825,1.830399990081787,-0.5246999859809875
1749919821037005000,9.145005126953125,1.8145874738693237,1.4203749895095825,-0.5011875033378601
1749919821047018200,9.155018310546875,1.986050009727478,0.8951249718666077,-0.41071251034736633
1749919821057031400,9.165031494140624,2.0371999740600586,0.36781248450279236,-0.24131250381469727
1749919821067044600,9.175044677734375,2.094675064086914,-0.20102499425411224,0.052662499248981476
1749919821077057500,9.1850576171875,2.0616750717163086,-0.8838499784469604,0.37014999985694885
1749919821087070700,9.19507080078125,1.8325999975204468,-1.6753000020980835,0.6237000226974487
1749919821097084000,9.205083984375,1.4661624431610107,-2.5019500255584717,0.8548374772071838
1749919821107097300,9.215097412109374,1.3256374597549438,-3.227400064468384,1.228700041770935
1749919821117110300,9.2251103515625,1.5002624988555908,-3.879425048828125,1.578225016593933
1749919821127123500,9.23512353515625,1.9178500175476074,-4.747600078582764,1.5930750370025635
1749919821137136600,9.24513671875,2.2544500827789307,-5.495325088500977,1.2159124612808228
1749919821147149800,9.25514990234375,2.727449893951416,-5.4528374671936035,1.0210750102996826
1749919821157163300,9.265163330078124,3.532787561416626,-4.509999752044678,0.9411875009536743
1749919821167176200,9.27517626953125,4.11014986038208,-3.033524990081787,-0.14547500014305115
1749919821177189400,9.285189453125,4.066562652587891,-1.6274499893188477,-1.5813875198364258
1749919821187202600,9.29520263671875,4.247650146484375,-0.11151249706745148,-1.6197500228881836
1749919821197215500,9.305215576171875,4.3253374099731445,0.5020124912261963,-0.878350019454956
1749919821207228700,9.315228759765626,4.060100078582764,0.6788374781608582,-0.14643749594688416
1749919821217241900,9.325241943359375,3.600987434387207,0.18466250598430634,0.35530000925064087
1749919821227255000,9.335255126953125,3.4614250659942627,0.29961249232292175,0.3104749917984009
1749919821237268200,9.345268310546874,3.3974874019622803,-0.5759875178337097,0.3755125105381012
1749919821247281400,9.355281494140625,2.919262409210205,-1.1459250450134277,0.4894999861717224
1749919821257294600,9.365294677734376,1.685612440109253,-1.4867874383926392,0.25616249442100525
1749919821267307800,9.375307861328125,0.1260875016450882,-1.3600125312805176,-0.4468750059604645
1749919821277321000,9.385321044921875,-0.6920375227928162,-1.0649374723434448,-1.3736250400543213
1749919821287334100,9.395334228515624,-0.6686624884605408,-2.0780375003814697,-1.8636749982833862
1749919821297347000,9.40534716796875,-0.46406251192092896,-3.9400625228881836,-1.5739624500274658
1749919821307360300,9.4153603515625,-0.8028625249862671,-4.011425018310547,-1.0861124992370605
1749919821317373400,9.42537353515625,-1.2864500284194946,-1.948099970817566,-0.3478749990463257
1749919821327386600,9.43538671875,-1.5027375221252441,0.4871625006198883,0.4894999861717224
1749919821337399800,9.44539990234375,-1.5303750038146973,1.6737874746322632,1.111549973487854
1749919821347413000,9.4554130859375,-1.5729999542236328,1.6567374467849731,1.202162504196167
1749919821357426200,9.46542626953125,-1.5751999616622925,0.6330500245094299,0.6418499946594238
1749919821367439400,9.475439453125,-1.3396625518798828,-0.20418749749660492,-0.06558749824762344
1749919821377452500,9.48545263671875,-1.0936750173568726,-0.0966624990105629,-0.3232625126838684
1749919821387465500,9.495465576171876,-1.0243749618530273,0.5425750017166138,0.01223750039935112
1749919821397478700,9.505478759765625,-1.1873124837875366,3.0820624828338623,1.2319999933242798
1749919821407491800,9.515491943359375,-0.21051250398159027,2.9287500381469727,1.810462474822998
1749919821417505000,9.525505126953124,1.1529375314712524,1.2200374603271484,1.2820500135421753
1749919821427518500,9.5355185546875,1.1241999864578247,0.2569875121116638,0.19648750126361847
1749919821437531400,9.545531494140626,-0.8017625212669373,-0.47795000672340393,-1.0690624713897705
1749919821447544600,9.555544677734375,-0.42570000886917114,-1.4526875019073486,-0.9560375213623047
1749919821457557800,9.565557861328125,0.5095750093460083,-1.7147624492645264,-0.5747500061988831
1749919821477584100,9.585584228515625,-1.1565124988555908,1.212612509727478,-0.4969249963760376
1749919821487597000,9.59559716796875,-1.036062479019165,1.6024249792099,-0.05912499874830246
1749919821497610500,9.605610595703125,-0.33412501215934753,1.1369874477386475,0.26358750462532043
1749919821507623700,9.615623779296875,0.21449999511241913,-0.1307625025510788,0.27114999294281006
1749919821517636900,9.625636962890624,0.37111249566078186,-0.32670000195503235,-0.5011875033378601
1749919821527650000,9.635650146484375,0.16224999725818634,0.25808748602867126,-0.09006249904632568
1749919821537663200,9.645663330078126,0.11013749986886978,0.16335000097751617,0.2796750068664551
1749919821547676200,9.65567626953125,-0.28929999470710754,0.18782499432563782,0.6524375081062317
1749919821557689600,9.665689697265625,-1.3194500207901,0.07919999957084656,0.6897000074386597
1749919821567702800,9.675702880859374,-0.8933374881744385,-0.2788499891757965,0.6791124939918518
1749919821577716000,9.685716064453125,0.11976250261068344,-0.6058250069618225,0.6247999668121338
1749919821587729200,9.695729248046876,0.8205999732017517,-0.675125002861023,0.4105750024318695
1749919821597742000,9.7057421875,1.1605000495910645,-0.4119499921798706,0.2839374840259552
1749919821607755300,9.71575537109375,0.6852999925613403,-0.15207499265670776,0.4745124876499176
1749919821617768400,9.7257685546875,0.28049999475479126,-0.5333625078201294,0.8346250057220459
1749919821627782000,9.735781982421875,0.5575624704360962,-0.37578749656677246,0.47244998812675476
1749919821637795000,9.745795166015625,-0.09116250276565552,-0.2116124927997589,-0.13901250064373016
1749919821647808000,9.75580810546875,-0.44811248779296875,-0.1658249944448471,0.014299999922513962
1749919821657821200,9.7658212890625,-0.5439500212669373,0.031212499365210533,0.45003750920295715
1749919821667834400,9.77583447265625,-0.344712495803833,0.415800005197525,0.6513375043869019
1749919821677847600,9.78584765625,-0.18383750319480896,0.8120750188827515,0.632224977016449
1749919821687861000,9.795861083984375,-0.24034999310970306,1.2552374601364136,0.6268625259399414
1749919821697874200,9.805874267578124,-0.35227498412132263,1.3820124864578247,0.6705874800682068
1749919821707887400,9.815887451171875,-0.31913748383522034,1.279712438583374,0.7291625142097473
1749919821717900300,9.825900390625,-0.23498749732971191,1.1092125177383423,0.7781124711036682
1749919821727913500,9.83591357421875,-0.09116250276565552,0.7928249835968018,0.6215000152587891
1749919821737926700,9.8459267578125,-0.03258749842643738,0.490325003862381,0.3073124885559082
1749919821747939800,9.85593994140625,0.06531249731779099,0.3240875005722046,0.0015124999918043613
1749919821757953300,9.865953369140625,0.20817500352859497,0.3209249973297119,-0.030387500301003456
1749919821767966200,9.87596630859375,0.18576249480247498,0.7225624918937683,0.05169999971985817
1749919821777979400,9.8859794921875,-0.09652499854564667,1.2424499988555908,0.24763749539852142
1749919821787992600,9.89599267578125,-0.3745499849319458,1.195562481880188,0.3755125105381012
1749919821798005800,9.906005859375,-0.5055875182151794,0.37427499890327454,0.4404124915599823
1749919821808019000,9.91601904296875,-0.3628624975681305,-1.0467875003814697,0.2274249941110611
1749919821818032000,9.9260322265625,0.12072499841451645,-2.0897250175476074,-0.15496249496936798
1749919821828045600,9.936045654296874,0.7694500088691711,-2.465787410736084,-0.5427125096321106
1749919821838058500,9.94605859375,1.1764500141143799,-2.0578250885009766,-1.0648000240325928
1749919821848071700,9.95607177734375,1.3947999477386475,-1.4421000480651855,-2.0532875061035156
1749919821858084900,9.9660849609375,1.6216750144958496,-0.8039624691009521,-2.650862455368042
1749919821868098000,9.97609814453125,1.7964375019073486,0.13241249322891235,-2.780937433242798
1749919821878111200,9.986111328125,1.7708624601364136,1.019837498664856,-2.5720748901367188
1749919821888124200,9.996124267578125,1.6600375175476074,1.435225009918213,-1.8796249628067017
1749919821898137600,10.0061376953125,1.6440874338150024,1.2104125022888184,-0.9465500116348267
1749919821908150800,10.01615087890625,1.609987497329712,0.9249625205993652,-0.09638749808073044
1749919821918164000,10.0261640625,1.5769875049591064,0.9590625166893005,0.6461125016212463
1749919821928177200,10.03617724609375,1.6068249940872192,1.4139125347137451,0.9954999685287476
1749919821938190300,10.0461904296875,1.6068249940872192,2.4781625270843506,0.5288249850273132
1749919821948203500,10.05620361328125,1.2850749492645264,3.1576874256134033,-0.028187500312924385
1749919821958216700,10.066216796875,0.8782125115394592,3.2110373973846436,-0.18700000643730164
1749919821968230000,10.07622998046875,0.6565625071525574,2.5953125953674316,0.07727500051259995
1749919821978243000,10.0862431640625,0.5053125023841858,1.185937523841858,0.345674991607666
1749919821988256300,10.09625634765625,0.24213749170303345,-0.2340250015258789,0.3221625089645386
1749919821998269400,10.10626953125,0.04729999974370003,-1.2610124349594116,0.30841249227523804
1749919822008282600,10.11628271484375,0.025987500324845314,-1.9160624742507935,0.4020499885082245
1749919822018295800,10.1262958984375,-0.05073750019073486,-2.073775053024292,0.6183375120162964
1749919822028309000,10.13630908203125,-0.22866250574588776,-1.6411999464035034,1.001824975013733
1749919822038322200,10.146322265625,-0.29260000586509705,-0.8338000178337097,1.4183125495910645
1749919822048335400,10.15633544921875,0.11976250261068344,0.7001500129699707,1.5131875276565552
1749919822058348500,10.1663486328125,0.9666249752044678,1.754775047302246,1.0881749391555786
1749919822068361700,10.17636181640625,1.5855125188827515,2.486687421798706,0.6268625259399414
1749919822078375200,10.186375244140624,1.7143499851226807,2.3226499557495117,-0.18479999899864197
1749919822088388000,10.19638818359375,0.65972501039505,1.222237467765808,-0.9230374693870544
1749919822098401300,10.2064013671875,-0.19456249475479126,-0.15729999542236328,-0.7717875242233276
1749919822108414500,10.21641455078125,-0.060362499207258224,-0.6239749789237976,-0.4405499994754791
1749919822118427600,10.226427734375,0.2283875048160553,-0.7081249952316284,-0.13695000112056732
1749919822128440800,10.23644091796875,0.17833749949932098,-1.5305124521255493,0.21147499978542328
1749919822138454000,10.2464541015625,-0.18383750319480896,-1.3536875247955322,0.5938624739646912
1749919822148467200,10.25646728515625,-0.6345624923706055,-0.5909749865531921,0.7280625104904175
1749919822158480400,10.26648046875,-0.877387523651123,0.03231250122189522,0.7099124789237976
1749919822168493600,10.27649365234375,-0.9114875197410583,0.8291249871253967,0.7035874724388123
1749919822178506800,10.2865068359375,-0.9135500192642212,1.121999979019165,0.6620625257492065
1749919822188520000,10.29652001953125,-0.7698624730110168,1.0602624416351318,0.557699978351593
1749919822198533000,10.306533203125,-0.47795000672340393,0.9952250123023987,0.44577500224113464
1749919822208546300,10.31654638671875,-0.24777500331401825,0.9303249716758728,0.3562625050544739
1749919822218559500,10.3265595703125,-0.0826374962925911,0.7182999849319458,0.34251248836517334
1749919822228572700,10.33657275390625,0.057887498289346695,0.5329499840736389,0.4883999824523926
1749919822238585900,10.3465859375,0.09515000134706497,0.4328500032424927,0.6385499835014343
1749919822248599000,10.35659912109375,-0.04331250116229057,0.4562250077724457,0.6183375120162964
1749919822258612200,10.3666123046875,-0.2915000021457672,0.5383124947547913,0.5011875033378601
1749919822268625400,10.37662548828125,-0.5780500173568726,0.8482375144958496,0.35530000925064087
1749919822278638600,10.386638671875,-0.8113874793052673,1.0400500297546387,0.20721249282360077
1749919822288651800,10.39665185546875,-0.9487500190734863,0.7918624877929688,0.08579999953508377
1749919822298665000,10.4066650390625,-1.0073250532150269,0.3156999945640564,0.08249999582767487
1749919822308678100,10.41667822265625,-1.1639374494552612,-0.09982500225305557,0.141075000166893
1749919822318691300,10.42669140625,-1.4399000406265259,-0.22659999132156372,0.16568750143051147
1749919822328704500,10.43670458984375,-1.607100009918213,-0.23938749730587006,0.11027500033378601
1749919822338718000,10.446718017578124,-1.5741000175476074,-0.3704249858856201,-0.0016499999910593033
1749919822348731000,10.45673095703125,-1.4280749559402466,-0.6643999814987183,-0.1251250058412552
1749919822358744000,10.466744140625,-1.2161874771118164,-0.7720624804496765,-0.12622499465942383
1749919822368757200,10.47675732421875,-1.0968375205993652,-0.7655999660491943,-0.023924998939037323
1749919822378770400,10.4867705078125,-1.091475009918213,-0.5685625076293945,0.18369999527931213
1749919822388783600,10.49678369140625,-1.2364000082015991,-0.29686251282691956,0.44261249899864197
1749919822398796800,10.506796875,-1.5016374588012695,-0.2106499969959259,0.6257625222206116
1749919822408810000,10.51681005859375,-1.7540874481201172,-0.17861250042915344,0.6641250252723694
1749919822418823000,10.526822998046875,-1.918125033378601,-0.19030000269412994,0.5565999746322632
1749919822428836400,10.53683642578125,-1.8308124542236328,-0.25850000977516174,0.38513749837875366
1749919822438849300,10.546849365234374,-1.6571500301361084,-0.10408750176429749,0.23801249265670776
1749919822448862700,10.55686279296875,-1.4823875427246094,0.25808748602867126,0.2626250088214874
1749919822458876000,10.5668759765625,-1.2512500286102295,0.6617875099182129,0.4511374831199646
1749919822468889000,10.57688916015625,-1.1064624786376953,1.021899938583374,0.6279624700546265
1749919822478902300,10.58690234375,-1.143725037574768,1.5747874975204468,0.7376874685287476
1749919822488915200,10.596915283203124,-1.3897124528884888,2.384387493133545,0.8868749737739563
1749919822498928400,10.606928466796875,-1.542062520980835,2.956387519836426,0.9261999726295471
1749919822508941800,10.61694189453125,-1.484587550163269,2.9798998832702637,0.6802124977111816
1749919822518955000,10.626955078125,-1.4973750114440918,2.6262500286102295,0.2881999909877777
1749919822528968200,10.63696826171875,-1.4291750192642212,1.435225009918213,-0.1284250020980835
1749919822538981400,10.6469814453125,-1.2086249589920044,0.04179999977350235,-0.24447499215602875
1749919822548994300,10.656994384765625,-1.0968375205993652,-0.731499969959259,-0.21683749556541443
1749919822559008000,10.667008056640626,-0.9561749696731567,-0.8784874677658081,-0.2381500005722046
1749919822569021000,10.67702099609375,-0.8421875238418579,-0.979687511920929,-0.29452499747276306
1749919822579034000,10.6870341796875,-0.740024983882904,-1.1768624782562256,-0.29026249051094055
1749919822589047300,10.69704736328125,-0.6217749714851379,-1.2226500511169434,-0.12196250259876251
1749919822599060500,10.707060546875,-0.4353249967098236,-1.2630749940872192,0.1069749966263771
1749919822609074000,10.717073974609375,-0.23718750476837158,-1.4293124675750732,0.20817500352859497
1749919822619086800,10.7270869140625,-0.16472500562667847,-1.5485249757766724,0.13791249692440033
1749919822629100000,10.73710009765625,-0.24681249260902405,-1.6178250312805176,-0.01759999990463257
1749919822639113500,10.747113525390626,-0.284074991941452,-1.625249981880188,-0.06338749825954437
1749919822649126700,10.757126708984375,-0.2414499968290329,-1.5177249908447266,0.09748750180006027
1749919822659139800,10.767139892578125,-0.1891999989748001,-1.1672375202178955,0.4937624931335449
1749919822669153000,10.777153076171874,-0.27018749713897705,-0.4119499921798706,1.0881749391555786
1749919822679166200,10.787166259765625,-0.4278999865055084,0.3156999945640564,1.527074933052063
1749919822689179400,10.797179443359376,-0.5120499730110168,0.9345874786376953,1.6623749732971191
1749919822699192300,10.8071923828125,-0.48647499084472656,1.5236375331878662,1.5728625059127808
1749919822709205800,10.817205810546875,-0.36176249384880066,1.8389250040054321,1.2351624965667725
1749919822719219000,10.827218994140624,-0.22123749554157257,1.6993625164031982,0.6194375157356262
1749919822729232100,10.837232177734375,-0.2488749921321869,1.3149124383926392,-0.07507500052452087
1749919822739245300,10.847245361328126,-0.4885374903678894,0.6906625032424927,-0.5821750164031982
1749919822749258500,10.857258544921875,-0.7793499827384949,0.11962500214576721,-0.6822749972343445
1749919822759271700,10.867271728515625,-0.731499969959259,-0.2532750070095062,-0.4692874848842621
1749919822769284600,10.87728466796875,-0.37564998865127563,-0.028462499380111694,-0.10395000129938126
1749919822779297800,10.8872978515625,0.07809999585151672,0.490325003862381,0.25616249442100525
1749919822789311000,10.89731103515625,0.5138375163078308,0.8504375219345093,0.5534374713897705
1749919822799324200,10.90732421875,0.9218000173568726,0.8888000249862671,0.8196374773979187
1749919822809337300,10.91733740234375,1.2318625450134277,0.47011250257492065,1.0157124996185303
1749919822819350500,10.9273505859375,1.2073874473571777,-0.2223374992609024,1.0509124994277954
1749919822829364000,10.937364013671875,0.9453125,-0.6984999775886536,0.8857749700546265
1749919822839377000,10.947376953125,0.5330874919891357,-0.4758875072002411,0.7601000070571899
1749919822849390000,10.95739013671875,-0.037950001657009125,0.5425750017166138,0.7803124785423279
1749919822859403300,10.9674033203125,-0.5609999895095825,1.5929374694824219,0.8590999841690063
1749919822869416700,10.977416748046876,-0.8336625099182129,2.2001373767852783,0.8559374809265137
1749919822879429600,10.9874296875,-0.8657000064849854,2.1691999435424805,0.7632625102996826
1749919822889443000,10.997443115234375,-0.8219749927520752,1.6066875457763672,0.5640249848365784
1749919822899456000,11.0074560546875,-0.8113874793052673,0.7907624840736389,0.29672500491142273
1749919822909469200,11.01746923828125,-0.8870124816894531,-0.09239999949932098,0.01966249942779541
1749919822919482400,11.027482421875,-0.9211124777793884,-1.0404624938964844,-0.29672500491142273
1749919822929495600,11.03749560546875,-0.7452499866485596,-1.7968499660491943,-0.5374875068664551
1749919822939509000,11.047509033203125,-0.4193750023841858,-2.013000011444092,-0.5182374715805054
1749919822949522200,11.057522216796874,-0.062424998730421066,-1.9043749570846558,-0.30098751187324524
1749919822959535400,11.067535400390625,0.17503750324249268,-1.5570499897003174,-0.015399999916553497
1749919822969548300,11.07754833984375,0.26138749718666077,-1.0276750326156616,0.2550624907016754
1749919822979561500,11.0875615234375,0.26138749718666077,-0.5035250186920166,0.43408748507499695
1749919822989574700,11.09757470703125,0.2176624983549118,-0.17008750140666962,0.45223748683929443
1749919822999588000,11.107588134765624,0.05362499877810478,-0.008249999955296516,0.3755125105381012
1749919823009601300,11.117601318359375,-0.2903999984264374,0.3166624903678894,0.4830375015735626
1749919823019614500,11.127614501953126,-0.7559750080108643,0.7512999773025513,0.7814124822616577
1749919823029627600,11.137627685546875,-1.226775050163269,1.2839750051498413,1.1723250150680542
1749919823039640600,11.147640625,-1.0158499479293823,1.1731499433517456,1.0262999534606934
1749919823049653800,11.15765380859375,-0.7815499901771545,0.4328500032424927,0.33178749680519104
1749919823059667200,11.167667236328125,-0.7409874796867371,0.9878000020980835,0.18796250224113464
1749919823069680400,11.177680419921876,-1.0775874853134155,1.88691246509552,0.2732124924659729
1749919823079693600,11.187693603515624,-1.7711374759674072,2.1723625659942627,0.24131250381469727
1749919823089706800,11.197706787109375,-2.4135375022888184,2.455749988555908,0.38940000534057617
1749919823099720000,11.207719970703126,-2.7202999591827393,2.628312587738037,0.6215000152587891
1749919823109732900,11.21773291015625,-2.727725028991699,2.5643749237060547,0.8718875050544739
1749919823119746000,11.22774609375,-2.449699878692627,2.335437536239624,1.111549973487854
1749919823129759500,11.237759521484374,-2.0044748783111572,1.9380625486373901,1.2234749794006348
1749919823139772700,11.247772705078125,-1.660312533378601,1.610949993133545,1.2894749641418457
1749919823149785900,11.257785888671876,-1.3631750345230103,1.5503125190734863,1.3426874876022339
1749919823169812200,11.277812255859375,-1.1958374977111816,1.9327000379562378,1.3395249843597412
1749919823179825200,11.2878251953125,-1.3950749635696411,2.2374000549316406,1.2095874547958374
1749919823189838300,11.29783837890625,-1.708299994468689,2.455749988555908,0.9421499967575073
1749919823199851500,11.3078515625,-1.9969124794006348,2.8168249130249023,0.6811749935150146
1749919823209865000,11.317864990234375,-2.2046749591827393,3.3015124797821045,0.46502500772476196
1749919823219878000,11.3278779296875,-2.187624931335449,3.6829373836517334,0.22316250205039978
1749919823229891300,11.337891357421874,-1.8158249855041504,3.6690499782562256,-0.07617499679327011
1749919823239904500,11.347904541015625,-1.3600125312805176,3.5859999656677246,-0.32120001316070557
1749919823249917700,11.357917724609376,-0.9413250088691711,4.037687301635742,-0.521399974822998
1749919823259930600,11.3679306640625,-0.6962999701499939,5.605737686157227,-0.6802124977111816
1749919823269943800,11.37794384765625,-0.5322625041007996,6.849975109100342,-1.3534125089645386
1749919823279957000,11.38795703125,-0.5376250147819519,7.505162239074707,-2.4495625495910645
1749919823289970400,11.397970458984375,-0.4054875075817108,7.213250160217285,-3.5106499195098877
1749919823299983600,11.407983642578126,0.45526251196861267,5.514162540435791,-4.128437519073486
1749919823309996500,11.41799658203125,1.0411499738693237,2.7827250957489014,-3.784412384033203
1749919823320009700,11.428009765625,1.3330625295639038,0.8205999732017517,-2.780937433242798
1749919823330023000,11.43802294921875,1.9667999744415283,0.4797374904155731,-1.6314375400543213
1749919823340036000,11.4480361328125,2.0030999183654785,1.213712453842163,-0.521399974822998
1749919823350049500,11.458049560546876,2.2587125301361084,1.9901750087738037,-0.04853750020265579
1749919823360062500,11.4680625,2.9693124294281006,2.095637559890747,-0.06558749824762344
1749919823370076000,11.478075927734375,3.8821749687194824,0.7779750227928162,-0.4618625044822693
1749919823380089000,11.488089111328126,3.9642624855041504,-0.7720624804496765,-0.9187750220298767
1749919823390102000,11.49810205078125,2.975637435913086,-2.3506999015808105,-1.4067624807357788
1749919823400115200,11.508115234375,1.4097875356674194,-3.541724920272827,-1.6985374689102173
1749919823410128600,11.518128662109374,-0.2648249864578247,-3.8132874965667725,-1.4748250246047974
1749919823420141600,11.5281416015625,-1.468637466430664,-3.281712532043457,-1.1754875183105469
1749919823430155000,11.538155029296876,-2.1546249389648438,-2.370912551879883,-1.0881749391555786
1749919823440168200,11.548168212890625,-2.480637550354004,-1.467674970626831,-1.0978000164031982
1749919823450181000,11.55818115234375,-2.576474905014038,-0.6675624847412109,-0.9678624868392944
1749919823460194600,11.568194580078124,-2.573312520980835,-0.18713749945163727,-0.649275004863739
1749919823470207700,11.578207763671875,-2.6211624145507812,-0.1381874978542328,-0.29672500491142273
1749919823480221000,11.588220947265626,-2.6776750087738037,-0.7070249915122986,-0.1443749964237213
1749919823490234000,11.598234130859375,-2.4476375579833984,-2.013000011444092,-0.23485000431537628
1749919823500247300,11.608247314453125,-2.173875093460083,-3.0698249340057373,-0.20611250400543213
1749919823510260500,11.618260498046874,-1.8158249855041504,-4.672937393188477,-0.2572624981403351
1749919823520273400,11.6282734375,-1.2555124759674072,-5.832062244415283,-0.12196250259876251
1749919823530286600,11.63828662109375,-0.6408874988555908,-6.313449859619141,0.22852499783039093
1749919823540300000,11.648300048828125,-0.13708749413490295,-5.2461748123168945,0.7942000031471252
1749919823550313200,11.658313232421875,0.12718750536441803,-3.636462450027466,0.9389874935150146
1749919823560326400,11.668326416015624,0.2901250123977661,-2.147200107574463,0.7121124863624573
1749919823570339600,11.678339599609375,0.4361499845981598,-1.024512529373169,0.3531000018119812
1749919823580352800,11.688352783203126,0.6938250064849854,-0.40878748893737793,0.07081250101327896
1749919823590366000,11.698365966796874,0.9581000208854675,-0.07961250096559525,0.013337500393390656
1749919823600379100,11.708379150390625,1.16902494430542,-0.12856249511241913,0.06875000149011612
1749919823610392300,11.718392333984376,1.228700041770935,-0.36726251244544983,0.23058749735355377
1749919823620405500,11.728405517578125,1.0656249523162842,-0.7303999662399292,0.37441250681877136
1749919823630418700,11.738418701171875,0.8813750147819519,-1.1768624782562256,0.4692874848842621
1749919823640431900,11.748431884765624,0.8035500049591064,-1.6582499742507935,0.521399974822998
1749919823650445000,11.758445068359375,0.8674874901771545,-2.033212423324585,0.5512375235557556
1749919823660458000,11.7684580078125,0.974049985408783,-2.0695126056671143,0.5501375198364258
1749919823670471400,11.778471435546875,1.029462456703186,-1.7883249521255493,0.5267624855041504
1749919823680484600,11.788484619140625,0.9996249675750732,-1.6838250160217285,0.420199990272522
1749919823690497800,11.798497802734374,0.7151374816894531,-1.6209875345230103,0.3797749876976013
1749919823700511000,11.808510986328125,0.20913749933242798,-0.5322625041007996,0.6162750124931335
1749919823710524200,11.818524169921876,0.045099999755620956,0.6213625073432922,0.7067499756813049
1749919823720537300,11.828537353515625,-0.14877499639987946,1.3990625143051147,0.6641250252723694
1749919823730550500,11.838550537109375,-0.2872374951839447,1.535325050354004,0.5640249848365784
1749919823740563500,11.8485634765625,-0.46626248955726624,1.3149124383926392,0.46076250076293945
1749919823750577000,11.858576904296875,-0.5013250112533569,1.037850022315979,0.3499374985694885
1749919823760589800,11.86858984375,-0.329862505197525,0.9164375066757202,0.22632500529289246
1749919823770603300,11.878603271484375,-0.1732500046491623,0.817437469959259,0.0611874982714653
1749919823780616400,11.888616455078125,-0.1391499936580658,0.7672500014305115,-0.08689999580383301
1749919823790629600,11.898629638671874,-0.12209999561309814,0.8439750075340271,-0.18700000643730164
1749919823800642800,11.908642822265625,-0.0411125011742115,1.1625624895095825,-0.18053749203681946
1749919823810655700,11.91865576171875,0.06104999780654907,1.546049952507019,-0.05169999971985817
1749919823820669200,11.928669189453124,0.14630000293254852,1.3499749898910522,0.022824998944997787
1749919823830682400,11.938682373046875,0.1676124930381775,0.9675874710083008,0.10807500034570694
1749919823840695600,11.948695556640626,0.2890250086784363,0.7534999847412109,0.0494999997317791
1749919823850708700,11.958708740234375,0.13461250066757202,1.0335874557495117,-0.004812499973922968
1749919823860722000,11.968721923828125,-0.1200374960899353,1.4415500164031982,0.030387500301003456
1749919823870734800,11.97873486328125,-0.33412501215934753,1.4671249389648438,0.023924998939037323
1749919823880748300,11.988748291015625,-0.3713875114917755,1.2274625301361084,0.0057749999687075615
1749919823890761500,11.998761474609376,-0.27761250734329224,0.9516375064849854,0.002612499985843897
1749919823900774700,12.008774658203125,-0.20941250026226044,0.7577624917030334,0.026124998927116394
1749919823910787800,12.018787841796875,-0.23925000429153442,0.7288874983787537,0.045237500220537186
1749919823920801000,12.028801025390624,-0.5257999897003174,0.8866000175476074,0.02186249941587448
1749919823930814000,12.03881396484375,-0.8369625210762024,1.2839750051498413,0.023924998939037323
1749919823940827400,12.048827392578126,-0.9200124740600586,1.804824948310852,0.08249999582767487
1749919823950840600,12.058840576171875,-0.7645000219345093,1.8826500177383423,0.015399999916553497
1749919823960853800,12.068853759765625,-0.6727874875068665,1.5023249387741089,-0.09748750180006027
1749919823970867000,12.078866943359374,-0.656837522983551,1.0187374353408813,-0.08896250277757645
1749919823980880100,12.088880126953125,-0.5961999893188477,0.550000011920929,-0.02502499893307686
1749919823990893300,12.098893310546876,-0.40012499690055847,0.202674999833107,0.060224998742341995
1749919824000906500,12.108906494140625,-0.3639625012874603,0.17393749952316284,0.10807500034570694
1749919824010919700,12.118919677734375,-0.860337495803833,0.5627874732017517,0.10381250083446503
1749919824020932900,12.128932861328124,-1.2555124759674072,1.3106499910354614,0.12402500212192535
1749919824030946000,12.138946044921875,-1.374862551689148,2.0318374633789062,0.20295000076293945
1749919824040959200,12.148959228515626,-1.3396625518798828,2.7656750679016113,0.38403749465942383
1749919824050972200,12.15897216796875,-1.0658999681472778,3.4623875617980957,0.5842375159263611
1749919824060985900,12.16898583984375,-0.6601374745368958,4.107950210571289,0.7504749894142151
1749919824070998800,12.178998779296874,-0.22123749554157257,4.702362537384033,0.8815125226974487
1749919824081012000,12.189011962890625,0.39668750762939453,5.377762317657471,1.1222749948501587
1749919824091025200,12.199025146484376,1.2339249849319458,6.595324993133545,1.7465250492095947
1749919824101038300,12.209038330078124,1.802762508392334,7.691474914550781,2.5453999042510986
1749919824111051500,12.219051513671875,1.8316375017166138,7.004387378692627,3.2378499507904053
1749919824121065000,12.22906494140625,0.6118749976158142,4.462699890136719,4.321212291717529
1749919824131078000,12.239077880859375,0.9857375025749207,3.302612543106079,4.393674850463867
1749919824141091000,12.249091064453125,1.6334999799728394,3.993962526321411,3.943087577819824
1749919824151104300,12.259104248046874,2.0169875621795654,5.526949882507324,3.0823373794555664
1749919824161117400,12.269117431640625,2.3291125297546387,6.067049980163574,2.1917500495910645
1749919824171130600,12.279130615234376,2.476099967956543,4.017475128173828,0.8036875128746033
1749919824181143800,12.289143798828125,2.1245124340057373,3.5007500648498535,-0.71527498960495
1749919824191157200,12.2991572265625,0.5618249773979187,3.0597875118255615,-1.8540500402450562
1749919824201170200,12.309170166015624,-1.7594499588012695,1.7388249635696411,-2.96408748626709
1749919824211183400,12.319183349609375,-3.695037364959717,1.9315999746322632,-3.672487497329712
1749919824221196500,12.329196533203126,-4.311862468719482,1.012274980545044,-3.637424945831299
1749919824231209700,12.339209716796875,-3.616112470626831,-0.4503124952316284,-2.9918625354766846
1749919824241223000,12.349222900390625,-2.6510000228881836,-1.6113624572753906,-2.409137487411499
1749919824251236000,12.359236083984374,-1.9703749418258667,-2.609612464904785,-2.282362461090088
1749919824261249300,12.369249267578125,-1.3003374338150024,-2.36995005607605,-2.3878250122070312
1749919824271262500,12.379262451171876,-0.7282000184059143,-2.032249927520752,-2.2206249237060547
1749919824281275600,12.389275634765625,-0.39476248621940613,-2.5328874588012695,-1.7113250494003296
1749919824291289000,12.3992890625,-0.21271249651908875,-3.332862377166748,-1.3448874950408936
1749919824301302000,12.409302001953124,-0.17531250417232513,-4.074262619018555,-1.228837490081787
1749919824311315200,12.419315185546875,-0.24351249635219574,-4.647500038146973,-1.0572375059127808
1749919824321328600,12.42932861328125,-0.3937999904155731,-5.1129374504089355,-0.7749499678611755
1749919824331341600,12.439341552734374,-0.4501749873161316,-5.466587543487549,-0.5960624814033508
1749919824341354800,12.449354736328125,-0.41827499866485596,-5.8767499923706055,-0.6268625259399414
1749919824351368000,12.459367919921876,-0.44385001063346863,-6.163300037384033,-0.6993250250816345
1749919824361381400,12.46938134765625,-0.3489750027656555,-6.127137660980225,-0.8761500120162964
1749919824371394600,12.47939453125,-0.15193749964237213,-5.495325088500977,-1.191575050354004
1749919824381407700,12.48940771484375,0.10903749614953995,-4.172299861907959,-1.303362488746643
1749919824401434000,12.50943408203125,0.3381125032901764,-1.8298499584197998,-1.120212435722351
1749919824411447000,12.519447021484375,0.4573250114917755,-1.318487524986267,-0.8761500120162964
1749919824421460200,12.529460205078125,0.512737512588501,-1.6029750108718872,-0.5119125247001648
1749919824431473400,12.539473388671874,0.5607249736785889,-2.3166000843048096,0.009074999950826168
1749919824441486800,12.54948681640625,0.6011499762535095,-3.1923375129699707,0.37757501006126404
1749919824451500000,12.5595,0.6096749901771545,-3.918750047683716,0.5906999707221985
1749919824461513000,12.569512939453125,0.6886000037193298,-4.398212432861328,0.6567000150680542
1749919824471526100,12.579526123046875,0.9922000169754028,-4.489787578582764,0.6481750011444092
1749919824481539300,12.589539306640624,1.3595999479293823,-4.056250095367432,0.6003249883651733
1749919824491552500,12.599552490234375,1.5471500158309937,-3.0559375286102295,0.5779125094413757
1749919824501565700,12.609565673828126,1.4566749334335327,-1.2386000156402588,0.7856749892234802
1749919824511579100,12.6195791015625,1.3756874799728394,0.3114374876022339,0.7046874761581421
1749919824521592000,12.629592041015625,1.305287480354309,1.8005625009536743,0.4468750059604645
1749919824531605200,12.639605224609374,1.3245375156402588,3.2206625938415527,0.25189998745918274
1749919824541618400,12.649618408203125,1.3842124938964844,4.388175010681152,0.22522500157356262
1749919824551631600,12.659631591796876,1.2595000267028809,4.408387660980225,0.3786749839782715
1749919824561644500,12.66964453125,0.9666249752044678,3.547637462615967,0.71527498960495
1749919824571657700,12.67965771484375,0.7184374928474426,2.793449878692627,1.0881749391555786
1749919824581671200,12.689671142578124,0.6033499836921692,2.583625078201294,1.3224749565124512
1749919824591684400,12.699684326171875,0.5319874882698059,2.738037586212158,1.3619375228881836
1749919824601697500,12.709697509765626,0.4487999975681305,2.837174892425537,1.192537546157837
1749919824611710700,12.719710693359374,0.36258751153945923,2.5484249591827393,0.8505749702453613
1749919824621724000,12.729723876953125,0.27197501063346863,1.811287522315979,0.4468750059604645
1749919824631737000,12.739737060546876,0.20817500352859497,0.7928249835968018,0.05169999971985817
1749919824641750000,12.74975,0.20817500352859497,-0.2106499969959259,-0.3104749917984009
1749919824651763500,12.759763427734375,0.2400749921798706,-1.009524941444397,-0.6183375120162964
1749919824661776400,12.7697763671875,0.2773374915122986,-1.5038374662399292,-0.816474974155426
1749919824671789600,12.77978955078125,0.3188624978065491,-1.6775000095367432,-0.8837124705314636
1749919824681802800,12.789802734375,0.35612499713897705,-1.5890874862670898,-0.861299991607666
1749919824691816000,12.79981591796875,0.39668750762939453,-1.2780624628067017,-0.7919999957084656
1749919824701829000,12.8098291015625,0.414837509393692,-0.7826499938964844,-0.6908000111579895
1749919824711842300,12.81984228515625,0.4296875,-0.24997499585151672,-0.5928999781608582
1749919824721855500,12.82985546875,0.489362508058548,0.24529999494552612,-0.48317500948905945
1749919824731868700,12.83986865234375,0.5883625149726868,0.6906625032424927,-0.37014999985694885
1749919824741881900,12.8498818359375,0.7418124675750732,1.0708500146865845,-0.23485000431537628
1749919824751895000,12.85989501953125,0.863224983215332,1.3073500394821167,-0.1634874939918518
1749919824761908000,12.869907958984374,0.8771125078201294,1.3393875360488892,-0.21147499978542328
1749919824771921400,12.87992138671875,0.8238999843597412,1.1316249370574951,-0.33178749680519104
1749919824781934600,12.8899345703125,0.7449749708175659,0.7001500129699707,-0.4596624970436096
1749919824791947800,12.89994775390625,0.6928625106811523,0.11852499842643738,-0.5693874955177307
