time,seconds_elapsed,z,y,x
1748004329564194800,0.28919482421875,9.66477108001709,1.5224130153656006,-0.6669766902923584
1748004329574235100,0.299235107421875,9.664251327514648,1.5624512434005737,-0.5756575465202332
1748004329584275500,0.309275390625,9.661748886108398,1.607741355895996,-0.48596227169036865
1748004329594315800,0.319315673828125,9.658610343933105,1.6494005918502808,-0.401395320892334
1748004329604355800,0.32935595703125,9.655779838562012,1.6814401149749756,-0.33025869727134705
1748004329614427000,0.339427001953125,9.653546333312988,1.7040479183197021,-0.27505505084991455
1748004329624467000,0.349467041015625,9.651043891906738,1.7241308689117432,-0.2347845584154129
1748004329634507300,0.35950732421875,9.64857292175293,1.7414120435714722,-0.20714254677295685
1748004329644547600,0.369547607421875,9.646693229675293,1.7537827491760254,-0.1896146982908249
1748004329654618400,0.379618408203125,9.6463041305542,1.7579302787780762,-0.16989640891551971
1748004329664658700,0.38965869140625,9.646954536437988,1.7550394535064697,-0.1627853959798813
1748004329674699000,0.399698974609375,9.648143768310547,1.7491962909698486,-0.15495625138282776
1748004329684769800,0.409769775390625,9.650443077087402,1.736918330192566,-0.14985023438930511
1748004329694810000,0.41981005859375,9.65544605255127,1.7085505723953247,-0.15361569821834564
1748004329704881000,0.429880859375,9.662406921386719,1.667375922203064,-0.16774030029773712
1748004329714921200,0.439921142578125,9.669870376586914,1.620613694190979,-0.19391122460365295
1748004329724992000,0.449991943359375,9.67644214630127,1.5770485401153564,-0.22312335669994354
1748004329735062800,0.460062744140625,9.681859970092773,1.541014552116394,-0.2393147349357605
1748004329745103000,0.47010302734375,9.686931610107422,1.5103415250778198,-0.22936050593852997
1748004329765244700,0.49024462890625,9.699897766113281,1.4386520385742188,-0.11250437051057816
1748004329775285000,0.500284912109375,9.70731258392334,1.391960859298706,-0.02988058142364025
1748004329785355800,0.510355712890625,9.714186668395996,1.3426575660705566,0.04734291136264801
1748004329795426600,0.520426513671875,9.720062255859375,1.2956963777542114,0.10935617238283157
1748004329805467000,0.530466796875,9.725642204284668,1.2487797737121582,0.15105979144573212
1748004329815537700,0.54053759765625,9.732192993164062,1.1940604448318481,0.17039832472801208
1748004329825608400,0.5506083984375,9.739801406860352,1.1299868822097778,0.1725362241268158
1748004329835679200,0.56067919921875,9.747693061828613,1.0613315105438232,0.16264161467552185
1748004329845750000,0.57075,9.755258560180664,0.9927672147750854,0.14051553606987
1748004329855820800,0.58082080078125,9.76195240020752,0.9291062951087952,0.10692809522151947
1748004329865861000,0.590861083984375,9.767173767089844,0.8762820959091187,0.0695221871137619
1748004329875932000,0.600931884765625,9.770843505859375,0.8365822434425354,0.03371479734778404
1748004329886002700,0.611002685546875,9.773234367370605,0.8088829517364502,0.00020724434580188245
1748004329896073500,0.621073486328125,9.774619102478027,0.7915551066398621,-0.02553187869489193
1748004329906144300,0.631144287109375,9.775763511657715,0.7766321897506714,-0.041004519909620285
1748004329916215000,0.641215087890625,9.777534484863281,0.7532636523246765,-0.052829448133707047
1748004329926285800,0.651285888671875,9.780101776123047,0.7183756232261658,-0.06266112625598907
1748004329936356600,0.661356689453125,9.783137321472168,0.6752526760101318,-0.06823226064443588
1748004329946427400,0.671427490234375,9.786189079284668,0.6293555498123169,-0.06935045123100281
1748004329956498200,0.681498291015625,9.788806915283203,0.5874836444854736,-0.06702776998281479
1748004329966569000,0.69156884765625,9.790936470031738,0.5511816740036011,-0.06457686424255371
1748004329976640000,0.701639892578125,9.792792320251465,0.5174715518951416,-0.061927322298288345
1748004329986710800,0.711710693359375,9.794498443603516,0.4855095148086548,-0.049583710730075836
1748004329996781600,0.721781494140625,9.795967102050781,0.4569958746433258,-0.024006884545087814
1748004330006852400,0.731852294921875,9.797111511230469,0.43229252099990845,0.01106787659227848
1748004330016923100,0.741923095703125,9.798027038574219,0.4077993333339691,0.0525125116109848
1748004330026994000,0.751993896484375,9.798608779907227,0.38457220792770386,0.098868228495121
1748004330037064700,0.762064697265625,9.79859447479248,0.37162259221076965,0.14081056416034698
1748004330047135500,0.772135498046875,9.797982215881348,0.37217918038368225,0.17723864316940308
1748004330057206300,0.782206298828125,9.796862602233887,0.38237255811691284,0.21367380023002625
1748004330067277000,0.792277099609375,9.795385360717773,0.39466288685798645,0.2550618350505829
1748004330077347800,0.802347900390625,9.793716430664062,0.4024653732776642,0.30252647399902344
1748004330087418600,0.812418701171875,9.792192459106445,0.3983629643917084,0.353068083524704
1748004330097489400,0.822489501953125,9.791004180908203,0.38052836060523987,0.40226447582244873
1748004330107560200,0.832560302734375,9.790191650390625,0.3522356450557709,0.4454943835735321
1748004330117631000,0.842630859375,9.789677619934082,0.3196955621242523,0.4799920618534088
1748004330127732500,0.852732421875,9.789416313171387,0.2928917109966278,0.50193190574646
1748004330137803300,0.86280322265625,9.789196014404297,0.28006812930107117,0.5134106874465942
1748004330147874000,0.8728740234375,9.788751602172852,0.2854485809803009,0.5188856720924377
1748004330157944800,0.88294482421875,9.787800788879395,0.3083874583244324,0.5236818194389343
1748004330168015600,0.893015625,9.786116600036621,0.34743160009384155,0.530671238899231
1748004330178086400,0.90308642578125,9.78377628326416,0.3989817202091217,0.5375054478645325
1748004330188157200,0.9131572265625,9.780969619750977,0.45786628127098083,0.5416547656059265
1748004330198228000,0.92322802734375,9.777894973754883,0.5187985301017761,0.5422288775444031
1748004330208298800,0.933298828125,9.774839401245117,0.5740201473236084,0.5416666865348816
1748004330218369500,0.94336962890625,9.771842956542969,0.617925226688385,0.5473875403404236
1748004330228471000,0.953470947265625,9.769277572631836,0.6476372480392456,0.558710515499115
1748004330238541800,0.963541748046875,9.767560958862305,0.6639019250869751,0.5695385336875916
1748004330248612600,0.973612548828125,9.767210006713867,0.670405387878418,0.5679353475570679
1748004330258683400,0.983683349609375,9.768292427062988,0.6722944974899292,0.5466770529747009
1748004330278825000,1.003824951171875,9.772265434265137,0.6796941757202148,0.4595901370048523
1748004330288895700,1.013895751953125,9.773743629455566,0.689638614654541,0.4107664227485657
1748004330298966500,1.023966552734375,9.77426528930664,0.705206573009491,0.36988958716392517
1748004330309037300,1.034037353515625,9.773740768432617,0.7266283631324768,0.34114739298820496
1748004330319138600,1.044138671875,9.772438049316406,0.7514854073524475,0.324207603931427
1748004330329209300,1.054209228515625,9.770519256591797,0.7782026529312134,0.31897294521331787
1748004330339280400,1.0642802734375,9.768110275268555,0.8054082989692688,0.325177937746048
1748004330359422000,1.084421875,9.762991905212402,0.8584572076797485,0.342704176902771
1748004330369492700,1.09449267578125,9.760849952697754,0.8844636678695679,0.33753499388694763
1748004330379563500,1.1045634765625,9.759123802185059,0.909602701663971,0.3201550543308258
1748004330389664800,1.114664794921875,9.75776481628418,0.9323266744613647,0.2952568531036377
1748004330399735600,1.124735595703125,9.756664276123047,0.9514017701148987,0.2696565091609955
1748004330409806300,1.134806396484375,9.755855560302734,0.965894341468811,0.2464362531900406
1748004330419877000,1.144877197265625,9.755289077758789,0.9762359857559204,0.22736480832099915
1748004330429948000,1.154947998046875,9.754792213439941,0.9840779304504395,0.21449704468250275
1748004330440018700,1.165018798828125,9.754144668579102,0.9912678003311157,0.21080616116523743
1748004330450089500,1.17508935546875,9.753246307373047,0.9990661144256592,0.21545305848121643
1748004330460191000,1.18519091796875,9.752250671386719,1.0069794654846191,0.22361399233341217
1748004330470261800,1.19526171875,9.751240730285645,1.0154508352279663,0.22924083471298218
1748004330480332500,1.20533251953125,9.750039100646973,1.026888370513916,0.22943691909313202
1748004330490403300,1.2154033203125,9.748546600341797,1.0422691106796265,0.22336554527282715
1748004330500474000,1.22547412109375,9.746772766113281,1.0608428716659546,0.21311421692371368
1748004330510545000,1.235544921875,9.745108604431152,1.07876718044281,0.1987532526254654
1748004330520615700,1.24561572265625,9.743853569030762,1.092488408088684,0.18487150967121124
1748004330530717000,1.255717041015625,9.742745399475098,1.1033761501312256,0.1784462183713913
1748004330540787700,1.26578759765625,9.741650581359863,1.1133253574371338,0.17645147442817688
1748004330550858800,1.275858642578125,9.740545272827148,1.123921513557434,0.17021560668945312
1748004330560929500,1.285929443359375,9.73935604095459,1.1363779306411743,0.154817134141922
1748004330571000300,1.296000244140625,9.73797607421875,1.151092529296875,0.13116082549095154
1748004330581071000,1.306071044921875,9.736091613769531,1.1695002317428589,0.10576576739549637
1748004330591172400,1.31617236328125,9.732963562011719,1.19622802734375,0.09399069100618362
1748004330601243100,1.3262431640625,9.72777271270752,1.2365988492965698,0.10797125846147537
1748004330611314000,1.33631396484375,9.720413208007812,1.2906503677368164,0.13483776152133942
1748004330621384700,1.346384765625,9.711666107177734,1.3523879051208496,0.15805105865001678
1748004330631455500,1.35645556640625,9.70265007019043,1.4137468338012695,0.17401286959648132
1748004330641526300,1.3665263671875,9.694656372070312,1.4660038948059082,0.18674057722091675
1748004330661698600,1.386698486328125,9.685667991638184,1.5207713842391968,0.21322521567344666
1748004330671769300,1.396769287109375,9.685449600219727,1.5213512182235718,0.21893735229969025
1748004330681840000,1.406840087890625,9.687705993652344,1.5071520805358887,0.2173459678888321
1748004330691911000,1.416910888671875,9.691712379455566,1.4818661212921143,0.21252954006195068
1748004330701981700,1.426981689453125,9.696435928344727,1.4510183334350586,0.20988789200782776
1748004330712052500,1.437052490234375,9.701064109802246,1.419341802597046,0.21260938048362732
1748004330722123300,1.447123291015625,9.705412864685059,1.388209342956543,0.21958208084106445
1748004330732224500,1.457224609375,9.709318161010742,1.3587292432785034,0.23104538023471832
1748004330742295300,1.46729541015625,9.712507247924805,1.3332778215408325,0.24485234916210175
1748004330752366000,1.477365966796875,9.715389251708984,1.3107658624649048,0.25198590755462646
1748004330762437000,1.48743701171875,9.718891143798828,1.2859982252120972,0.244454026222229
1748004330772508000,1.4975078125,9.722943305969238,1.2585103511810303,0.22561725974082947
1748004330782578700,1.50757861328125,9.726987838745117,1.2307872772216797,0.20307964086532593
1748004330792680000,1.517679931640625,9.730713844299316,1.2047531604766846,0.17933662235736847
1748004330802750700,1.527750732421875,9.734376907348633,1.1796115636825562,0.14419259130954742
1748004330812821500,1.537821533203125,9.737838745117188,1.1557610034942627,0.09543006122112274
1748004330822892300,1.547892333984375,9.74078369140625,1.134159803390503,0.034840166568756104
1748004330832963000,1.557963134765625,9.743239402770996,1.1128664016723633,-0.03477509319782257
1748004330843033900,1.568033935546875,9.74506664276123,1.0922784805297852,-0.10487663745880127
1748004330863206100,1.5882060546875,9.746618270874023,1.058366298675537,-0.23172396421432495
1748004330873277000,1.59827685546875,9.746468544006348,1.0398670434951782,-0.30887463688850403
1748004330883347700,1.60834765625,9.743767738342285,1.0312814712524414,-0.4072485566139221
1748004330893418500,1.61841845703125,9.7302885055542,1.086166501045227,-0.5586755275726318
1748004330903489300,1.6284892578125,9.702860832214355,1.2146191596984863,-0.7413414716720581
1748004330913560000,1.63856005859375,9.666115760803223,1.3871403932571411,-0.9013509154319763
1748004330933732000,1.658732177734375,9.59245491027832,1.7405776977539062,-1.0609391927719116
1748004330943803000,1.668802978515625,9.557461738586426,1.8886091709136963,-1.1218217611312866
1748004330953873700,1.678873779296875,9.522628784179688,2.005702018737793,-1.211235523223877
1748004330963944400,1.6889443359375,9.485007286071777,2.092985153198242,-1.3507211208343506
1748004330984116700,1.70911669921875,9.391542434692383,2.1719577312469482,-1.8033077716827393
1748004330994187500,1.7191875,9.334186553955078,2.149709701538086,-2.102877616882324
1748004331004258300,1.72925830078125,9.270611763000488,2.0877726078033447,-2.42225980758667
1748004331014329000,1.7393291015625,9.207254409790039,2.004023551940918,-2.71675181388855
1748004331024400000,1.74939990234375,9.153997421264648,1.912585735321045,-2.9524102210998535
1748004331034470700,1.759470703125,9.117646217346191,1.8219034671783447,-3.1176235675811768
1748004331044541400,1.76954150390625,9.100313186645508,1.7447619438171387,-3.210998296737671
1748004331054643000,1.779642822265625,9.099859237670898,1.7027039527893066,-3.2347731590270996
1748004331064713700,1.789713623046875,9.112117767333984,1.722054123878479,-3.189704656600952
1748004331074784500,1.799784423828125,9.127758026123047,1.8157066106796265,-3.091541290283203
1748004331084855300,1.809855224609375,9.136039733886719,1.9776084423065186,-2.96517014503479
1748004331094926000,1.819926025390625,9.135730743408203,2.1778321266174316,-2.8223845958709717
1748004331104996900,1.829996826171875,9.13813591003418,2.377293348312378,-2.6482698917388916
1748004331115098000,1.84009814453125,9.158712387084961,2.534977674484253,-2.421212673187256
1748004331125169000,1.8501689453125,9.204211235046387,2.603794813156128,-2.1617443561553955
1748004331145310500,1.870310546875,9.30444622039795,2.5201001167297363,-1.8018757104873657
1748004331155381200,1.88038134765625,9.341029167175293,2.401406764984131,-1.7744873762130737
1748004331165452000,1.8904521484375,9.366339683532715,2.2551305294036865,-1.8320624828338623
1748004331175553500,1.900553466796875,9.381573677062988,2.0989692211151123,-1.9366941452026367
1748004331185624300,1.910624267578125,9.39045238494873,1.956774115562439,-2.0398097038269043
1748004331195695000,1.920695068359375,9.395755767822266,1.8459759950637817,-2.117199659347534
1748004331205766000,1.930765869140625,9.398345947265625,1.780327558517456,-2.161463499069214
1748004331215836700,1.940836669921875,9.402151107788086,1.7658108472824097,-2.156815528869629
1748004331225907500,1.950907470703125,9.412154197692871,1.7955247163772583,-2.087542772293091
1748004331235978200,1.960978271484375,9.429692268371582,1.8558179140090942,-1.95121431350708
1748004331246079500,1.97107958984375,9.4497709274292,1.9382266998291016,-1.765073537826538
1748004331256150300,1.981150390625,9.464208602905273,2.0367472171783447,-1.5655049085617065
1748004331266221300,1.99122119140625,9.472494125366211,2.134287118911743,-1.373699426651001
1748004331276292000,2.0012919921875,9.476357460021973,2.2198798656463623,-1.2004839181900024
1748004331286363000,2.01136279296875,9.47644329071045,2.2905044555664062,-1.058773159980774
1748004331296433700,2.02143359375,9.473484992980957,2.348545789718628,-0.9527867436408997
1748004331306535000,2.031534912109375,9.468785285949707,2.3977885246276855,-0.8735508918762207
1748004331316605700,2.041605712890625,9.463178634643555,2.442225694656372,-0.8087971806526184
1748004331326676500,2.051676513671875,9.456633567810059,2.4868063926696777,-0.7471687197685242
1748004331336747300,2.061747314453125,9.44917106628418,2.536641836166382,-0.6700712442398071
1748004331346818000,2.071818115234375,9.439481735229492,2.597487688064575,-0.5653499960899353
1748004331356888800,2.081888916015625,9.425312042236328,2.67317533493042,-0.4336046278476715
1748004331366990300,2.091990234375,9.405890464782715,2.759892463684082,-0.2874009907245636
1748004331377061000,2.10206103515625,9.383472442626953,2.845916271209717,-0.1469387710094452
1748004331387132000,2.1121318359375,9.36221981048584,2.9187653064727783,-0.005367168691009283
1748004331397202700,2.12220263671875,9.346248626708984,2.966226816177368,0.139657124876976
1748004331407273500,2.1322734375,9.337883949279785,2.9826815128326416,0.27915066480636597
1748004331417344300,2.14234423828125,9.33484172821045,2.977714776992798,0.4053800106048584
1748004331427415000,2.1524150390625,9.331912994384766,2.9697012901306152,0.516403079032898
1748004331437516300,2.162516357421875,9.326045036315918,2.971451997756958,0.6047589778900146
1748004331447587000,2.172587158203125,9.316482543945312,2.9902145862579346,0.6573783755302429
1748004331457657900,2.182657958984375,9.303393363952637,3.026988983154297,0.674228310585022
1748004331467728600,2.192728759765625,9.287075996398926,3.0756514072418213,0.6789601445198059
1748004331477799700,2.202799560546875,9.269611358642578,3.1207945346832275,0.7108762264251709
1748004331487870500,2.212870361328125,9.249886512756348,3.1601686477661133,0.7895040512084961
1748004331497971700,2.2229716796875,9.22029972076416,3.2088022232055664,0.9273809790611267
1748004331508042500,2.23304248046875,9.17396354675293,3.2760417461395264,1.1297556161880493
1748004331518113300,2.24311328125,9.10943603515625,3.3565309047698975,1.3864554166793823
1748004331528184000,2.25318408203125,9.027179718017578,3.4364514350891113,1.6944667100906372
1748004331538254800,2.2632548828125,8.93031120300293,3.498669385910034,2.0443172454833984
1748004331548325600,2.27332568359375,8.82205581665039,3.529747724533081,2.425408124923706
1748004331558427000,2.283427001953125,8.70327377319336,3.5230512619018555,2.8304622173309326
1748004331578568700,2.303568603515625,8.424092292785645,3.423593521118164,3.672065019607544
1748004331588639500,2.313639404296875,8.27103042602539,3.373591899871826,4.047137260437012
1748004331598710300,2.323710205078125,8.126547813415527,3.344318151473999,4.352601051330566
1748004331608781000,2.333781005859375,7.996932029724121,3.3339524269104004,4.59393310546875
1748004331618851800,2.343851806640625,7.872256278991699,3.3325374126434326,4.805429935455322
1748004331628953000,2.353953125,7.742774963378906,3.3320963382720947,5.011682033538818
1748004331639023900,2.36402392578125,7.6088643074035645,3.3279693126678467,5.21537971496582
1748004331649094700,2.3740947265625,7.483251571655273,3.3167781829833984,5.4009552001953125
1748004331659165400,2.38416552734375,7.371834754943848,3.291614532470703,5.567019939422607
1748004331669236200,2.394236328125,7.274248123168945,3.2415952682495117,5.7225661277771
1748004331679307000,2.40430712890625,7.184999465942383,3.1620233058929443,5.8777360916137695
1748004331689408500,2.414408447265625,7.103826522827148,3.0586557388305664,6.029149532318115
1748004331699479300,2.424479248046875,7.036612510681152,2.9436545372009277,6.163714408874512
1748004331709550000,2.434550048828125,6.974992752075195,2.8253591060638428,6.2878618240356445
1748004331719620900,2.444620849609375,6.908419609069824,2.711974620819092,6.410094738006592
1748004331729691600,2.454691650390625,6.828813076019287,2.6088171005249023,6.536953926086426
1748004331739762400,2.464762451171875,6.729580402374268,2.516547441482544,6.674588680267334
1748004331749833200,2.474833251953125,6.6119279861450195,2.432753324508667,6.821619987487793
1748004331759934500,2.4849345703125,6.472376823425293,2.3554725646972656,6.980721950531006
1748004331770005200,2.495005126953125,6.307444095611572,2.283465623855591,7.1534833908081055
1748004331780076300,2.505076171875,6.114329814910889,2.214181423187256,7.340487480163574
1748004331790147000,2.51514697265625,5.870087146759033,2.1547956466674805,7.554424285888672
1748004331800217900,2.5252177734375,5.555872917175293,2.1226627826690674,7.7972412109375
1748004331810288600,2.53528857421875,5.204000949859619,2.119016647338867,8.037321090698242
1748004331820390000,2.545389892578125,4.866830348968506,2.132106304168701,8.242481231689453
1748004331830460700,2.555460693359375,4.549798965454102,2.1575403213500977,8.415149688720703
1748004331840531500,2.565531494140625,4.238824844360352,2.195675849914551,8.566315650939941
1748004331850602200,2.575602294921875,3.9320528507232666,2.247347593307495,8.69820499420166
1748004331860673000,2.585673095703125,3.6273581981658936,2.316460132598877,8.811734199523926
1748004331870743800,2.595743896484375,3.371807098388672,2.403848171234131,8.889477729797363
1748004331880845300,2.60584521484375,3.186863422393799,2.495384693145752,8.93237590789795
1748004331890916000,2.615916015625,3.0565009117126465,2.562059164047241,8.959020614624023
1748004331900987000,2.62598681640625,2.954406499862671,2.5875778198242188,8.985895156860352
1748004331911057700,2.6360576171875,2.8582847118377686,2.574084997177124,9.020792007446289
1748004331921128400,2.64612841796875,2.760305166244507,2.5354464054107666,9.062151908874512
1748004331931199200,2.65619921875,2.649595022201538,2.485361099243164,9.108952522277832
1748004331941270000,2.66627001953125,2.5268361568450928,2.4367997646331787,9.156826972961426
1748004331951371300,2.676371337890625,2.41365909576416,2.400872230529785,9.196763038635254
1748004331961442000,2.686442138671875,2.317180871963501,2.3823297023773193,9.22635269165039
1748004331971512800,2.696512939453125,2.2267706394195557,2.3742077350616455,9.250676155090332
1748004331981583600,2.70658349609375,2.1339032649993896,2.3697447776794434,9.273680686950684
1748004331991654700,2.716654541015625,2.029707908630371,2.362776041030884,9.298815727233887
1748004332001725400,2.726725341796875,1.9193528890609741,2.3480641841888428,9.325934410095215
1748004332011826700,2.73682666015625,1.812639594078064,2.3217709064483643,9.353828430175781
1748004332021897500,2.7468974609375,1.718379020690918,2.283738136291504,9.380943298339844
1748004332031968300,2.75696826171875,1.6520737409591675,2.2383759021759033,9.40376091003418
1748004332042039000,2.7670390625,1.61195969581604,2.1914854049682617,9.421749114990234
1748004332052109800,2.77710986328125,1.5774508714675903,2.1429312229156494,9.438743591308594
1748004332062180600,2.7871806640625,1.5566635131835938,2.093470811843872,9.453282356262207
1748004332072281900,2.79728173828125,1.5525968074798584,2.046112060546875,9.464315414428711
1748004332082353000,2.807352783203125,1.554641604423523,2.005427837371826,9.472683906555176
1748004332092423700,2.817423583984375,1.5589543581008911,1.9740687608718872,9.478559494018555
1748004332102494500,2.827494384765625,1.5618606805801392,1.9526385068893433,9.482519149780273
1748004332112565200,2.837565185546875,1.562212586402893,1.9422762393951416,9.484589576721191
1748004332122636000,2.847635986328125,1.562934398651123,1.9438203573226929,9.48415470123291
1748004332132737300,2.8577373046875,1.567643642425537,1.9552361965179443,9.481029510498047
1748004332142808000,2.86780810546875,1.5790380239486694,1.9703154563903809,9.476016998291016
1748004332152878800,2.87787890625,1.6019835472106934,1.9820668697357178,9.469711303710938
1748004332162949600,2.88794970703125,1.635005235671997,1.98860502243042,9.462696075439453
1748004332173020400,2.8980205078125,1.669252634048462,1.9878811836242676,9.456866264343262
1748004332183091200,2.90809130859375,1.701434850692749,1.9774454832077026,9.453317642211914
1748004332193162000,2.918161865234375,1.7280423641204834,1.9580432176589966,9.452530860900879
1748004332203263500,2.928263427734375,1.7485649585723877,1.9342131614685059,9.453661918640137
1748004332213334300,2.938334228515625,1.7597919702529907,1.9129610061645508,9.455903053283691
1748004332223405000,2.948405029296875,1.7593709230422974,1.9024696350097656,9.458097457885742
1748004332233475800,2.958475830078125,1.7355462312698364,1.9063307046890259,9.461721420288086
1748004332243546600,2.968546630859375,1.6796858310699463,1.9268031120300293,9.467653274536133
1748004332253617400,2.978617431640625,1.5916688442230225,1.9627019166946411,9.475481986999512
1748004332263718700,2.98871875,1.4633152484893799,2.0104644298553467,9.486154556274414
1748004332293931300,3.01893115234375,0.9906470775604248,2.173724889755249,9.511252403259277
1748004332304002000,3.029001953125,0.8212631344795227,2.227186918258667,9.51501750946045
1748004332314072800,3.03907275390625,0.6478413343429565,2.288571357727051,9.513838768005371
1748004332324174000,3.049174072265625,0.5020377039909363,2.369724750518799,9.502776145935059
1748004332334244900,3.059244873046875,0.3932135999202728,2.4671638011932373,9.483083724975586
1748004332344315600,3.069315673828125,0.31265610456466675,2.563903331756592,9.460392951965332
1748004332354386400,3.079386474609375,0.24247851967811584,2.6358890533447266,9.442651748657227
1748004332364457200,3.089457275390625,0.15911877155303955,2.6651856899261475,9.436199188232422
1748004332384598800,3.109598876953125,-0.08636854588985443,2.5619864463806152,9.465682983398438
1748004332394700300,3.1197001953125,-0.21610914170742035,2.439192295074463,9.496000289916992
1748004332404771000,3.12977099609375,-0.32022804021835327,2.2931740283966064,9.529386520385742
1748004332414841900,3.139841796875,-0.4014560878276825,2.135300874710083,9.562933921813965
1748004332424912600,3.14991259765625,-0.47506579756736755,1.970247507095337,9.594937324523926
1748004332434983400,3.1599833984375,-0.5618209838867188,1.804282784461975,9.622854232788086
1748004332445054200,3.17005419921875,-0.6766955256462097,1.6465551853179932,9.643719673156738
1748004332455155500,3.180155517578125,-0.8143370747566223,1.5014317035675049,9.656756401062012
1748004332465226200,3.190226318359375,-0.9618017673492432,1.3631361722946167,9.663703918457031
1748004332475297000,3.200297119140625,-1.114351749420166,1.2196332216262817,9.666494369506836
1748004332485367800,3.210367919921875,-1.2703707218170166,1.0649917125701904,9.665522575378418
1748004332495438600,3.2204384765625,-1.4199143648147583,0.9030911326408386,9.66119384765625
1748004332505509600,3.230509521484375,-1.553999662399292,0.7378318309783936,9.65458869934082
1748004332515611000,3.24061083984375,-1.6781061887741089,0.5667037963867188,9.645371437072754
1748004332525681700,3.250681640625,-1.8003668785095215,0.38743412494659424,9.632183074951172
1748004332535752400,3.26075244140625,-1.9321891069412231,0.19798369705677032,9.61237907409668
1748004332545823200,3.2708232421875,-2.0819144248962402,0.0007579779485240579,9.583110809326172
1748004332555894000,3.28089404296875,-2.263361692428589,-0.19685208797454834,9.539854049682617
1748004332565964800,3.29096484375,-2.4785354137420654,-0.3860378563404083,9.480412483215332
1748004332576066000,3.301066162109375,-2.718914031982422,-0.5608866810798645,9.405492782592773
1748004332586136800,3.31113671875,-2.9648842811584473,-0.7162607312202454,9.32023811340332
1748004332596207900,3.321207763671875,-3.2009339332580566,-0.8489739298820496,9.230582237243652
1748004332606278700,3.331278564453125,-3.4171833992004395,-0.9568893313407898,9.14207935333252
1748004332616349400,3.341349365234375,-3.615107297897339,-1.0450245141983032,9.055898666381836
1748004332626420200,3.351420166015625,-3.797976016998291,-1.1216517686843872,8.971491813659668
1748004332636491000,3.361490966796875,-3.9652063846588135,-1.1979173421859741,8.888898849487305
1748004332646592300,3.37159228515625,-4.114628314971924,-1.286267876625061,8.808277130126953
1748004332656663000,3.3816630859375,-4.241403579711914,-1.3936634063720703,8.731471061706543
1748004332666733800,3.39173388671875,-4.337589263916016,-1.5184448957443237,8.663142204284668
1748004332676804600,3.4018046875,-4.399252891540527,-1.6519116163253784,8.607447624206543
1748004332686875400,3.41187548828125,-4.4360456466674805,-1.7891908884048462,8.56099796295166
1748004332696946200,3.4219462890625,-4.452326774597168,-1.9290062189102173,8.5220947265625
1748004332707047700,3.432047607421875,-4.446041584014893,-2.0684690475463867,8.492616653442383
1748004332717118500,3.442118408203125,-4.419074535369873,-2.203676462173462,8.472661018371582
1748004332727189200,3.452189208984375,-4.373673439025879,-2.3348195552825928,8.461087226867676
1748004332737260000,3.462260009765625,-4.31484317779541,-2.465646743774414,8.454176902770996
1748004332747330800,3.472330810546875,-4.248256206512451,-2.601555347442627,8.447165489196777
1748004332757401600,3.482401611328125,-4.17274808883667,-2.7442502975463867,8.439647674560547
1748004332767502800,3.4925029296875,-4.088945388793945,-2.8938536643981934,8.430688858032227
1748004332777573600,3.50257373046875,-4.000635623931885,-3.051172971725464,8.417579650878906
1748004332787644400,3.51264453125,-3.910717010498047,-3.2144269943237305,8.399056434631348
1748004332797715200,3.522715087890625,-3.8217153549194336,-3.3785743713378906,8.375566482543945
1748004332807786200,3.5327861328125,-3.7254464626312256,-3.536451578140259,8.353738784790039
1748004332817857000,3.54285693359375,-3.621541738510132,-3.6811819076538086,8.33689022064209
1748004332827927800,3.552927734375,-3.5054352283477783,-3.806483268737793,8.330245018005371
1748004332838029000,3.563029052734375,-3.381331205368042,-3.91300630569458,8.332189559936523
1748004332848099800,3.573099853515625,-3.2501354217529297,-4.004115104675293,8.341107368469238
1748004332858170600,3.583170654296875,-3.1293680667877197,-4.089007377624512,8.346105575561523
1748004332868241400,3.593241455078125,-3.0283985137939453,-4.169439315795898,8.343558311462402
1748004332878312200,3.603312255859375,-2.9434614181518555,-4.243150234222412,8.336791038513184
1748004332888383000,3.613383056640625,-2.8688297271728516,-4.309581756591797,8.328728675842285
1748004332898484500,3.623484375,-2.8083629608154297,-4.368892192840576,8.318428993225098
1748004332908555300,3.63355517578125,-2.7614762783050537,-4.4159321784973145,8.309282302856445
1748004332918626000,3.6436259765625,-2.7252635955810547,-4.4453535079956055,8.305550575256348
1748004332928696800,3.65369677734375,-2.6985578536987305,-4.450992107391357,8.311247825622559
1748004332938767600,3.663767578125,-2.663220167160034,-4.4235148429870605,8.337275505065918
1748004332948838400,3.67383837890625,-2.6137146949768066,-4.364181995391846,8.384079933166504
1748004332958939600,3.683939697265625,-2.553392171859741,-4.281711578369141,8.444971084594727
1748004332969010400,3.694010498046875,-2.4814460277557373,-4.186705589294434,8.513772010803223
1748004332979081200,3.704081298828125,-2.3940391540527344,-4.088274955749512,8.586324691772461
1748004332989152000,3.714152099609375,-2.2949721813201904,-3.999490261077881,8.654915809631348
1748004332999222800,3.724222900390625,-2.1940739154815674,-3.936777353286743,8.709661483764648
1748004333009293800,3.7342939453125,-2.0973169803619385,-3.908885955810547,8.74598503112793
1748004333019395000,3.74439501953125,-2.015130043029785,-3.9080467224121094,8.765660285949707
1748004333029465900,3.7544658203125,-1.9507259130477905,-3.9137022495269775,8.777698516845703
1748004333039536600,3.76453662109375,-1.89456307888031,-3.8984193801879883,8.796780586242676
1748004333049607400,3.774607421875,-1.843724250793457,-3.8479650020599365,8.82973575592041
1748004333059678200,3.78467822265625,-1.8022518157958984,-3.762824535369873,8.874876022338867
1748004333069749000,3.7947490234375,-1.7213881015777588,-3.6500604152679443,8.937800407409668
1748004333079819800,3.80481982421875,-1.6121844053268433,-3.527496814727783,9.007108688354492
1748004333089921000,3.814921142578125,-1.4826316833496094,-3.416370153427124,9.071968078613281
1748004333099992000,3.824991943359375,-1.3557392358779907,-3.332247734069824,9.122964859008789
1748004333110062800,3.835062744140625,-1.2468181848526,-3.2774362564086914,9.158287048339844
1748004333120133600,3.845133544921875,-1.1832382678985596,-3.2425014972686768,9.1791353225708
1748004333130204400,3.855204345703125,-1.1233928203582764,-3.21512508392334,9.196268081665039
1748004333140275200,3.865275146484375,-1.0793603658676147,-3.186060905456543,9.211644172668457
1748004333150376400,3.87537646484375,-1.0185269117355347,-3.1461033821105957,9.232281684875488
1748004333160447200,3.885447265625,-0.954034149646759,-3.0998287200927734,9.254796981811523
1748004333170518000,3.89551806640625,-0.9028022885322571,-3.050429344177246,9.276325225830078
1748004333180588800,3.9055888671875,-0.8535556197166443,-3.003572463989258,9.296255111694336
1748004333190659600,3.91565966796875,-0.7799968719482422,-2.9703657627105713,9.313373565673828
1748004333200730400,3.92573046875,-0.6891213059425354,-2.966883420944214,9.321646690368652
1748004333210832000,3.935831787109375,-0.6104611158370972,-3.004768133163452,9.314992904663086
1748004333220902700,3.945902587890625,-0.5579062104225159,-3.08400821685791,9.292363166809082
1748004333230973400,3.955973388671875,-0.5300020575523376,-3.196239709854126,9.255999565124512
1748004333241044200,3.966044189453125,-0.5258177518844604,-3.3301541805267334,9.208907127380371
1748004333251115000,3.976114990234375,-0.5388431549072266,-3.4732894897460938,9.155122756958008
1748004333261185800,3.986185791015625,-0.559851884841919,-3.613607168197632,9.099384307861328
1748004333271256600,3.996256591796875,-0.5633281469345093,-3.743455171585083,9.046524047851562
1748004333281357800,4.00635791015625,-0.5285664200782776,-3.862485647201538,8.998456001281738
1748004333291428600,4.0164287109375,-0.4542759358882904,-3.9722251892089844,8.954632759094238
1748004333301499400,4.02649951171875,-0.35897913575172424,-4.076788425445557,8.911864280700684
1748004333311570400,4.0365703125,-0.27459773421287537,-4.18198823928833,8.866000175476074
1748004333321641200,4.04664111328125,-0.22913315892219543,-4.3008551597595215,8.810251235961914
1748004333331712000,4.0567119140625,-0.23539556562900543,-4.439713478088379,8.740933418273926
1748004333341813200,4.066813232421875,-0.27753564715385437,-4.586272239685059,8.663686752319336
1748004333351884000,4.076884033203125,-0.32594916224479675,-4.720553398132324,8.589558601379395
1748004333361954800,4.086954833984375,-0.3677103817462921,-4.824324131011963,8.530009269714355
1748004333372025600,4.097025634765625,-0.40599969029426575,-4.888429641723633,8.491689682006836
1748004333382096400,4.107096435546875,-0.4429004490375519,-4.927525043487549,8.467215538024902
1748004333392167200,4.117167236328125,-0.47674399614334106,-4.960159778594971,8.446295738220215
1748004333402268700,4.1272685546875,-0.5155789256095886,-4.988658905029297,8.42720890045166
1748004333412339500,4.13733935546875,-0.544352650642395,-5.018600940704346,8.407598495483398
1748004333422410200,4.14741015625,-0.5286698341369629,-5.045199394226074,8.392666816711426
1748004333432481000,4.15748095703125,-0.453978031873703,-5.057067394256592,8.389897346496582
1748004333442551800,4.1675517578125,-0.34176117181777954,-5.0521931648254395,8.398150444030762
1748004333452622600,4.17762255859375,-0.24449005722999573,-5.044388294219971,8.406233787536621
1748004333462723800,4.187723876953125,-0.1677221655845642,-5.050018310546875,8.404735565185547
1748004333472794600,4.197794677734375,-0.09180943667888641,-5.074402332305908,8.391210556030273
1748004333482865400,4.207865478515625,-0.017561033368110657,-5.11469030380249,8.367198944091797
1748004333492936200,4.217936279296875,0.040879372507333755,-5.155404090881348,8.342092514038086
1748004333503007000,4.228007080078125,0.100700743496418,-5.183500289916992,8.324155807495117
1748004333513077800,4.238077880859375,0.1792314201593399,-5.190683841705322,8.31835651397705
1748004333523179300,4.24817919921875,0.2738494277000427,-5.172133445739746,8.327329635620117
1748004333533250000,4.25825,0.38707640767097473,-5.126181125640869,8.351217269897461
1748004333543320800,4.26832080078125,0.5177948474884033,-5.050607681274414,8.390091896057129
1748004333553391600,4.2783916015625,0.6661568284034729,-4.937040328979492,8.447027206420898
1748004333563462400,4.28846240234375,0.8405172228813171,-4.783380508422852,8.519577026367188
1748004333573533200,4.298533203125,1.0479984283447266,-4.5907111167907715,8.602176666259766
1748004333583604000,4.30860400390625,1.2548351287841797,-4.372178554534912,8.687912940979004
1748004333593705200,4.318705322265625,1.4341541528701782,-4.153190612792969,8.767245292663574
1748004333603776000,4.32877587890625,1.580674409866333,-3.9549498558044434,8.83347225189209
1748004333613847000,4.338846923828125,1.7092335224151611,-3.766291856765747,8.891791343688965
1748004333623917800,4.348917724609375,1.823349952697754,-3.56255841255188,8.952875137329102
1748004333633988600,4.358988525390625,1.9012500047683716,-3.317258834838867,9.030583381652832
1748004333644059400,4.369059326171875,1.9645942449569702,-3.022862195968628,9.119926452636719
1748004333654160600,4.37916064453125,2.025096893310547,-2.685734987258911,9.211743354797363
1748004333664231400,4.3892314453125,2.0839293003082275,-2.314105272293091,9.299060821533203
1748004333674302200,4.39930224609375,2.193675994873047,-1.90997314453125,9.365371704101562
1748004333684373000,4.409373046875,2.384033441543579,-1.5008063316345215,9.393314361572266
1748004333694443800,4.41944384765625,2.5576236248016357,-1.1741318702697754,9.394165992736816
1748004333704514600,4.4295146484375,2.6302969455718994,-0.9738477468490601,9.39699649810791
1748004333714616000,4.439615966796875,2.6632614135742188,-0.8779590725898743,9.3971586227417
1748004333724686800,4.449686767578125,2.7237024307250977,-0.8350546956062317,9.383737564086914
1748004333734757600,4.459757568359375,2.7890851497650146,-0.8102426528930664,9.366691589355469
1748004333744828400,4.469828369140625,2.837914228439331,-0.7804156541824341,9.354549407958984
1748004333754899200,4.479899169921875,2.853426218032837,-0.7332224249839783,9.353647232055664
1748004333764970000,4.489969970703125,2.835345506668091,-0.6690978407859802,9.363946914672852
1748004333775071200,4.5000712890625,2.7956690788269043,-0.594974935054779,9.380864143371582
1748004333785142000,4.51014208984375,2.7294528484344482,-0.5181223154067993,9.404892921447754
1748004333795212800,4.520212890625,2.6458587646484375,-0.4401819109916687,9.432711601257324
1748004333805283600,4.53028369140625,2.54899263381958,-0.3655197024345398,9.46252727508545
1748004333815354400,4.540354248046875,2.4576756954193115,-0.3020443618297577,9.488887786865234
1748004333825425400,4.55042529296875,2.3822267055511475,-0.26194143295288086,9.509299278259277
1748004333835496200,4.56049609375,2.3122456073760986,-0.2495112121105194,9.526891708374023
1748004333845597400,4.570597412109375,2.2420408725738525,-0.25856393575668335,9.543416023254395
1748004333855668200,4.580668212890625,2.17020320892334,-0.27806395292282104,9.559459686279297
1748004333865739000,4.590739013671875,2.0823137760162354,-0.3088358938694,9.578046798706055
1748004333875809800,4.600809814453125,1.9600754976272583,-0.35326188802719116,9.602274894714355
1748004333885894000,4.610893798828125,1.7962417602539062,-0.4242945909500122,9.631400108337402
1748004333895965000,4.62096484375,1.5912299156188965,-0.5447124242782593,9.661348342895508
1748004333906066200,4.631066162109375,1.3500370979309082,-0.7211633920669556,9.686470985412598
1748004333916137000,4.641136962890625,1.100860357284546,-0.9474899172782898,9.698493003845215
1748004333926207700,4.651207763671875,0.8734409809112549,-1.2033298015594482,9.693269729614258
1748004333936278500,4.661278564453125,0.6815338730812073,-1.4581044912338257,9.673666954040527
1748004333946349300,4.671349365234375,0.5124589204788208,-1.692798137664795,9.64583969116211
1748004333956420000,4.681420166015625,0.3478569984436035,-1.9076564311981201,9.613024711608887
1748004333966521300,4.691521240234375,0.1760888248682022,-2.1157021522521973,9.574089050292969
1748004333976592100,4.701592041015625,-0.0031346629839390516,-2.319221258163452,9.528462409973145
1748004333986663200,4.7116630859375,-0.1883964240550995,-2.5051839351654053,9.479395866394043
1748004333996734000,4.72173388671875,-0.3552762269973755,-2.655853271484375,9.433483123779297
1748004334006804700,4.7318046875,-0.4812890887260437,-2.7706549167633057,9.394797325134277
1748004334016875500,4.74187548828125,-0.5286362171173096,-2.8786938190460205,9.35970401763916
1748004334026946300,4.7519462890625,-0.4274826943874359,-3.0476250648498535,9.311263084411621
1748004334037047600,4.762047607421875,-0.2560626268386841,-3.3327975273132324,9.219396591186523
1748004334047118300,4.772118408203125,-0.14525434374809265,-3.7200872898101807,9.07249927520752
1748004334057189000,4.782189208984375,-0.1645476222038269,-4.176364898681641,8.871374130249023
1748004334067260000,4.792260009765625,-0.28725579380989075,-4.650291442871094,8.629175186157227
1748004334077330700,4.80233056640625,-0.4515429735183716,-5.077572345733643,8.37763500213623
1748004334087401500,4.8124013671875,-0.597348153591156,-5.421789646148682,8.149709701538086
1748004334097503000,4.8225029296875,-0.7113030552864075,-5.683465003967285,7.960066795349121
1748004334107573800,4.83257373046875,-0.8148609399795532,-5.845948219299316,7.831427574157715
1748004334117644500,4.84264453125,-0.921664297580719,-5.913303375244141,7.76876974105835
1748004334127715300,4.85271533203125,-1.0506740808486938,-5.906213760375977,7.757778167724609
1748004334137786000,4.8627861328125,-1.1897799968719482,-5.852426528930664,7.778426170349121
1748004334147857000,4.87285693359375,-1.299548864364624,-5.7977399826049805,7.801779270172119
1748004334157927700,4.882927734375,-1.355748176574707,-5.764656066894531,7.816717147827148
1748004334168029000,4.89302880859375,-1.3944097757339478,-5.749408721923828,7.8211445808410645
1748004334178099700,4.903099609375,-1.4748281240463257,-5.733158588409424,7.818322658538818
1748004334188170500,4.91317041015625,-1.6121022701263428,-5.7026472091674805,7.813536167144775
1748004334198241500,4.923241455078125,-1.7914890050888062,-5.657431602478027,7.80733060836792
1748004334208312300,4.933312255859375,-1.9978123903274536,-5.602443218231201,7.796907424926758
1748004334218383000,4.943383056640625,-2.2239015102386475,-5.5386152267456055,7.781284332275391
1748004334228484400,4.953484375,-2.460850954055786,-5.468845367431641,7.759273529052734
1748004334238555100,4.96355517578125,-2.693230152130127,-5.398336887359619,7.731420040130615
1748004334248626000,4.9736259765625,-2.9253742694854736,-5.328927993774414,7.69513463973999
1748004334258696700,4.98369677734375,-3.148989200592041,-5.264028072357178,7.65142297744751
1748004334268767500,4.993767578125,-3.3669378757476807,-5.204513072967529,7.599154949188232
1748004334278838300,5.00383837890625,-3.5884206295013428,-5.148972511291504,7.535365104675293
1748004334288939800,5.013939697265625,-3.808971405029297,-5.0960493087768555,7.462734222412109
1748004334299010600,5.024010498046875,-4.012387275695801,-5.047386169433594,7.388844013214111
1748004334309081300,5.034081298828125,-4.212547302246094,-5.004908084869385,7.3058695793151855
1748004334319152000,5.044152099609375,-4.407342910766602,-4.971356391906738,7.213275909423828
1748004334329223000,5.054222900390625,-4.627329349517822,-4.9516377449035645,7.087983131408691
1748004334339293700,5.064293701171875,-4.848567962646484,-4.943836212158203,6.944081783294678
1748004334349395000,5.07439501953125,-5.061056613922119,-4.951762676239014,6.784994125366211
1748004334359465700,5.0844658203125,-5.251314163208008,-4.977095603942871,6.619864463806152
1748004334369536500,5.09453662109375,-5.415859222412109,-5.019627571105957,6.4530768394470215
1748004334379607300,5.104607177734375,-5.559437274932861,-5.078198432922363,6.2829084396362305
1748004334389678000,5.114677978515625,-5.690445899963379,-5.150404453277588,6.104306221008301
1748004334399748900,5.124748779296875,-5.812696933746338,-5.225761890411377,5.922360897064209
1748004334409850400,5.134850341796875,-5.9377007484436035,-5.278009414672852,5.749496936798096
1748004334419921200,5.144921142578125,-6.07594633102417,-5.281116008758545,5.600273609161377
1748004334429992000,5.154991943359375,-6.227048397064209,-5.22737455368042,5.483503818511963
1748004334440062700,5.165062744140625,-6.378963947296143,-5.124693393707275,5.405250072479248
1748004334450133500,5.175133544921875,-6.524881839752197,-4.993316650390625,5.353792190551758
1748004334460204300,5.185204345703125,-6.658295631408691,-4.846665859222412,5.324219226837158
1748004334470275000,5.195275146484375,-6.784470081329346,-4.692438125610352,5.303053855895996
1748004334480376300,5.205376220703125,-6.913162708282471,-4.534630298614502,5.274058818817139
1748004334490447000,5.215447021484375,-7.038409233093262,-4.375865936279297,5.242422103881836
1748004334500518100,5.22551806640625,-7.154757976531982,-4.217675685882568,5.214503288269043
1748004334510589000,5.2355888671875,-7.2596330642700195,-4.060997486114502,5.193881034851074
1748004334520659700,5.24565966796875,-7.356993198394775,-3.9064104557037354,5.1754231452941895
1748004334530730500,5.25573046875,-7.447528839111328,-3.75628399848938,5.157037734985352
1748004334540831700,5.265831787109375,-7.533358097076416,-3.6127772331237793,5.1348557472229
1748004334550902500,5.275902587890625,-7.614365100860596,-3.4783577919006348,5.1081156730651855
1748004334560973300,5.285973388671875,-7.691526889801025,-3.3505516052246094,5.077854156494141
1748004334571044000,5.296044189453125,-7.764284133911133,-3.2246181964874268,5.048575401306152
1748004334581115000,5.306114990234375,-7.833684921264648,-3.0975341796875,5.0208611488342285
1748004334591185700,5.316185546875,-7.900206089019775,-2.9693689346313477,4.993993759155273
1748004334601287200,5.326287109375,-7.963383674621582,-2.8437857627868652,4.966667652130127
1748004334611358000,5.33635791015625,-8.020216941833496,-2.725790023803711,4.941313743591309
1748004334621428700,5.3464287109375,-8.072349548339844,-2.614748477935791,4.916366100311279
1748004334631499500,5.35649951171875,-8.119515419006348,-2.507664680480957,4.8944315910339355
1748004334641570300,5.3665703125,-8.165274620056152,-2.4077322483062744,4.868419170379639
1748004334651641000,5.37664111328125,-8.208601951599121,-2.3185946941375732,4.838735580444336
1748004334661712000,5.3867119140625,-8.245452880859375,-2.2412595748901367,4.812448024749756
1748004334671813000,5.396813232421875,-8.274582862854004,-2.176386594772339,4.792182922363281
1748004334681884000,5.4068837890625,-8.296939849853516,-2.1230010986328125,4.7774529457092285
1748004334691954700,5.41695458984375,-8.314379692077637,-2.078437089920044,4.7667155265808105
1748004334702025500,5.427025390625,-8.329473495483398,-2.040750503540039,4.756637096405029
1748004334712096500,5.437096435546875,-8.344560623168945,-2.0048506259918213,4.745448589324951
1748004334722167300,5.447167236328125,-8.358358383178711,-1.9663323163986206,4.737273693084717
1748004334732268500,5.4572685546875,-8.368045806884766,-1.9255146980285645,4.736937522888184
1748004334742339300,5.46733935546875,-8.372718811035156,-1.885472297668457,4.744781494140625
1748004334752410000,5.47741015625,-8.373367309570312,-1.85025155544281,4.757486343383789
1748004334762481000,5.48748095703125,-8.370759963989258,-1.8238133192062378,4.772260665893555
1748004334772551700,5.4975517578125,-8.364093780517578,-1.8087455034255981,4.789650917053223
1748004334782622500,5.50762255859375,-8.353107452392578,-1.8035579919815063,4.810733318328857
1748004334792723700,5.5177236328125,-8.340288162231445,-1.8048864603042603,4.832428932189941
1748004334802794800,5.527794677734375,-8.326478958129883,-1.8084267377853394,4.854866027832031
1748004334812865500,5.537865478515625,-8.310742378234863,-1.8123080730438232,4.880315780639648
1748004334822936300,5.547936279296875,-8.292850494384766,-1.8188339471817017,4.908243656158447
1748004334833007000,5.558007080078125,-8.273383140563965,-1.8302947282791138,4.9367547035217285
1748004334843078000,5.568077880859375,-8.251484870910645,-1.8482017517089844,4.9666428565979
1748004334853148700,5.578148681640625,-8.225914001464844,-1.8753998279571533,4.998758792877197
1748004334863250000,5.58825,-8.193687438964844,-1.917360544204712,5.035633087158203
1748004334873320700,5.59832080078125,-8.1561279296875,-1.9803251028060913,5.072108268737793
1748004334883391500,5.6083916015625,-8.116143226623535,-2.0615360736846924,5.103790760040283
1748004334893462300,5.618462158203125,-8.076005935668945,-2.151512384414673,5.130255222320557
1748004334903533000,5.628532958984375,-8.036308288574219,-2.2462618350982666,5.151936054229736
1748004334913603800,5.638603759765625,-7.991748332977295,-2.347137928009033,5.176224231719971
1748004334923705300,5.648705322265625,-7.938142776489258,-2.4553380012512207,5.208415985107422
1748004334933776100,5.658776123046875,-7.876286506652832,-2.5716166496276855,5.246072292327881
1748004334943847000,5.668846923828125,-7.806490421295166,-2.700658082962036,5.285409450531006
1748004334963988500,5.688988525390625,-7.655359745025635,-3.0197670459747314,5.333560466766357
1748004334974059300,5.699059326171875,-7.573951244354248,-3.2127044200897217,5.337057590484619
1748004334984160500,5.709160400390625,-7.489034175872803,-3.426574945449829,5.323846340179443
1748004334994231300,5.719231201171875,-7.404077053070068,-3.654660224914551,5.290888786315918
1748004335004302000,5.729302001953125,-7.3251543045043945,-3.8896353244781494,5.232900619506836
1748004335014373000,5.739373046875,-7.263345718383789,-4.120053768157959,5.141921043395996
1748004335024444000,5.74944384765625,-7.221780300140381,-4.330112457275391,5.026569843292236
1748004335034514700,5.7595146484375,-7.247334957122803,-4.469480991363525,4.865210056304932
1748004335044585500,5.76958544921875,-7.372409343719482,-4.451454162597656,4.6906867027282715
1748004335054686700,5.779686767578125,-7.484245777130127,-4.325201034545898,4.631317615509033
1748004335064757500,5.789757568359375,-7.553256988525391,-4.170816898345947,4.66079044342041
1748004335074828300,5.799828369140625,-7.573520183563232,-4.037137031555176,4.744860649108887
1748004335084899000,5.809899169921875,-7.5493364334106445,-3.9549801349639893,4.851395606994629
1748004335094969900,5.819969970703125,-7.511493682861328,-3.927058696746826,4.932147026062012
1748004335105040600,5.83004052734375,-7.4883880615234375,-3.9348392486572266,4.960994243621826
1748004335115142100,5.84014208984375,-7.491120338439941,-3.966318368911743,4.931716442108154
1748004335125213000,5.850212890625,-7.5197296142578125,-4.026688575744629,4.8383708000183105
1748004335135283700,5.86028369140625,-7.560332775115967,-4.119122505187988,4.695165634155273
1748004335145354500,5.8703544921875,-7.590824127197266,-4.238236427307129,4.537303447723389
1748004335155425300,5.88042529296875,-7.604574680328369,-4.355825424194336,4.4008660316467285
1748004335165496000,5.89049609375,-7.61811637878418,-4.4259772300720215,4.306438446044922
1748004335175597300,5.900597412109375,-7.6242899894714355,-4.443292617797852,4.277587413787842
1748004335185668000,5.910668212890625,-7.616430282592773,-4.4392313957214355,4.295766830444336
1748004335195739000,5.92073876953125,-7.5937910079956055,-4.433737277984619,4.341277122497559
1748004335205809700,5.9308095703125,-7.558069229125977,-4.434958457946777,4.401944637298584
1748004335215880400,5.94088037109375,-7.5204644203186035,-4.444777488708496,4.456114768981934
1748004335225951500,5.950951416015625,-7.492997169494629,-4.45922327041626,4.48784065246582
1748004335236022300,5.961022216796875,-7.483006954193115,-4.477389812469482,4.486422538757324
1748004335246123500,5.97112353515625,-7.48359489440918,-4.490695953369141,4.472119331359863
1748004335256194300,5.9811943359375,-7.493644714355469,-4.498199462890625,4.4476823806762695
1748004335266265000,5.99126513671875,-7.506300926208496,-4.499776363372803,4.424687385559082
1748004335276335900,6.0013359375,-7.515358924865723,-4.498380184173584,4.410707473754883
1748004335286406700,6.01140673828125,-7.521057605743408,-4.500757694244385,4.398553848266602
1748004335296477400,6.0214775390625,-7.523992538452148,-4.5124077796936035,4.381563663482666
1748004335306579000,6.031578857421875,-7.523784160614014,-4.536465644836426,4.3570098876953125
1748004335316649700,6.041649658203125,-7.52255916595459,-4.571505546569824,4.322364807128906
1748004335326720500,6.051720458984375,-7.520895004272461,-4.6153130531311035,4.278483867645264
1748004335336791300,6.061791259765625,-7.517694473266602,-4.663579940795898,4.231510162353516
1748004335346862000,6.071862060546875,-7.512919902801514,-4.710411548614502,4.187892913818359
1748004335356932900,6.081932861328125,-7.506988048553467,-4.749484062194824,4.1542649269104
1748004335367034000,6.0920341796875,-7.499143123626709,-4.777074337005615,4.136763572692871
1748004335377105000,6.10210498046875,-7.490227699279785,-4.793527603149414,4.133879661560059
1748004335387175700,6.11217578125,-7.481208801269531,-4.802113056182861,4.140244960784912
1748004335397246500,6.12224658203125,-7.473697185516357,-4.805969715118408,4.149324417114258
1748004335407317200,6.132317138671875,-7.468395709991455,-4.809355735778809,4.154941558837891
1748004335417388000,6.142387939453125,-7.46640682220459,-4.815771579742432,4.151084899902344
1748004335427489500,6.152489501953125,-7.469264507293701,-4.828028678894043,4.131660461425781
1748004335437560300,6.162560302734375,-7.476407051086426,-4.846725940704346,4.09670352935791
1748004335447631000,6.172631103515625,-7.4857025146484375,-4.871345043182373,4.050265312194824
1748004335457702000,6.182701904296875,-7.493834018707275,-4.898829936981201,4.0017876625061035
1748004335467772700,6.192772705078125,-7.500431537628174,-4.925296783447266,3.956686019897461
1748004335477843500,6.202843505859375,-7.507777690887451,-4.944738388061523,3.9183175563812256
1748004335487914200,6.212914306640625,-7.517825603485107,-4.952458381652832,3.8891966342926025
1748004335498015500,6.223015380859375,-7.531094074249268,-4.946588516235352,3.8709521293640137
1748004335508086300,6.233086181640625,-7.547086715698242,-4.9287638664245605,3.8625330924987793
1748004335518157300,6.2431572265625,-7.5643720626831055,-4.902300834655762,3.862396001815796
1748004335528228000,6.25322802734375,-7.580830097198486,-4.872251987457275,3.868147611618042
1748004335538299000,6.263298828125,-7.596327304840088,-4.841768264770508,3.8760147094726562
1748004335548369700,6.27336962890625,-7.6146135330200195,-4.811057090759277,3.878370761871338
1748004335558471000,6.283470947265625,-7.636659145355225,-4.781831741333008,3.8711647987365723
1748004335568541700,6.293541748046875,-7.660977363586426,-4.756793975830078,3.8539235591888428
1748004335578612500,6.303612548828125,-7.686267375946045,-4.737220764160156,3.8275868892669678
1748004335588683300,6.313683349609375,-7.713745594024658,-4.722689628601074,3.7900822162628174
1748004335598754000,6.323754150390625,-7.745276927947998,-4.712512969970703,3.7380847930908203
1748004335608824800,6.333824951171875,-7.779964923858643,-4.704561710357666,3.675546407699585
1748004335618926300,6.34392626953125,-7.813234806060791,-4.697495937347412,3.6134848594665527
1748004335628997000,6.3539970703125,-7.841236114501953,-4.693330764770508,3.557814836502075
1748004335639068000,6.36406787109375,-7.867276668548584,-4.691795825958252,3.501910924911499
1748004335649138700,6.374138671875,-7.88978385925293,-4.691041469573975,3.451930046081543
1748004335659209500,6.38420947265625,-7.904224395751953,-4.690637588500977,3.4192898273468018
1748004335669280300,6.3942802734375,-7.911681175231934,-4.691812992095947,3.4003794193267822
1748004335679351000,6.40435107421875,-7.913931846618652,-4.693929672241211,3.3922085762023926
1748004335689452300,6.414452392578125,-7.912973880767822,-4.694873809814453,3.3931403160095215
1748004335699523000,6.424523193359375,-7.908659934997559,-4.694028377532959,3.404348611831665
1748004335709593900,6.43459375,-7.901795387268066,-4.692787170410156,3.42195200920105
1748004335719664600,6.44466455078125,-7.892986297607422,-4.691740036010742,3.4436516761779785
1748004335729735700,6.454735595703125,-7.882263660430908,-4.690515518188477,3.4697792530059814
1748004335739806500,6.464806396484375,-7.870180606842041,-4.691536903381348,3.495729923248291
1748004335749907700,6.47490771484375,-7.857010364532471,-4.695921897888184,3.519388198852539
1748004335759978500,6.484978515625,-7.842792987823486,-4.703113079071045,3.5414278507232666
1748004335770049300,6.49504931640625,-7.827384948730469,-4.7136077880859375,3.5615077018737793
1748004335780120000,6.5051201171875,-7.811588287353516,-4.7264018058776855,3.5791916847229004
1748004335790190800,6.51519091796875,-7.797597408294678,-4.739123344421387,3.592850923538208
1748004335800261600,6.52526171875,-7.787725448608398,-4.749851703643799,3.6000893115997314
1748004335810363000,6.53536279296875,-7.782140731811523,-4.757143497467041,3.602534294128418
1748004335820434000,6.545433837890625,-7.778997421264648,-4.76025390625,3.6052136421203613
1748004335830504700,6.555504638671875,-7.776411056518555,-4.759751796722412,3.6114518642425537
1748004335840575500,6.565575439453125,-7.772927761077881,-4.758577346801758,3.6204867362976074
1748004335850646300,6.575646240234375,-7.768567085266113,-4.759142875671387,3.6290931701660156
1748004335860717000,6.585717041015625,-7.76401424407959,-4.762575149536133,3.634328842163086
1748004335870787800,6.595787841796875,-7.760113716125488,-4.7688307762146,3.634456157684326
1748004335880889000,6.60588916015625,-7.75689172744751,-4.778236389160156,3.628976345062256
1748004335890960000,6.6159599609375,-7.754377841949463,-4.789878845214844,3.618988037109375
1748004335901030700,6.62603076171875,-7.752048015594482,-4.803086280822754,3.606452703475952
1748004335911101400,6.636101318359375,-7.7488908767700195,-4.816658020019531,3.5951197147369385
1748004335921172200,6.646172119140625,-7.744369029998779,-4.828575611114502,3.588870048522949
1748004335931243000,6.656242919921875,-7.739104270935059,-4.8368682861328125,3.5890591144561768
1748004335941344500,6.666344482421875,-7.733254432678223,-4.840428352355957,3.596863269805908
1748004335951415300,6.676415283203125,-7.727818489074707,-4.839299201965332,3.6100411415100098
1748004335961486000,6.686486083984375,-7.7218475341796875,-4.835964202880859,3.6272456645965576
1748004335971556900,6.696556884765625,-7.714999675750732,-4.830771446228027,3.648671865463257
1748004335981627600,6.706627685546875,-7.707396984100342,-4.823558330535889,3.674194812774658
1748004335991698400,6.716698486328125,-7.6982645988464355,-4.816937446594238,3.7019219398498535
1748004336001799700,6.726799560546875,-7.6885833740234375,-4.812216281890869,3.7280893325805664
1748004336011870500,6.736870361328125,-7.6796464920043945,-4.8099894523620605,3.7493221759796143
1748004336021941200,6.746941162109375,-7.671447277069092,-4.810062885284424,3.765976667404175
1748004336032012300,6.75701220703125,-7.662081718444824,-4.812885761260986,3.7814056873321533
1748004336042083000,6.7670830078125,-7.650339603424072,-4.8170647621154785,3.7998135089874268
1748004336052153900,6.77715380859375,-7.636536598205566,-4.82149076461792,3.8218982219696045
1748004336062224600,6.787224609375,-7.620280742645264,-4.826311111450195,3.8481736183166504
1748004336072326000,6.797325927734375,-7.600990295410156,-4.833131313323975,3.877652406692505
1748004336082396700,6.807396728515625,-7.581267833709717,-4.840325832366943,3.907174587249756
1748004336092467500,6.817467529296875,-7.562941074371338,-4.847611904144287,3.9335694313049316
1748004336102538200,6.827538330078125,-7.545281887054443,-4.853521347045898,3.9601049423217773
1748004336112609000,6.837609130859375,-7.527222156524658,-4.85769510269165,3.9892497062683105
1748004336122679800,6.8476796875,-7.509324073791504,-4.862229347229004,4.017358779907227
1748004336132781300,6.85778125,-7.490997791290283,-4.868032932281494,4.044453144073486
1748004336142852000,6.86785205078125,-7.473906993865967,-4.875669002532959,4.066811561584473
1748004336152923000,6.8779228515625,-7.46111536026001,-4.885900974273682,4.078003406524658
1748004336162993700,6.88799365234375,-7.46084451675415,-4.898394584655762,4.063486099243164
1748004336173064400,6.898064453125,-7.4946980476379395,-4.906672477722168,3.990546464920044
1748004336183135200,6.90813525390625,-7.559678554534912,-4.901191234588623,3.8729796409606934
1748004336193236500,6.918236572265625,-7.610137462615967,-4.898336410522461,3.776571273803711
1748004336203307300,6.928307373046875,-7.624472141265869,-4.913329124450684,3.7278711795806885
1748004336213378000,6.9383779296875,-7.608591079711914,-4.941875457763672,3.7225818634033203
1748004336223448800,6.94844873046875,-7.580394268035889,-4.971304416656494,3.7408740520477295
1748004336233519600,6.95851953125,-7.553345203399658,-4.996018409729004,3.762600898742676
1748004336243590700,6.968590576171875,-7.531444072723389,-5.014387130737305,3.7820167541503906
1748004336253692000,6.97869189453125,-7.516446113586426,-5.02525520324707,3.7973995208740234
1748004336263762700,6.9887626953125,-7.510725021362305,-5.028285503387451,3.8047003746032715
1748004336273833500,6.99883349609375,-7.513133525848389,-5.029292583465576,3.798610210418701
1748004336283904300,7.008904296875,-7.517641067504883,-5.033763885498047,3.783740520477295
1748004336293975000,7.01897509765625,-7.520542144775391,-5.041032791137695,3.768264055252075
1748004336304045800,7.0290458984375,-7.5216498374938965,-5.050776958465576,3.7529754638671875
1748004336314116600,7.03911669921875,-7.521814823150635,-5.062531471252441,3.736772298812866
1748004336324217900,7.0492177734375,-7.521801948547363,-5.077225208282471,3.716808557510376
1748004336334289000,7.059288818359375,-7.522707462310791,-5.094648361206055,3.6910452842712402
1748004336344359700,7.069359619140625,-7.524596214294434,-5.114565849304199,3.6595163345336914
1748004336354430500,7.079430419921875,-7.526336193084717,-5.1367692947387695,3.624674081802368
1748004336364501200,7.089501220703125,-7.5275959968566895,-5.161196231842041,3.5871641635894775
1748004336374572000,7.099572021484375,-7.528779983520508,-5.187175273895264,3.5469818115234375
1748004336394744000,7.119744140625,-7.52946662902832,-5.241003513336182,3.4654600620269775
1748004336404814800,7.12981494140625,-7.528755187988281,-5.266354560852051,3.4283721446990967
1748004336414885600,7.1398857421875,-7.526998996734619,-5.291152477264404,3.3938727378845215
1748004336424956400,7.149956298828125,-7.523796081542969,-5.316818714141846,3.3607006072998047
1748004336435027200,7.160027099609375,-7.518858432769775,-5.344089508056641,3.3283426761627197
1748004336445128700,7.170128662109375,-7.512936592102051,-5.373327255249023,3.2944705486297607
1748004336455199500,7.180199462890625,-7.507290363311768,-5.404195785522461,3.256631374359131
1748004336465270300,7.190270263671875,-7.502998352050781,-5.436270236968994,3.212843656539917
1748004336475341000,7.200341064453125,-7.499207973480225,-5.466428279876709,3.1702404022216797
1748004336485411800,7.210411865234375,-7.496801853179932,-5.494540214538574,3.1270413398742676
1748004336495482600,7.220482666015625,-7.496978282928467,-5.52047872543335,3.080587148666382
1748004336505553400,7.230553466796875,-7.498663425445557,-5.542752265930176,3.036170482635498
1748004336525725400,7.250725341796875,-7.503851890563965,-5.581945896148682,2.9503352642059326
1748004336535796200,7.260796142578125,-7.507113933563232,-5.60040283203125,2.90673828125
1748004336545867300,7.2708671875,-7.511260032653809,-5.618912220001221,2.8599276542663574
1748004336555938000,7.28093798828125,-7.516530990600586,-5.637382507324219,2.8092799186706543
1748004336566008800,7.2910087890625,-7.522159099578857,-5.655200481414795,2.75793719291687
1748004336576110000,7.301110107421875,-7.528834819793701,-5.6761698722839355,2.6959481239318848
1748004336586180900,7.311180908203125,-7.534576892852783,-5.699147701263428,2.6306374073028564
1748004336596251600,7.321251708984375,-7.538528919219971,-5.72149133682251,2.5701193809509277
1748004336606322400,7.331322509765625,-7.5418243408203125,-5.741979598999023,2.514145612716675
1748004336616393200,7.341393310546875,-7.54459285736084,-5.763426303863525,2.456099510192871
1748004336626464000,7.351464111328125,-7.551140785217285,-5.787449836730957,2.378251314163208
1748004336636565500,7.3615654296875,-7.559912204742432,-5.812902927398682,2.286541700363159
1748004336646636300,7.37163623046875,-7.571038246154785,-5.837681293487549,2.1843156814575195
1748004336656707000,7.38170703125,-7.583500385284424,-5.861764907836914,2.073793411254883
1748004336666777900,7.39177783203125,-7.5967936515808105,-5.884037494659424,1.9588793516159058
1748004336676848600,7.4018486328125,-7.609244346618652,-5.90332555770874,1.8494682312011719
1748004336686919400,7.41191943359375,-7.620141983032227,-5.920037269592285,1.7484227418899536
1748004336696990200,7.421990234375,-7.630318641662598,-5.93529748916626,1.6495048999786377
1748004336707091500,7.432091552734375,-7.64058256149292,-5.949885368347168,1.546205759048462
1748004336727233000,7.45223291015625,-7.662161350250244,-5.977304458618164,1.3166234493255615
1748004336737303800,7.4623037109375,-7.671657085418701,-5.988603115081787,1.2052711248397827
1748004336747374600,7.47237451171875,-7.679441452026367,-5.9979729652404785,1.104934811592102
1748004336757445600,7.482445556640625,-7.684509754180908,-6.005766868591309,1.0244362354278564
1748004336767547000,7.492546875,-7.68770170211792,-6.011726379394531,0.9637288451194763
1748004336787688400,7.5126884765625,-7.690216064453125,-6.018519878387451,0.8991000056266785
1748004336797759200,7.52275927734375,-7.690394401550293,-6.018259048461914,0.8993198275566101
1748004336807830000,7.532830078125,-7.6907219886779785,-6.016270160675049,0.9097712635993958
1748004336817900800,7.54290087890625,-7.690682888031006,-6.014965057373047,0.9186832308769226
1748004336828002000,7.553001953125,-7.689551830291748,-6.015842437744141,0.9223978519439697
1748004336838072800,7.56307275390625,-7.688216209411621,-6.017956733703613,0.9197432994842529
1748004336848144000,7.573143798828125,-7.687592506408691,-6.02019739151001,0.9102429151535034
1748004336858214700,7.583214599609375,-7.688418388366699,-6.021806716918945,0.8924416303634644
1748004336868285400,7.593285400390625,-7.690989971160889,-6.022719860076904,0.863659679889679
1748004336878356200,7.603356201171875,-7.69474458694458,-6.02371072769165,0.8223195672035217
1748004336888427000,7.613427001953125,-7.69954776763916,-6.023859977722168,0.774884045124054
1748004336898528300,7.6235283203125,-7.704876899719238,-6.023352146148682,0.724208414554596
1748004336908599000,7.63359912109375,-7.709872722625732,-6.022524833679199,0.6763430833816528
1748004336918669800,7.643669921875,-7.7135725021362305,-6.0221266746521,0.6365361213684082
1748004336928740600,7.65374072265625,-7.715814590454102,-6.02223014831543,0.6077284812927246
1748004336938811400,7.663811279296875,-7.7172112464904785,-6.022182464599609,0.5902168154716492
1748004336948882200,7.673882080078125,-7.718820571899414,-6.020942211151123,0.5817720890045166
1748004336958983700,7.683983642578125,-7.721273899078369,-6.018306732177734,0.5764621496200562
1748004336969054500,7.694054443359375,-7.724091053009033,-6.0147552490234375,0.575773298740387
1748004336979125200,7.704125244140625,-7.7270402908325195,-6.010756969451904,0.5779460072517395
1748004336989196000,7.714196044921875,-7.729762077331543,-6.006691932678223,0.5837929248809814
1748004336999266800,7.724266845703125,-7.732001304626465,-6.003062725067139,0.5914251208305359
1748004337009337600,7.734337646484375,-7.733714580535889,-5.999941349029541,0.6006258130073547
1748004337019438800,7.74443896484375,-7.7350006103515625,-5.997379302978516,0.6095862984657288
1748004337029509600,7.754509521484375,-7.735868453979492,-5.995363712310791,0.6183403730392456
1748004337039580400,7.764580322265625,-7.736494064331055,-5.993618488311768,0.6273596882820129
1748004337049651200,7.774651123046875,-7.736716270446777,-5.992396354675293,0.6362295150756836
1748004337059722200,7.78472216796875,-7.736752986907959,-5.991634368896484,0.6429277658462524
1748004337069793000,7.79479296875,-7.73655366897583,-5.991387367248535,0.6476094722747803
1748004337079863800,7.80486376953125,-7.736390590667725,-5.991087913513184,0.6523165702819824
1748004337089965000,7.814965087890625,-7.736377239227295,-5.990870952606201,0.654466986656189
1748004337100035800,7.825035888671875,-7.736619472503662,-5.990742206573486,0.6527721285820007
1748004337110106600,7.835106689453125,-7.737289905548096,-5.990102291107178,0.6506929397583008
1748004337120177400,7.845177490234375,-7.73821496963501,-5.988907814025879,0.6507033705711365
1748004337130248200,7.855248291015625,-7.7390241622924805,-5.9875640869140625,0.6534136533737183
1748004337140319000,7.865319091796875,-7.739670753479004,-5.986262321472168,0.6576926708221436
1748004337150420500,7.87542041015625,-7.740177631378174,-5.985090732574463,0.6623703241348267
1748004337160491300,7.8854912109375,-7.740625858306885,-5.98387336730957,0.6680907011032104
1748004337170562000,7.89556201171875,-7.741119861602783,-5.982543468475342,0.6742599010467529
1748004337180632800,7.9056328125,-7.741617679595947,-5.981293201446533,0.6796215176582336
1748004337190703600,7.91570361328125,-7.742311477661133,-5.979938507080078,0.6836148500442505
1748004337200774400,7.9257744140625,-7.743257999420166,-5.978379249572754,0.6865317225456238
1748004337210875600,7.935875732421875,-7.744528770446777,-5.976593494415283,0.6877416968345642
1748004337220946400,7.945946533203125,-7.746185779571533,-5.973961353302002,0.6919381618499756
1748004337231017200,7.956017333984375,-7.747445583343506,-5.971774101257324,0.6966876983642578
1748004337241088000,7.966087890625,-7.747997760772705,-5.970431327819824,0.7020390629768372
1748004337251158800,7.97615869140625,-7.747982501983643,-5.969615459442139,0.7091143727302551
1748004337261229600,7.9862294921875,-7.747718334197998,-5.968912601470947,0.7178652882575989
1748004337271300600,7.996300537109375,-7.747217655181885,-5.968410491943359,0.7273772358894348
1748004337281401900,8.00640185546875,-7.746891498565674,-5.9677629470825195,0.7361319065093994
1748004337291472600,8.01647265625,-7.746884346008301,-5.967132568359375,0.7412941455841064
1748004337301543400,8.02654345703125,-7.746715068817139,-5.967181205749512,0.742660403251648
1748004337311614200,8.0366142578125,-7.746355056762695,-5.967465877532959,0.7441216707229614
1748004337321685000,8.04668505859375,-7.746074199676514,-5.9674882888793945,0.7468674778938293
1748004337331755800,8.056755859375,-7.745450973510742,-5.967905044555664,0.7499954700469971
1748004337341857000,8.06685693359375,-7.7439961433410645,-5.969428062438965,0.7528862357139587
1748004337351928000,8.076927978515625,-7.741702079772949,-5.97205924987793,0.7556092739105225
1748004337372069600,8.097069580078125,-7.738256931304932,-5.975792407989502,0.7613676190376282
1748004337382140400,8.107140380859375,-7.736988067626953,-5.977127552032471,0.7637758255004883
1748004337392211200,8.117211181640625,-7.736090183258057,-5.977962493896484,0.7663247585296631
1748004337402312400,8.1273125,-7.735071182250977,-5.978980541229248,0.7686684727668762
1748004337412383200,8.13738330078125,-7.733681678771973,-5.9805908203125,0.7701102495193481
1748004337422454000,8.1474541015625,-7.7315568923950195,-5.983235836029053,0.7709029912948608
1748004337432524800,8.15752490234375,-7.7295331954956055,-5.985699653625488,0.7720794677734375
1748004337442595600,8.167595703125,-7.728060722351074,-5.987445831298828,0.773273766040802
1748004337452666400,8.177666259765624,-7.726955413818359,-5.988865375518799,0.77332603931427
1748004337462737200,8.187737060546874,-7.725631237030029,-5.9907121658325195,0.7722525000572205
1748004337472838700,8.197838623046875,-7.724130630493164,-5.99277925491333,0.7712221741676331
1748004337482909400,8.207909423828125,-7.72273588180542,-5.994655609130859,0.7706095576286316
1748004337492980200,8.217980224609375,-7.72161865234375,-5.995988368988037,0.7714424133300781
1748004337503051000,8.228051025390625,-7.720785617828369,-5.996800899505615,0.7734643816947937
1748004337513121800,8.238121826171875,-7.719969272613525,-5.997353553771973,0.7773103713989258
1748004337523192600,8.248192626953125,-7.719170570373535,-5.997903347015381,0.7809960842132568
1748004337533293800,8.2582939453125,-7.718185901641846,-5.99872350692749,0.7844233512878418
1748004337543364600,8.268364501953124,-7.716444492340088,-6.000339031219482,0.7891766428947449
1748004337553435400,8.278435302734374,-7.714593887329102,-6.00173807144165,0.7966045141220093
1748004337563506400,8.28850634765625,-7.713090419769287,-6.002567291259766,0.8048734068870544
1748004337573577200,8.2985771484375,-7.712386131286621,-6.002355575561523,0.8131564855575562
1748004337583648000,8.30864794921875,-7.712016582489014,-6.0018792152404785,0.8201349377632141
1748004337593718800,8.31871875,-7.7119927406311035,-6.001215934753418,0.8252007961273193
1748004337603820000,8.328820068359375,-7.711838722229004,-6.000661373138428,0.8306577801704407
1748004337613890800,8.338890869140625,-7.711183071136475,-6.000584602355957,0.8372785449028015
1748004337623961600,8.348961669921875,-7.7106733322143555,-6.0001630783081055,0.844952404499054
1748004337634032400,8.359032470703125,-7.71013069152832,-5.999638080596924,0.8535899519920349
1748004337644103200,8.369103271484375,-7.709262847900391,-5.999439239501953,0.8627883195877075
1748004337654174000,8.379174072265625,-7.708176612854004,-5.999405860900879,0.8726533651351929
1748004337664275500,8.389275390625,-7.706838130950928,-5.999600887298584,0.8830713033676147
1748004337674346200,8.39934619140625,-7.705034255981445,-6.000439643859863,0.893065869808197
1748004337684417000,8.4094169921875,-7.702970027923584,-6.001387119293213,0.9044261574745178
1748004337694487800,8.41948779296875,-7.70077657699585,-6.002660274505615,0.9146081805229187
1748004337704558600,8.42955859375,-7.699819087982178,-6.002814769744873,0.9216216206550598
1748004337714629400,8.43962939453125,-7.7002763748168945,-6.001830101013184,0.9242110252380371
1748004337724730600,8.449730712890625,-7.703014850616455,-5.997679233551025,0.9283299446105957
1748004337734801400,8.459801513671875,-7.707520484924316,-5.991476535797119,0.9309854507446289
1748004337744872200,8.4698720703125,-7.714361667633057,-5.981772422790527,0.9367069005966187
1748004337754943000,8.47994287109375,-7.724654197692871,-5.967027187347412,0.9458813071250916
1748004337765013800,8.490013671875,-7.7376708984375,-5.947856903076172,0.9601190686225891
1748004337775084800,8.500084716796875,-7.751077175140381,-5.927722454071045,0.9763659834861755
1748004337785155600,8.510155517578125,-7.7629876136779785,-5.910421371459961,0.9865710139274597
1748004337795256800,8.5202568359375,-7.771903038024902,-5.897601127624512,0.9930809736251831
1748004337805327600,8.53032763671875,-7.7772088050842285,-5.889636039733887,0.9987966418266296
1748004337815398400,8.5403984375,-7.778846263885498,-5.885554313659668,1.0100423097610474
1748004337825469200,8.55046923828125,-7.77656364440918,-5.884158611297607,1.035431981086731
1748004337835540000,8.5605400390625,-7.770003795623779,-5.885380268096924,1.076911211013794
1748004337845610800,8.57061083984375,-7.761336326599121,-5.887825012207031,1.1249732971191406
1748004337855712000,8.5807119140625,-7.752895832061768,-5.890228271484375,1.169701337814331
1748004337865783000,8.590782958984375,-7.744983196258545,-5.8928608894348145,1.2082244157791138
1748004337875853800,8.600853759765625,-7.737948894500732,-5.89601469039917,1.2375516891479492
1748004337885924600,8.610924560546875,-7.731698513031006,-5.900883197784424,1.253313660621643
1748004337895995400,8.620995361328125,-7.724681377410889,-5.908907890319824,1.2587703466415405
1748004337906066200,8.631066162109375,-7.71720552444458,-5.918668270111084,1.258765697479248
1748004337916167400,8.64116748046875,-7.7101006507873535,-5.928256511688232,1.2571848630905151
1748004337926238200,8.65123828125,-7.703916549682617,-5.936500549316406,1.2561914920806885
1748004337936309000,8.66130908203125,-7.698866367340088,-5.943487167358398,1.254117727279663
1748004337946379800,8.6713798828125,-7.694639205932617,-5.949360370635986,1.252204179763794
1748004337956450600,8.681450439453124,-7.690699577331543,-5.954543590545654,1.251769781112671
1748004337966521300,8.691521240234374,-7.686831474304199,-5.959352970123291,1.2526500225067139
1748004337976592100,8.701592041015624,-7.683206558227539,-5.964008808135986,1.25272536277771
1748004337986693600,8.711693603515625,-7.6797285079956055,-5.968584060668945,1.2522609233856201
1748004337996764400,8.721764404296875,-7.676602840423584,-5.972614288330078,1.2522127628326416
1748004338006835200,8.731835205078125,-7.674044132232666,-5.975481986999512,1.2542157173156738
1748004338016906000,8.741906005859375,-7.671651363372803,-5.977409362792969,1.2596502304077148
1748004338026976800,8.751976806640625,-7.669155597686768,-5.978808879852295,1.2681808471679688
1748004338037047600,8.762047607421875,-7.665954113006592,-5.980362415313721,1.2801576852798462
1748004338047148800,8.772148681640624,-7.662234306335449,-5.981510639190674,1.2969563007354736
1748004338057219600,8.782219482421874,-7.659034252166748,-5.980912208557129,1.3184330463409424
1748004338067290400,8.792290283203124,-7.657078742980957,-5.97809362411499,1.3423576354980469
1748004338077361400,8.802361328125,-7.657021999359131,-5.9727783203125,1.366134762763977
1748004338087432200,8.81243212890625,-7.658406734466553,-5.966133117675781,1.3872402906417847
1748004338097503000,8.8225029296875,-7.660517692565918,-5.959762096405029,1.4028853178024292
1748004338107604200,8.832604248046875,-7.6617817878723145,-5.955787181854248,1.4128305912017822
1748004338117675000,8.842675048828125,-7.661340236663818,-5.955237865447998,1.4175323247909546
1748004338127745800,8.852745849609375,-7.660568714141846,-5.955710411071777,1.419713020324707
1748004338137816600,8.862816650390625,-7.660999774932861,-5.9544997215271,1.4224635362625122
1748004338147887400,8.872887451171875,-7.662532806396484,-5.9513678550720215,1.427306056022644
1748004338157958100,8.882958251953125,-7.664280414581299,-5.9473490715026855,1.4346506595611572
1748004338168029000,8.89302880859375,-7.666280746459961,-5.942654609680176,1.4433938264846802
1748004338178130400,8.90313037109375,-7.668636798858643,-5.937568664550781,1.4517807960510254
1748004338188201200,8.913201171875,-7.671745777130127,-5.932053089141846,1.4578971862792969
1748004338198272000,8.92327197265625,-7.675442695617676,-5.92628812789917,1.461875081062317
1748004338208342800,8.9333427734375,-7.679255485534668,-5.920719146728516,1.4644125699996948
1748004338218413600,8.94341357421875,-7.683259010314941,-5.915336608886719,1.4651633501052856
1748004338228484400,8.953484375,-7.687039852142334,-5.910618305206299,1.4643751382827759
1748004338238585600,8.963585693359375,-7.689760684967041,-5.907114028930664,1.4642298221588135
1748004338248656400,8.973656494140625,-7.690868377685547,-5.9049391746521,1.4671796560287476
1748004338258727200,8.98372705078125,-7.690345287322998,-5.903904438018799,1.4740675687789917
1748004338268798000,8.9937978515625,-7.688482284545898,-5.903891563415527,1.4838060140609741
1748004338278868700,9.00386865234375,-7.68564510345459,-5.904905796051025,1.494436264038086
1748004338288939800,9.013939697265625,-7.682094097137451,-5.906961917877197,1.5045305490493774
1748004338309111800,9.03411181640625,-7.673771381378174,-5.914224147796631,1.5184108018875122
1748004338319182600,9.0441826171875,-7.670196056365967,-5.918249607086182,1.520793080329895
1748004338329253400,9.05425341796875,-7.667386531829834,-5.922000408172607,1.5203566551208496
1748004338339324200,9.06432421875,-7.665430545806885,-5.924917697906494,1.5188541412353516
1748004338349395000,9.07439501953125,-7.664031982421875,-5.927224636077881,1.5169131755828857
1748004338359465700,9.0844658203125,-7.663045406341553,-5.929154872894287,1.5143446922302246
1748004338369567000,9.09456689453125,-7.662405967712402,-5.9306321144104,1.5117908716201782
1748004338379638000,9.104637939453125,-7.6618170738220215,-5.93195915222168,1.5095726251602173
1748004338389708800,9.114708740234375,-7.660826683044434,-5.933945178985596,1.506790280342102
1748004338399779600,9.124779541015625,-7.659125328063965,-5.93702507019043,1.5033071041107178
1748004338409850400,9.134850341796875,-7.656516075134277,-5.941549777984619,1.4987132549285889
1748004338419921200,9.144921142578125,-7.653038501739502,-5.9474263191223145,1.4931565523147583
1748004338430022400,9.1550224609375,-7.649127006530762,-5.9537034034729,1.4881725311279297
1748004338440093200,9.16509326171875,-7.645123481750488,-5.9597015380859375,1.4847323894500732
1748004338450164000,9.1751640625,-7.641235828399658,-5.965097427368164,1.4830784797668457
1748004338460234800,9.18523486328125,-7.637112617492676,-5.970260143280029,1.4835399389266968
1748004338470305500,9.195305419921874,-7.632847309112549,-5.975531578063965,1.4842692613601685
1748004338480376300,9.205376220703124,-7.628400802612305,-5.981085777282715,1.4847588539123535
1748004338490477800,9.215477783203125,-7.623630523681641,-5.986854076385498,1.4860069751739502
1748004338500548600,9.225548583984375,-7.618227005004883,-5.992830753326416,1.4896267652511597
1748004338510619400,9.235619384765625,-7.6126580238342285,-5.998517036437988,1.4951962232589722
1748004338520690200,9.245690185546875,-7.607459545135498,-6.003636837005615,1.5010981559753418
1748004338530761000,9.255760986328125,-7.603131294250488,-6.007788181304932,1.5064079761505127
1748004338540831700,9.265831787109375,-7.599836349487305,-6.011057376861572,1.5099848508834839
1748004338550902500,9.275902587890625,-7.597304821014404,-6.013822555541992,1.5117201805114746
1748004338561003800,9.286003662109374,-7.595163822174072,-6.016433238983154,1.5120837688446045
1748004338571074600,9.296074462890624,-7.5931315422058105,-6.019037246704102,1.511925220489502
1748004338581145300,9.306145263671874,-7.591392993927002,-6.021378993988037,1.5113388299942017
1748004338591216400,9.31621630859375,-7.590213298797607,-6.023230075836182,1.5098875761032104
1748004338601287200,9.326287109375,-7.589743614196777,-6.024292469024658,1.5080058574676514
1748004338611358000,9.33635791015625,-7.590095520019531,-6.0242600440979,1.5063645839691162
1748004338621459200,9.346459228515625,-7.5911078453063965,-6.023158550262451,1.5056685209274292
1748004338631530000,9.356530029296875,-7.592780590057373,-6.020883083343506,1.5063369274139404
1748004338641600800,9.366600830078125,-7.594975471496582,-6.017716884613037,1.5079156160354614
1748004338651671600,9.376671630859375,-7.597494125366211,-6.014164447784424,1.5094034671783447
1748004338661742300,9.386742431640625,-7.600351810455322,-6.010601997375488,1.5092058181762695
1748004338671813000,9.396813232421875,-7.60381555557251,-6.006855010986328,1.5066781044006348
1748004338681884000,9.4068837890625,-7.607878684997559,-6.002982139587402,1.5015910863876343
1748004338691985400,9.4169853515625,-7.612241268157959,-5.99907112121582,1.4951008558273315
1748004338702056200,9.42705615234375,-7.616327285766602,-5.995455741882324,1.488776445388794
1748004338712127000,9.437126953125,-7.61964225769043,-5.992521286010742,1.483616590499878
1748004338722197800,9.44719775390625,-7.622032642364502,-5.9905595779418945,1.4792555570602417
1748004338732268500,9.4572685546875,-7.623549461364746,-5.98962926864624,1.4752063751220703
1748004338752440600,9.477440673828125,-7.625357627868652,-5.9893269538879395,1.4670571088790894
1748004338762511400,9.487511474609375,-7.626441955566406,-5.988742351531982,1.4638068675994873
1748004338772582100,9.49758203125,-7.627744674682617,-5.987813472747803,1.4608176946640015
1748004338782653000,9.50765283203125,-7.629166603088379,-5.986766338348389,1.457683801651001
1748004338792723700,9.5177236328125,-7.630480766296387,-5.985931396484375,1.4542274475097656
1748004338802794800,9.527794677734375,-7.6299309730529785,-5.988115310668945,1.448111653327942
1748004338812896000,9.53789599609375,-7.630239009857178,-5.988722324371338,1.443967580795288
1748004338822966800,9.547966796875,-7.630139350891113,-5.989830493927002,1.4398967027664185
1748004338833037600,9.55803759765625,-7.629789352416992,-5.991125106811523,1.4363539218902588
1748004338843108400,9.5681083984375,-7.629417419433594,-5.992278099060059,1.4335212707519531
1748004338853179100,9.57817919921875,-7.628897190093994,-5.993573188781738,1.4308702945709229
1748004338863250000,9.58825,-7.62835168838501,-5.994938373565674,1.428056001663208
1748004338873320700,9.59832080078125,-7.627843379974365,-5.996370315551758,1.4247626066207886
1748004338883422000,9.608421875,-7.627535820007324,-5.997763633728027,1.4205329418182373
1748004338893493000,9.618492919921875,-7.6276397705078125,-5.998879432678223,1.4152569770812988
1748004338903563800,9.628563720703125,-7.627895832061768,-5.999988079071045,1.4091671705245972
1748004338913634600,9.638634521484375,-7.628145217895508,-6.001228332519531,1.4025135040283203
1748004338923705300,9.648705322265625,-7.62822151184082,-6.00279426574707,1.3953847885131836
1748004338933776100,9.658776123046875,-7.628207206726074,-6.004496097564697,1.3881158828735352
1748004338943877400,9.66887744140625,-7.627858638763428,-6.006485939025879,1.3814119100570679
1748004338953948200,9.6789482421875,-7.627383708953857,-6.008440017700195,1.3755203485488892
1748004338964019000,9.68901904296875,-7.626737594604492,-6.010527610778809,1.3699702024459839
1748004338974089700,9.69908984375,-7.625760555267334,-6.012908935546875,1.3649523258209229
1748004338984160500,9.709160400390624,-7.6244401931762695,-6.015263557434082,1.361943006515503
1748004338994231300,9.719231201171874,-7.622896194458008,-6.017651081085205,1.3600468635559082
1748004339004332800,9.729332763671875,-7.621936798095703,-6.018535614013672,1.361506462097168
1748004339014403600,9.739403564453125,-7.621556282043457,-6.018253803253174,1.3648815155029297
1748004339024474400,9.749474365234375,-7.62155818939209,-6.017083168029785,1.3700151443481445
1748004339034545200,9.759545166015625,-7.621997356414795,-6.014986515045166,1.3767658472061157
1748004339044616000,9.769615966796875,-7.622581958770752,-6.012653350830078,1.3837053775787354
1748004339054686700,9.779686767578125,-7.622616767883301,-6.011020660400391,1.3905848264694214
1748004339064757500,9.789757568359375,-7.621504783630371,-6.0109357833862305,1.3970353603363037
1748004339074858800,9.799858642578124,-7.618946552276611,-6.012800693511963,1.4029500484466553
1748004339084929500,9.809929443359374,-7.615422248840332,-6.015979290008545,1.4084519147872925
1748004339095000300,9.820000244140624,-7.611155986785889,-6.019955635070801,1.4145073890686035
1748004339105071400,9.8300712890625,-7.606479644775391,-6.024077892303467,1.422088861465454
1748004339115142100,9.84014208984375,-7.601132392883301,-6.028419494628906,1.4322484731674194
1748004339125213000,9.850212890625,-7.595219612121582,-6.032543182373047,1.4461824893951416
1748004339135314200,9.860314208984375,-7.588622570037842,-6.036952495574951,1.4623217582702637
1748004339145385000,9.870385009765625,-7.581857681274414,-6.041700839996338,1.4777263402938843
1748004339155455700,9.880455810546875,-7.575015068054199,-6.047365188598633,1.4895976781845093
1748004339165526500,9.890526611328125,-7.568653583526611,-6.053380489349365,1.4974836111068726
1748004339175597300,9.900597412109375,-7.563169002532959,-6.059247016906738,1.5014660358428955
1748004339185668000,9.910668212890625,-7.558860778808594,-6.064165115356445,1.5032979249954224
1748004339195739000,9.92073876953125,-7.5553107261657715,-6.068346977233887,1.5042697191238403
1748004339205840400,9.93084033203125,-7.552048683166504,-6.072113513946533,1.5054528713226318
1748004339215911200,9.9409111328125,-7.548910140991211,-6.07583475112915,1.5061832666397095
1748004339225982000,9.95098193359375,-7.54582405090332,-6.0795578956604,1.5066195726394653
1748004339236052700,9.961052734375,-7.542148113250732,-6.084127902984619,1.5065748691558838
1748004339246123500,9.97112353515625,-7.537573337554932,-6.0898308753967285,1.506432056427002
1748004339266295600,9.991295654296875,-7.527456760406494,-6.101533889770508,1.509658694267273
1748004339276366300,10.001366455078125,-7.522440433502197,-6.106805801391602,1.5133419036865234
1748004339286437000,10.01143701171875,-7.517998695373535,-6.111092567443848,1.5181007385253906
1748004339296508000,10.0215078125,-7.514162540435791,-6.114737033843994,1.5224086046218872
1748004339306579000,10.031578857421875,-7.510504245758057,-6.118457794189453,1.5255101919174194
1748004339316649700,10.041649658203125,-7.506935119628906,-6.122615337371826,1.5263996124267578
1748004339326751000,10.0517509765625,-7.503159046173096,-6.127740859985352,1.5243961811065674
1748004339336821800,10.06182177734375,-7.49957275390625,-6.133152961730957,1.520271897315979
1748004339346892500,10.071892578125,-7.496490001678467,-6.138220310211182,1.5150163173675537
1748004339356963300,10.08196337890625,-7.494009971618652,-6.142359256744385,1.5105061531066895
1748004339367034000,10.0920341796875,-7.491872787475586,-6.145336151123047,1.5089998245239258
1748004339377105000,10.10210498046875,-7.489378929138184,-6.147714138031006,1.5116859674453735
1748004339387175700,10.11217578125,-7.486123561859131,-6.149999618530273,1.5185039043426514
1748004339397277200,10.122277099609375,-7.482547760009766,-6.151663780212402,1.529345154762268
1748004339417418800,10.142418701171875,-7.476716995239258,-6.152373313903809,1.554795742034912
1748004339427489500,10.152489501953125,-7.475716590881348,-6.150918483734131,1.5653258562088013
1748004339437560300,10.162560302734375,-7.476399898529053,-6.147912979125977,1.5738439559936523
1748004339447631000,10.172631103515625,-7.478407382965088,-6.143911361694336,1.579927921295166
1748004339457732400,10.182732421875,-7.4796600341796875,-6.142247200012207,1.5804674625396729
1748004339467803100,10.19280322265625,-7.481866836547852,-6.139486312866211,1.5807448625564575
1748004339477874000,10.2028740234375,-7.484379768371582,-6.136412620544434,1.5807875394821167
1748004339487944700,10.21294482421875,-7.486660003662109,-6.133869171142578,1.5798596143722534
1748004339498015500,10.223015380859374,-7.488701343536377,-6.1319169998168945,1.5777661800384521
1748004339508086300,10.233086181640624,-7.4903106689453125,-6.130556106567383,1.5754104852676392
1748004339518187800,10.243187744140625,-7.4913129806518555,-6.12971830368042,1.5739023685455322
1748004339528258600,10.253258544921875,-7.4913859367370605,-6.129469394683838,1.574528694152832
1748004339538329300,10.263329345703125,-7.490720748901367,-6.129640102386475,1.5770255327224731
1748004339548400000,10.273400146484375,-7.4894022941589355,-6.130374908447266,1.5804260969161987
1748004339558471000,10.283470947265625,-7.487631320953369,-6.131649971008301,1.5838669538497925
1748004339568541700,10.293541748046875,-7.485479831695557,-6.133477210998535,1.5869618654251099
1748004339578612500,10.303612548828125,-7.483302116394043,-6.135623931884766,1.5889276266098022
1748004339588713700,10.313713623046874,-7.481091022491455,-6.138247013092041,1.589211344718933
1748004339598784500,10.323784423828124,-7.478989601135254,-6.141195774078369,1.5877095460891724
1748004339608855600,10.33385546875,-7.476932048797607,-6.1444830894470215,1.5846776962280273
1748004339618926300,10.34392626953125,-7.474872589111328,-6.148125648498535,1.5802565813064575
1748004339628997000,10.3539970703125,-7.472891807556152,-6.151988983154297,1.574578046798706
1748004339639068000,10.36406787109375,-7.470876216888428,-6.156020164489746,1.5683759450912476
1748004339649169200,10.374169189453125,-7.468782424926758,-6.160118103027344,1.5622490644454956
1748004339659240000,10.384239990234375,-7.466299533843994,-6.164498329162598,1.5568289756774902
1748004339669310700,10.394310791015625,-7.463263988494873,-6.168985366821289,1.5536093711853027
1748004339679381500,10.404381591796875,-7.45960807800293,-6.173964023590088,1.551385521888733
1748004339689452300,10.414452392578125,-7.455926895141602,-6.179186820983887,1.5482863187789917
1748004339699523000,10.424523193359375,-7.452666282653809,-6.18398380279541,1.544825792312622
1748004339709624600,10.43462451171875,-7.449932098388672,-6.188021659851074,1.5418460369110107
1748004339719695400,10.4446953125,-7.447662353515625,-6.191189289093018,1.5400950908660889
1748004339729766100,10.45476611328125,-7.445569038391113,-6.193912029266357,1.5392688512802124
1748004339739837000,10.4648369140625,-7.443625450134277,-6.196413040161133,1.538597822189331
1748004339749907700,10.47490771484375,-7.441727161407471,-6.198915481567383,1.5377048254013062
1748004339759978500,10.484978515625,-7.43937873840332,-6.201783657073975,1.5375034809112549
1748004339770049300,10.49504931640625,-7.436417579650879,-6.2049713134765625,1.5389631986618042
1748004339780150500,10.505150634765625,-7.432339668273926,-6.20919942855835,1.5416070222854614
1748004339790221300,10.51522119140625,-7.427618980407715,-6.214319705963135,1.543729543685913
1748004339800292000,10.5252919921875,-7.423073768615723,-6.219631195068359,1.5441969633102417
1748004339810363000,10.53536279296875,-7.419816493988037,-6.223724842071533,1.5433571338653564
1748004339820434000,10.545433837890625,-7.4177021980285645,-6.226241588592529,1.5433721542358398
1748004339830504700,10.555504638671875,-7.415969371795654,-6.2276997566223145,1.54581618309021
1748004339840606000,10.56560595703125,-7.414168357849121,-6.2288994789123535,1.5496151447296143
1748004339850676700,10.5756767578125,-7.412517070770264,-6.230147361755371,1.5524946451187134
1748004339860747500,10.58574755859375,-7.411163330078125,-6.231432914733887,1.5538004636764526
1748004339870818300,10.595818359375,-7.410402297973633,-6.23214864730835,1.5545568466186523
1748004339880889000,10.60588916015625,-7.409739017486572,-6.232568740844727,1.5560345649719238
1748004339890960000,10.6159599609375,-7.40852165222168,-6.233405590057373,1.5584743022918701
1748004339901030700,10.62603076171875,-7.406554698944092,-6.234930515289307,1.5617221593856812
1748004339911132200,10.636132080078125,-7.404064655303955,-6.236961841583252,1.565415382385254
1748004339921203000,10.646202880859375,-7.402027130126953,-6.23855447769165,1.5687004327774048
1748004339931273700,10.656273681640625,-7.400793075561523,-6.239432334899902,1.5710275173187256
1748004339941344500,10.666344482421875,-7.400393962860107,-6.239540100097656,1.5724812746047974
1748004339951415300,10.676415283203125,-7.400812149047852,-6.238767147064209,1.573582410812378
1748004339961486000,10.686486083984375,-7.402048587799072,-6.237061023712158,1.5745285749435425
1748004339971587300,10.69658740234375,-7.40508508682251,-6.23284912109375,1.5769293308258057
1748004339981658000,10.706658203125,-7.408266544342041,-6.2284255027771,1.5794602632522583
1748004339991729000,10.71672900390625,-7.411688804626465,-6.2237982749938965,1.5816437005996704
1748004340001799700,10.726799560546874,-7.415410995483398,-6.219054222106934,1.582858681678772
1748004340011870500,10.736870361328124,-7.419015407562256,-6.214593410491943,1.5834858417510986
1748004340021941200,10.746941162109374,-7.422305107116699,-6.210303783416748,1.5848972797393799
1748004340032042800,10.757042724609375,-7.425170421600342,-6.205883502960205,1.5887852907180786
1748004340042113500,10.767113525390625,-7.427284240722656,-6.201683521270752,1.5952908992767334
1748004340052184300,10.777184326171875,-7.428660869598389,-6.197994232177734,1.6032018661499023
1748004340062255000,10.787255126953125,-7.429673194885254,-6.194866180419922,1.6105797290802002
1748004340072326000,10.797325927734375,-7.430629253387451,-6.192073345184326,1.6168986558914185
1748004340082396700,10.807396728515625,-7.432366371154785,-6.188815593719482,1.6213843822479248
1748004340092467500,10.817467529296875,-7.434967517852783,-6.184485912322998,1.625966191291809
1748004340102568700,10.827568603515624,-7.438331604003906,-6.179059982299805,1.6312049627304077
1748004340112639500,10.837639404296874,-7.442326545715332,-6.172876834869385,1.6363834142684937
1748004340122710500,10.84771044921875,-7.446466445922852,-6.166676044464111,1.6409279108047485
1748004340132781300,10.85778125,-7.450376987457275,-6.160961627960205,1.6446354389190674
1748004340142852000,10.86785205078125,-7.453760623931885,-6.156178951263428,1.6472129821777344
1748004340152923000,10.8779228515625,-7.456579208374023,-6.152047634124756,1.649885892868042
1748004340163024100,10.888024169921875,-7.45932149887085,-6.148040294647217,1.6524251699447632
1748004340173095000,10.898094970703125,-7.461264133453369,-6.145260334014893,1.653997540473938
1748004340183165700,10.908165771484375,-7.462507724761963,-6.1437482833862305,1.6540027856826782
1748004340193236500,10.918236572265625,-7.463453769683838,-6.14310359954834,1.6521270275115967
1748004340203307300,10.928307373046875,-7.464797019958496,-6.142353057861328,1.648844838142395
1748004340213378000,10.9383779296875,-7.466530799865723,-6.141102313995361,1.6456503868103027
1748004340223479600,10.9484794921875,-7.468493461608887,-6.139327526092529,1.6433634757995605
1748004340233550300,10.95855029296875,-7.4700188636779785,-6.137689113616943,1.6425541639328003
1748004340243621000,10.96862109375,-7.471890926361084,-6.134796619415283,1.6448402404785156
1748004340253692000,10.97869189453125,-7.473501682281494,-6.1328582763671875,1.6447527408599854
1748004340263762700,10.9887626953125,-7.474728107452393,-6.131906032562256,1.6427310705184937
1748004340273833500,10.99883349609375,-7.4763078689575195,-6.130517482757568,1.6407183408737183
1748004340283904300,11.008904296875,-7.478410243988037,-6.128539085388184,1.6385258436203003
1748004340294005500,11.019005615234375,-7.480633735656738,-6.126424789428711,1.636278510093689
1748004340304076300,11.029076171875,-7.482586860656738,-6.124683380126953,1.633876085281372
1748004340314147000,11.03914697265625,-7.483985424041748,-6.123598098754883,1.6315312385559082
1748004340334289000,11.059288818359375,-7.4853410720825195,-6.123432159423828,1.6259218454360962
1748004340344359700,11.069359619140625,-7.486064910888672,-6.123507976531982,1.6223033666610718
1748004340354461000,11.0794609375,-7.486836910247803,-6.123574256896973,1.6184871196746826
1748004340374602500,11.0996025390625,-7.487774848937988,-6.123762130737305,1.6134278774261475
1748004340384673300,11.10967333984375,-7.487936496734619,-6.1238250732421875,1.612441062927246
1748004340394744000,11.119744140625,-7.48820686340332,-6.123463153839111,1.6125575304031372
1748004340404814800,11.12981494140625,-7.4892778396606445,-6.121947765350342,1.6133391857147217
1748004340414916000,11.139916015625,-7.490636825561523,-6.119928359985352,1.6146905422210693
1748004340424987100,11.149987060546875,-7.491934299468994,-6.117892265319824,1.616387128829956
1748004340435058000,11.160057861328125,-7.493170738220215,-6.11587381362915,1.6182914972305298
1748004340445128700,11.170128662109375,-7.494460582733154,-6.113588809967041,1.6209477186203003
1748004340455199500,11.180199462890625,-7.495763301849365,-6.111156940460205,1.624094843864441
1748004340465270300,11.190270263671875,-7.497426986694336,-6.10798978805542,1.6283202171325684
1748004340475341000,11.200341064453125,-7.4997334480285645,-6.103814601898193,1.6333469152450562
1748004340485442300,11.2104423828125,-7.502702713012695,-6.098771095275879,1.638545036315918
1748004340495513000,11.22051318359375,-7.50588321685791,-6.093423366546631,1.6438653469085693
1748004340505583900,11.230583984375,-7.508979797363281,-6.0882248878479,1.6489750146865845
1748004340515654700,11.240654541015624,-7.512043476104736,-6.083433628082275,1.652705192565918
1748004340525725400,11.250725341796874,-7.514851093292236,-6.0792927742004395,1.6551731824874878
1748004340535796200,11.260796142578124,-7.517269611358643,-6.075890064239502,1.656683325767517
1748004340545897700,11.270897705078125,-7.519366264343262,-6.0728044509887695,1.6584826707839966
1748004340555968500,11.280968505859375,-7.52116584777832,-6.069969177246094,1.6606969833374023
1748004340566039300,11.291039306640625,-7.522978782653809,-6.067145347595215,1.6628036499023438
1748004340576110000,11.301110107421875,-7.524528503417969,-6.064666748046875,1.664831519126892
1748004340586180900,11.311180908203125,-7.5259552001953125,-6.06224250793457,1.667212963104248
1748004340596251600,11.321251708984375,-7.527241230010986,-6.0598931312561035,1.669946551322937
1748004340606322400,11.331322509765625,-7.528780937194824,-6.057215213775635,1.6727207899093628
1748004340616423700,11.341423583984374,-7.530669212341309,-6.054150104522705,1.6753106117248535
1748004340626494500,11.351494384765624,-7.532474994659424,-6.050605773925781,1.6799962520599365
1748004340636565500,11.3615654296875,-7.533891677856445,-6.047961711883545,1.6831618547439575
1748004340646636300,11.37163623046875,-7.535404682159424,-6.045294761657715,1.6859647035598755
1748004340656707000,11.38170703125,-7.53689432144165,-6.0428786277771,1.6879700422286987
1748004340666777900,11.39177783203125,-7.538081169128418,-6.041050910949707,1.6892039775848389
1748004340676879000,11.401879150390625,-7.539034366607666,-6.0395660400390625,1.6902623176574707
1748004340686950000,11.411949951171875,-7.539728164672852,-6.038357257843018,1.691484808921814
1748004340697020700,11.422020751953125,-7.540268421173096,-6.037245273590088,1.6930471658706665
1748004340707091500,11.432091552734375,-7.540724277496338,-6.036198139190674,1.694751501083374
1748004340717162200,11.442162353515625,-7.541032791137695,-6.035256862640381,1.6967285871505737
1748004340727233000,11.45223291015625,-7.541403293609619,-6.034300327301025,1.6984866857528687
1748004340737334500,11.46233447265625,-7.541750907897949,-6.033374309539795,1.7002264261245728
1748004340747405300,11.4724052734375,-7.542038440704346,-6.032487869262695,1.7020955085754395
1748004340757476000,11.48247607421875,-7.542232036590576,-6.0317511558532715,1.7038460969924927
1748004340767547000,11.492546875,-7.542362213134766,-6.031310558319092,1.7048324346542358
1748004340777617700,11.50261767578125,-7.5423383712768555,-6.0311808586120605,1.705398678779602
1748004340787688400,11.5126884765625,-7.541765213012695,-6.031749725341797,1.7059210538864136
1748004340797759200,11.52275927734375,-7.541257858276367,-6.03222131729126,1.706494927406311
1748004340807860500,11.532860595703125,-7.540863990783691,-6.032500743865967,1.7072479724884033
1748004340817931300,11.54293115234375,-7.540553569793701,-6.032638072967529,1.7081328630447388
1748004340828002000,11.553001953125,-7.54026460647583,-6.032802104949951,1.7088299989700317
1748004340838072800,11.56307275390625,-7.539919853210449,-6.033106803894043,1.7092742919921875
1748004340848144000,11.573143798828125,-7.539338111877441,-6.033903121948242,1.709031581878662
1748004340858214700,11.583214599609375,-7.538209915161133,-6.035623073577881,1.7079328298568726
1748004340868316000,11.59331591796875,-7.536773204803467,-6.037872314453125,1.7063225507736206
1748004340878386700,11.60338671875,-7.534657955169678,-6.040778636932373,1.7053762674331665
1748004340898528300,11.6235283203125,-7.529947757720947,-6.046688079833984,1.705239176750183
1748004340908599000,11.63359912109375,-7.527605056762695,-6.049617767333984,1.7051903009414673
1748004340918669800,11.643669921875,-7.52606725692749,-6.051947116851807,1.7037146091461182
1748004340928771000,11.65377099609375,-7.5255842208862305,-6.053294658660889,1.7010571956634521
1748004340938842000,11.663842041015625,-7.526421070098877,-6.053243637084961,1.6975334882736206
1748004340948913000,11.673912841796875,-7.527512073516846,-6.052664279937744,1.694753885269165
1748004340958983700,11.683983642578125,-7.527527809143066,-6.052844047546387,1.6940433979034424
1748004340969054500,11.694054443359375,-7.526066303253174,-6.054031848907471,1.6962890625
1748004340979125200,11.704125244140625,-7.523868083953857,-6.055697441101074,1.7000963687896729
1748004340989196000,11.714196044921875,-7.52185583114624,-6.057153701782227,1.7038090229034424
1748004340999297300,11.72429736328125,-7.520668029785156,-6.057713985443115,1.7070550918579102
1748004341009368000,11.7343681640625,-7.520804405212402,-6.056400299072266,1.7111154794692993
1748004341019438800,11.74443896484375,-7.521782398223877,-6.053213119506836,1.7180745601654053
1748004341029509600,11.754509521484374,-7.522589683532715,-6.0493950843811035,1.727959394454956
1748004341039580400,11.764580322265624,-7.522336483001709,-6.046433925628662,1.7393893003463745
1748004341049651200,11.774651123046874,-7.52142858505249,-6.044563293457031,1.7497859001159668
1748004341059752700,11.784752685546875,-7.520785808563232,-6.043195724487305,1.7572556734085083
1748004341069823500,11.794823486328125,-7.520983695983887,-6.041557312011719,1.7620381116867065
1748004341079894300,11.804894287109375,-7.521911144256592,-6.0394287109375,1.765372395515442
1748004341089965000,11.814965087890625,-7.523444652557373,-6.036771297454834,1.767924427986145
1748004341100035800,11.825035888671875,-7.524749755859375,-6.0344929695129395,1.7701454162597656
1748004341110106600,11.835106689453125,-7.525058269500732,-6.033447265625,1.772402286529541
1748004341120208000,11.845207763671874,-7.524201393127441,-6.033626079559326,1.7754230499267578
1748004341130278700,11.855278564453124,-7.5229315757751465,-6.034126281738281,1.7791036367416382
1748004341140349400,11.865349365234374,-7.522136688232422,-6.034047603607178,1.782726764678955
1748004341150420500,11.87542041015625,-7.52260684967041,-6.032625675201416,1.7855534553527832
1748004341160491300,11.8854912109375,-7.5241594314575195,-6.030362129211426,1.7866560220718384
1748004341170562000,11.89556201171875,-7.5264201164245605,-6.027753829956055,1.785936951637268
1748004341180632800,11.9056328125,-7.52882194519043,-6.025539398193359,1.7832844257354736
1748004341190734000,11.915734130859375,-7.53083610534668,-6.02412748336792,1.7795438766479492
1748004341200804900,11.925804931640625,-7.531802177429199,-6.023937702178955,1.7760956287384033
1748004341210875600,11.935875732421875,-7.532050609588623,-6.02402400970459,1.7747516632080078
1748004341220946400,11.945946533203125,-7.531720161437988,-6.0240936279296875,1.7759153842926025
1748004341231017200,11.956017333984375,-7.531594276428223,-6.023665428161621,1.7778995037078857
1748004341241088000,11.966087890625,-7.532683372497559,-6.022009372711182,1.778900146484375
1748004341251189500,11.976189453125,-7.53479528427124,-6.019719123840332,1.7777025699615479
1748004341261260300,11.98626025390625,-7.537021636962891,-6.017661094665527,1.7752305269241333
1748004341271331000,11.9963310546875,-7.5391621589660645,-6.015872478485107,1.7722043991088867
1748004341281401900,12.00640185546875,-7.541103363037109,-6.014019012451172,1.7702327966690063
1748004341291472600,12.01647265625,-7.542732238769531,-6.012022018432617,1.7700765132904053
1748004341301543400,12.02654345703125,-7.544272422790527,-6.009584903717041,1.771783709526062
1748004341311644700,12.036644775390625,-7.545840263366699,-6.0065717697143555,1.7753268480300903
1748004341321715500,12.046715576171875,-7.547806739807129,-6.002660751342773,1.7801874876022339
1748004341331786200,12.0567861328125,-7.549696445465088,-5.998291015625,1.7868890762329102
1748004341341857000,12.06685693359375,-7.551458835601807,-5.9937520027160645,1.794656753540039
1748004341361998800,12.086998779296875,-7.554361820220947,-5.98510217666626,1.811234951019287
1748004341372069600,12.097069580078125,-7.55571174621582,-5.9808125495910645,1.8197499513626099
1748004341382171000,12.1071708984375,-7.557133197784424,-5.976240158081055,1.8288439512252808
1748004341392241700,12.11724169921875,-7.559238910675049,-5.970588207244873,1.8385812044143677
1748004341402312400,12.1273125,-7.561432838439941,-5.966237545013428,1.843672752380371
1748004341412383200,12.13738330078125,-7.5638909339904785,-5.961456298828125,1.849045753479004
1748004341422454000,12.1474541015625,-7.566440582275391,-5.956681251525879,1.853996753692627
1748004341432524800,12.15752490234375,-7.569270610809326,-5.951938152313232,1.8576772212982178
1748004341442626300,12.167626220703125,-7.5725226402282715,-5.946918487548828,1.8604952096939087
1748004341462767900,12.187767822265625,-7.581234455108643,-5.933931350708008,1.8664759397506714
1748004341472838700,12.197838623046875,-7.586362361907959,-5.926226615905762,1.8701101541519165
1748004341482909400,12.207909423828125,-7.59214448928833,-5.917702674865723,1.8736371994018555
1748004341492980200,12.217980224609375,-7.598450660705566,-5.908620357513428,1.8767352104187012
1748004341503051000,12.228051025390625,-7.6068267822265625,-5.8960676193237305,1.8822742700576782
1748004341513152300,12.23815234375,-7.616502285003662,-5.881621360778809,1.888333797454834
1748004341523223000,12.24822314453125,-7.6274919509887695,-5.865015506744385,1.895614504814148
1748004341533293800,12.2582939453125,-7.638603687286377,-5.847394943237305,1.9052801132202148
1748004341543364600,12.268364501953124,-7.649271488189697,-5.829423427581787,1.9175162315368652
1748004341553435400,12.278435302734374,-7.659083366394043,-5.811770439147949,1.9318792819976807
1748004341563506400,12.28850634765625,-7.667523384094238,-5.7986297607421875,1.9378738403320312
1748004341573607700,12.298607666015625,-7.674911022186279,-5.787108898162842,1.94306480884552
1748004341583678500,12.308678466796875,-7.681725025177002,-5.776244163513184,1.9484601020812988
1748004341593749200,12.318749267578125,-7.688345909118652,-5.765100002288818,1.9553370475769043
1748004341603820000,12.328820068359375,-7.695308208465576,-5.752909183502197,1.9638378620147705
1748004341613890800,12.338890869140625,-7.703529357910156,-5.738747596740723,1.973016619682312
1748004341623961600,12.348961669921875,-7.713762283325195,-5.721986293792725,1.9817014932632446
1748004341634062800,12.359062744140624,-7.725734710693359,-5.702826023101807,1.9902713298797607
1748004341644133600,12.369133544921874,-7.737889766693115,-5.682555198669434,2.001002073287964
1748004341654204700,12.37920458984375,-7.749635219573975,-5.661966323852539,2.013871192932129
1748004341664275500,12.389275390625,-7.761528968811035,-5.641205787658691,2.0262928009033203
1748004341674346200,12.39934619140625,-7.774779796600342,-5.620413780212402,2.0332601070404053
1748004341684417000,12.4094169921875,-7.7902445793151855,-5.59910249710083,2.0328614711761475
1748004341694487800,12.41948779296875,-7.807176113128662,-5.577395439147949,2.0275697708129883
1748004341704589000,12.429589111328125,-7.826505184173584,-5.552491664886475,2.0213935375213623
1748004341714659800,12.439659912109375,-7.849788665771484,-5.521122455596924,2.017033815383911
1748004341724730600,12.449730712890625,-7.876657962799072,-5.483731746673584,2.014279365539551
1748004341734801400,12.459801513671875,-7.905979156494141,-5.442043304443359,2.0124711990356445
1748004341744872200,12.4698720703125,-7.937283039093018,-5.397731781005859,2.008586883544922
1748004341754943000,12.47994287109375,-7.972847938537598,-5.349155902862549,1.997654676437378
1748004341765044500,12.49004443359375,-8.014974594116211,-5.29402494430542,1.9758186340332031
1748004341775115300,12.500115234375,-8.0626802444458,-5.233588218688965,1.9424502849578857
1748004341785186000,12.51018603515625,-8.11303997039795,-5.171648025512695,1.898162603378296
1748004341795256800,12.5202568359375,-8.162952423095703,-5.111664772033691,1.8459341526031494
1748004341805327600,12.53032763671875,-8.210748672485352,-5.053082466125488,1.7945359945297241
1748004341815398400,12.5403984375,-8.2568359375,-4.993565559387207,1.749096155166626
1748004341825499600,12.550499755859375,-8.302034378051758,-4.93241024017334,1.7081987857818604
1748004341835570400,12.5605703125,-8.346640586853027,-4.870522975921631,1.66792893409729
1748004341845641200,12.57064111328125,-8.391583442687988,-4.8078155517578125,1.6237685680389404
1748004341855712000,12.5807119140625,-8.435800552368164,-4.745968818664551,1.5758934020996094
1748004341865783000,12.590782958984375,-8.475860595703125,-4.690701961517334,1.5256141424179077
1748004341875853800,12.600853759765625,-8.508907318115234,-4.646426200866699,1.4763532876968384
1748004341885924600,12.610924560546875,-8.534714698791504,-4.612637996673584,1.4326918125152588
1748004341896025900,12.62102587890625,-8.55479907989502,-4.5857391357421875,1.3988591432571411
1748004341906096600,12.6310966796875,-8.570023536682129,-4.5634284019470215,1.3784810304641724
1748004341916167400,12.64116748046875,-8.580693244934082,-4.545947551727295,1.3698357343673706
1748004341926238200,12.65123828125,-8.587780952453613,-4.533443927764893,1.3668529987335205
1748004341936309000,12.66130908203125,-8.591950416564941,-4.526880264282227,1.3624014854431152
1748004341946379800,12.6713798828125,-8.593168258666992,-4.527170181274414,1.3537214994430542
1748004341956481300,12.681481201171875,-8.591418266296387,-4.534328937530518,1.3408132791519165
1748004341966552000,12.691552001953125,-8.585323333740234,-4.549984931945801,1.3267409801483154
1748004341976622800,12.701622802734375,-8.573846817016602,-4.574680805206299,1.3159923553466797
1748004341986693600,12.711693603515625,-8.557364463806152,-4.606279373168945,1.3130500316619873
1748004341996764400,12.721764404296875,-8.536935806274414,-4.642147064208984,1.3196899890899658
1748004342006835200,12.731835205078125,-8.513969421386719,-4.679089069366455,1.3374724388122559
1748004342016936400,12.7419365234375,-8.48855209350586,-4.717075347900391,1.3653093576431274
1748004342027007200,12.75200732421875,-8.460670471191406,-4.757072925567627,1.399174690246582
1748004342037078000,12.762078125,-8.429177284240723,-4.802227973937988,1.4345548152923584
1748004342047148800,12.772148681640624,-8.392621994018555,-4.85579252243042,1.4681847095489502
1748004342057219600,12.782219482421874,-8.350606918334961,-4.918423652648926,1.4989506006240845
1748004342067290400,12.792290283203124,-8.304073333740234,-4.987619400024414,1.5285327434539795
1748004342077361400,12.802361328125,-8.256525993347168,-5.056711196899414,1.5587966442108154
1748004342087462700,12.812462646484375,-8.21246337890625,-5.118708610534668,1.5889142751693726
1748004342097533400,12.822533447265625,-8.177552223205566,-5.166630744934082,1.6136795282363892
1748004342107604200,12.832604248046875,-8.15728759765625,-5.196018218994141,1.6218684911727905
1748004342117675000,12.842675048828125,-8.151498794555664,-5.209601879119873,1.6073333024978638
1748004342127745800,12.852745849609375,-8.153152465820312,-5.216922283172607,1.5748692750930786
1748004342137816600,12.862816650390625,-8.153791427612305,-5.22795295715332,1.5344598293304443
1748004342147917800,12.872917724609374,-8.149169921875,-5.246551513671875,1.495031476020813
1748004342157988600,12.882988525390624,-8.137748718261719,-5.272421360015869,1.4659501314163208
1748004342168059600,12.8930595703125,-8.116011619567871,-5.3087897300720215,1.4551652669906616
1748004342178130400,12.90313037109375,-8.081438064575195,-5.3594279289245605,1.4619425535202026
1748004342188201200,12.913201171875,-8.03394889831543,-5.425786972045898,1.4788097143173218
1748004342198272000,12.92327197265625,-7.9761762619018555,-5.505038738250732,1.4985129833221436
1748004342208373200,12.933373291015625,-7.913198947906494,-5.589934825897217,1.517993688583374
1748004342218444000,12.943444091796875,-7.851412296295166,-5.671346664428711,1.53673255443573
1748004342228514800,12.953514892578125,-7.794155120849609,-5.745614528656006,1.5522408485412598
1748004342238585600,12.963585693359375,-7.741819381713867,-5.81366491317749,1.5607471466064453
1748004342248656400,12.973656494140625,-7.690781116485596,-5.879520893096924,1.5663702487945557
1748004342258727200,12.98372705078125,-7.6341400146484375,-5.9507365226745605,1.5744909048080444
1748004342268798000,12.9937978515625,-7.56630277633667,-6.034878253936768,1.5816749334335327
1748004342278899500,13.0038994140625,-7.487972736358643,-6.131977558135986,1.5809776782989502
1748004342288970200,13.01397021484375,-7.406492233276367,-6.232935428619385,1.5699645280838013
1748004342299041000,13.024041015625,-7.3259782791137695,-6.331799507141113,1.552016258239746
1748004342309111800,13.03411181640625,-7.238927841186523,-6.433650016784668,1.541579246520996
1748004342319182600,13.0441826171875,-7.1323370933532715,-6.546943664550781,1.561312198638916
1748004342329253400,13.05425341796875,-6.998132705688477,-6.673407077789307,1.631616234779358
1748004342339354600,13.064354736328125,-6.833445072174072,-6.810297012329102,1.7590553760528564
1748004342349425400,13.07442529296875,-6.6427435874938965,-6.953227996826172,1.9227501153945923
1748004342359496200,13.08449609375,-6.43096399307251,-7.099551677703857,2.099867820739746
1748004342369567000,13.09456689453125,-6.204891681671143,-7.2447943687438965,2.276543378829956
1748004342379638000,13.104637939453125,-5.969779014587402,-7.384265422821045,2.4504599571228027
1748004342389708800,13.114708740234375,-5.7284016609191895,-7.51405668258667,2.625786304473877
1748004342399810000,13.12481005859375,-5.479883670806885,-7.631625175476074,2.8106164932250977
1748004342409880800,13.134880859375,-5.222352027893066,-7.733921051025391,3.013951301574707
1748004342419951600,13.14495166015625,-4.95013952255249,-7.819491863250732,3.2437705993652344
1748004342430022400,13.1550224609375,-4.662869453430176,-7.887239933013916,3.4956371784210205
1748004342440093200,13.16509326171875,-4.359714031219482,-7.938634872436523,3.760500431060791
1748004342450164000,13.1751640625,-4.037734031677246,-7.976775169372559,4.029658317565918
1748004342460234800,13.18523486328125,-3.6985366344451904,-8.003783226013184,4.293095588684082
1748004342470336300,13.195336181640625,-3.3438222408294678,-8.022457122802734,4.541963577270508
1748004342480407000,13.205406982421875,-2.9809603691101074,-8.036152839660645,4.7649245262146
1748004342490477800,13.215477783203125,-2.633190393447876,-8.044149398803711,4.952611446380615
1748004342500548600,13.225548583984375,-2.3262431621551514,-8.056099891662598,5.0851006507873535
1748004342510619400,13.235619384765625,-2.071406841278076,-8.087647438049316,5.144862651824951
1748004342520690200,13.245690185546875,-1.8681049346923828,-8.149334907531738,5.125321865081787
1748004342530791400,13.25579150390625,-1.7218549251556396,-8.25125503540039,5.012224197387695
1748004342540862200,13.2658623046875,-1.6528030633926392,-8.383912086486816,4.811305046081543
1748004342550933000,13.27593310546875,-1.6658260822296143,-8.516334533691406,4.568091869354248
1748004342561003800,13.286003662109374,-1.7191333770751953,-8.618908882141113,4.350789546966553
1748004342571074600,13.296074462890624,-1.6489479541778564,-8.681023597717285,4.253373146057129
1748004342581145300,13.306145263671874,-1.435538649559021,-8.709568977355957,4.2723541259765625
1748004342591216400,13.31621630859375,-1.2020984888076782,-8.716052055358887,4.330794811248779
1748004342601317600,13.326317626953125,-1.0349255800247192,-8.711167335510254,4.383479118347168
1748004342611388400,13.336388427734375,-0.9542502164840698,-8.708227157592773,4.407557964324951
1748004342621459200,13.346459228515625,-0.9334266781806946,-8.718363761901855,4.391950607299805
1748004342631530000,13.356530029296875,-0.9232462644577026,-8.742193222045898,4.34650182723999
1748004342641600800,13.366600830078125,-0.8867235779762268,-8.77518367767334,4.287220001220703
1748004342651671600,13.376671630859375,-0.8125878572463989,-8.810125350952148,4.229867935180664
1748004342661772800,13.386772705078124,-0.7096647620201111,-8.841435432434082,4.182796478271484
1748004342671843600,13.396843505859374,-0.5986377000808716,-8.866971015930176,4.145944118499756
1748004342681914600,13.40691455078125,-0.4947565197944641,-8.886785507202148,4.117116928100586
1748004342691985400,13.4169853515625,-0.4049072265625,-8.901023864746094,4.0961198806762695
1748004342702056200,13.42705615234375,-0.33095091581344604,-8.908686637878418,4.086093902587891
1748004342712127000,13.437126953125,-0.26974594593048096,-8.908893585205078,4.0901384353637695
