time,seconds_elapsed,z,y,x
1749987851420400400,0.125400390625,-0.4252080023288727,0.011660999618470669,0.46903499960899353
1749987851430414000,0.1354140625,-0.481904000043869,0.1261020004749298,0.30972298979759216
1749987851440427300,0.14542724609375,-0.5217689871788025,0.20367200672626495,0.1782499998807907
1749987851450441000,0.15544091796875,-0.5145879983901978,0.2549389898777008,0.03853200003504753
1749987851460454400,0.165454345703125,-0.4830490052700043,0.2895039916038513,-0.0989070013165474
1749987851470467800,0.1754677734375,-0.44600600004196167,0.3002369999885559,-0.21256299316883087
1749987851480481300,0.185481201171875,-0.42122501134872437,0.2919679880142212,-0.3027850091457367
1749987851490495000,0.195494873046875,-0.41129499673843384,0.29729199409484863,-0.37215301394462585
1749987851500508400,0.20550830078125,-0.38822099566459656,0.3124690055847168,-0.4117499887943268
1749987851510521900,0.21552197265625,-0.37640100717544556,0.3103730082511902,-0.41182398796081543
1749987851520535600,0.22553564453125,-0.3788850009441376,0.30735498666763306,-0.3967530131340027
1749987851530549000,0.235549072265625,-0.38067999482154846,0.32013601064682007,-0.3735859990119934
1749987851540562400,0.2455625,-0.3909910023212433,0.32850900292396545,-0.3462420105934143
1749987851550576000,0.255576171875,-0.4208180010318756,0.3105640113353729,-0.3321560025215149
1749987851560589600,0.265589599609375,-0.4894370138645172,0.2826080024242401,-0.34093499183654785
1749987851570603000,0.27560302734375,-0.5528219938278198,0.30538201332092285,-0.3642379939556122
1749987851580616700,0.28561669921875,-0.5297260284423828,0.38182899355888367,-0.38837099075317383
1749987851590630100,0.295630126953125,-0.47492098808288574,0.43781501054763794,-0.3762019872665405
1749987851600643600,0.3056435546875,-0.4282670021057129,0.41384100914001465,-0.2954069972038269
1749987851610657300,0.3156572265625,-0.3963710069656372,0.31894299387931824,-0.15594400465488434
1749987851620670500,0.32567041015625,-0.42544299364089966,0.21505899727344513,-0.04022400081157684
1749987851630684200,0.33568408203125,-0.4495300054550171,0.10775499790906906,0.024258999153971672
1749987851640697600,0.345697509765625,-0.4608190059661865,0.02880599908530712,0.0294950008392334
1749987851650711000,0.3557109375,-0.4762980043888092,-0.025794999673962593,0.014592999592423439
1749987851660724700,0.365724853515625,-0.5146669745445251,-0.05587900057435036,0.04238399863243103
1749987851670738200,0.37573828125,-0.5371260046958923,-0.05076900124549866,0.00913500040769577
1749987851680751600,0.385751708984375,-0.5372170209884644,-0.0715159997344017,-0.08814000338315964
1749987851690765300,0.395765380859375,-0.4170680046081543,-0.12080200016498566,-0.21741999685764313
1749987851700778800,0.40577880859375,-0.22020100057125092,-0.1458660066127777,-0.27672699093818665
1749987851710792200,0.415792236328125,-0.08601000159978867,-0.23333799839019775,-0.23951299488544464
1749987851720806000,0.425805908203125,-0.015177999623119831,-0.3776960074901581,-0.11984799802303314
1749987851730819300,0.4358193359375,0.04429600015282631,-0.4975230097770691,0.03972800076007843
1749987851740832800,0.445832763671875,0.057718999683856964,-0.5556529760360718,0.16445299983024597
1749987851750846500,0.455846435546875,0.010804999619722366,-0.6110950112342834,0.32245999574661255
1749987851760860000,0.46585986328125,-0.06867299973964691,-0.6606199741363525,0.48525699973106384
1749987851770873300,0.475873291015625,-0.17739300429821014,-0.6899610161781311,0.6192619800567627
1749987851780887000,0.485886962890625,-0.26558300852775574,-0.6999620199203491,0.6923090219497681
1749987851790900200,0.495900146484375,-0.3146190047264099,-0.7062389850616455,0.6913700103759766
1749987851800914200,0.5059140625,-0.37932199239730835,-0.6988750100135803,0.6112589836120605
1749987851810927400,0.51592724609375,-0.4210610091686249,-0.6581240296363831,0.5229730010032654
1749987851820940800,0.52594091796875,-0.44512999057769775,-0.6132010221481323,0.4793510138988495
1749987851830954500,0.53595458984375,-0.4724949896335602,-0.6283389925956726,0.49157100915908813
1749987851840968000,0.545968017578125,-0.4759339988231659,-0.7093390226364136,0.5538910031318665
1749987851850981400,0.5559814453125,-0.4491899907588959,-0.7909299731254578,0.6414170265197754
1749987851860995000,0.5659951171875,-0.3645870089530945,-0.8411989808082581,0.7270789742469788
1749987851871008500,0.576008544921875,-0.2868170142173767,-0.9235519766807556,0.7831590175628662
1749987851881022000,0.58602197265625,-0.31896400451660156,-1.0714759826660156,0.8079760074615479
1749987851891035600,0.59603564453125,-0.40833601355552673,-1.2005410194396973,0.789713978767395
1749987851901049000,0.606049072265625,-0.5033929944038391,-1.2416720390319824,0.7295179963111877
1749987851911062800,0.616062744140625,-0.5708199739456177,-1.2167320251464844,0.6411389708518982
1749987851921076200,0.626076171875,-0.5865809917449951,-1.1796070337295532,0.5954629778862
1749987851931089700,0.636089599609375,-0.5906990170478821,-1.1532889604568481,0.6343240141868591
1749987851941103400,0.646103271484375,-0.5843530297279358,-1.176224946975708,0.7970619797706604
1749987851951116800,0.65611669921875,-0.46218299865722656,-1.2128340005874634,1.0104429721832275
1749987851961130500,0.666130615234375,-0.1049790009856224,-1.2075799703598022,1.1665899753570557
1749987851971143700,0.676143798828125,0.17490899562835693,-1.2365130186080933,1.3139829635620117
1749987851981157400,0.686157470703125,0.37519699335098267,-1.3390189409255981,1.5256210565567017
1749987851991170800,0.6961708984375,0.41437700390815735,-1.485954999923706,1.7308770418167114
1749987852001184300,0.706184326171875,0.2945980131626129,-1.5667279958724976,1.8411959409713745
1749987852011197700,0.71619775390625,0.1803250014781952,-1.5094670057296753,1.811081051826477
1749987852021211400,0.72621142578125,0.0842449963092804,-1.3793179988861084,1.713057041168213
1749987852031224800,0.736224853515625,0.02347099967300892,-1.2675360441207886,1.5955649614334106
1749987852041238300,0.74623828125,0.04105899855494499,-1.230146050453186,1.5369410514831543
1749987852051252000,0.756251953125,0.09892699867486954,-1.2049579620361328,1.4696120023727417
1749987852061265400,0.766265380859375,0.19904300570487976,-1.1583750247955322,1.4016389846801758
1749987852071278800,0.77627880859375,0.34949401021003723,-1.0872080326080322,1.3643699884414673
1749987852081292500,0.78629248046875,0.5084810256958008,-1.0228029489517212,1.3941229581832886
1749987852091306000,0.796305908203125,0.6306899785995483,-0.9867299795150757,1.498816967010498
1749987852101319700,0.806319580078125,0.7215620279312134,-0.9693009853363037,1.666401982307434
1749987852111333000,0.8163330078125,0.7601029872894287,-0.9541440010070801,1.8050659894943237
1749987852121346300,0.82634619140625,0.7234510183334351,-0.9199280142784119,1.8805630207061768
1749987852131360300,0.8363603515625,0.6464999914169312,-0.8378409743309021,1.8684329986572266
1749987852141373400,0.84637353515625,0.3868910074234009,-0.6871899962425232,1.7980740070343018
1749987852151387100,0.85638720703125,-0.08268799632787704,-0.45685601234436035,1.6775599718093872
1749987852161400600,0.866400634765625,-0.33755698800086975,-0.2769950032234192,1.5294990539550781
1749987852171414000,0.8764140625,-0.36211100220680237,-0.24042999744415283,1.3786799907684326
1749987852181427700,0.886427734375,-0.26249000430107117,-0.25516799092292786,1.2258460521697998
1749987852191441200,0.896441162109375,-0.22365500032901764,-0.24320699274539948,1.0865960121154785
1749987852201454800,0.906454833984375,-0.04452899843454361,-0.2832469940185547,0.9477429986000061
1749987852211468300,0.91646826171875,-0.05879899859428406,-0.263372004032135,0.79203200340271
1749987852221481700,0.926481689453125,-0.09377399832010269,-0.19965200126171112,0.6054049730300903
1749987852231495400,0.936495361328125,-0.08574499934911728,-0.09989900141954422,0.3520370125770569
1749987852241508900,0.9465087890625,-0.09292100369930267,0.02542399987578392,0.028992999345064163
1749987852251522600,0.9565224609375,-0.2026659995317459,0.11744800209999084,-0.32150599360466003
1749987852261536000,0.966535888671875,-0.5185179710388184,0.08904299885034561,-0.6224650144577026
1749987852271549400,0.976549560546875,-0.7232509851455688,0.03535199910402298,-0.8812350034713745
1749987852281563100,0.986563232421875,-0.8531360030174255,0.03779499977827072,-1.139902949333191
1749987852291576600,0.99657666015625,-0.9124159812927246,0.06509499996900558,-1.319638967514038
1749987852301590300,1.00659033203125,-0.8403850197792053,0.07372000068426132,-1.3870699405670166
1749987852311603700,1.016603759765625,-0.7972530126571655,0.08100300282239914,-1.3503530025482178
1749987852321617200,1.0266171875,-0.7663229703903198,0.08931899815797806,-1.2760950326919556
1749987852331630600,1.036630615234375,-0.6990579962730408,0.07247699797153473,-1.210495948791504
1749987852341644000,1.04664404296875,-0.6970250010490417,0.11441999673843384,-1.1972179412841797
1749987852351657700,1.05665771484375,-0.7510709762573242,0.2023710012435913,-1.2065180540084839
1749987852361671200,1.066671142578125,-0.718716025352478,0.23040400445461273,-1.1508129835128784
1749987852371684900,1.076684814453125,-0.7517600059509277,0.27306801080703735,-1.091755986213684
1749987852381698300,1.0866982421875,-0.8282510042190552,0.29283401370048523,-1.0824979543685913
1749987852391711700,1.096711669921875,-0.920727014541626,0.32320401072502136,-1.1014599800109863
1749987852401725400,1.106725341796875,-0.980023980140686,0.3497979938983917,-1.139422059059143
1749987852411739000,1.11673876953125,-1.025738000869751,0.36685898900032043,-1.1879889965057373
1749987852421752300,1.12675244140625,-0.9954630136489868,0.35318198800086975,-1.2302889823913574
1749987852431765800,1.136765869140625,-0.9481949806213379,0.3518179953098297,-1.275557041168213
1749987852441779500,1.146779541015625,-0.7007120251655579,0.340256005525589,-1.3156030178070068
1749987852451793000,1.15679296875,-0.22435900568962097,0.2375359982252121,-1.308182954788208
1749987852461806300,1.166806396484375,0.03873499855399132,0.14757199585437775,-1.250020980834961
1749987852471820000,1.176820068359375,0.10492099821567535,0.17124000191688538,-1.1019140481948853
1749987852481833500,1.18683349609375,0.00036299999919719994,0.28709301352500916,-0.9490159749984741
1749987852491847200,1.19684716796875,-0.03150400146842003,0.3711560070514679,-0.8021799921989441
1749987852501860600,1.206860595703125,-0.13488900661468506,0.4523879885673523,-0.6024159789085388
1749987852511874000,1.2168740234375,-0.13038499653339386,0.5326319932937622,-0.49929898977279663
1749987852521887500,1.226887451171875,-0.1168849989771843,0.5413470268249512,-0.3595989942550659
1749987852531901200,1.236901123046875,-0.08571899682283401,0.5014560222625732,-0.19223099946975708
1749987852541914600,1.24691455078125,0.0005039999959990382,0.45147499442100525,-0.023603999987244606
1749987852551928000,1.256927978515625,0.018535999581217766,0.4179390072822571,0.13230200111865997
1749987852561941500,1.26694140625,-0.026924999430775642,0.4393770098686218,0.2449599951505661
1749987852571955200,1.276955078125,-0.11520099639892578,0.4616349935531616,0.37397000193595886
1749987852581968600,1.28696875,-0.1105479970574379,0.3898650109767914,0.569242000579834
1749987852591982300,1.296982421875,-0.04464099928736687,0.28699201345443726,0.7412930130958557
1749987852601995800,1.306995849609375,-0.023837000131607056,0.20022499561309814,0.8422240018844604
1749987852612009200,1.31700927734375,0.05141500011086464,0.12966200709342957,0.8677409887313843
1749987852622023000,1.32702294921875,0.1019119992852211,0.08623600006103516,0.859296977519989
1749987852632036400,1.337036376953125,0.08587100356817245,0.12408699840307236,0.8434749841690063
1749987852642049800,1.3470498046875,0.07489000260829926,0.15258100628852844,0.8509299755096436
1749987852652063500,1.3570634765625,0.03960900008678436,0.1815049946308136,0.8184589743614197
1749987852662077000,1.367076904296875,-0.07825399935245514,0.27014899253845215,0.6781970262527466
1749987852672090400,1.37709033203125,-0.08782199770212173,0.2965010106563568,0.5110179781913757
1749987852682104000,1.38710400390625,-0.062212999910116196,0.3520579934120178,0.44003400206565857
1749987852692117500,1.397117431640625,-0.0527070015668869,0.389288991689682,0.36811599135398865
1749987852702131000,1.407130859375,-0.09100700169801712,0.3895139992237091,0.306751012802124
1749987852712144400,1.417144287109375,-0.1287350058555603,0.3581550121307373,0.28045201301574707
1749987852722158000,1.427157958984375,-0.21324799954891205,0.32821500301361084,0.26247701048851013
1749987852732171300,1.437171142578125,-0.2887760102748871,0.2960270047187805,0.27938100695610046
1749987852742185000,1.44718505859375,-0.37052300572395325,0.2990710139274597,0.26634499430656433
1749987852752198400,1.457198486328125,-0.45545700192451477,0.3415369987487793,0.24250899255275726
1749987852762211800,1.4672119140625,-0.5215529799461365,0.385342001914978,0.2283560037612915
1749987852772225500,1.4772255859375,-0.5859220027923584,0.4196839928627014,0.17163999378681183
1749987852782239000,1.487239013671875,-0.5684639811515808,0.393528014421463,0.0841279998421669
1749987852792252700,1.497252685546875,-0.4750100076198578,0.34642499685287476,-0.055789001286029816
1749987852802266000,1.50726611328125,-0.12041299790143967,0.3822929859161377,-0.29809799790382385
1749987852812279600,1.517279541015625,0.04559699818491936,0.32709598541259766,-0.3864080011844635
1749987852822293200,1.527293212890625,0.0906819999217987,0.2776379883289337,-0.47473999857902527
1749987852832306700,1.537306640625,0.025875000283122063,0.24860599637031555,-0.5583680272102356
1749987852842320100,1.547320068359375,-0.11477900296449661,0.23157399892807007,-0.6017109751701355
1749987852852333600,1.55733349609375,-0.19097499549388885,0.23722900450229645,-0.61844402551651
1749987852862347300,1.56734716796875,-0.2219880074262619,0.25343701243400574,-0.6066129803657532
1749987852872360700,1.577360595703125,-0.2574610114097595,0.2960270047187805,-0.6268360018730164
1749987852882374100,1.5873740234375,-0.3583039939403534,0.40320301055908203,-0.739995002746582
1749987852892387600,1.5973876953125,-0.4002879858016968,0.5418710112571716,-0.8693400025367737
1749987852902401500,1.607401611328125,-0.4087199866771698,0.6211379766464233,-0.955706000328064
1749987852912415000,1.6174150390625,-0.42574501037597656,0.5933169722557068,-0.9826610088348389
1749987852922428400,1.627428466796875,-0.43227800726890564,0.5077250003814697,-0.9634270071983337
1749987852932441900,1.63744189453125,-0.4655959904193878,0.36500000953674316,-0.8943459987640381
1749987852942455300,1.647455322265625,-0.4699690043926239,0.21825799345970154,-0.8160330057144165
1749987852952469000,1.657468994140625,-0.40681201219558716,0.0630050003528595,-0.6769599914550781
1749987852962482400,1.667482421875,-0.399509996175766,-0.08775699883699417,-0.4989190101623535
1749987852972496100,1.67749609375,-0.4722619950771332,-0.19010600447654724,-0.342631995677948
1749987852982509600,1.687509521484375,-0.547639012336731,-0.27983999252319336,-0.28572601079940796
1749987852992523000,1.69752294921875,-0.5640779733657837,-0.33202600479125977,-0.24952200055122375
1749987853002536700,1.70753662109375,-0.5199599862098694,-0.3301680088043213,-0.24290500581264496
1749987853012550100,1.717550048828125,-0.4505079984664917,-0.29886600375175476,-0.27687498927116394
1749987853022563600,1.7275634765625,-0.3313570022583008,-0.2657169997692108,-0.33565500378608704
1749987853032577300,1.737577392578125,-0.19083300232887268,-0.2625640034675598,-0.41051599383354187
1749987853042590700,1.7475908203125,-0.07854200154542923,-0.30811798572540283,-0.4555929899215698
1749987853052604400,1.7576044921875,0.0008190000080503523,-0.3775689899921417,-0.4872489869594574
1749987853062617900,1.767617919921875,0.06073400005698204,-0.4572629928588867,-0.4893980026245117
1749987853072631300,1.77763134765625,0.09244900196790695,-0.5159109830856323,-0.4397220015525818
1749987853082645000,1.78764501953125,0.11175499856472015,-0.5451440215110779,-0.3037019968032837
1749987853092658400,1.797658447265625,0.06986799836158752,-0.5454819798469543,-0.10524699836969376
1749987853102672100,1.807672119140625,-0.28574201464653015,-0.5762069821357727,0.10893400013446808
1749987853112685300,1.817685302734375,-0.37665098905563354,-0.5606920123100281,0.23099100589752197
1749987853122698800,1.82769873046875,-0.32787999510765076,-0.5256149768829346,0.3059079945087433
1749987853132712400,1.83771240234375,-0.24589599668979645,-0.4932120144367218,0.36609598994255066
1749987853142726000,1.847725830078125,-0.14589600265026093,-0.45854198932647705,0.37862101197242737
1749987853152739600,1.857739501953125,-0.046167001128196716,-0.43387100100517273,0.35346201062202454
1749987853162753000,1.8677529296875,0.054173000156879425,-0.4186669886112213,0.33237800002098083
1749987853172766500,1.877766357421875,0.1698800027370453,-0.4221459925174713,0.3257890045642853
1749987853182780200,1.8877802734375,0.2564440071582794,-0.40615901350975037,0.3136860132217407
1749987853192793600,1.897793701171875,0.1724659949541092,-0.41214001178741455,0.2748270034790039
1749987853202807000,1.90780712890625,-0.11421500146389008,-0.4681290090084076,0.23709900677204132
1749987853212820500,1.917820556640625,-0.2752470076084137,-0.4631200134754181,0.1092969998717308
1749987853222834200,1.927834228515625,-0.36538198590278625,-0.42833900451660156,-0.08047399669885635
1749987853232847600,1.93784765625,-0.5888670086860657,-0.5217580199241638,-0.35245001316070557
1749987853242861300,1.947861328125,-0.4325309991836548,-0.8885849714279175,-0.732388973236084
1749987853252874800,1.957874755859375,-0.2628979980945587,-1.060547947883606,-0.9470840096473694
1749987853262888400,1.967888427734375,-0.14838799834251404,-1.2021429538726807,-1.1077959537506104
1749987853272902000,1.97790185546875,-0.06335700303316116,-1.365090012550354,-1.2322150468826294
1749987853282915300,1.987915283203125,-0.018378999084234238,-1.535094976425171,-1.3021249771118164
1749987853292928800,1.9979287109375,-0.04183800145983696,-1.6904449462890625,-1.304934024810791
1749987853302942500,2.0079423828125,-0.11136099696159363,-1.8596060276031494,-1.2493380308151245
1749987853312956200,2.0179560546875,-0.1413789987564087,-2.0274980068206787,-1.1348220109939575
1749987853322969600,2.027969482421875,-0.10454799979925156,-2.0799601078033447,-0.9256070256233215
1749987853332983000,2.037983154296875,-0.03734999895095825,-1.9748320579528809,-0.7053070068359375
1749987853342996500,2.04799658203125,0.024514999240636826,-1.7970670461654663,-0.570438027381897
1749987853353010000,2.058010009765625,0.05083300173282623,-1.6149519681930542,-0.5407540202140808
1749987853363023400,2.0680234375,0.019788000732660294,-1.4518940448760986,-0.6106039881706238
1749987853373037000,2.078037109375,-0.041756998747587204,-1.3217029571533203,-0.7637209892272949
1749987853383050500,2.088050537109375,-0.08799300342798233,-1.2065049409866333,-0.9479519724845886
1749987853393064200,2.098064208984375,-0.0947830006480217,-1.1088570356369019,-1.1317299604415894
1749987853403077600,2.10807763671875,-0.07512400299310684,-1.0194369554519653,-1.2871789932250977
1749987853413091000,2.118091064453125,-0.052629999816417694,-0.9288120269775391,-1.3948750495910645
1749987853423104800,2.128104736328125,-0.03182400017976761,-0.8222169876098633,-1.4491729736328125
1749987853433118200,2.1381181640625,-0.02628999948501587,-0.7018259763717651,-1.458070993423462
1749987853443132000,2.1481318359375,-0.05372000113129616,-0.5964480042457581,-1.433648943901062
1749987853453145300,2.158145263671875,-0.1056089997291565,-0.4986110031604767,-1.3650790452957153
1749987853463158800,2.16815869140625,-0.1706780046224594,-0.3971650004386902,-1.2781729698181152
1749987853473172500,2.17817236328125,-0.23077799379825592,-0.28478801250457764,-1.1809380054473877
1749987853483185700,2.188185546875,-0.2611730098724365,-0.20637699961662292,-1.0533519983291626
1749987853493199400,2.198199462890625,-0.18754999339580536,-0.1385429948568344,-0.9187210202217102
1749987853503213000,2.208213134765625,0.10744799673557281,-0.02100300043821335,-0.8352140188217163
1749987853513226200,2.218226318359375,0.28279298543930054,0.05834199860692024,-0.7180349826812744
1749987853523240000,2.228239990234375,0.39089199900627136,0.11224199831485748,-0.5768539905548096
1749987853533253400,2.23825341796875,0.6471989750862122,0.2938440144062042,-0.39169999957084656
1749987853543266800,2.248266845703125,0.5088210105895996,0.7311530113220215,-0.1149279996752739
1749987853553280500,2.258280517578125,0.34870201349258423,0.962440013885498,-0.0037720000836998224
1749987853563294000,2.2682939453125,0.2630639970302582,1.1430009603500366,0.06197600066661835
1749987853573307400,2.278307373046875,0.21191999316215515,1.3187329769134521,0.1236409991979599
1749987853583321000,2.288321044921875,0.19149799644947052,1.4887510538101196,0.1639080047607422
1749987853593334500,2.29833447265625,0.22432200610637665,1.628788948059082,0.16962499916553497
1749987853603348200,2.30834814453125,0.2929750084877014,1.7706979513168335,0.13908399641513824
1749987853613361700,2.318361572265625,0.32120999693870544,1.9163390398025513,0.057381000369787216
1749987853623375000,2.328375,0.27209898829460144,1.9443000555038452,-0.09697999805212021
1749987853633388800,2.338388916015625,0.18594799935817719,1.8091620206832886,-0.24766799807548523
1749987853643402200,2.34840234375,0.13477599620819092,1.6437170505523682,-0.2940939962863922
1749987853653415700,2.358415771484375,0.1387220025062561,1.5014020204544067,-0.2693049907684326
1749987853663429400,2.368429443359375,0.14194199442863464,1.3920830488204956,-0.20516499876976013
1749987853673442800,2.37844287109375,0.15320199728012085,1.2911570072174072,-0.11375799775123596
1749987853683456300,2.388456298828125,0.15742099285125732,1.1854519844055176,0.0028460000175982714
1749987853693470000,2.398469970703125,0.1959110051393509,1.0787969827651978,0.15129199624061584
1749987853703483400,2.4084833984375,0.2724809944629669,0.9200519919395447,0.3091219961643219
1749987853713496600,2.41849658203125,0.3676379919052124,0.6624910235404968,0.4380669891834259
1749987853723510500,2.428510498046875,0.3996469974517822,0.3209629952907562,0.48261401057243347
1749987853733524000,2.43852392578125,0.37168699502944946,-0.10101699829101562,0.4255470037460327
1749987853743537400,2.448537353515625,0.2926889955997467,-0.4758250117301941,0.3979620039463043
1749987853753550800,2.45855078125,0.1279119998216629,-0.7392160296440125,0.44382598996162415
1749987853763564500,2.468564453125,-0.07579799741506577,-0.8803369998931885,0.5036929845809937
1749987853773578000,2.478577880859375,-0.18590299785137177,-0.9341130256652832,0.5102139711380005
1749987853783591400,2.48859130859375,-0.1802619993686676,-0.9207590222358704,0.4529910087585449
1749987853793604900,2.49860498046875,-0.11854299902915955,-0.8657659888267517,0.3760559856891632
1749987853803618600,2.50861865234375,-0.0363520011305809,-0.7784219980239868,0.2971409857273102
1749987853813632000,2.518632080078125,0.0450420007109642,-0.6839640140533447,0.21747399866580963
1749987853823645400,2.5286455078125,0.11539299786090851,-0.6041210293769836,0.1352889984846115
1749987853833659100,2.5386591796875,0.17409999668598175,-0.5334140062332153,0.05645199865102768
1749987853843672600,2.548672607421875,0.22049200534820557,-0.4748069941997528,-0.008595000021159649
1749987853853686000,2.55868603515625,0.27062898874282837,-0.41604599356651306,-0.07365799695253372
1749987853863699700,2.56869970703125,0.3632200062274933,-0.41245201230049133,-0.13496600091457367
1749987853873713200,2.578713134765625,0.431098997592926,-0.4383699893951416,-0.18120400607585907
1749987853883726600,2.5887265625,0.45999300479888916,-0.46491700410842896,-0.20063599944114685
1749987853893740300,2.598740234375,0.464464008808136,-0.49202701449394226,-0.19479399919509888
1749987853903753700,2.608753662109375,0.4634450078010559,-0.5084159970283508,-0.16854000091552734
1749987853913767400,2.618767333984375,0.4704180061817169,-0.49943700432777405,-0.13036300241947174
1749987853923780900,2.62878076171875,0.5845980048179626,-0.4213840067386627,-0.12146499752998352
1749987853933794300,2.638794189453125,0.6246740221977234,-0.3516640067100525,-0.11798500269651413
1749987853943808000,2.64880810546875,0.5044639706611633,-0.34913399815559387,-0.1476989984512329
1749987853953821400,2.658821533203125,0.29260799288749695,-0.36256200075149536,-0.1625950038433075
1749987853963835000,2.6688349609375,0.12542100250720978,-0.36487698554992676,-0.13690799474716187
1749987853973848300,2.678848388671875,0.03349100053310394,-0.3498089909553528,-0.09656500071287155
1749987853983862000,2.688862060546875,0.01606700010597706,-0.32779499888420105,-0.07035700231790543
1749987853993875500,2.69887548828125,-0.01670599915087223,-0.2926270067691803,-0.08999600261449814
1749987854003889200,2.70888916015625,-0.09738600254058838,-0.20690299570560455,-0.16227400302886963
1749987854013902300,2.71890234375,-0.21543100476264954,-0.022763999179005623,-0.22941799461841583
1749987854023916000,2.728916015625,-0.2974820137023926,0.2221660017967224,-0.20747600495815277
1749987854033929700,2.7389296875,-0.334646999835968,0.539991021156311,-0.06893599778413773
1749987854043943200,2.748943115234375,-0.292169988155365,0.8168529868125916,0.019486000761389732
1749987854053956600,2.75895654296875,-0.1016400009393692,0.9818400144577026,-0.02437799982726574
1749987854063970300,2.76897021484375,0.23695600032806396,1.045704960823059,-0.10160700231790543
1749987854073983700,2.778983642578125,0.4769969880580902,1.0111169815063477,-0.1418749988079071
1749987854083997200,2.7889970703125,0.5431259870529175,0.9211329817771912,-0.16183100640773773
1749987854094011000,2.799010986328125,0.47938400506973267,0.8093069791793823,-0.18935200572013855
1749987854104024300,2.8090244140625,0.3455829918384552,0.6706209778785706,-0.21807199716567993
1749987854114037800,2.819037841796875,0.19474400579929352,0.5254510045051575,-0.22144800424575806
1749987854124051700,2.8290517578125,0.053578998893499374,0.40114399790763855,-0.1825210005044937
1749987854134065200,2.839065185546875,-0.07652699947357178,0.289887011051178,-0.12296900153160095
1749987854144078800,2.849078857421875,-0.17965400218963623,0.19347499310970306,-0.05566199868917465
1749987854154092000,2.859092041015625,-0.2655400037765503,0.0945729985833168,0.024677999317646027
1749987854164105500,2.86910546875,-0.3692370057106018,0.04986400157213211,0.10957299917936325
1749987854174119200,2.879119140625,-0.41861099004745483,0.030697999522089958,0.1757649928331375
1749987854184132600,2.889132568359375,-0.40811899304389954,0.004129000008106232,0.2080959975719452
1749987854194146000,2.89914599609375,-0.36927199363708496,-0.034047000110149384,0.2144249975681305
1749987854204159700,2.90915966796875,-0.3383210003376007,-0.08310099691152573,0.2076759934425354
1749987854214173200,2.919173095703125,-0.3364180028438568,-0.1535010039806366,0.1896360069513321
1749987854224186600,2.9291865234375,-0.46290498971939087,-0.2855429947376251,0.1816519945859909
1749987854234200300,2.939200439453125,-0.5211899876594543,-0.3868989944458008,0.16441099345684052
1749987854244213800,2.9492138671875,-0.4373829960823059,-0.4399549961090088,0.17296500504016876
1749987854254227500,2.9592275390625,-0.2602030038833618,-0.4847620129585266,0.20062099397182465
1749987854264241000,2.969240966796875,-0.08206800371408463,-0.5349739789962769,0.21067899465560913
1749987854274254300,2.97925439453125,0.03445399925112724,-0.5695239901542664,0.1974010020494461
1749987854284268000,2.98926806640625,0.05776200070977211,-0.5959519743919373,0.16666799783706665
1749987854294281500,2.999281494140625,0.02628999948501587,-0.6179239749908447,0.1362069994211197
1749987854304295000,3.009294921875,-0.01963699981570244,-0.6293730139732361,0.11732900142669678
1749987854314308400,3.019308349609375,-0.06033699959516525,-0.6394249796867371,0.084477998316288
1749987854324322000,3.029322021484375,-0.08261799812316895,-0.6200770139694214,0.0053969998843967915
1749987854334335500,3.03933544921875,-0.08793000131845474,-0.5874239802360535,-0.11213599890470505
1749987854344349000,3.049348876953125,-0.09505199640989304,-0.5536400079727173,-0.21427099406719208
1749987854354362400,3.0593623046875,-0.1327359974384308,-0.5286570191383362,-0.25837400555610657
1749987854364375800,3.069375732421875,-0.2505429983139038,-0.5414209961891174,-0.28146201372146606
1749987854374389800,3.0793896484375,-0.3514930009841919,-0.5528470277786255,-0.28575900197029114
1749987854384403200,3.0894033203125,-0.39662599563598633,-0.5791620016098022,-0.23818400502204895
1749987854394417000,3.0994169921875,-0.38555198907852173,-0.6170679926872253,-0.14208799600601196
1749987854404430300,3.109430419921875,-0.3426620066165924,-0.6365410089492798,-0.03233199939131737
1749987854414443800,3.11944384765625,-0.28779301047325134,-0.6267079710960388,0.05981399863958359
1749987854424457200,3.129457275390625,-0.22040200233459473,-0.5946450233459473,0.11214400082826614
1749987854434470700,3.139470703125,-0.12882000207901,-0.5542449951171875,0.13178899884223938
1749987854444484400,3.149484375,-0.05325699970126152,-0.5207759737968445,0.11819999665021896
1749987854454497800,3.159497802734375,-0.029517000541090965,-0.49112799763679504,0.07795999944210052
1749987854464511500,3.169511474609375,-0.020932000130414963,-0.4299980103969574,-0.010989000089466572
1749987854474525000,3.17952490234375,0.005344000179320574,-0.3390820026397705,-0.12409599870443344
1749987854484538400,3.189538330078125,0.03281399980187416,-0.22625499963760376,-0.23188400268554688
1749987854494552000,3.199552001953125,0.04591500014066696,-0.1006229966878891,-0.3189440071582794
1749987854504565500,3.2095654296875,0.04433000087738037,0.022546999156475067,-0.3669480085372925
1749987854514579000,3.219578857421875,0.039358001202344894,0.1344279944896698,-0.3559989929199219
1749987854524592600,3.229592529296875,0.039211999624967575,0.24385200440883636,-0.2885020077228546
1749987854534606000,3.239606201171875,0.02868800051510334,0.34179800748825073,-0.19006800651550293
1749987854544619800,3.249619873046875,0.0005409999866969883,0.4286470115184784,-0.10231900215148926
1749987854554633200,3.25963330078125,-0.036851998418569565,0.5108309984207153,-0.0416329987347126
1749987854564646700,3.269646728515625,-0.06964100152254105,0.5891550183296204,-0.007575999945402145
1749987854574660400,3.279660400390625,-0.08527299761772156,0.6442170143127441,0.00894199963659048
1749987854584674000,3.289674072265625,-0.07479400187730789,0.6875,0.01864599995315075
1749987854594687500,3.2996875,-0.048151999711990356,0.7145299911499023,0.026983000338077545
1749987854604701000,3.309700927734375,-0.0124080004170537,0.7219809889793396,0.0485289990901947
1749987854614714400,3.31971435546875,0.03725399821996689,0.7149159908294678,0.08804800361394882
1749987854624728000,3.32972802734375,0.09179700165987015,0.6838549971580505,0.1425829976797104
1749987854634741800,3.33974169921875,0.14590199291706085,0.64546799659729,0.18448799848556519
1749987854644755000,3.3497548828125,0.19640100002288818,0.6169949769973755,0.19081400334835052
1749987854654768600,3.3597685546875,0.23692700266838074,0.6053249835968018,0.1707189977169037
1749987854664782000,3.369781982421875,0.2582390010356903,0.617825984954834,0.1361279934644699
1749987854674795800,3.379795654296875,0.2552410066127777,0.6427010297775269,0.09849599748849869
1749987854684809200,3.389809326171875,0.22724099457263947,0.6767749786376953,0.06443099677562714
1749987854694822700,3.39982275390625,0.18875199556350708,0.7142500281333923,0.031369999051094055
1749987854704836400,3.40983642578125,0.14946900308132172,0.7490159869194031,0.0010900000343099236
1749987854714849800,3.419849853515625,0.1122329980134964,0.7778530120849609,-0.03200700134038925
1749987854724863200,3.42986328125,0.07312300056219101,0.7996450066566467,-0.06404100358486176
1749987854734877000,3.439876953125,0.01642400026321411,0.8229519724845886,-0.08417700231075287
1749987854744890400,3.449890380859375,-0.03416899964213371,0.8566009998321533,-0.08789899945259094
1749987854754903800,3.45990380859375,-0.05140500143170357,0.8968009948730469,-0.07574599981307983
1749987854764917500,3.46991748046875,-0.07559999823570251,0.904570996761322,-0.025098999962210655
1749987854774931000,3.479930908203125,-0.12464500218629837,0.8763759732246399,0.04453200101852417
1749987854784944600,3.489944580078125,-0.18399199843406677,0.8181290030479431,0.11594299972057343
1749987854794958000,3.4999580078125,-0.20478199422359467,0.7400559782981873,0.17690199613571167
1749987854804971500,3.509971435546875,-0.1585260033607483,0.6356509923934937,0.2089419960975647
1749987854814985200,3.519985107421875,-0.12024500221014023,0.4847699999809265,0.23080800473690033
1749987854824998700,3.52999853515625,-0.03171199932694435,0.24167400598526,0.29222598671913147
1749987854835012000,3.54001220703125,0.12919899821281433,-0.05693399906158447,0.34404098987579346
1749987854845025800,3.55002587890625,0.18240000307559967,-0.40263399481773376,0.36768099665641785
1749987854855039200,3.560039306640625,0.12823499739170074,-0.7236940264701843,0.29503899812698364
1749987854865053000,3.570052978515625,0.10826999694108963,-0.894478976726532,0.20704500377178192
1749987854875066400,3.58006640625,0.11375000327825546,-0.9476619958877563,0.1977500021457672
1749987854885079800,3.590079833984375,0.06890899688005447,-0.9196580052375793,0.23111200332641602
1749987854895093500,3.600093505859375,0.0760049968957901,-0.8298969864845276,0.21898199617862701
1749987854905107000,3.61010693359375,0.11705199629068375,-0.7176120281219482,0.15699000656604767
1749987854915120400,3.620120361328125,0.12747900187969208,-0.6038410067558289,0.07649499922990799
1749987854925134000,3.630134033203125,0.14565399289131165,-0.5132079720497131,0.01120499987155199
1749987854935147500,3.6401474609375,0.18400700390338898,-0.4552589952945709,-0.02512899972498417
1749987854945161200,3.6501611328125,0.2325029969215393,-0.4337970018386841,-0.024891000241041183
1749987854955174700,3.660174560546875,0.2826640009880066,-0.4364219903945923,-0.011803999543190002
1749987854965188000,3.67018798828125,0.3220910131931305,-0.45614200830459595,0.004346000030636787
1749987854975201800,3.680201904296875,0.3526749908924103,-0.4796440005302429,0.01771399937570095
1749987854985215200,3.69021533203125,0.3772689998149872,-0.49435898661613464,0.03926299884915352
1749987854995228700,3.700228759765625,0.3933059871196747,-0.4999380111694336,0.07265400141477585
1749987855005242400,3.710242431640625,0.41028499603271484,-0.49712300300598145,0.1157120019197464
1749987855015255800,3.720255859375,0.43369999527931213,-0.4835070073604584,0.16452300548553467
1749987855025269500,3.73026953125,0.45517799258232117,-0.4602909982204437,0.203125
1749987855035283000,3.740282958984375,0.47216901183128357,-0.428182989358902,0.21606600284576416
1749987855045296400,3.75029638671875,0.4784190058708191,-0.395346999168396,0.20503099262714386
1749987855055310000,3.76031005859375,0.46943700313568115,-0.36882200837135315,0.17538900673389435
1749987855065323500,3.770323486328125,0.44935500621795654,-0.34581300616264343,0.13711899518966675
1749987855075337200,3.780337158203125,0.4091559946537018,-0.32096099853515625,0.10120400041341782
1749987855085350700,3.7903505859375,0.36499300599098206,-0.2964160144329071,0.06691700220108032
1749987855095364400,3.8003642578125,0.30150699615478516,-0.27148300409317017,0.031442999839782715
1749987855105377800,3.810377685546875,0.20589900016784668,-0.2374880015850067,-0.005681999959051609
1749987855115391200,3.82039111328125,0.1490129977464676,-0.16592100262641907,-0.07496699690818787
1749987855125404700,3.83040478515625,0.061430998146533966,-0.004342999774962664,-0.21633100509643555
1749987855135418400,3.84041845703125,-0.08403600007295609,0.22789999842643738,-0.3606419861316681
1749987855145431800,3.850431884765625,-0.11594299972057343,0.5240200161933899,-0.46772798895835876
1749987855155445200,3.8604453125,-0.039379000663757324,0.8010119795799255,-0.4513069987297058
1749987855165459000,3.870458984375,0.004631999880075455,0.932200014591217,-0.38192299008369446
1749987855175472400,3.880472412109375,0.025030000135302544,0.9575979709625244,-0.3536140024662018
1749987855185486000,3.890486083984375,0.0981070026755333,0.9207749962806702,-0.34705600142478943
1749987855195499500,3.90049951171875,0.1153239980340004,0.8364109992980957,-0.28945600986480713
1749987855205513200,3.91051318359375,0.09679199755191803,0.73648601770401,-0.1859789937734604
1749987855215526700,3.920526611328125,0.1042490005493164,0.630433976650238,-0.07057300209999084
1749987855225540400,3.930540283203125,0.10491500049829483,0.532820999622345,0.011473000049591064
1749987855235553800,3.9405537109375,0.0837400034070015,0.4440700113773346,0.04780400171875954
1749987855245567200,3.950567138671875,0.03653800114989281,0.36010900139808655,0.040477998554706573
1749987855255581000,3.960580810546875,-0.04125399887561798,0.28380799293518066,0.013547999784350395
1749987855265594400,3.970594482421875,-0.14645600318908691,0.2177249938249588,-0.023574000224471092
1749987855275608000,3.980608154296875,-0.27141499519348145,0.1788409948348999,-0.052824001759290695
1749987855285621500,3.99062158203125,-0.4038800001144409,0.15730899572372437,-0.07271400094032288
1749987855295635000,4.000635009765625,-0.5220460295677185,0.12367700040340424,-0.08868899941444397
1749987855305648600,4.010648681640625,-0.588358998298645,0.06542299687862396,-0.10472500324249268
1749987855315662000,4.020662109375,-0.5750110149383545,-0.012144999578595161,-0.11985299736261368
1749987855325675500,4.030675537109375,-0.4964640140533447,-0.09692899882793427,-0.11988800019025803
1749987855335689200,4.040689208984375,-0.3847219944000244,-0.1646910011768341,-0.08511999994516373
1749987855345703000,4.050702880859375,-0.26902300119400024,-0.231223002076149,-0.014082999899983406
1749987855355716400,4.06071630859375,-0.16797299683094025,-0.30475300550460815,0.08973599970340729
1749987855365729800,4.070729736328125,-0.09223999828100204,-0.3927539885044098,0.20931200683116913
1749987855375743200,4.0807431640625,-0.04346499964594841,-0.4899689853191376,0.3192099928855896
1749987855385757000,4.0907568359375,-0.015107999555766582,-0.576807975769043,0.397040992975235
1749987855395770400,4.100770263671875,-0.004360999912023544,-0.6430860161781311,0.42866000533103943
1749987855405783800,4.11078369140625,-0.013384999707341194,-0.6899790167808533,0.41175299882888794
1749987855415797500,4.120797607421875,-0.040778998285532,-0.7202159762382507,0.3589630126953125
1749987855425811000,4.13081103515625,-0.0808899998664856,-0.739808976650238,0.27280500531196594
1749987855435824400,4.140824462890625,-0.12006600201129913,-0.7655699849128723,0.15765400230884552
1749987855445838000,4.150838134765625,-0.15549300611019135,-0.8007360100746155,0.02626900002360344
1749987855455851800,4.160851806640625,-0.18677100539207458,-0.8274009823799133,-0.10865399986505508
1749987855465865000,4.170864990234375,-0.2220730036497116,-0.8277260065078735,-0.22827599942684174
1749987855475878700,4.180878662109375,-0.26908499002456665,-0.7976599931716919,-0.3068639934062958
1749987855485892000,4.19089208984375,-0.3342750072479248,-0.7502419948577881,-0.3467499911785126
1749987855495905800,4.20090576171875,-0.39932501316070557,-0.7043889760971069,-0.35395100712776184
1749987855505919500,4.21091943359375,-0.4422979950904846,-0.6731340289115906,-0.33468401432037354
1749987855515933000,4.220932861328125,-0.4443710148334503,-0.648065984249115,-0.3014569878578186
1749987855525946600,4.230946533203125,-0.40165698528289795,-0.6195819973945618,-0.2488269954919815
1749987855535960000,4.2409599609375,-0.3055559992790222,-0.5793039798736572,-0.17128899693489075
1749987855545973800,4.250973876953125,-0.16253100335597992,-0.5282449722290039,-0.06392800062894821
1749987855555987200,4.2609873046875,-0.046195998787879944,-0.48778200149536133,0.08280400186777115
1749987855566001000,4.2710009765625,0.036720000207424164,-0.4633300006389618,0.2777630090713501
1749987855576014300,4.281014404296875,0.09002900123596191,-0.48833000659942627,0.49285098910331726
1749987855586027800,4.29102783203125,0.06774599850177765,-0.5562149882316589,0.6790949702262878
1749987855596041500,4.30104150390625,0.01129200030118227,-0.5944989919662476,0.7414519786834717
1749987855606055000,4.311054931640625,0.007821000181138515,-0.5538100004196167,0.6352360248565674
1749987855616068600,4.321068603515625,0.030517999082803726,-0.46826601028442383,0.4446620047092438
1749987855626082000,4.33108203125,0.04905800148844719,-0.3725070059299469,0.2277829945087433
1749987855636095700,4.341095703125,0.02973400056362152,-0.29800599813461304,0.008311999961733818
1749987855646109200,4.351109130859375,-0.04733600094914436,-0.22882600128650665,-0.18775899708271027
1749987855656123000,4.361122802734375,-0.15860000252723694,-0.15816299617290497,-0.32673901319503784
1749987855666136300,4.37113623046875,-0.25169798731803894,-0.08202899992465973,-0.39667999744415283
1749987855676149800,4.381149658203125,-0.28761300444602966,0.005754999816417694,-0.407492995262146
1749987855686163500,4.39116357421875,-0.27088800072669983,0.10324600338935852,-0.3783479928970337
1749987855696177000,4.401177001953125,-0.2278829962015152,0.20077399909496307,-0.3144899904727936
1749987855706190300,4.4111904296875,-0.1743900030851364,0.29858899116516113,-0.22209499776363373
1749987855716204000,4.4212041015625,-0.11557000130414963,0.389290988445282,-0.11415000259876251
1749987855726217500,4.431217529296875,-0.05229699984192848,0.468874990940094,0.010768000036478043
1749987855736231200,4.441231201171875,0.01217500027269125,0.5425029993057251,0.16426900029182434
1749987855746244600,4.45124462890625,0.07741600275039673,0.6124500036239624,0.332720011472702
1749987855756258000,4.461258056640625,0.13746200501918793,0.66668301820755,0.49206098914146423
1749987855766271700,4.471271728515625,0.19041399657726288,0.6920030117034912,0.614171028137207
1749987855776285200,4.48128515625,0.23571400344371796,0.683463990688324,0.6697199940681458
1749987855786298600,4.491298583984375,0.27910301089286804,0.6508380174636841,0.6688939929008484
1749987855796312300,4.501312255859375,0.3052600026130676,0.6189929842948914,0.6355440020561218
1749987855806325800,4.51132568359375,0.2957310080528259,0.6052640080451965,0.5858790278434753
1749987855816339500,4.52133935546875,0.24111799895763397,0.5995799899101257,0.5300589799880981
1749987855826353200,4.531353271484375,0.15011799335479736,0.605118989944458,0.46178001165390015
1749987855836366300,4.541366455078125,0.02739099971950054,0.6262789964675903,0.390300989151001
1749987855846380300,4.55138037109375,-0.11490699648857117,0.6688089966773987,0.29691800475120544
1749987855856393700,4.561393798828125,-0.20237800478935242,0.7479720115661621,0.16238799691200256
1749987855866407200,4.5714072265625,-0.22664199769496918,0.8556730151176453,-0.01252800039947033
1749987855876420900,4.5814208984375,-0.19989199936389923,0.9934229850769043,-0.20219700038433075
1749987855886434300,4.591434326171875,-0.08776800334453583,1.1485049724578857,-0.38604599237442017
1749987855896447700,4.60144775390625,0.05236700177192688,1.2695709466934204,-0.4533829987049103
1749987855906461400,4.61146142578125,0.09820599853992462,1.3227529525756836,-0.3482770025730133
1749987855916475000,4.621474853515625,0.04568399861454964,1.3340150117874146,-0.1514420062303543
1749987855926488600,4.631488525390625,-0.05647499859333038,1.3290419578552246,0.07427699863910675
1749987855936502000,4.641501953125,-0.13909600675106049,1.3198920488357544,0.29347801208496094
1749987855946515700,4.651515625,-0.1430719941854477,1.3123170137405396,0.4886319935321808
1749987855956529200,4.661529052734375,-0.06810600310564041,1.2928489446640015,0.6256009936332703
1749987855966542600,4.67154248046875,0.04441099986433983,1.2623339891433716,0.6897820234298706
1749987855976556300,4.681556396484375,0.14796000719070435,1.2205580472946167,0.6928600072860718
1749987855986569700,4.69156982421875,0.2516140043735504,1.1599379777908325,0.6596969962120056
1749987855996583400,4.70158349609375,0.3546470105648041,1.0867329835891724,0.5894960165023804
1749987856006596900,4.711596923828125,0.35171300172805786,1.0319370031356812,0.5173739790916443
1749987856016610300,4.7216103515625,0.1756419986486435,0.9467920064926147,0.6358889937400818
1749987856026624000,4.7316240234375,0.21540500223636627,0.6389999985694885,0.9695469737052917
1749987856036637400,4.741637451171875,0.4825479984283447,0.17384099960327148,1.1556459665298462
1749987856046651100,4.751651123046875,0.3605639934539795,-0.3096959888935089,1.1822609901428223
1749987856056664600,4.76166455078125,0.14313900470733643,-0.7334920167922974,1.0955259799957275
1749987856066678000,4.771677978515625,0.0347680002450943,-0.963034987449646,0.8610339760780334
1749987856076691700,4.781691650390625,-0.02504800073802471,-0.8781350255012512,0.6706309914588928
1749987856086705200,4.791705078125,-0.07258299738168716,-0.5707949995994568,0.5349720120429993
1749987856096718800,4.80171875,-0.08239199966192245,-0.24894699454307556,0.4060789942741394
1749987856106732300,4.811732177734375,-0.0865349993109703,-0.08493799716234207,0.32186201214790344
1749987856116745700,4.821745849609375,-0.07676199823617935,-0.06756799668073654,0.3197390139102936
1749987856126759400,4.831759521484375,-0.05323699861764908,-0.14324599504470825,0.3915260136127472
1749987856136772900,4.84177294921875,-0.036715999245643616,-0.287106990814209,0.4237380027770996
1749987856146786300,4.851786376953125,-0.02503100037574768,-0.49438899755477905,0.36127200722694397
1749987856156800300,4.86180029296875,0.00902399979531765,-0.7269319891929626,0.2638620138168335
1749987856166813400,4.8718134765625,0.0601469986140728,-0.889726996421814,0.19461700320243835
1749987856176827100,4.8818271484375,0.11847499758005142,-0.9416890144348145,0.1530119925737381
1749987856186840800,4.8918408203125,0.15741199254989624,-0.9257339835166931,0.12636800110340118
1749987856196854300,4.901854248046875,0.19603200256824493,-0.8844940066337585,0.08296199887990952
1749987856206867700,4.91186767578125,0.24384699761867523,-0.8543750047683716,0.017145000398159027
1749987856216881400,4.92188134765625,0.2796719968318939,-0.8538399934768677,-0.06193999946117401
1749987856226895000,4.93189501953125,0.30463001132011414,-0.8786299824714661,-0.15023599565029144
1749987856236908500,4.941908447265625,0.328108012676239,-0.925341010093689,-0.24928399920463562
1749987856246922200,4.951922119140625,0.3361000120639801,-0.9849929809570312,-0.3654249906539917
1749987856256935700,4.961935791015625,0.3211689889431,-1.026582956314087,-0.4868130087852478
1749987856266949000,4.97194921875,0.2781960070133209,-1.0379589796066284,-0.589605987071991
1749987856276962800,4.981962890625,0.20499899983406067,-1.0213279724121094,-0.6558780074119568
1749987856286976300,4.991976318359375,0.0919170007109642,-0.9814010262489319,-0.6748030185699463
1749987856296990000,5.001989990234375,-0.039726998656988144,-0.9317089915275574,-0.6321629881858826
1749987856307003400,5.01200341796875,-0.06766200065612793,-0.9097700119018555,-0.5617859959602356
1749987856317017000,5.02201708984375,0.08747799694538116,-0.86980801820755,-0.662992000579834
1749987856327030500,5.032030517578125,0.035888999700546265,-0.6148899793624878,-0.9739909768104553
1749987856337044000,5.0420439453125,-0.23069199919700623,-0.19930799305438995,-1.1557519435882568
1749987856347057700,5.0520576171875,-0.10034099966287613,0.2409909963607788,-1.197029948234558
1749987856357071000,5.062071044921875,0.12071099877357483,0.6342840194702148,-1.1308369636535645
1749987856367084800,5.072084716796875,0.21972699463367462,0.8521289825439453,-0.9086909890174866
1749987856377098200,5.08209814453125,0.26254698634147644,0.7757470011711121,-0.7116940021514893
1749987856387111700,5.092111572265625,0.28607699275016785,0.4895220100879669,-0.5554370284080505
1749987856397125400,5.10212548828125,0.2700420022010803,0.1864829957485199,-0.4109579920768738
1749987856407138800,5.112138916015625,0.2594490051269531,0.036945998668670654,-0.326213002204895
1749987856417152300,5.12215234375,0.2476540058851242,0.03409000113606453,-0.3405210077762604
1749987856427166000,5.132166015625,0.23202499747276306,0.11812400072813034,-0.4310089945793152
1749987856437179400,5.142179443359375,0.22648100554943085,0.26075100898742676,-0.4859049916267395
1749987856447193000,5.152193115234375,0.22402499616146088,0.4626399874687195,-0.43175598978996277
1749987856457206500,5.16220654296875,0.1914139986038208,0.6792510151863098,-0.33691298961639404
1749987856467220200,5.17222021484375,0.13289199769496918,0.8068900108337402,-0.2819159924983978
1749987856477233700,5.182233642578125,0.0619410015642643,0.8087649941444397,-0.2748219966888428
1749987856487247000,5.1922470703125,0.012012000195682049,0.7329480051994324,-0.284404993057251
1749987856497260800,5.2022607421875,-0.02812200039625168,0.626259982585907,-0.27994099259376526
1749987856507274500,5.2122744140625,-0.08263999968767166,0.5227169990539551,-0.2548539936542511
1749987856517288000,5.222287841796875,-0.13691599667072296,0.43758198618888855,-0.20471300184726715
1749987856527301400,5.23230126953125,-0.18321099877357483,0.36372798681259155,-0.12131299823522568
1749987856537315000,5.242315185546875,-0.19968800246715546,0.3045809864997864,-0.0119439996778965
1749987856547328500,5.25232861328125,-0.17207199335098267,0.26505398750305176,0.11289899796247482
1749987856557342000,5.262342041015625,-0.12801699340343475,0.24524299800395966,0.22426700592041016
1749987856567355600,5.272355712890625,-0.09871099889278412,0.23750300705432892,0.28386399149894714
1749987856577369000,5.282369140625,-0.07998999953269958,0.21956199407577515,0.2830840051174164
1749987856587382800,5.2923828125,-0.077845998108387,0.17150099575519562,0.22902099788188934
1749987856597396200,5.302396240234375,-0.0751739963889122,0.08842200040817261,0.1438239961862564
1749987856607409700,5.31240966796875,-0.06141600012779236,-0.0068339998833835125,0.04444599896669388
1749987856617423400,5.32242333984375,-0.0339369997382164,-0.0808039978146553,-0.04846300184726715
1749987856627436800,5.332436767578125,0.014732000418007374,-0.12612700462341309,-0.13089899718761444
1749987856637450200,5.3424501953125,0.062095001339912415,-0.1581069976091385,-0.19716699421405792
1749987856647464000,5.3524638671875,0.09673000127077103,-0.18056200444698334,-0.2477560043334961
1749987856657477600,5.3624775390625,0.12699200212955475,-0.21046599745750427,-0.2863749861717224
1749987856667491000,5.372490966796875,0.15924599766731262,-0.2659290134906769,-0.32633599638938904
1749987856677504500,5.38250439453125,0.18900799751281738,-0.35243698954582214,-0.3732450008392334
1749987856687518200,5.392518310546875,0.21441300213336945,-0.467866986989975,-0.4308199882507324
1749987856697531600,5.40253173828125,0.21973299980163574,-0.6102010011672974,-0.49960899353027344
1749987856707545000,5.412545166015625,0.18210700154304504,-0.7900859713554382,-0.5952450037002563
1749987856717558800,5.422558837890625,0.08452200144529343,-0.9768339991569519,-0.7049540281295776
1749987856727572200,5.432572265625,-0.06664799898862839,-1.0901590585708618,-0.7787389755249023
1749987856737585700,5.442585693359375,-0.2389809936285019,-1.086648941040039,-0.7587260007858276
1749987856747599400,5.452599365234375,-0.3688659965991974,-1.0187159776687622,-0.6630370020866394
1749987856757612800,5.46261279296875,-0.44289499521255493,-0.9407489895820618,-0.5167030096054077
1749987856767626500,5.47262646484375,-0.4612570106983185,-0.8615829944610596,-0.341280996799469
1749987856777640000,5.482639892578125,-0.4241679906845093,-0.793271005153656,-0.17623500525951385
1749987856787653600,5.492653564453125,-0.3554230034351349,-0.7490260004997253,-0.0283649992197752
1749987856797667000,5.5026669921875,-0.27220800518989563,-0.7275500297546387,0.10589200258255005
1749987856807680800,5.5126806640625,-0.16579599678516388,-0.7108799815177917,0.21687400341033936
1749987856817694200,5.522694091796875,-0.034251000732183456,-0.6792849898338318,0.27954599261283875
1749987856827708000,5.5327080078125,0.09160599857568741,-0.6320440173149109,0.2616249918937683
1749987856837721300,5.542721435546875,0.16566899418830872,-0.5975729823112488,0.18427200615406036
1749987856847735000,5.552735107421875,0.19950899481773376,-0.5904899835586548,0.0701650008559227
1749987856857748500,5.56274853515625,0.21196000277996063,-0.6210240125656128,-0.058469999581575394
1749987856867762200,5.57276220703125,0.21841000020503998,-0.6932709813117981,-0.16495400667190552
1749987856877775600,5.582775634765625,0.21086399257183075,-0.7716270089149475,-0.23737099766731262
1749987856887789000,5.5927890625,0.16102999448776245,-0.8080080151557922,-0.291922003030777
1749987856897802800,5.602802734375,-0.021276000887155533,-0.7794610261917114,-0.37731701135635376
1749987856907816200,5.612816162109375,-0.35776299238204956,-0.6995440125465393,-0.5120329856872559
1749987856917829600,5.62282958984375,-0.5906890034675598,-0.6077110171318054,-0.6597719788551331
1749987856927843300,5.63284326171875,-0.691923975944519,-0.5162410140037537,-0.7886899709701538
1749987856937856800,5.642856689453125,-0.7120040059089661,-0.4276140034198761,-0.8672440052032471
1749987856947870500,5.652870361328125,-0.6730960011482239,-0.33979201316833496,-0.8862890005111694
1749987856957884000,5.6628837890625,-0.611515998840332,-0.24406099319458008,-0.8520439863204956
1749987856967897600,5.672897705078125,-0.5528659820556641,-0.129488006234169,-0.7613779902458191
1749987856977911000,5.6829111328125,-0.5305269956588745,-0.00660800002515316,-0.6064209938049316
1749987856987924500,5.692924560546875,-0.5526229739189148,0.11403799802064896,-0.3939650058746338
1749987856997938200,5.702938232421875,-0.5843459963798523,0.25569599866867065,-0.15128099918365479
1749987857007951600,5.71295166015625,-0.586995005607605,0.45042499899864197,0.0934939980506897
1749987857017965300,5.72296533203125,-0.5054129958152771,0.7082340121269226,0.2776319980621338
1749987857027978800,5.732978759765625,-0.3207570016384125,0.9034339785575867,0.38031500577926636
1749987857037992200,5.7429921875,-0.07930699735879898,0.9316530227661133,0.39357098937034607
1749987857048006000,5.753005859375,0.10555200278759003,0.8837379813194275,0.3369469940662384
1749987857058019300,5.763019287109375,0.20600299537181854,0.8494939804077148,0.23871999979019165
1749987857068032800,5.77303271484375,0.25316500663757324,0.8363350033760071,0.12336400151252747
1749987857078046500,5.78304638671875,0.24901099503040314,0.8300210237503052,0.028206000104546547
1749987857088060000,5.793059814453125,0.1984429955482483,0.8329520225524902,-0.040449999272823334
1749987857098073300,5.8030732421875,0.11010400205850601,0.8513230085372925,-0.09077800065279007
1749987857108087000,5.813087158203125,0.0008060000254772604,0.8720830082893372,-0.1267630010843277
1749987857118100500,5.8231005859375,-0.10571999847888947,0.8904160261154175,-0.15012499690055847
1749987857128114200,5.8331142578125,-0.18877199292182922,0.9184889793395996,-0.1599390059709549
1749987857138127600,5.843127685546875,-0.2412949949502945,0.9795089960098267,-0.16740700602531433
1749987857148141300,5.853141357421875,-0.28810200095176697,1.0712300539016724,-0.17644700407981873
1749987857158155000,5.863155029296875,-0.327335000038147,1.185533046722412,-0.1747400015592575
1749987857168168400,5.87316845703125,-0.34742000699043274,1.314771056175232,-0.17688600718975067
1749987857178182100,5.88318212890625,-0.33992999792099,1.4398679733276367,-0.17496399581432343
1749987857188195300,5.8931953125,-0.27679601311683655,1.531838059425354,-0.15114399790763855
1749987857198209000,5.903208984375,-0.07497599720954895,1.5805150270462036,-0.06377299875020981
1749987857208222500,5.913222412109375,0.28312399983406067,1.5824259519577026,0.11963900178670883
1749987857218236200,5.923236083984375,0.5303390026092529,1.5487109422683716,0.35115599632263184
1749987857228249900,5.933249755859375,0.6120399832725525,1.4841350317001343,0.5815730094909668
1749987857238263300,5.94326318359375,0.5871239900588989,1.3989559412002563,0.7678220272064209
1749987857248277000,5.953277099609375,0.5183489918708801,1.2866309881210327,0.904242992401123
1749987857258290400,5.96329052734375,0.47533300518989563,1.135416030883789,1.0112090110778809
1749987857268304100,5.97330419921875,0.5041260123252869,0.9267200231552124,1.1034859418869019
1749987857278317600,5.983317626953125,0.5847489833831787,0.6971309781074524,1.1563669443130493
1749987857288331000,5.9933310546875,0.5907660126686096,0.48875099420547485,1.1737070083618164
1749987857298344700,6.0033447265625,0.586575984954834,0.29089099168777466,1.0798089504241943
1749987857308358100,6.013358154296875,0.5442150235176086,0.10527800023555756,0.8875330090522766
1749987857318371600,6.02337158203125,0.43958601355552673,-0.11025000363588333,0.7177519798278809
1749987857328385300,6.03338525390625,0.2674570083618164,-0.31568101048469543,0.588886022567749
1749987857338398700,6.043398681640625,0.11525999754667282,-0.4476560056209564,0.5215460062026978
1749987857348412400,6.053412353515625,0.08046100288629532,-0.523485004901886,0.5012580156326294
1749987857358425900,6.06342578125,0.06730499863624573,-0.5876590013504028,0.4844520092010498
1749987857368439600,6.073439453125,0.03022100031375885,-0.6481279730796814,0.46692100167274475
1749987857378453000,6.083452880859375,0.009491999633610249,-0.6809880137443542,0.41854798793792725
1749987857388466400,6.093466552734375,0.03894200176000595,-0.6790580153465271,0.33343398571014404
1749987857398480100,6.103480224609375,0.10547000169754028,-0.6596999764442444,0.21707500517368317
1749987857408493600,6.11349365234375,0.18550699949264526,-0.6304230093955994,0.09251199662685394
1749987857418507300,6.12350732421875,0.24749299883842468,-0.6039360165596008,-0.008476999588310719
1749987857428520700,6.133520751953125,0.27192699909210205,-0.5999230146408081,-0.06430599838495255
1749987857438534100,6.1435341796875,0.27034199237823486,-0.6296550035476685,-0.07462099939584732
1749987857448547800,6.1535478515625,0.26658400893211365,-0.689640998840332,-0.050631001591682434
1749987857458561300,6.163561279296875,0.2637690007686615,-0.7629780173301697,-0.015987999737262726
1749987857468574700,6.17357470703125,0.26164400577545166,-0.8279029726982117,0.03534799814224243
1749987857478588400,6.18358837890625,0.25911399722099304,-0.877481997013092,0.09269899874925613
1749987857488601900,6.193601806640625,0.2545369863510132,-0.9092910289764404,0.1468150019645691
1749987857498615600,6.203615478515625,0.23497800529003143,-0.9264389872550964,0.18749000132083893
1749987857508629000,6.21362890625,0.19787800312042236,-0.9306449890136719,0.18842700123786926
1749987857518642700,6.223642578125,0.14431999623775482,-0.9216859936714172,0.14576099812984467
1749987857528656100,6.23365625,0.09591899812221527,-0.9002810120582581,0.08136600255966187
1749987857538669600,6.243669677734375,0.05630499869585037,-0.8662390112876892,0.010250000283122063
1749987857548683300,6.253683349609375,-0.0037330000195652246,-0.813785970211029,-0.07716000080108643
1749987857558696700,6.26369677734375,-0.1058410033583641,-0.7218980193138123,-0.19293099641799927
1749987857568710100,6.273710205078125,-0.2559700012207031,-0.5666009783744812,-0.34856200218200684
1749987857578723800,6.283723876953125,-0.39899399876594543,-0.37328198552131653,-0.5288680195808411
1749987857588737300,6.2937373046875,-0.39663898944854736,-0.17604200541973114,-0.7218909859657288
1749987857598751000,6.3037509765625,-0.3394649922847748,0.01648000068962574,-0.8227429986000061
1749987857608764400,6.313764404296875,-0.23779800534248352,0.18109700083732605,-0.7854380011558533
1749987857618777900,6.32377783203125,-0.11343199759721756,0.3128550052642822,-0.6685090065002441
1749987857628791600,6.33379150390625,0.021748999133706093,0.42081600427627563,-0.523826003074646
1749987857638805000,6.343804931640625,0.10218600183725357,0.5009260177612305,-0.42799898982048035
1749987857648818400,6.353818359375,0.08136499673128128,0.5231980085372925,-0.3768109977245331
1749987857658832100,6.36383203125,0.07249800115823746,0.5009199976921082,-0.33707499504089355
1749987857668845600,6.373845458984375,0.09605000168085098,0.45570600032806396,-0.31262800097465515
1749987857678859000,6.38385888671875,0.11380700021982193,0.39061400294303894,-0.2769170105457306
1749987857688872700,6.393872802734375,0.10822000354528427,0.3211739957332611,-0.22728000581264496
1749987857698886100,6.40388623046875,0.09410999715328217,0.27136799693107605,-0.1728219985961914
1749987857708899600,6.413899658203125,0.0754150003194809,0.24301500618457794,-0.12101899832487106
1749987857718913300,6.423913330078125,0.05701199918985367,0.23201699554920197,-0.0778530016541481
1749987857728926700,6.4339267578125,0.054740000516176224,0.238413006067276,-0.04440600052475929
1749987857738940400,6.4439404296875,0.06971299648284912,0.2664499878883362,-0.022244999185204506
1749987857748953900,6.453953857421875,0.08494699746370316,0.3140999972820282,-0.013389999978244305
1749987857758967300,6.46396728515625,0.09879499673843384,0.3621149957180023,-0.01294699963182211
1749987857768981200,6.473981201171875,0.11715199798345566,0.3906309902667999,0.0029849999118596315
1749987857778994400,6.483994384765625,0.13873200118541718,0.39473798871040344,0.02811799943447113
1749987857789008100,6.494008056640625,0.14597299695014954,0.37778401374816895,0.055948998779058456
1749987857799021600,6.504021484375,0.10458400100469589,0.3458330035209656,0.0786610022187233
1749987857809035300,6.51403515625,-0.07511600106954575,0.3033539950847626,0.09485100209712982
1749987857819049000,6.524049072265625,-0.33207398653030396,0.25328099727630615,0.11687000095844269
1749987857829062100,6.534062255859375,-0.4851590096950531,0.18181100487709045,0.14604100584983826
1749987857839075800,6.544075927734375,-0.4925140142440796,0.09411700069904327,0.17173899710178375
1749987857849089300,6.55408935546875,-0.40448200702667236,0.024153999984264374,0.1928730010986328
1749987857859103000,6.56410302734375,-0.28547000885009766,-0.021153999492526054,0.21163199841976166
1749987857869116700,6.57411669921875,-0.17148999869823456,-0.04763299971818924,0.21935999393463135
1749987857879129900,6.5841298828125,-0.07698500156402588,-0.07328499853610992,0.22196699678897858
1749987857889143600,6.5941435546875,-0.016194000840187073,-0.11921600252389908,0.2287140041589737
1749987857899157000,6.604156982421875,0.002303000073879957,-0.1960580050945282,0.25332900881767273
1749987857909170400,6.61417041015625,-0.015650000423192978,-0.3069469928741455,0.28285300731658936
1749987857919184400,6.624184326171875,-0.05319000035524368,-0.43364599347114563,0.3021939992904663
1749987857929197800,6.63419775390625,-0.10550300031900406,-0.5757380127906799,0.28995800018310547
1749987857939211500,6.64421142578125,-0.17218999564647675,-0.6876879930496216,0.24863000214099884
1749987857949225000,6.654224853515625,-0.25331199169158936,-0.7132760286331177,0.18026100099086761
1749987857959238400,6.66423828125,-0.34508800506591797,-0.682096004486084,0.09134499728679657
1749987857969252000,6.674252197265625,-0.41148701310157776,-0.6378679871559143,-0.006411000154912472
1749987857979265500,6.684265625,-0.4264259934425354,-0.596422016620636,-0.10051299631595612
1749987857989279000,6.694279052734375,-0.4054970145225525,-0.5649240016937256,-0.18064799904823303
1749987857999292700,6.704292724609375,-0.37796398997306824,-0.5436850190162659,-0.2547149956226349
1749987858009306000,6.71430615234375,-0.35823601484298706,-0.5333979725837708,-0.3239929974079132
1749987858019319800,6.72431982421875,-0.34985899925231934,-0.534745991230011,-0.3893750011920929
1749987858029333200,6.734333251953125,-0.3619920015335083,-0.5376729965209961,-0.44200000166893005
1749987858039347000,6.744346923828125,-0.40336599946022034,-0.5383570194244385,-0.47567200660705566
1749987858049360400,6.7543603515625,-0.4463610053062439,-0.5369240045547485,-0.4910539984703064
1749987858059374000,6.7643740234375,-0.45687898993492126,-0.5278609991073608,-0.48861101269721985
1749987858069387500,6.774387451171875,-0.4563550055027008,-0.5066919922828674,-0.48723098635673523
1749987858079401000,6.78440087890625,-0.4665350019931793,-0.47654101252555847,-0.47425198554992676
1749987858089414700,6.79441455078125,-0.4809350073337555,-0.4382460117340088,-0.43960800766944885
1749987858099428000,6.804427978515625,-0.4582340121269226,-0.38839399814605713,-0.3878229856491089
1749987858109441500,6.814441650390625,-0.2922070026397705,-0.32361000776290894,-0.33483898639678955
1749987858119455200,6.824455322265625,-0.02492699958384037,-0.24503399431705475,-0.306753009557724
1749987858129468700,6.83446875,0.16029299795627594,-0.141184002161026,-0.3108440041542053
1749987858139482000,6.844482177734375,0.21634100377559662,-0.01947600021958351,-0.33908000588417053
1749987858149495800,6.854495849609375,0.19075800478458405,0.08573900163173676,-0.37839600443840027
1749987858159509200,6.86450927734375,0.13524000346660614,0.1611029952764511,-0.4227460026741028
1749987858169522700,6.874522705078125,0.07071500271558762,0.20747600495815277,-0.45375698804855347
1749987858179536400,6.884536376953125,0.010603000409901142,0.24495799839496613,-0.4643920063972473
1749987858189549800,6.8945498046875,-0.03659199923276901,0.30316299200057983,-0.4584070146083832
1749987858199563300,6.904563232421875,-0.06189800053834915,0.3925020098686218,-0.4453830122947693
1749987858209577000,6.914576904296875,-0.05277499929070473,0.5086039900779724,-0.4313249886035919
1749987858219590400,6.92459033203125,-0.011381999589502811,0.6349380016326904,-0.4213550090789795
1749987858229604000,6.93460400390625,0.051291000097990036,0.7780809998512268,-0.4020789861679077
1749987858239617500,6.944617431640625,0.1271599978208542,0.900065004825592,-0.3805919885635376
1749987858249631200,6.95463134765625,0.21345800161361694,0.9478520154953003,-0.3559330105781555
1749987858259644700,6.964644775390625,0.31020399928092957,0.9487969875335693,-0.32203200459480286
1749987858269658000,6.974658203125,0.3859420120716095,0.9435520172119141,-0.2792690098285675
1749987858279671800,6.984671875,0.40975698828697205,0.9438869953155518,-0.23165099322795868
1749987858289685200,6.994685302734375,0.38884100317955017,0.9492629766464233,-0.18947100639343262
1749987858299699000,7.004698974609375,0.345102995634079,0.9521579742431641,-0.14787299931049347
1749987858309712400,7.01471240234375,0.2940860092639923,0.9494330286979675,-0.1084659993648529
1749987858319725800,7.024725830078125,0.24235600233078003,0.936335027217865,-0.06966199725866318
1749987858329739500,7.034739501953125,0.19171400368213654,0.9100850224494934,-0.02527499943971634
1749987858339753000,7.0447529296875,0.14500699937343597,0.8487359881401062,0.046560999006032944
1749987858349766700,7.0547666015625,0.07891199737787247,0.7193379998207092,0.18958400189876556
1749987858359780000,7.064780029296875,0.02507700026035309,0.5313529968261719,0.39338600635528564
1749987858369793500,7.07479345703125,0.020764000713825226,0.31067198514938354,0.6147180199623108
1749987858379807200,7.08480712890625,0.08926700055599213,0.11094900220632553,0.8016800284385681
1749987858389820700,7.094820556640625,0.26633399724960327,-0.041547998785972595,0.9358630180358887
1749987858399833900,7.104833740234375,0.48121699690818787,-0.14911800622940063,1.0116690397262573
1749987858409847600,7.11484765625,0.6327580213546753,-0.22898100316524506,1.0356669425964355
1749987858419861200,7.124861328125,0.734453022480011,-0.33858299255371094,1.0622080564498901
1749987858429874700,7.134874755859375,0.7901440262794495,-0.5396550297737122,1.106552004814148
1749987858439888400,7.144888427734375,0.625793993473053,-0.7928979992866516,1.1141910552978516
1749987858449901800,7.15490185546875,0.01196299958974123,-0.9552680253982544,1.0360909700393677
1749987858459915300,7.164915283203125,-0.7089449763298035,-0.9399809837341309,0.858368992805481
1749987858469929000,7.174928955078125,-1.0278639793395996,-0.8243849873542786,0.6729040145874023
1749987858479942400,7.1849423828125,-0.9573879837989807,-0.6860039830207825,0.47792500257492065
1749987858489955800,7.194955810546875,-0.7138760089874268,-0.5820670127868652,0.2506909966468811
1749987858499969300,7.20496923828125,-0.383076012134552,-0.5047919750213623,0.055688001215457916
1749987858509983000,7.21498291015625,-0.07987400144338608,-0.4284130036830902,-0.0840969979763031
1749987858519996700,7.22499658203125,0.16658200323581696,-0.3668000102043152,-0.14938299357891083
1749987858530010000,7.235010009765625,0.35576701164245605,-0.3330869972705841,-0.15015199780464172
1749987858540023600,7.2450234375,0.4969629943370819,-0.3352310061454773,-0.1251019984483719
1749987858550037200,7.255037353515625,0.587319016456604,-0.3712950050830841,-0.09459000080823898
1749987858560050700,7.26505078125,0.6371939778327942,-0.42108801007270813,-0.052368998527526855
1749987858570064100,7.275064208984375,0.6582589745521545,-0.4722859859466553,0.00017800000205170363
1749987858580077800,7.285077880859375,0.6474660038948059,-0.5207780003547668,0.05441100150346756
1749987858590091300,7.29509130859375,0.5726889967918396,-0.5557420253753662,0.09435000270605087
1749987858600105000,7.30510498046875,0.400178998708725,-0.5657079815864563,0.09578300267457962
1749987858610118400,7.315118408203125,0.19104799628257751,-0.5543370246887207,0.06123900040984154
1749987858620131800,7.3251318359375,0.07373400032520294,-0.5351510047912598,0.018856000155210495
1749987858630145500,7.3351455078125,0.05528400093317032,-0.4947749972343445,-0.031456999480724335
1749987858640159000,7.345158935546875,0.08725900202989578,-0.4102489948272705,-0.10280200093984604
1749987858650172700,7.355172607421875,0.1405470073223114,-0.2610340118408203,-0.22059400379657745
1749987858660185900,7.365185791015625,0.17079199850559235,-0.07839100062847137,-0.3575409948825836
1749987858670199600,7.375199462890625,0.17596299946308136,0.11515899747610092,-0.4898270070552826
1749987858680213200,7.385213134765625,0.15194299817085266,0.2810460031032562,-0.6005079746246338
1749987858690226700,7.395226806640625,0.052921000868082047,0.3949219882488251,-0.6924369931221008
1749987858700240100,7.405240234375,-0.07424400001764297,0.45786499977111816,-0.7514230012893677
1749987858710253600,7.415253662109375,-0.1582919955253601,0.4810220003128052,-0.7742239832878113
1749987858720267000,7.42526708984375,-0.2307009994983673,0.5285339951515198,-0.8034449815750122
1749987858730281000,7.435281005859375,-0.2900330126285553,0.6695899963378906,-0.8479549884796143
1749987858740294100,7.445294189453125,-0.15522000193595886,0.8657519817352295,-0.849852979183197
1749987858750307800,7.455307861328125,0.40490901470184326,0.9773520231246948,-0.7635840177536011
1749987858760321500,7.465321533203125,1.0536799430847168,0.917680025100708,-0.5800290107727051
1749987858770335000,7.4753349609375,1.2960549592971802,0.7652369737625122,-0.3937300145626068
1749987858780348400,7.485348388671875,1.1665140390396118,0.5904819965362549,-0.20893600583076477
1749987858790361900,7.49536181640625,0.8875619769096375,0.442315012216568,-0.007854999974370003
1749987858800375600,7.50537548828125,0.5432209968566895,0.3106920123100281,0.15013599395751953
1749987858810389000,7.515388916015625,0.23914599418640137,0.1831119954586029,0.256164014339447
1749987858820402400,7.52540234375,-0.004048999864608049,0.08283600211143494,0.3006350100040436
1749987858830416100,7.535416015625,-0.19030599296092987,0.014680000022053719,0.3006500005722046
1749987858840429600,7.5454296875,-0.34103599190711975,-0.02317900024354458,0.2970240116119385
1749987858850443300,7.555443359375,-0.47081300616264343,-0.030098000541329384,0.30976399779319763
1749987858860456700,7.565456787109375,-0.6010029911994934,-0.020183999091386795,0.32729798555374146
1749987858870470100,7.57547021484375,-0.7201589941978455,-0.005166000220924616,0.3496899902820587
1749987858880483800,7.58548388671875,-0.7883489727973938,0.005442999769002199,0.3700929880142212
1749987858890497300,7.595497314453125,-0.7454730272293091,-0.002474999986588955,0.39752501249313354
1749987858900511000,7.605510986328125,-0.5633699893951416,-0.03837199881672859,0.46026700735092163
1749987858910524400,7.6155244140625,-0.32000499963760376,-0.08604999631643295,0.5592389702796936
1749987858920537900,7.625537841796875,-0.15602199733257294,-0.11825600266456604,0.6576340198516846
1749987858930551600,7.635551513671875,-0.083126001060009,-0.1629199981689453,0.7439470291137695
1749987858940565000,7.64556494140625,-0.05245500057935715,-0.2336380034685135,0.8013780117034912
1749987858950578700,7.65557861328125,-0.024788999930024147,-0.3135159909725189,0.8112509846687317
1749987858960592100,7.665592041015625,-0.00955200009047985,-0.3855910003185272,0.7644969820976257
1749987858970605600,7.67560546875,-0.04122399911284447,-0.47185298800468445,0.687254011631012
1749987858980619000,7.685618896484375,-0.14828400313854218,-0.5827450156211853,0.6051570177078247
1749987858990632700,7.6956328125,-0.3378080129623413,-0.6680120229721069,0.5157930254936218
1749987859000646100,7.705646240234375,-0.5812379717826843,-0.6733369827270508,0.38096699118614197
1749987859010659800,7.715659912109375,-0.8232259750366211,-0.6294580101966858,0.224263995885849
1749987859020673300,7.72567333984375,-0.980105996131897,-0.5746889710426331,0.08083400130271912
1749987859030686700,7.735686767578125,-0.984495997428894,-0.5299180150032043,-0.03429200127720833
1749987859040700400,7.745700439453125,-0.9007940292358398,-0.4957599937915802,-0.12026499956846237
1749987859050713900,7.7557138671875,-0.8097000122070312,-0.4748840034008026,-0.19223499298095703
1749987859060727600,7.7657275390625,-0.7083489894866943,-0.46992799639701843,-0.2597709894180298
1749987859070741000,7.775740966796875,-0.5994960069656372,-0.48614001274108887,-0.31782299280166626
1749987859080754400,7.78575439453125,-0.4963879883289337,-0.5186449885368347,-0.3626669943332672
1749987859090768100,7.79576806640625,-0.3921299874782562,-0.5450959801673889,-0.38922199606895447
1749987859100781600,7.805781494140625,-0.29269900918006897,-0.5387409925460815,-0.39648300409317017
1749987859110795000,7.815794921875,-0.22036799788475037,-0.4993709921836853,-0.3931620121002197
1749987859120808700,7.82580859375,-0.19506500661373138,-0.44112399220466614,-0.3868669867515564
1749987859130822100,7.835822265625,-0.21696099638938904,-0.37811800837516785,-0.38846999406814575
1749987859140835600,7.845835693359375,-0.26346299052238464,-0.32241401076316833,-0.4026489853858948
1749987859150849300,7.855849365234375,-0.2951729893684387,-0.2827039957046509,-0.42969900369644165
1749987859160862700,7.86586279296875,-0.284278005361557,-0.25591498613357544,-0.46423500776290894
1749987859170876400,7.87587646484375,-0.2364879995584488,-0.2371010035276413,-0.5008029937744141
1749987859180889900,7.885889892578125,-0.19915099442005157,-0.2242860049009323,-0.5197769999504089
1749987859190903300,7.8959033203125,-0.20669400691986084,-0.21071100234985352,-0.5029069781303406
1749987859200916700,7.905916748046875,-0.2471410036087036,-0.1930219978094101,-0.45825400948524475
1749987859210930200,7.91593017578125,-0.2990350127220154,-0.18595600128173828,-0.3984619975090027
1749987859220944000,7.92594384765625,-0.3300800025463104,-0.1864980012178421,-0.33856201171875
1749987859230957300,7.935957275390625,-0.3183960020542145,-0.1702670007944107,-0.2954300045967102
1749987859240970800,7.945970703125,-0.27642399072647095,-0.11923100054264069,-0.26718100905418396
1749987859250984400,7.955984375,-0.24150599539279938,-0.036965999752283096,-0.2496899962425232
1749987859260998100,7.965998046875,-0.23183099925518036,0.07800699770450592,-0.23786699771881104
1749987859271011600,7.976011474609375,-0.22390000522136688,0.2361920028924942,-0.2374120056629181
1749987859281025000,7.98602490234375,-0.18314200639724731,0.4304800033569336,-0.25045499205589294
1749987859291038700,7.996038818359375,-0.08228500187397003,0.6025750041007996,-0.25258898735046387
1749987859301052200,8.00605224609375,0.0867609977722168,0.6889820098876953,-0.20820100605487823
1749987859311065600,8.016065673828125,0.29357001185417175,0.723056972026825,-0.1219319999217987
1749987859321079300,8.026079345703126,0.4530160129070282,0.737293004989624,-0.02674099989235401
1749987859331092700,8.0360927734375,0.48659199476242065,0.7493199706077576,0.06709499657154083
1749987859341106200,8.046106201171876,0.4519689977169037,0.7698590159416199,0.15831899642944336
1749987859351120000,8.056119873046875,0.4243989884853363,0.7943999767303467,0.24776999652385712
1749987859361133300,8.06613330078125,0.40425801277160645,0.8340160250663757,0.33197200298309326
1749987859371147000,8.07614697265625,0.3850809931755066,0.8973760008811951,0.40776100754737854
1749987859381160400,8.086160400390625,0.35473600029945374,0.977878987789154,0.47777798771858215
1749987859391174000,8.096173828125,0.29087600111961365,1.0599030256271362,0.5325139760971069
1749987859401187600,8.1061875,0.20824800431728363,1.121819019317627,0.5630239844322205
1749987859411201000,8.116200927734376,0.13486699759960175,1.1509840488433838,0.5813660025596619
1749987859421214500,8.12621435546875,0.09652899950742722,1.1367130279541016,0.6224070191383362
1749987859431228200,8.136228271484375,0.10416600108146667,1.0810500383377075,0.7162129878997803
1749987859441241600,8.14624169921875,0.143218994140625,1.0031930208206177,0.852741003036499
1749987859451255300,8.15625537109375,0.1836560070514679,0.9091119766235352,1.0143159627914429
1749987859461268700,8.166268798828124,0.21274900436401367,0.7887089848518372,1.1825859546661377
1749987859471282200,8.1762822265625,0.22925600409507751,0.6492900252342224,1.3285670280456543
1749987859481295600,8.186295654296876,0.28140801191329956,0.5177090167999268,1.4092140197753906
1749987859491309300,8.196309326171875,0.37816300988197327,0.41997599601745605,1.4086099863052368
1749987859501322800,8.20632275390625,0.41566500067710876,0.35270899534225464,1.3786309957504272
1749987859511336200,8.216336181640624,0.27826300263404846,0.28631699085235596,1.3861229419708252
1749987859521350000,8.226349853515625,0.0855339989066124,0.15709899365901947,1.3479349613189697
1749987859531363000,8.236363037109374,-0.0805869996547699,0.006862999871373177,1.1250829696655273
1749987859541376800,8.246376708984375,-0.23793700337409973,-0.09193699806928635,0.7873790264129639
1749987859551390500,8.256390380859376,-0.3211689889431,-0.1492069959640503,0.46748000383377075
1749987859561403600,8.266403564453125,-0.3215470016002655,-0.19521300494670868,0.2177550047636032
1749987859571417600,8.27641748046875,-0.19230599701404572,-0.2154189944267273,0.06464499980211258
1749987859581431000,8.28643115234375,-0.0853390023112297,-0.21894200146198273,-0.008744999766349792
1749987859591444500,8.296444580078125,-0.05550200119614601,-0.23408399522304535,-0.06120000034570694
1749987859601458000,8.3064580078125,-0.0064130001701414585,-0.2885890007019043,-0.09607800096273422
1749987859611471400,8.316471435546875,0.06433200091123581,-0.3899739980697632,-0.11057300120592117
1749987859621484800,8.32648486328125,0.16938799619674683,-0.5219029784202576,-0.09452400356531143
1749987859631498500,8.33649853515625,0.26339301466941833,-0.6677960157394409,-0.05512399971485138
1749987859641512000,8.346511962890625,0.3029710054397583,-0.7993869781494141,0.0007190000033006072
1749987859651525600,8.356525634765624,0.32326799631118774,-0.8718429803848267,0.06869799643754959
1749987859661539000,8.3665390625,0.32067200541496277,-0.8842849731445312,0.13476499915122986
1749987859671552500,8.376552490234374,0.27869200706481934,-0.8620619773864746,0.1705079972743988
1749987859681566200,8.386566162109375,0.21529200673103333,-0.8221920132637024,0.1661590039730072
1749987859691579600,8.39657958984375,0.16342300176620483,-0.7850599884986877,0.13350099325180054
1749987859701593000,8.406593017578125,0.13067500293254852,-0.7643579840660095,0.08273100107908249
1749987859711606800,8.416606689453126,0.12292700260877609,-0.7629280090332031,0.009298999793827534
1749987859721620200,8.4266201171875,0.13441400229930878,-0.7645279765129089,-0.10792899876832962
1749987859731633700,8.436633544921875,0.14188000559806824,-0.7486979961395264,-0.27717700600624084
1749987859741647400,8.4466474609375,0.13591399788856506,-0.7097949981689453,-0.4736120104789734
1749987859751660800,8.456660888671875,0.13478000462055206,-0.6411939859390259,-0.6711090207099915
1749987859761674500,8.466674560546876,0.13898000121116638,-0.5350459814071655,-0.8547099828720093
1749987859771688000,8.47668798828125,0.13091200590133667,-0.3993070125579834,-1.0066980123519897
1749987859781701400,8.486701416015626,0.073062002658844,-0.25374799966812134,-1.0999410152435303
1749987859791715000,8.496715087890625,-0.02850699983537197,-0.1295129954814911,-1.1339930295944214
1749987859801728500,8.506728515625,-0.06896500289440155,-0.030827999114990234,-1.1590650081634521
1749987859811742200,8.5167421875,0.06811200082302094,0.07614900171756744,-1.2365189790725708
1749987859821755600,8.526755615234375,0.24462099373340607,0.23975099623203278,-1.265792965888977
1749987859831768800,8.536768798828126,0.3666749894618988,0.3979569971561432,-1.0861200094223022
1749987859841782500,8.546782470703125,0.46144500374794006,0.47485101222991943,-0.7663609981536865
1749987859851796000,8.5567958984375,0.48458799719810486,0.4827359914779663,-0.4407060146331787
1749987859861809700,8.5668095703125,0.44889798760414124,0.46056899428367615,-0.17749999463558197
1749987859871823000,8.576822998046875,0.31168198585510254,0.40918898582458496,-0.013159999623894691
1749987859881836500,8.58683642578125,0.22655199468135834,0.3442690074443817,0.06895799934864044
1749987859891850200,8.596850341796875,0.2418310046195984,0.2976340055465698,0.12150199711322784
1749987859901863700,8.60686376953125,0.23253799974918365,0.2965889871120453,0.15555599331855774
1749987859911877000,8.616877197265625,0.18098700046539307,0.3445320129394531,0.1580280065536499
1749987859921890800,8.626890869140626,0.08854100108146667,0.4280239939689636,0.129613995552063
1749987859931904300,8.636904296875,-0.0008009999874047935,0.5305089950561523,0.07368399947881699
1749987859941918000,8.64691796875,-0.05720800161361694,0.6161969900131226,-0.005855000112205744
1749987859951931400,8.656931396484374,-0.11676199734210968,0.6459320187568665,-0.09176900237798691
1749987859961944800,8.66694482421875,-0.18668800592422485,0.6137269735336304,-0.16918300092220306
1749987859971958500,8.67695849609375,-0.2392439991235733,0.5395029783248901,-0.21821799874305725
1749987859981972000,8.686971923828125,-0.264818012714386,0.43619999289512634,-0.2355470061302185
1749987859991985400,8.6969853515625,-0.26854899525642395,0.3109079897403717,-0.23000000417232513
1749987860001999000,8.7069990234375,-0.2539759874343872,0.17498500645160675,-0.20736800134181976
1749987860012012500,8.717012451171875,-0.21320399641990662,0.041985999792814255,-0.1558070033788681
1749987860022026000,8.72702587890625,-0.16290199756622314,-0.08209999650716782,-0.0847420021891594
1749987860032039700,8.737039794921875,-0.12451200187206268,-0.1855809986591339,-0.014290999621152878
1749987860042053000,8.74705322265625,-0.09335199743509293,-0.2458920031785965,0.04079199954867363
1749987860052066800,8.75706689453125,-0.06408300250768661,-0.2758820056915283,0.06583300232887268
1749987860062080000,8.767080078125,-0.042263999581336975,-0.3053640127182007,0.05700799822807312
1749987860072093700,8.77709375,-0.02148899994790554,-0.35270100831985474,0.02249399945139885
1749987860082107100,8.787107177734375,0.01632699929177761,-0.4274730086326599,-0.021971000358462334
1749987860092120600,8.79712060546875,0.06471200287342072,-0.5280230045318604,-0.06909999996423721
1749987860102134300,8.80713427734375,0.10259000211954117,-0.6426219940185547,-0.12046600133180618
1749987860112147700,8.817147705078124,0.11871899664402008,-0.7591360211372375,-0.17764799296855927
1749987860122161200,8.8271611328125,0.12217400223016739,-0.860073983669281,-0.24267500638961792
1749987860132174800,8.8371748046875,0.1163180023431778,-0.9317569732666016,-0.31921300292015076
1749987860142188300,8.847188232421875,0.08660600334405899,-0.9744809865951538,-0.40623700618743896
1749987860152202000,8.857201904296875,0.020059999078512192,-0.9775699973106384,-0.4847939908504486
1749987860162215400,8.86721533203125,-0.08099599927663803,-0.9331150054931641,-0.5131000280380249
1749987860172228900,8.877228759765625,-0.19689300656318665,-0.8676699995994568,-0.4732399880886078
1749987860182242600,8.88724267578125,-0.3237040042877197,-0.8166559934616089,-0.37488898634910583
1749987860192256000,8.897256103515625,-0.4144900143146515,-0.7877820134162903,-0.23376700282096863
1749987860202269400,8.90726953125,-0.4420450031757355,-0.764428973197937,-0.0630899965763092
1749987860212283100,8.917283203125,-0.40835100412368774,-0.7376999855041504,0.13276399672031403
1749987860222296600,8.927296630859376,-0.34494099020957947,-0.727046012878418,0.34167298674583435
1749987860232310300,8.937310302734375,-0.26829099655151367,-0.7360140085220337,0.501649022102356
1749987860242323700,8.94732373046875,-0.1615770012140274,-0.7465720176696777,0.602304995059967
1749987860252337200,8.957337158203124,-0.04887999966740608,-0.7687469720840454,0.6721029877662659
1749987860262350800,8.967350830078125,0.01669600047171116,-0.8299649953842163,0.7151719927787781
1749987860272364000,8.977364013671876,0.004801000002771616,-0.9181410074234009,0.6614570021629333
1749987860282377700,8.987377685546875,-0.06862299889326096,-0.9851700067520142,0.4960300028324127
1749987860292391200,8.99739111328125,-0.18252499401569366,-0.9917389750480652,0.2608970105648041
1749987860302404900,9.00740478515625,-0.28303200006484985,-0.9185919761657715,0.003008000086992979
1749987860312418300,9.017418212890625,-0.3396869897842407,-0.7812250256538391,-0.23579999804496765
1749987860322431700,9.027431640625,-0.33719098567962646,-0.6128479838371277,-0.4415949881076813
1749987860332445400,9.037445556640625,-0.2788189947605133,-0.439969003200531,-0.6071889996528625
1749987860342459000,9.047458984375,-0.2058809995651245,-0.2982169985771179,-0.7023789882659912
1749987860352472300,9.057472412109375,-0.17472800612449646,-0.19535000622272491,-0.7003200054168701
1749987860362486000,9.067486083984376,-0.20324499905109406,-0.11644099652767181,-0.6030319929122925
1749987860372499500,9.07749951171875,-0.25855499505996704,-0.052675001323223114,-0.4388189911842346
1749987860382513000,9.087512939453125,-0.3029949963092804,0.02164199948310852,-0.2535629868507385
1749987860392526600,9.097526611328124,-0.3289070129394531,0.12565800547599792,-0.08786500245332718
1749987860402540000,9.1075400390625,-0.3207780122756958,0.2584809958934784,0.03837199881672859
1749987860412553500,9.117553466796876,-0.2762860059738159,0.41523900628089905,0.13444599509239197
1749987860422567200,9.127567138671875,-0.22415700554847717,0.5756340026855469,0.22094599902629852
1749987860432580600,9.13758056640625,-0.177729994058609,0.7291679978370667,0.3128109872341156
1749987860442594300,9.14759423828125,-0.11587899923324585,0.8659150004386902,0.4115230143070221
1749987860452607700,9.157607666015625,-0.023941999301314354,0.9556480050086975,0.5025579929351807
1749987860462621000,9.167620849609374,0.08095499873161316,0.9875929951667786,0.5494019985198975
1749987860472634600,9.177634521484375,0.1717049926519394,0.9876120090484619,0.5316500067710876
1749987860482648000,9.18764794921875,0.2524769902229309,0.986860990524292,0.45015600323677063
1749987860492661500,9.19766162109375,0.301580011844635,0.987729012966156,0.3296700119972229
1749987860502675200,9.20767529296875,0.3125799894332886,0.980122983455658,0.18073700368404388
1749987860512688600,9.217688720703125,0.278346985578537,0.9710999727249146,-0.0008490000036545098
1749987860522702000,9.2277021484375,0.21246199309825897,0.9829090237617493,-0.21105000376701355
1749987860532715800,9.2377158203125,0.1340249925851822,1.019171953201294,-0.37780600786209106
1749987860542729200,9.247729248046875,0.03679800033569336,1.0622910261154175,-0.4946739971637726
1749987860552743000,9.257742919921874,-0.050494998693466187,1.1259640455245972,-0.5854880213737488
1749987860562756400,9.26775634765625,-0.07582999765872955,1.2330219745635986,-0.6404539942741394
1749987860572769800,9.277769775390626,-0.019610999152064323,1.3716599941253662,-0.5864880084991455
1749987860582783200,9.287783203125,0.08665399998426437,1.4962979555130005,-0.40425899624824524
1749987860592797000,9.297796875,0.21003800630569458,1.57334303855896,-0.13563799858093262
1749987860602810400,9.307810302734374,0.2924650013446808,1.5824990272521973,0.17534500360488892
1749987860612823800,9.31782373046875,0.296860009431839,1.5429600477218628,0.46441900730133057
1749987860622837200,9.327837158203126,0.22810299694538116,1.4871950149536133,0.7228760123252869
1749987860632850700,9.3378505859375,0.12923499941825867,1.4162789583206177,0.9623950123786926
1749987860642864400,9.347864501953126,0.04771500080823898,1.3333699703216553,1.1572660207748413
1749987860652877800,9.3578779296875,0.011229000054299831,1.2494230270385742,1.2738980054855347
1749987860662891300,9.367891357421875,0.03203099966049194,1.1855189800262451,1.3011870384216309
1749987860672905000,9.377905029296874,0.08308599889278412,1.1619139909744263,1.2398920059204102
1749987860682918400,9.38791845703125,0.12986700236797333,1.1613539457321167,1.1187740564346313
1749987860692931800,9.397931884765624,0.18216800689697266,1.1524779796600342,0.9907870292663574
1749987860702945500,9.407945556640625,0.25095099210739136,1.13031005859375,0.8802250027656555
1749987860712959000,9.417958984375,0.29314500093460083,1.072288990020752,0.7656630277633667
1749987860722972400,9.427972412109375,0.20144400000572205,0.9934390187263489,0.6196169853210449
1749987860732986000,9.437986083984375,-0.09811999648809433,0.924930989742279,0.4396379888057709
1749987860742999600,9.44799951171875,-0.38680499792099,0.8269670009613037,0.3522849977016449
1749987860753013200,9.45801318359375,-0.26353898644447327,0.5586540102958679,0.46161600947380066
1749987860763026700,9.468026611328124,0.12352599948644638,0.15527799725532532,0.49091801047325134
1749987860773040000,9.4780400390625,0.3879759907722473,-0.2402700036764145,0.5083580017089844
1749987860783053800,9.4880537109375,0.1810300052165985,-0.7206640243530273,0.5447210073471069
1749987860793067000,9.49806689453125,-0.08469899743795395,-1.1151299476623535,0.4718489944934845
1749987860803080700,9.508080810546875,-0.09150999784469604,-1.1355470418930054,0.3878859877586365
1749987860813094100,9.51809423828125,-0.053415000438690186,-0.9598339796066284,0.34829699993133545
1749987860823107600,9.528107666015625,0.001383999944664538,-0.7581629753112793,0.34356799721717834
1749987860833121300,9.538121337890624,0.01879199966788292,-0.6404309868812561,0.3731119930744171
1749987860843134700,9.548134765625,-0.034318000078201294,-0.6443129777908325,0.4918780028820038
1749987860853148400,9.5581484375,-0.09008699655532837,-0.7395480275154114,0.6649079918861389
1749987860863161900,9.568161865234375,-0.102012999355793,-0.8618320226669312,0.7573009729385376
1749987860873175300,9.57817529296875,-0.06750000268220901,-0.9723010063171387,0.6470209956169128
1749987860883188700,9.588188720703124,0.0173140000551939,-1.0364149808883667,0.455814003944397
1749987860893202400,9.598202392578125,0.100552998483181,-1.0504200458526611,0.2569440007209778
1749987860903215900,9.6082158203125,0.14652299880981445,-1.0200610160827637,0.07345899939537048
1749987860913229600,9.6182294921875,0.1360519975423813,-0.9708089828491211,-0.07805299758911133
1749987860923243000,9.628242919921876,0.10360600054264069,-0.9300680160522461,-0.1973479986190796
1749987860933256400,9.63825634765625,0.05651700124144554,-0.9092860221862793,-0.3011470139026642
1749987860943270000,9.648269775390625,0.016355000436306,-0.9028750061988831,-0.412214994430542
1749987860953283300,9.658283447265624,0.008422999642789364,-0.8935329914093018,-0.5349699854850769
1749987860963297000,9.668297119140625,0.0238489992916584,-0.8847180008888245,-0.6626719832420349
1749987860973310500,9.678310546875,0.04410700127482414,-0.8853279948234558,-0.7721750140190125
1749987860983324200,9.68832421875,0.04747999832034111,-0.8904770016670227,-0.8464980125427246
1749987860993337600,9.698337646484376,0.008870000019669533,-0.8880199790000916,-0.888526976108551
1749987861003351000,9.70835107421875,-0.07360400259494781,-0.8836920261383057,-0.8874819874763489
1749987861013364500,9.718364501953126,-0.14379699528217316,-0.8714200258255005,-0.8214589953422546
1749987861023378200,9.728378173828125,-0.07417699694633484,-0.8629429936408997,-0.6798319816589355
1749987861033391600,9.7383916015625,0.22515299916267395,-0.8807410001754761,-0.4830850064754486
1749987861043405000,9.748405029296874,0.5289099812507629,-0.8771029710769653,-0.37542301416397095
1749987861053418800,9.758418701171875,0.42804399132728577,-0.6912760138511658,-0.472337007522583
1749987861063432000,9.768431884765626,0.06955999881029129,-0.3558659851551056,-0.5012829899787903
1749987861073446000,9.77844580078125,-0.1621280014514923,-0.012520000338554382,-0.5230349898338318
1749987861083459000,9.788458984375,0.07057999819517136,0.4416249990463257,-0.5549290180206299
1749987861093472500,9.798472412109374,0.3411499857902527,0.8435689806938171,-0.472353994846344
1749987861103486200,9.808486328125,0.3273800015449524,0.8992080092430115,-0.3729029893875122
1749987861113499600,9.818499755859374,0.2567330002784729,0.7678890228271484,-0.30662301182746887
1749987861123513000,9.82851318359375,0.15692700445652008,0.5982210040092468,-0.2673250138759613
1749987861133526500,9.838526611328126,0.0785520002245903,0.4756399989128113,-0.26129698753356934
1749987861143540200,9.848540283203125,0.07311999797821045,0.4419949948787689,-0.3397290110588074
1749987861153553700,9.8585537109375,0.09041900187730789,0.4789240062236786,-0.481003999710083
1749987861163567000,9.868567138671875,0.09666000306606293,0.5388579964637756,-0.560824990272522
1749987861173580800,9.878580810546875,0.09047999978065491,0.5861679911613464,-0.45287400484085083
1749987861183594200,9.88859423828125,0.05642300099134445,0.5980929732322693,-0.2844710052013397
1749987861193607700,9.898607666015625,0.029559999704360962,0.574753999710083,-0.12389200180768967
1749987861203621400,9.908621337890626,0.03220300003886223,0.5198190212249756,-0.008325000293552876
1749987861213635000,9.918635009765625,0.06643199920654297,0.46137699484825134,0.043584998697042465
1749987861223648300,9.928648193359376,0.0717879980802536,0.4283500015735626,0.0424019992351532
1749987861233662000,9.938661865234375,0.0296580009162426,0.433786004781723,0.006723000202327967
1749987861243675400,9.94867529296875,-0.06393299996852875,0.4563960134983063,-0.033055998384952545
1749987861253689000,9.958689208984374,-0.17111200094223022,0.46267300844192505,-0.05542999878525734
1749987861263702500,9.96870263671875,-0.21043899655342102,0.43347299098968506,-0.03917299956083298
1749987861273716000,9.978716064453126,-0.1656699925661087,0.3736580014228821,0.013288999907672405
1749987861283729700,9.988729736328125,-0.08286400139331818,0.2781130075454712,0.07109300047159195
1749987861293743000,9.9987431640625,0.013322999700903893,0.13712799549102783,0.10846100002527237
1749987861303756300,10.00875634765625,0.09908399730920792,-0.04250499978661537,0.11984100192785263
1749987861313770200,10.018770263671875,0.15958499908447266,-0.2171110063791275,0.10129900276660919
1749987861323783700,10.02878369140625,0.20217500627040863,-0.3720569908618927,0.043115001171827316
1749987861333797000,10.038797119140625,0.21562600135803223,-0.49460700154304504,-0.04627100005745888
1749987861343810600,10.048810546875,0.18514199554920197,-0.5700470209121704,-0.1580040007829666
1749987861353824300,10.05882421875,0.10310199856758118,-0.6070950031280518,-0.2782270014286041
1749987861363837700,10.068837646484376,-0.014626000076532364,-0.6414589881896973,-0.3840470016002655
1749987861373851100,10.07885107421875,-0.12885700166225433,-0.706620991230011,-0.46538200974464417
1749987861383864800,10.08886474609375,-0.20510999858379364,-0.8069509863853455,-0.5185120105743408
1749987861393878300,10.098878173828124,-0.2390429973602295,-0.9201599955558777,-0.5517579913139343
1749987861403891700,10.1088916015625,-0.24767300486564636,-1.011301040649414,-0.5830789804458618
1749987861413905400,10.118905517578124,-0.2486400008201599,-1.0651880502700806,-0.6152229905128479
1749987861423918800,10.1289189453125,-0.24654099345207214,-1.0677560567855835,-0.6291900277137756
1749987861433932000,10.13893212890625,-0.24952200055122375,-1.0142019987106323,-0.6208919882774353
1749987861443945700,10.14894580078125,-0.2731670141220093,-0.9331150054931641,-0.5785629749298096
1749987861453959200,10.158959228515625,-0.3084920048713684,-0.8518999814987183,-0.4818120002746582
1749987861463972900,10.168972900390624,-0.3380280137062073,-0.7919710278511047,-0.3269670009613037
1749987861473986300,10.178986328125,-0.33841800689697266,-0.7619060277938843,-0.1307550072669983
1749987861483999700,10.188999755859374,-0.3039979934692383,-0.7610949873924255,0.07946199923753738
1749987861494013200,10.19901318359375,-0.2315780073404312,-0.7785760164260864,0.2734290063381195
1749987861504027000,10.20902685546875,-0.1284399926662445,-0.8189939856529236,0.4428409934043884
1749987861514040300,10.219040283203125,-0.016752000898122787,-0.9004240036010742,0.5798379778862
1749987861524054000,10.229053955078125,0.10924399644136429,-1.0361820459365845,0.6609609723091125
1749987861534067500,10.2390673828125,0.20793500542640686,-1.2103580236434937,0.6675689816474915
1749987861544081000,10.249080810546875,0.1988459974527359,-1.3418450355529785,0.5606780052185059
1749987861554094600,10.259094482421874,0.07518400251865387,-1.3697190284729004,0.3472839891910553
1749987861564108000,10.26910791015625,-0.10674399882555008,-1.2963780164718628,0.06254000216722488
1749987861574121500,10.27912158203125,-0.302852988243103,-1.1499170064926147,-0.24908199906349182
1749987861584135200,10.28913525390625,-0.4512479901313782,-0.9434289932250977,-0.5307509899139404
1749987861594148600,10.299148681640625,-0.5174829959869385,-0.6840670108795166,-0.7325909733772278
1749987861604162000,10.309162109375,-0.5307599902153015,-0.3912149965763092,-0.8582460284233093
1749987861614175500,10.319175537109375,-0.505882978439331,-0.1176690012216568,-0.9128640294075012
1749987861624189000,10.32918896484375,-0.4322870075702667,0.11316899955272675,-0.8735600113868713
1749987861634202600,10.33920263671875,-0.3126299977302551,0.2737709879875183,-0.7365170121192932
1749987861644216000,10.349216064453126,-0.16231699287891388,0.3536680042743683,-0.512598991394043
1749987861654229500,10.3592294921875,-0.05260000005364418,0.37142300605773926,-0.22805599868297577
1749987861664243000,10.369242919921875,0.012187999673187733,0.3886280059814453,0.047589000314474106
1749987861674256600,10.379256591796874,0.09594099968671799,0.46560001373291016,0.23209699988365173
1749987861684270000,10.38927001953125,0.15636800229549408,0.6120269894599915,0.3056429922580719
1749987861694283500,10.399283447265624,0.13620300590991974,0.7884179949760437,0.3218950033187866
1749987861704297200,10.409297119140625,0.06848499923944473,0.9447259902954102,0.3429409861564636
1749987861714310700,10.419310546875,0.016543999314308167,1.0362529754638672,0.3955950140953064
1749987861724324000,10.429323974609375,0.005956999957561493,1.0371379852294922,0.46581000089645386
1749987861734337500,10.439337646484375,0.037390001118183136,0.9730430245399475,0.5304740071296692
1749987861744351000,10.44935107421875,0.10020600259304047,0.8995469808578491,0.5449190139770508
1749987861754364700,10.45936474609375,0.16686700284481049,0.850009024143219,0.4703480005264282
1749987861764378000,10.469378173828124,0.2224940061569214,0.8296610116958618,0.3064950108528137
1749987861774391800,10.479391845703125,0.2445860058069229,0.8424320220947266,0.08245400339365005
1749987861784405200,10.4894052734375,0.22637799382209778,0.879272997379303,-0.15557900071144104
1749987861794418700,10.499418701171875,0.1625870019197464,0.9399660229682922,-0.38437798619270325
1749987861804432100,10.50943212890625,0.0631600022315979,1.0323820114135742,-0.5846549868583679
1749987861814445600,10.519445556640624,-0.036556001752614975,1.1583490371704102,-0.7259789705276489
1749987861824459000,10.529458984375,-0.11850100010633469,1.3229689598083496,-0.7886000275611877
1749987861834472400,10.539472412109374,-0.14127999544143677,1.5126969814300537,-0.7600389719009399
1749987861844486100,10.549486083984375,-0.038899000734090805,1.6593090295791626,-0.6051579713821411
1749987861854499600,10.55949951171875,0.15211600065231323,1.7249490022659302,-0.32993999123573303
1749987861864513000,10.569512939453125,0.31399500370025635,1.7279800176620483,0.010328000411391258
1749987861874526700,10.579526611328125,0.4037860035896301,1.6886500120162964,0.3739050030708313
1749987861884540000,10.589539794921874,0.4339919984340668,1.6209850311279297,0.722419023513794
1749987861894553900,10.599553955078125,0.41799798607826233,1.5386979579925537,1.018339991569519
1749987861904567300,10.6095673828125,0.39581799507141113,1.4537149667739868,1.2475440502166748
1749987861914580700,10.619580810546875,0.3704119920730591,1.3793450593948364,1.3924720287322998
1749987861924594200,10.62959423828125,0.29275399446487427,1.3123140335083008,1.4400999546051025
1749987861934607600,10.639607666015625,0.14462800323963165,1.2468780279159546,1.3873499631881714
1749987861944621300,10.649621337890625,-0.030629999935626984,1.193763017654419,1.2424230575561523
1749987861954634800,10.659634765625,-0.13036000728607178,1.1540800333023071,1.0372250080108643
1749987861964648400,10.6696484375,-0.1404239982366562,1.1025420427322388,0.8251829743385315
1749987861974662000,10.679661865234374,-0.13455699384212494,1.0138750076293945,0.6860039830207825
1749987861984675300,10.68967529296875,-0.11971300095319748,0.8861169815063477,0.6441879868507385
1749987861994689000,10.69968896484375,-0.053312998265028,0.7330269813537598,0.6806460022926331
1749987862004702500,10.709702392578125,0.029941000044345856,0.5048909783363342,0.8590829968452454
1749987862014716200,10.719716064453126,0.09373600035905838,0.15881000459194183,1.0971529483795166
1749987862024729600,10.7297294921875,0.22202399373054504,-0.1960729956626892,1.120398998260498
1749987862034742800,10.73974267578125,0.27421799302101135,-0.4820219874382019,0.9184100031852722
1749987862044756500,10.749756591796874,0.18387599289417267,-0.7213810086250305,0.6841620206832886
1749987862054770000,10.75977001953125,0.08287200331687927,-0.8873299956321716,0.5285590291023254
1749987862064783600,10.76978369140625,-0.03336400166153908,-0.9105290174484253,0.44174501299858093
1749987862074797000,10.779797119140625,-0.059060998260974884,-0.7941840291023254,0.38787299394607544
1749987862084810800,10.789810791015626,-0.02458300068974495,-0.6138309836387634,0.3505209982395172
1749987862094824200,10.79982421875,-0.02043299935758114,-0.4689750075340271,0.3162339925765991
1749987862104837600,10.809837646484375,-0.01921899989247322,-0.42548900842666626,0.2969120144844055
1749987862114851000,10.81985107421875,0.00792699959129095,-0.44605499505996704,0.29390498995780945
1749987862124864500,10.829864501953125,0.05690699815750122,-0.5143510103225708,0.303629994392395
1749987862134878000,10.8398779296875,0.11524499952793121,-0.6519860029220581,0.30464300513267517
1749987862144891600,10.8498916015625,0.16332000494003296,-0.8652039766311646,0.2813830077648163
1749987862154905000,10.859905029296876,0.19794900715351105,-1.110988974571228,0.22568100690841675
1749987862164918500,10.86991845703125,0.22526900470256805,-1.2751829624176025,0.16592399775981903
1749987862174932000,10.879931884765625,0.22529000043869019,-1.330819010734558,0.11965099722146988
1749987862184945700,10.889945556640624,0.17116600275039673,-1.3264210224151611,0.0871649980545044
1749987862194958800,10.899958740234375,0.09453900158405304,-1.2697839736938477,0.04668400064110756
1749987862204972500,10.90997265625,0.0027199999894946814,-1.1951669454574585,-0.013791999779641628
1749987862214986200,10.919986328125,-0.08803699910640717,-1.1421149969100952,-0.08458299934864044
1749987862224999400,10.92999951171875,-0.14768199622631073,-1.1089309453964233,-0.18175800144672394
1749987862235013000,10.94001318359375,-0.15243099629878998,-1.0841729640960693,-0.30521199107170105
1749987862245026600,10.950026611328125,-0.11524099856615067,-1.0628960132598877,-0.43557798862457275
1749987862255040000,10.9600400390625,-0.06767600029706955,-1.0320210456848145,-0.564706027507782
1749987862265053400,10.970053466796875,-0.030070999637246132,-0.9752709865570068,-0.6713290214538574
1749987862275067100,10.980067138671876,-0.019523000344634056,-0.8936700224876404,-0.7420709729194641
1749987862285080300,10.990080322265625,-0.013830999843776226,-0.8077030181884766,-0.7756800055503845
1749987862295094000,11.000093994140625,-0.012086000293493271,-0.7280120253562927,-0.805184006690979
1749987862305107500,11.010107421875,0.003865000093355775,-0.5889859795570374,-0.9555209875106812
1749987862315121000,11.020120849609375,0.026587000116705894,-0.31553399562835693,-1.1796669960021973
1749987862325134600,11.030134521484374,-0.04519199952483177,0.01361399982124567,-1.2143739461898804
1749987862335148000,11.04014794921875,-0.06041499972343445,0.31453999876976013,-1.0437079668045044
1749987862345161500,11.050161376953126,0.05784200131893158,0.5703480243682861,-0.8232190012931824
1749987862355175200,11.060175048828125,0.17594300210475922,0.7306230068206787,-0.6285039782524109
1749987862365188600,11.070188720703126,0.29487699270248413,0.7455160021781921,-0.4676240086555481
1749987862375202300,11.080202392578125,0.3058759868144989,0.6216959953308105,-0.34249600768089294
1749987862385215700,11.0902158203125,0.23582600057125092,0.42802101373672485,-0.2407969981431961
1749987862395229200,11.100229248046874,0.18482999503612518,0.25814101099967957,-0.12566399574279785
1749987862405242600,11.11024267578125,0.13988399505615234,0.16616199910640717,-0.02334200032055378
1749987862415256000,11.120256103515626,0.07647299766540527,0.1368889957666397,0.046512000262737274
1749987862425269500,11.13026953125,0.003014999907463789,0.16384300589561462,0.07704900205135345
1749987862435283200,11.140283203125,-0.06238999962806702,0.27255600690841675,0.08092000335454941
1749987862445296600,11.150296630859375,-0.10405299812555313,0.46972399950027466,0.07520700246095657
1749987862455310300,11.160310302734375,-0.12059199810028076,0.6966649889945984,0.07453099638223648
1749987862465323800,11.17032373046875,-0.11632899940013885,0.8354430198669434,0.060263000428676605
1749987862475337000,11.1803369140625,-0.08118800073862076,0.855804979801178,0.009008999913930893
1749987862485350700,11.1903505859375,-0.01119299978017807,0.8001409769058228,-0.07732299715280533
1749987862495364000,11.200364013671875,0.0479310005903244,0.6796969771385193,-0.1716720014810562
1749987862505377800,11.210377685546876,0.09312400221824646,0.5356490015983582,-0.24510900676250458
1749987862515391200,11.22039111328125,0.12947000563144684,0.4415439963340759,-0.29294100403785706
1749987862525404700,11.23040478515625,0.1476929932832718,0.37775200605392456,-0.2810229957103729
1749987862535418000,11.240418212890624,0.1445229947566986,0.3553209900856018,-0.21102799475193024
1749987862545431800,11.250431884765625,0.11778900027275085,0.35819000005722046,-0.10574299842119217
1749987862555445200,11.2604453125,0.09793400019407272,0.36176198720932007,0.004021999891847372
1749987862565458700,11.270458740234375,0.11991000175476074,0.34623199701309204,0.1044130027294159
1749987862575472000,11.28047216796875,0.17407500743865967,0.3072490096092224,0.1833840012550354
1749987862585485600,11.290485595703124,0.2387309968471527,0.2564609944820404,0.22676900029182434
1749987862595499300,11.300499267578125,0.2863059937953949,0.20868000388145447,0.210657000541687
1749987862605512700,11.3105126953125,0.29193198680877686,0.1646450012922287,0.12434399873018265
1749987862615526100,11.320526123046875,0.24669800698757172,0.11696799844503403,0.0001320000010309741
1749987862625539800,11.330539794921876,0.18184399604797363,0.03260200098156929,-0.08404199779033661
1749987862635553300,11.34055322265625,0.1360899955034256,-0.07089900225400925,-0.11824599653482437
1749987862645566700,11.350566650390626,0.10791400074958801,-0.17304499447345734,-0.1347550004720688
1749987862655580400,11.360580322265625,0.07911600172519684,-0.2702769935131073,-0.16086000204086304
1749987862665593600,11.370593505859375,0.02900799922645092,-0.3751319944858551,-0.19981099665164948
1749987862675607300,11.380607177734374,-0.03578599914908409,-0.4747219979763031,-0.25740501284599304
1749987862685620700,11.390620849609375,-0.09177199751138687,-0.5378590226173401,-0.3576839864253998
1749987862695634200,11.40063427734375,-0.12826000154018402,-0.567874014377594,-0.5104359984397888
1749987862705647900,11.41064794921875,-0.14519299566745758,-0.5780959725379944,-0.6698600053787231
1749987862715661300,11.420661376953126,-0.12304999679327011,-0.5946360230445862,-0.8044210076332092
1749987862725674800,11.4306748046875,-0.06313300132751465,-0.6341099739074707,-0.8890860080718994
1749987862735688400,11.4406884765625,0.021254999563097954,-0.7062950134277344,-0.9131479859352112
1749987862745702000,11.450701904296874,0.12056100368499756,-0.8072010278701782,-0.8768519759178162
1749987862755715000,11.460715087890625,0.20313400030136108,-0.9155060052871704,-0.7869070172309875
1749987862765728800,11.470728759765626,0.2379090040922165,-1.0174750089645386,-0.656915009021759
1749987862775742200,11.4807421875,0.22078099846839905,-1.095602035522461,-0.5056759715080261
1749987862785755600,11.490755615234375,0.16800600290298462,-1.1227329969406128,-0.35480499267578125
1749987862795769300,11.500769287109375,0.09839600324630737,-1.0840389728546143,-0.22880899906158447
1749987862805782800,11.51078271484375,0.024383999407291412,-0.9899420142173767,-0.14435699582099915
1749987862815796200,11.520796142578124,-0.05135999992489815,-0.8941699862480164,-0.07947699725627899
1749987862825810000,11.530809814453125,-0.11623399704694748,-0.7756699919700623,-0.03714900091290474
1749987862835823000,11.540822998046876,-0.16819700598716736,-0.6579489707946777,-0.009224999696016312
1749987862845836500,11.55083642578125,-0.1978919953107834,-0.5600069761276245,0.02524399943649769
1749987862855850200,11.560850341796876,-0.21398699283599854,-0.4950590133666992,0.08250799775123596
1749987862865863700,11.57086376953125,-0.2393759936094284,-0.4530619978904724,0.1458130031824112
1749987862875877000,11.580877197265625,-0.2737340033054352,-0.4256559908390045,0.2006710022687912
1749987862885890600,11.590890625,-0.3169260025024414,-0.41318100690841675,0.2482600063085556
1749987862895904300,11.600904296875,-0.33883801102638245,-0.416032999753952,0.3116140067577362
1749987862905917700,11.610917724609376,-0.32361501455307007,-0.4245719909667969,0.40424400568008423
1749987862915931100,11.62093115234375,-0.27089500427246094,-0.4265500009059906,0.49673500657081604
1749987862925944600,11.630944580078125,-0.2077140063047409,-0.401511013507843,0.5154380202293396
1749987862935958300,11.640958251953125,-0.16987399756908417,-0.3695389926433563,0.4375059902667999
1749987862945971700,11.6509716796875,-0.160288006067276,-0.3398759961128235,0.29777899384498596
1749987862955985200,11.660985107421874,-0.17419900000095367,-0.3043980002403259,0.12074699997901917
1749987862965998600,11.67099853515625,-0.23123300075531006,-0.2674599885940552,-0.0707399994134903
1749987862976012300,11.68101220703125,-0.3257650136947632,-0.23395200073719025,-0.2510010004043579
1749987862986025700,11.691025634765625,-0.3672980070114136,-0.19220499694347382,-0.38046199083328247
1749987862996039200,11.7010390625,-0.32888901233673096,-0.12247999757528305,-0.44738298654556274
1749987863006052600,11.711052490234374,-0.26489898562431335,-0.02437100000679493,-0.4656769931316376
1749987863016066000,11.721066162109375,-0.24313899874687195,0.0891679972410202,-0.44589999318122864
1749987863026079700,11.731079833984374,-0.27521198987960815,0.21907299757003784,-0.3976449966430664
1749987863036093200,11.74109326171875,-0.3354099988937378,0.3661549985408783,-0.33701398968696594
1749987863046106600,11.751106689453126,-0.40265899896621704,0.5188729763031006,-0.2692280113697052
1749987863056120300,11.761120361328125,-0.45888400077819824,0.6566889882087708,-0.20618799328804016
1749987863066133800,11.7711337890625,-0.49581900238990784,0.7717300057411194,-0.15320299565792084
1749987863076147200,11.781147216796874,-0.5068519711494446,0.8592950105667114,-0.10902699828147888
1749987863086160600,11.79116064453125,-0.4960780143737793,0.9103829860687256,-0.07164300233125687
1749987863096174000,11.801174072265624,-0.4562390148639679,0.9225239753723145,-0.03292600065469742
1749987863106187800,11.811187744140625,-0.383762001991272,0.8912479877471924,0.015093999914824963
1749987863116201200,11.821201171875,-0.3072650134563446,0.8306660056114197,0.028548000380396843
1749987863126215000,11.83121484375,-0.23712900280952454,0.7502760291099548,0.00917499978095293
1749987863136228400,11.841228271484376,-0.1681870073080063,0.6797090172767639,-0.025474999099969864
1749987863146241800,11.85124169921875,-0.10856399685144424,0.646111011505127,-0.08007600158452988
1749987863156255200,11.861255126953125,-0.06335599720478058,0.6612430214881897,-0.15663699805736542
1749987863166268700,11.8712685546875,-0.04098000004887581,0.7082719802856445,-0.24674299359321594
1749987863176282000,11.8812822265625,-0.04612800106406212,0.7676659822463989,-0.3405359983444214
1749987863186295800,11.8912958984375,-0.06384500116109848,0.8312730193138123,-0.43497899174690247
1749987863196309200,11.901309326171875,-0.08887200057506561,0.8940950036048889,-0.5205569863319397
1749987863206322700,11.91132275390625,-0.11074600368738174,0.9506739974021912,-0.5821880102157593
1749987863216336400,11.92133642578125,-0.12141299992799759,0.998744010925293,-0.6117010116577148
1749987863226349800,11.931349853515625,-0.11858200281858444,1.0472910404205322,-0.6095820069313049
1749987863236363500,11.941363525390624,-0.10533600300550461,1.0938539505004883,-0.5630030035972595
1749987863246376700,11.951376708984375,-0.07609699666500092,1.1312299966812134,-0.4768980145454407
1749987863256390100,11.96139013671875,-0.01650499925017357,1.1607489585876465,-0.35527798533439636
1749987863266403600,11.971403564453125,0.10005699843168259,1.1808520555496216,-0.19700899720191956
1749987863276417300,11.981417236328125,0.25874900817871094,1.183972954750061,0.0017500000540167093
1749987863286430700,11.9914306640625,0.35671600699424744,1.1447169780731201,0.21240900456905365
1749987863296444400,12.0014443359375,0.36083799600601196,1.0501049757003784,0.41100698709487915
1749987863306457900,12.011457763671874,0.31784799695014954,0.9351490139961243,0.5698220133781433
1749987863316471300,12.02147119140625,0.2655789852142334,0.8246049880981445,0.6654620170593262
1749987863326484700,12.031484619140626,0.22140100598335266,0.719061017036438,0.6840019822120667
1749987863336498200,12.041498291015625,0.17456699907779694,0.6144490242004395,0.6413729786872864
1749987863346511600,12.05151171875,0.11647800356149673,0.503944993019104,0.5463619828224182
1749987863356525300,12.061525390625,0.06132299825549126,0.38776999711990356,0.41844698786735535
1749987863366538800,12.071538818359375,0.028245000168681145,0.2604160010814667,0.29217201471328735
1749987863376552200,12.08155224609375,0.005996000021696091,0.12233299762010574,0.19875000417232513
1749987863386566000,12.09156591796875,-0.025465000420808792,-0.027588000521063805,0.1609800010919571
1749987863396579000,12.1015791015625,-0.09749700129032135,-0.19330400228500366,0.19460800290107727
1749987863406592500,12.111592529296875,-0.22535300254821777,-0.33570799231529236,0.30233898758888245
1749987863416606200,12.121606201171875,-0.3230400085449219,-0.40564200282096863,0.466033011674881
1749987863426619600,12.13161962890625,-0.3458999991416931,-0.42941099405288696,0.6361240148544312
1749987863436633000,12.141633056640625,-0.3201349973678589,-0.4913949966430664,0.7768579721450806
1749987863446646500,12.151646484375,-0.27717700600624084,-0.649711012840271,0.8616089820861816
1749987863456660200,12.16166015625,-0.24747100472450256,-0.8725129961967468,0.880886971950531
1749987863466673700,12.171673583984376,-0.2635459899902344,-1.0911699533462524,0.8588330149650574
1749987863476687000,12.18168701171875,-0.30424201488494873,-1.2680120468139648,0.8003280162811279
1749987863486700800,12.19170068359375,-0.3195610046386719,-1.4150389432907104,0.700659990310669
1749987863496714200,12.20171435546875,-0.34018000960350037,-1.5458120107650757,0.5713179707527161
1749987863506727700,12.211727783203125,-0.44727200269699097,-1.6248940229415894,0.3978689908981323
1749987863516741000,12.2217412109375,-0.6622959971427917,-1.575471043586731,0.1742600053548813
1749987863526754800,12.2317548828125,-0.8223130106925964,-1.3975160121917725,-0.04152899980545044
1749987863536768300,12.241768310546876,-0.8653479814529419,-1.1594480276107788,-0.20841500163078308
1749987863546781700,12.25178173828125,-0.8252040147781372,-0.8870819807052612,-0.34064701199531555
1749987863556795100,12.261795166015625,-0.7187089920043945,-0.6188129782676697,-0.44075000286102295
1749987863566808600,12.27180859375,-0.559453010559082,-0.3969210088253021,-0.4961239993572235
1749987863576822300,12.281822265625,-0.3908669948577881,-0.24456100165843964,-0.5143110156059265
1749987863586835700,12.291835693359374,-0.24565599858760834,-0.18339000642299652,-0.5052379965782166
1749987863596849200,12.30184912109375,-0.12431599944829941,-0.1692509949207306,-0.4726319909095764
1749987863606862800,12.31186279296875,-0.023029999807476997,-0.1800920069217682,-0.41737100481987
1749987863616876000,12.3218759765625,0.07938600331544876,-0.20472599565982819,-0.34730398654937744
1749987863626890000,12.331889892578126,0.1737699955701828,-0.2264769971370697,-0.26686200499534607
1749987863636903200,12.341903076171874,0.25412899255752563,-0.23085400462150574,-0.18520599603652954
1749987863646916900,12.351916748046875,0.31828901171684265,-0.20817799866199493,-0.11522000283002853
1749987863656930300,12.361930419921874,0.3691689968109131,-0.1531980037689209,-0.06708499789237976
1749987863666943700,12.37194384765625,0.4137049913406372,-0.06931199878454208,-0.05309300124645233
1749987863676957200,12.381957275390626,0.4667629897594452,0.023780999705195427,-0.08020699769258499
1749987863686971000,12.391970947265625,0.5406219959259033,0.10910999774932861,-0.1543789952993393
1749987863696984000,12.401984130859375,0.6464430093765259,0.1773100048303604,-0.28203099966049194
1749987863706997800,12.411997802734374,0.7871569991111755,0.20218099653720856,-0.46434301137924194
1749987863717011200,12.42201123046875,0.8987699747085571,0.15702100098133087,-0.6564800143241882
1749987863727024600,12.432024658203124,0.9369840025901794,0.09133200347423553,-0.8268529772758484
1749987863737038000,12.4420380859375,0.916733980178833,0.09375199675559998,-0.9681959748268127
1749987863747051800,12.4520517578125,0.8613330125808716,0.19835099577903748,-1.050879955291748
1749987863757065200,12.462065185546875,0.8004130125045776,0.36024099588394165,-1.06569504737854
1749987863767078700,12.47207861328125,0.7733200192451477,0.5135660171508789,-1.0336849689483643
1749987863777092000,12.482092041015624,0.7714380025863647,0.6276729702949524,-0.9612780213356018
