time,seconds_elapsed,z,y,x
1751214434627979300,0.200979248046875,9.564017295837402,1.9525972604751587,0.9419863820075989
1751214434637799000,0.210798828125,9.564326286315918,1.9318323135375977,0.9808574318885803
1751214434647635700,0.2206357421875,9.56649112701416,1.9103387594223022,1.0016124248504639
1751214434657495600,0.23049560546875,9.567183494567871,1.8827886581420898,1.0461806058883667
1751214434677300500,0.250300537109375,9.5687255859375,1.8399403095245361,1.1065675020217896
1751214434687250700,0.260250732421875,9.567089080810547,1.816241979598999,1.1586546897888184
1751214434697233700,0.270233642578125,9.562808990478516,1.8027279376983643,1.2137707471847534
1751214434707248600,0.28024853515625,9.555587768554688,1.7962676286697388,1.278495192527771
1751214434717293600,0.29029345703125,9.545330047607422,1.7924526929855347,1.358006238937378
1751214434727364900,0.30036474609375,9.53084945678711,1.7926582098007202,1.4559122323989868
1751214434737459000,0.310458984375,9.514175415039062,1.7897051572799683,1.5645501613616943
1751214434747570400,0.3205703125,9.496308326721191,1.7737303972244263,1.6865313053131104
1751214434757694000,0.33069384765625,9.479358673095703,1.7403132915496826,1.8120282888412476
1751214434767824100,0.34082421875,9.462743759155273,1.692659854888916,1.9395277500152588
1751214434777955000,0.350955078125,9.445812225341797,1.6231809854507446,2.076611280441284
1751214434787969000,0.360968994140625,9.424688339233398,1.5572476387023926,2.2182469367980957
1751214434797963000,0.370962890625,9.386256217956543,1.500851035118103,2.4116454124450684
1751214434807957000,0.38095703125,9.319317817687988,1.4265228509902954,2.6992130279541016
1751214434817951000,0.390950927734375,9.224745750427246,1.3099817037582397,3.0591506958007812
1751214434827945000,0.400945068359375,9.106510162353516,1.1434963941574097,3.454604148864746
1751214434837939000,0.41093896484375,8.975264549255371,0.9410452842712402,3.837897777557373
1751214434847933000,0.420932861328125,8.837098121643066,0.7237748503684998,4.189537048339844
1751214434857927000,0.430927001953125,8.694296836853027,0.5010762810707092,4.508716106414795
1751214434867921200,0.440921142578125,8.535290718078613,0.24077235162258148,4.822990894317627
1751214434877915100,0.4509150390625,8.35263442993164,-0.06600683927536011,5.138047218322754
1751214434887909000,0.4609091796875,8.133639335632324,-0.3999658524990082,5.463911533355713
1751214434897903000,0.470903076171875,7.861530303955078,-0.7399988174438477,5.815421104431152
1751214434907897000,0.48089697265625,7.524245262145996,-1.0849924087524414,6.195071220397949
1751214434917891000,0.49089111328125,7.115251541137695,-1.4459065198898315,6.591884613037109
1751214434927885000,0.500885009765625,6.64078950881958,-1.8347885608673096,6.978815078735352
1751214434937879000,0.510879150390625,6.0976667404174805,-2.270444869995117,7.337160587310791
1751214434947873000,0.520873046875,5.481450080871582,-2.7659780979156494,7.646793842315674
1751214434957867000,0.530866943359375,4.813076019287109,-3.309354305267334,7.877363681793213
1751214434967861200,0.540861328125,4.133454322814941,-3.8647704124450684,8.00927448272705
1751214434977855200,0.550855224609375,3.4739160537719727,-4.411025047302246,8.040221214294434
1751214434987849200,0.56084912109375,2.863206386566162,-4.937974452972412,7.974261283874512
1751214434997843200,0.57084326171875,2.345339775085449,-5.439797401428223,7.81526517868042
1751214435007837200,0.580837158203125,1.9422458410263062,-5.896640777587891,7.591290473937988
1751214435017831200,0.5908310546875,1.6551042795181274,-6.288069248199463,7.341062545776367
1751214435027825200,0.6008251953125,1.4815022945404053,-6.603926181793213,7.096738338470459
1751214435037819100,0.610819091796875,1.3917417526245117,-6.853346347808838,6.874961853027344
1751214435047813000,0.620813232421875,1.3665320873260498,-7.054869651794434,6.673213005065918
1751214435057807000,0.63080712890625,1.39712393283844,-7.2186455726623535,6.489189624786377
1751214435067801300,0.64080126953125,1.4889582395553589,-7.3527069091796875,6.315939903259277
1751214435077795300,0.65079541015625,1.6303046941757202,-7.4693474769592285,6.141770839691162
1751214435087789300,0.660789306640625,1.8003168106079102,-7.571700096130371,5.966455936431885
1751214435097783300,0.670783203125,1.9773948192596436,-7.658036231994629,5.797825813293457
1751214435107777300,0.68077734375,2.1488029956817627,-7.7236738204956055,5.647822380065918
1751214435117771300,0.690771240234375,2.3147428035736084,-7.768583297729492,5.519190311431885
1751214435127765200,0.70076513671875,2.4769845008850098,-7.801016807556152,5.401766300201416
1751214435137759200,0.71075927734375,2.6198627948760986,-7.823202133178711,5.301340103149414
1751214435147753200,0.720753173828125,2.738801956176758,-7.833959579467773,5.224789619445801
1751214435157747500,0.73074755859375,2.8472979068756104,-7.831936359405518,5.169532299041748
1751214435167741400,0.740741455078125,2.9412147998809814,-7.820294380187988,5.134454250335693
1751214435177735400,0.7507353515625,3.038439989089966,-7.799289703369141,5.1097307205200195
1751214435187729400,0.7607294921875,3.11470890045166,-7.772116184234619,5.105212688446045
1751214435197723400,0.770723388671875,3.1136832237243652,-7.758195400238037,5.126965522766113
1751214435207717400,0.78071728515625,3.0872859954833984,-7.755509853363037,5.146952152252197
1751214435217711400,0.79071142578125,3.139479398727417,-7.727980613708496,5.156778812408447
1751214435227705300,0.800705322265625,3.1443045139312744,-7.693809986114502,5.204711437225342
1751214435237699300,0.81069921875,3.1007587909698486,-7.65357780456543,5.289463996887207
1751214435247693300,0.820693359375,3.0288782119750977,-7.602048397064209,5.404177665710449
1751214435257687600,0.8306875,2.911207914352417,-7.560055732727051,5.526374816894531
1751214435267681500,0.840681640625,2.772413492202759,-7.5291361808776855,5.638813018798828
1751214435277675500,0.850675537109375,2.640685558319092,-7.501918792724609,5.737453460693359
1751214435287669500,0.86066943359375,2.5287601947784424,-7.469053268432617,5.830009460449219
1751214435297663500,0.87066357421875,2.4290952682495117,-7.41990327835083,5.934215545654297
1751214435307657500,0.880657470703125,2.3170082569122314,-7.350911617279053,6.0634942054748535
1751214435317651500,0.8906513671875,2.1717474460601807,-7.2685041427612305,6.214719772338867
1751214435327645400,0.9006455078125,1.9887791872024536,-7.182897090911865,6.373471736907959
1751214435337639400,0.910639404296875,1.7814723253250122,-7.100318908691406,6.525505542755127
1751214435347633400,0.92063330078125,1.5620135068893433,-7.0139384269714355,6.67346715927124
1751214435357627600,0.930627685546875,1.3425413370132446,-6.923786640167236,6.813892364501953
1751214435367621600,0.94062158203125,1.1139413118362427,-6.835730075836182,6.942789554595947
1751214435377615600,0.95061572265625,0.8888360857963562,-6.764620304107666,7.044164657592773
1751214435387609900,0.96060986328125,0.6854665279388428,-6.7026519775390625,7.125655651092529
1751214435397603800,0.970603759765625,0.5019510984420776,-6.634723663330078,7.204087734222412
1751214435407597800,0.980597900390625,0.3057973384857178,-6.539702415466309,7.3013129234313965
1751214435417592000,0.990592041015625,0.21506555378437042,-6.3355183601379395,7.482335567474365
1751214435427586000,1.0005859375,0.1998819261789322,-6.1190948486328125,7.660752296447754
1751214435437580000,1.010580078125,0.20548489689826965,-5.948863983154297,7.793533802032471
1751214435447574300,1.02057421875,0.25662609934806824,-5.79760217666626,7.905209541320801
1751214435457568300,1.030568359375,0.33104273676872253,-5.654820919036865,8.00523567199707
1751214435467562200,1.040562255859375,0.4116445481777191,-5.530358791351318,8.088019371032715
1751214435477556200,1.05055615234375,0.48973071575164795,-5.43059778213501,8.151022911071777
1751214435487550500,1.060550537109375,0.560184121131897,-5.360086441040039,8.193047523498535
1751214435497544400,1.07054443359375,0.5983678102493286,-5.31012487411499,8.222829818725586
1751214435507538400,1.080538330078125,0.576907217502594,-5.26482629776001,8.253434181213379
1751214435517532700,1.09053271484375,0.5041034817695618,-5.225978374481201,8.282837867736816
1751214435527526700,1.100526611328125,0.4268842041492462,-5.196122646331787,8.305930137634277
1751214435537520600,1.110520751953125,0.3765195310115814,-5.194065570831299,8.309651374816895
1751214435547515000,1.120514892578125,0.3781717121601105,-5.225865840911865,8.289613723754883
1751214435557508900,1.1305087890625,0.4220053553581238,-5.29762077331543,8.241814613342285
1751214435577497000,1.1504970703125,0.5858761668205261,-5.567224979400635,8.05190372467041
1751214435587491000,1.160490966796875,0.6772711277008057,-5.768857002258301,7.901391506195068
1751214435597485000,1.170485107421875,0.7443495988845825,-6.011074066162109,7.712543487548828
1751214435607479000,1.18047900390625,0.7750065326690674,-6.284732818603516,7.488116264343262
1751214435617473300,1.190473388671875,0.7679712772369385,-6.580277919769287,7.230529308319092
1751214435627467300,1.20046728515625,0.7227907776832581,-6.893340587615967,6.937565803527832
1751214435637461200,1.210461181640625,0.6453051567077637,-7.222177505493164,6.602583885192871
1751214435647455500,1.22045556640625,0.5364444851875305,-7.566610336303711,6.215224742889404
1751214435657449500,1.230449462890625,0.40556034445762634,-7.923129081726074,5.7645416259765625
1751214435667443500,1.240443359375,0.25306057929992676,-8.275029182434082,5.2564473152160645
1751214435677437700,1.250437744140625,0.05102412402629852,-8.604151725769043,4.704927921295166
1751214435687431700,1.260431640625,-0.2093794345855713,-8.89048957824707,4.13348913192749
1751214435697425700,1.27042578125,-0.4630800783634186,-9.110114097595215,3.6002469062805176
1751214435707420000,1.280419921875,-0.6273194551467896,-9.262164115905762,3.16056489944458
1751214435717414000,1.290413818359375,-0.6785815358161926,-9.367423057556152,2.821579933166504
1751214435727407900,1.300407958984375,-0.6483153104782104,-9.4468412399292,2.5509350299835205
1751214435737401900,1.31040185546875,-0.5645728707313538,-9.511089324951172,2.3218157291412354
1751214435747396000,1.32039599609375,-0.4335661232471466,-9.564042091369629,2.124030113220215
1751214435757390000,1.33039013671875,-0.254136860370636,-9.608209609985352,1.9463108777999878
1751214435767384000,1.340384033203125,-0.028729375451803207,-9.644314765930176,1.7767223119735718
1751214435777378300,1.35037841796875,0.23369057476520538,-9.670893669128418,1.609218955039978
1751214435787372300,1.360372314453125,0.5250762701034546,-9.685342788696289,1.4452706575393677
1751214435797366300,1.3703662109375,0.8295171856880188,-9.687677383422852,1.2771731615066528
1751214435807360500,1.380360595703125,1.0916751623153687,-9.68343448638916,1.0998787879943848
1751214435817354500,1.3903544921875,1.2354388236999512,-9.681806564331055,0.9522091150283813
1751214435827348500,1.400348388671875,1.1787012815475464,-9.696709632873535,0.8688329458236694
1751214435837342500,1.410342529296875,0.9103350639343262,-9.729560852050781,0.8230076432228088
1751214435847336400,1.42033642578125,0.5306487679481506,-9.763747215270996,0.7470182180404663
1751214435857330400,1.430330322265625,0.1546700894832611,-9.788164138793945,0.5816454291343689
1751214435867324400,1.440324462890625,-0.1444145292043686,-9.799357414245605,0.34945812821388245
1751214435877318400,1.450318359375,-0.31757429242134094,-9.801138877868652,0.08487321436405182
1751214435887312400,1.4603125,-0.38476452231407166,-9.797435760498047,-0.18057455122470856
1751214435897306600,1.470306640625,-0.3729495108127594,-9.789843559265137,-0.4361780881881714
1751214435907300600,1.480300537109375,-0.30588820576667786,-9.778534889221191,-0.6760687232017517
1751214435917294600,1.490294677734375,-0.18971788883209229,-9.76397705078125,-0.8939508199691772
1751214435927288600,1.50028857421875,-0.009403428994119167,-9.747780799865723,-1.0728765726089478
1751214435937282600,1.510282470703125,0.2224605679512024,-9.729914665222168,-1.2040191888809204
1751214435957270500,1.5302705078125,0.7287856340408325,-9.693662643432617,-1.293117880821228
1751214435967264500,1.540264404296875,0.9521182179450989,-9.679343223571777,-1.254660964012146
1751214435977258500,1.550258544921875,1.129040002822876,-9.669814109802246,-1.1791268587112427
1751214435987252500,1.56025244140625,1.2580292224884033,-9.663663864135742,-1.096070647239685
1751214435997246700,1.570246826171875,1.3489255905151367,-9.657337188720703,-1.0424138307571411
1751214436007240700,1.58024072265625,1.4163182973861694,-9.648709297180176,-1.03288996219635
1751214436017234700,1.590234619140625,1.4772213697433472,-9.637371063232422,-1.053227186203003
1751214436027228700,1.600228759765625,1.5350611209869385,-9.625061988830566,-1.0826563835144043
1751214436037222700,1.61022265625,1.585130214691162,-9.612940788269043,-1.1176456212997437
1751214436047216600,1.620216552734375,1.6223573684692383,-9.602256774902344,-1.1554253101348877
1751214436057210600,1.630210693359375,1.6427083015441895,-9.594380378723145,-1.191535472869873
1751214436067204600,1.64020458984375,1.6431694030761719,-9.590129852294922,-1.2246592044830322
1751214436077198600,1.650198486328125,1.6210702657699585,-9.589609146118164,-1.2577449083328247
1751214436087192600,1.660192626953125,1.5758063793182373,-9.592275619506836,-1.294399619102478
1751214436097186800,1.670186767578125,1.5088675022125244,-9.597481727600098,-1.33493173122406
1751214436107180800,1.680180908203125,1.423440933227539,-9.604490280151367,-1.3776699304580688
1751214436117174800,1.6901748046875,1.3238154649734497,-9.612523078918457,-1.4203168153762817
1751214436127168800,1.700168701171875,1.215044617652893,-9.62086009979248,-1.460518479347229
1751214436137162800,1.710162841796875,1.1013518571853638,-9.628877639770508,-1.4973726272583008
1751214436147156700,1.72015673828125,0.9856563806533813,-9.636283874511719,-1.5299981832504272
1751214436167144700,1.740144775390625,0.7539404630661011,-9.648876190185547,-1.5814955234527588
1751214436177138700,1.750138671875,0.6404467225074768,-9.653873443603516,-1.600925326347351
1751214436187132700,1.760132568359375,0.5197347402572632,-9.662093162536621,-1.595064640045166
1751214436197127000,1.770126953125,0.3427857756614685,-9.674216270446777,-1.5692121982574463
1751214436207121000,1.780120849609375,0.20913270115852356,-9.674004554748535,-1.5938211679458618
1751214436217115000,1.790114990234375,0.22690287232398987,-9.673341751098633,-1.5954177379608154
1751214436227108900,1.80010888671875,0.3727415204048157,-9.675052642822266,-1.55718195438385
1751214436237102800,1.810102783203125,0.5767355561256409,-9.674848556518555,-1.495006799697876
1751214436247096800,1.820096923828125,0.7973317503929138,-9.671401023864746,-1.4137325286865234
1751214436257090800,1.8300908203125,1.0216261148452759,-9.66408634185791,-1.316098928451538
1751214436267084800,1.840084716796875,1.2498751878738403,-9.651098251342773,-1.2101664543151855
1751214436277078800,1.850078857421875,1.476470947265625,-9.631458282470703,-1.1069883108139038
1751214436287073000,1.860072998046875,1.681361198425293,-9.607444763183594,-1.0200190544128418
1751214436297067000,1.87006689453125,1.8284651041030884,-9.586357116699219,-0.9637703895568848
1751214436307061000,1.88006103515625,1.8874653577804565,-9.576543807983398,-0.9474503397941589
1751214436317055000,1.890054931640625,1.8555494546890259,-9.580613136291504,-0.9691171050071716
1751214436327049000,1.900049072265625,1.7562423944473267,-9.59443473815918,-1.0162864923477173
1751214436337043200,1.910043212890625,1.6146169900894165,-9.61301040649414,-1.0739729404449463
1751214436347037200,1.920037109375,1.4507827758789062,-9.632110595703125,-1.1349231004714966
1751214436357031200,1.93003125,1.2823407649993896,-9.648722648620605,-1.1950465440750122
1751214436367025400,1.940025390625,1.1224865913391113,-9.661905288696289,-1.2481980323791504
1751214436377019400,1.950019287109375,0.9866169095039368,-9.670583724975586,-1.2949092388153076
1751214436387013400,1.960013427734375,0.8835732340812683,-9.67495346069336,-1.336024284362793
1751214436397007400,1.97000732421875,0.8120893239974976,-9.676751136779785,-1.3679815530776978
1751214436407001600,1.980001708984375,0.766394317150116,-9.67768383026123,-1.3876110315322876
1751214436416995600,1.98999560546875,0.7402015924453735,-9.678911209106445,-1.3932591676712036
1751214436426989600,1.999989501953125,0.7286868691444397,-9.680410385131836,-1.388898491859436
1751214436436983800,2.00998388671875,0.7259688973426819,-9.682049751281738,-1.378868579864502
1751214436446977800,2.019977783203125,0.7298868298530579,-9.684099197387695,-1.3623013496398926
1751214436456971800,2.0299716796875,0.7296148538589478,-9.687756538391113,-1.336195468902588
1751214436466966000,2.039966064453125,0.7152718305587769,-9.692763328552246,-1.3073335886001587
1751214436486954000,2.0599541015625,0.6320652961730957,-9.702335357666016,-1.2788903713226318
1751214436496948200,2.0699482421875,0.5675567388534546,-9.706677436828613,-1.2761969566345215
1751214436506942200,2.079942138671875,0.49679651856422424,-9.710376739501953,-1.2775604724884033
1751214436516936200,2.089936279296875,0.4261709153652191,-9.713132858276367,-1.2821171283721924
1751214436526930200,2.09993017578125,0.3583942949771881,-9.7149658203125,-1.2889430522918701
1751214436536924400,2.10992431640625,0.2966214716434479,-9.716033935546875,-1.2965681552886963
1751214436546918400,2.11991845703125,0.24234499037265778,-9.716490745544434,-1.3044010400772095
1751214436556912400,2.129912353515625,0.19466719031333923,-9.716532707214355,-1.3120501041412354
1751214436566906600,2.13990673828125,0.16399620473384857,-9.716626167297363,-1.3155479431152344
1751214436576900600,2.149900634765625,0.1687132567167282,-9.71650505065918,-1.3158460855484009
1751214436586894600,2.15989453125,0.21103321015834808,-9.716334342956543,-1.3109924793243408
1751214436596888800,2.169888916015625,0.29091447591781616,-9.715370178222656,-1.302818775177002
1751214436606882800,2.1798828125,0.3993937373161316,-9.712610244750977,-1.2946292161941528
1751214436616876800,2.189876708984375,0.5283787250518799,-9.708269119262695,-1.2809076309204102
1751214436636865000,2.209864990234375,0.8155443072319031,-9.694424629211426,-1.2342702150344849
1751214436646859000,2.21985888671875,0.9668552875518799,-9.682853698730469,-1.2156956195831299
1751214436656853000,2.22985302734375,1.1140403747558594,-9.667913436889648,-1.208614468574524
1751214436666847200,2.23984716796875,1.2446645498275757,-9.651564598083496,-1.211814522743225
1751214436676841200,2.24984130859375,1.340352177619934,-9.637861251831055,-1.218796968460083
1751214436686835200,2.259835205078125,1.3839170932769775,-9.630823135375977,-1.225724220275879
1751214436696829400,2.269829345703125,1.3727787733078003,-9.632128715515137,-1.2279967069625854
1751214436706823400,2.279823486328125,1.3199396133422852,-9.639762878417969,-1.226017713546753
1751214436716817400,2.2898173828125,1.2440004348754883,-9.650129318237305,-1.223867654800415
1751214436726811600,2.299811767578125,1.161481499671936,-9.660589218139648,-1.2224429845809937
1751214436736805600,2.3098056640625,1.0839110612869263,-9.669904708862305,-1.2200316190719604
1751214436746799600,2.319799560546875,1.0180848836898804,-9.677559852600098,-1.216024398803711
1751214436756793900,2.3297939453125,0.9670621752738953,-9.683385848999023,-1.2112878561019897
1751214436766787800,2.339787841796875,0.9320574402809143,-9.687111854553223,-1.2089310884475708
1751214436776781800,2.34978173828125,0.9118189215660095,-9.688907623291016,-1.2099814414978027
1751214436786775800,2.35977587890625,0.901749849319458,-9.689435005187988,-1.2132982015609741
1751214436796770000,2.36977001953125,0.8946610689163208,-9.689522743225098,-1.2178363800048828
1751214436806764000,2.379763916015625,0.8852018713951111,-9.689779281616211,-1.2227009534835815
1751214436816758000,2.389758056640625,0.8698764443397522,-9.6906099319458,-1.227098822593689
1751214436826752000,2.399751953125,0.8473772406578064,-9.69218921661377,-1.2303662300109863
1751214436836746000,2.40974609375,0.8171591758728027,-9.694599151611328,-1.2318260669708252
1751214436846740000,2.419739990234375,0.7787660360336304,-9.697932243347168,-1.2304575443267822
1751214436856734200,2.429734130859375,0.7329660654067993,-9.70212173461914,-1.2255549430847168
1751214436866728200,2.439728271484375,0.6809138655662537,-9.706990242004395,-1.21699857711792
1751214436876722200,2.44972216796875,0.6232075691223145,-9.712634086608887,-1.2028048038482666
1751214436886716200,2.459716064453125,0.5609447360038757,-9.71863842010498,-1.1848151683807373
1751214436896710100,2.469710205078125,0.49504274129867554,-9.725027084350586,-1.1615341901779175
1751214436906704100,2.4797041015625,0.4261723458766937,-9.731569290161133,-1.1337178945541382
1751214436916698000,2.489697998046875,0.35351696610450745,-9.738067626953125,-1.1024730205535889
1751214436926692000,2.499692138671875,0.27681994438171387,-9.74424934387207,-1.0692803859710693
1751214436936686000,2.50968603515625,0.19591549038887024,-9.749917030334473,-1.0349587202072144
1751214436946680300,2.519680419921875,0.10977233946323395,-9.75495719909668,-0.9995781183242798
1751214436956674300,2.52967431640625,0.01656045950949192,-9.759225845336914,-0.9631351232528687
1751214436966668300,2.539668212890625,-0.08399941027164459,-9.762471199035645,-0.9260059595108032
1751214436976662300,2.549662353515625,-0.19270160794258118,-9.76447868347168,-0.8878204226493835
1751214436986656300,2.55965625,-0.30847468972206116,-9.765113830566406,-0.8472278714179993
1751214436996650200,2.569650146484375,-0.4319460093975067,-9.764284133911133,-0.801613450050354
1751214437006644200,2.579644287109375,-0.5620014667510986,-9.761756896972656,-0.7500961422920227
1751214437016638200,2.58963818359375,-0.6985582113265991,-9.75723934173584,-0.6918622851371765
1751214437026632200,2.599632080078125,-0.8414674997329712,-9.750438690185547,-0.6255043148994446
1751214437036626200,2.609626220703125,-0.9903523921966553,-9.741050720214844,-0.5491089224815369
1751214437046620400,2.619620361328125,-1.1420494318008423,-9.72901725769043,-0.46078842878341675
1751214437056614400,2.629614501953125,-1.2889295816421509,-9.714826583862305,-0.36223626136779785
1751214437066608400,2.6396083984375,-1.421589970588684,-9.69971752166748,-0.25486433506011963
1751214437076602400,2.649602294921875,-1.5352520942687988,-9.684666633605957,-0.14361649751663208
1751214437086596400,2.659596435546875,-1.6314467191696167,-9.669940948486328,-0.03197052702307701
1751214437096590300,2.66959033203125,-1.718607783317566,-9.654569625854492,0.07784001529216766
1751214437106584300,2.679584228515625,-1.8071632385253906,-9.636896133422852,0.18653035163879395
1751214437116578300,2.689578369140625,-1.9056298732757568,-9.615066528320312,0.2991126775741577
1751214437126572300,2.699572265625,-2.0188148021698,-9.587456703186035,0.41886448860168457
1751214437136566300,2.709566162109375,-2.1461195945739746,-9.553449630737305,0.5442144274711609
1751214437146560500,2.719560546875,-2.2822041511535645,-9.513697624206543,0.6719292998313904
1751214437156554500,2.729554443359375,-2.4210729598999023,-9.469533920288086,0.7979475259780884
1751214437166548500,2.739548583984375,-2.5571181774139404,-9.422656059265137,0.9192976355552673
1751214437176542500,2.74954248046875,-2.6865947246551514,-9.374652862548828,1.0336768627166748
1751214437186536400,2.759536376953125,-2.806896924972534,-9.326859474182129,1.1407896280288696
1751214437196530400,2.769530517578125,-2.9180469512939453,-9.279537200927734,1.2432126998901367
1751214437206524400,2.7795244140625,-3.0185763835906982,-9.232812881469727,1.3467527627944946
1751214437216518400,2.789518310546875,-3.1111087799072266,-9.186294555664062,1.4503036737442017
1751214437236506600,2.809506591796875,-3.2928574085235596,-9.090682029724121,1.6392008066177368
1751214437246500600,2.81950048828125,-3.390174627304077,-9.040182113647461,1.7182023525238037
1751214437256494600,2.82949462890625,-3.491804361343384,-8.988296508789062,1.7855572700500488
1751214437266488600,2.839488525390625,-3.594210386276245,-8.936640739440918,1.840786337852478
1751214437276482800,2.84948291015625,-3.6936562061309814,-8.886626243591309,1.885514736175537
1751214437286476800,2.859476806640625,-3.785574436187744,-8.839641571044922,1.9236809015274048
1751214437296470800,2.869470703125,-3.8643269538879395,-8.797438621520996,1.9602121114730835
1751214437306464800,2.87946484375,-3.9271974563598633,-8.76163387298584,1.9953186511993408
1751214437316459000,2.889458984375,-3.9750783443450928,-8.732531547546387,2.0278120040893555
1751214437326453000,2.899452880859375,-4.009029388427734,-8.7103271484375,2.056277275085449
1751214437336447000,2.909447021484375,-4.029593467712402,-8.695341110229492,2.0793755054473877
1751214437346441200,2.919441162109375,-4.037532329559326,-8.687515258789062,2.096616268157959
1751214437356435200,2.929435302734375,-4.0352277755737305,-8.686202049255371,2.1064682006835938
1751214437366429200,2.93942919921875,-4.024036407470703,-8.690592765808105,2.1097662448883057
1751214437376423400,2.94942333984375,-4.005543231964111,-8.699784278869629,2.1070730686187744
1751214437386417400,2.95941748046875,-3.981666088104248,-8.713236808776855,2.0967180728912354
1751214437396411400,2.969411376953125,-3.954467296600342,-8.730278015136719,2.0772171020507812
1751214437406405600,2.979405517578125,-3.92199969291687,-8.75218391418457,2.0463547706604004
1751214437416399600,2.989399658203125,-3.881314277648926,-8.77996826171875,2.0044806003570557
1751214437426393600,2.9993935546875,-3.8303072452545166,-8.81405258178711,1.9523338079452515
1751214437436387600,3.0093876953125,-3.765117645263672,-8.855557441711426,1.890339732170105
1751214437446381800,3.0193818359375,-3.6818361282348633,-8.90550422668457,1.818368911743164
1751214437456375800,3.029375732421875,-3.578413486480713,-8.963807106018066,1.73651921749115
1751214437466369800,3.039369873046875,-3.456493854522705,-9.02810287475586,1.6481488943099976
1751214437476364000,3.049364013671875,-3.3369808197021484,-9.08664321899414,1.570944905281067
1751214437486358000,3.05935791015625,-3.2605457305908203,-9.12031078338623,1.5359539985656738
1751214437496352000,3.06935205078125,-3.2176437377929688,-9.133662223815918,1.5470502376556396
1751214437506346200,3.07934619140625,-3.15183687210083,-9.153409004211426,1.5657005310058594
1751214437516340200,3.08934033203125,-3.051605463027954,-9.189648628234863,1.5519123077392578
1751214437526334200,3.099334228515625,-2.9224815368652344,-9.241599082946777,1.4907513856887817
1751214437536328200,3.109328125,-2.78301739692688,-9.297571182250977,1.4072571992874146
1751214437546322400,3.119322509765625,-2.641252279281616,-9.350136756896973,1.3300801515579224
1751214437556316400,3.12931640625,-2.499063491821289,-9.398743629455566,1.2604293823242188
1751214437566310400,3.139310302734375,-2.357342004776001,-9.443565368652344,1.1968287229537964
1751214437576304600,3.1493046875,-2.207839250564575,-9.487302780151367,1.1344257593154907
1751214437586298600,3.159298583984375,-2.050316572189331,-9.530373573303223,1.0670300722122192
1751214437596292600,3.169292724609375,-1.8895115852355957,-9.57192325592041,0.9891502857208252
1751214437606286800,3.179286865234375,-1.7304904460906982,-9.6102876663208,0.9045220017433167
1751214437616280800,3.18928076171875,-1.5720034837722778,-9.645366668701172,0.8161399960517883
1751214437626274800,3.19927490234375,-1.4112175703048706,-9.677506446838379,0.7243740558624268
1751214437636269000,3.20926904296875,-1.2500548362731934,-9.706147193908691,0.6312199831008911
1751214437646263000,3.219262939453125,-1.0929933786392212,-9.73058032989502,0.5399629473686218
1751214437656257000,3.229257080078125,-0.9450940489768982,-9.75050163269043,0.452657014131546
1751214437666251000,3.2392509765625,-0.8127056360244751,-9.765908241271973,0.3700236678123474
1751214437676245200,3.249245361328125,-0.7030938863754272,-9.777193069458008,0.2872767150402069
1751214437686239200,3.2592392578125,-0.6208863854408264,-9.784937858581543,0.1997130662202835
1751214437696233200,3.269233154296875,-0.5653038024902344,-9.789743423461914,0.1083516925573349
1751214437706227500,3.2792275390625,-0.5303661227226257,-9.792289733886719,0.012369615957140923
1751214437716221400,3.289221435546875,-0.507805347442627,-9.793103218078613,-0.08746729791164398
1751214437726215400,3.29921533203125,-0.48671185970306396,-9.79276180267334,-0.18795739114284515
1751214437736209700,3.309209716796875,-0.45811665058135986,-9.791736602783203,-0.2870717942714691
1751214437746203600,3.31920361328125,-0.4164615273475647,-9.790264129638672,-0.38427475094795227
1751214437756197600,3.32919775390625,-0.3606637120246887,-9.788188934326172,-0.48132583498954773
1751214437766191900,3.33919189453125,-0.29187923669815063,-9.785242080688477,-0.5781370401382446
1751214437776185900,3.349185791015625,-0.2129185050725937,-9.781331062316895,-0.6712779402732849
1751214437786179800,3.359179931640625,-0.1282472461462021,-9.776416778564453,-0.7586923241615295
1751214437796173800,3.369173828125,-0.04074368625879288,-9.77058219909668,-0.8393232822418213
1751214437806168000,3.37916796875,0.04833272099494934,-9.76386547088623,-0.9137808680534363
1751214437816162000,3.389162109375,0.13921581208705902,-9.756284713745117,-0.9828104972839355
1751214437826156000,3.399156005859375,0.23322737216949463,-9.747904777526855,-1.0461065769195557
1751214437836150300,3.409150390625,0.3316856324672699,-9.738505363464355,-1.1053961515426636
1751214437846144300,3.419144287109375,0.43174076080322266,-9.727797508239746,-1.163591980934143
1751214437856138200,3.42913818359375,0.5295566320419312,-9.715843200683594,-1.221612811088562
1751214437866132200,3.43913232421875,0.6234041452407837,-9.702853202819824,-1.2792227268218994
1751214437876126200,3.449126220703125,0.7132852077484131,-9.689057350158691,-1.3355860710144043
1751214437886120200,3.4591201171875,0.7983106970787048,-9.674771308898926,-1.3899296522140503
1751214437896114200,3.4691142578125,0.8770074844360352,-9.660194396972656,-1.442873239517212
1751214437906108200,3.479108154296875,0.9462714195251465,-9.645669937133789,-1.4953235387802124
1751214437916102400,3.489102294921875,1.0019830465316772,-9.631440162658691,-1.5497684478759766
1751214437926096400,3.499096435546875,1.0417028665542603,-9.618824005126953,-1.6010836362838745
1751214437936090400,3.50909033203125,1.0691442489624023,-9.608711242675781,-1.6431632041931152
1751214437946084400,3.51908447265625,1.0867888927459717,-9.601360321044922,-1.6742607355117798
1751214437956078300,3.529078369140625,1.094319462776184,-9.59654426574707,-1.6968224048614502
1751214437966072300,3.539072265625,1.0948313474655151,-9.594038009643555,-1.7106057405471802
1751214437976066300,3.54906640625,1.090713620185852,-9.593523979187012,-1.7161064147949219
1751214437986060300,3.559060302734375,1.0825718641281128,-9.594822883605957,-1.7140036821365356
1751214437996054300,3.56905419921875,1.07169508934021,-9.59722900390625,-1.7073568105697632
1751214438006048300,3.57904833984375,1.0609654188156128,-9.599923133850098,-1.698887586593628
1751214438016042500,3.58904248046875,1.0513174533843994,-9.602218627929688,-1.6918970346450806
1751214438026036500,3.599036376953125,1.041235089302063,-9.603461265563965,-1.6910828351974487
1751214438036030500,3.609030517578125,1.029480218887329,-9.603154182434082,-1.6999973058700562
1751214438046024400,3.6190244140625,1.0158692598342896,-9.601592063903809,-1.716922640800476
1751214438056018400,3.629018310546875,1.0016976594924927,-9.599448204040527,-1.7371231317520142
1751214438066012400,3.639012451171875,0.9870342016220093,-9.597232818603516,-1.7576320171356201
1751214438076006400,3.64900634765625,0.9718179106712341,-9.59485912322998,-1.7789382934570312
1751214438086000400,3.65900048828125,0.957541823387146,-9.59083080291748,-1.8081696033477783
1751214438095994400,3.668994384765625,0.9469151496887207,-9.58546257019043,-1.841917634010315
1751214438105988400,3.67898828125,0.9421129822731018,-9.579832077026367,-1.8734016418457031
1751214438115982600,3.688982666015625,0.9436222910881042,-9.574234008789062,-1.9010523557662964
1751214438125976600,3.6989765625,0.9500681161880493,-9.568530082702637,-1.9263920783996582
1751214438135970600,3.708970458984375,0.960356593132019,-9.56235408782959,-1.951788306236267
1751214438145964500,3.718964599609375,0.9762256145477295,-9.555034637451172,-1.9795677661895752
1751214438155958500,3.72895849609375,0.9961636662483215,-9.54578971862793,-2.0139362812042236
1751214438165952500,3.738952392578125,1.0148910284042358,-9.534351348876953,-2.058281898498535
1751214438175946500,3.748946533203125,1.030949354171753,-9.521720886230469,-2.108166456222534
1751214438185940500,3.7589404296875,1.0425090789794922,-9.510238647460938,-2.1538150310516357
1751214438195934500,3.7689345703125,1.0449355840682983,-9.501932144165039,-2.189009189605713
1751214438205928700,3.7789287109375,1.0341036319732666,-9.498015403747559,-2.211045265197754
1751214438215922700,3.788922607421875,1.0067150592803955,-9.499329566955566,-2.2180283069610596
1751214438225916700,3.798916748046875,0.9586381316184998,-9.506118774414062,-2.2102274894714355
1751214438235910700,3.80891064453125,0.8880277276039124,-9.517712593078613,-2.1897356510162354
1751214438245904600,3.818904541015625,0.7934141755104065,-9.533164978027344,-2.1586227416992188
1751214438255898600,3.828898681640625,0.6715060472488403,-9.551873207092285,-2.116884469985962
1751214438265892900,3.838892822265625,0.5221565961837769,-9.572510719299316,-2.065128803253174
1751214438275886800,3.848886962890625,0.346737265586853,-9.593689918518066,-2.0028157234191895
1751214438285880800,3.858880859375,0.14785824716091156,-9.614790916442871,-1.9246636629104614
1751214438295874800,3.868874755859375,-0.06953016668558121,-9.635639190673828,-1.8220933675765991
1751214438305869000,3.878869140625,-0.2955923080444336,-9.65588092803955,-1.6873005628585815
1751214438315863000,3.888863037109375,-0.5151422619819641,-9.674810409545898,-1.5175819396972656
1751214438325857000,3.89885693359375,-0.7187386751174927,-9.691572189331055,-1.3142449855804443
1751214438335851300,3.908851318359375,-0.9016854166984558,-9.704630851745605,-1.0851198434829712
1751214438345845200,3.91884521484375,-1.0697723627090454,-9.711381912231445,-0.8455923199653625
1751214438355839200,3.928839111328125,-1.2288739681243896,-9.710396766662598,-0.6070002913475037
1751214438365833500,3.93883349609375,-1.384271502494812,-9.7013521194458,-0.3714289665222168
1751214438375827500,3.948827392578125,-1.5301851034164429,-9.685450553894043,-0.14478909969329834
1751214438385821400,3.958821533203125,-1.6598939895629883,-9.664928436279297,0.06567786633968353
1751214438395815700,3.968815673828125,-1.768004059791565,-9.64240550994873,0.26184985041618347
1751214438405809700,3.9788095703125,-1.8610444068908691,-9.618062973022461,0.4469664990901947
1751214438415803600,3.9888037109375,-1.9497061967849731,-9.590567588806152,0.6245307326316833
1751214438425797600,3.998797607421875,-2.0386524200439453,-9.558733940124512,0.8030547499656677
1751214438435792000,4.0087919921875,-2.130779981613159,-9.521380424499512,0.9866447448730469
1751214438445785900,4.018785888671875,-2.2256813049316406,-9.477896690368652,1.1773672103881836
1751214438455779800,4.02877978515625,-2.3211445808410645,-9.42845344543457,1.3736580610275269
1751214438465774000,4.038774169921875,-2.4193837642669678,-9.3729887008667,1.5697247982025146
1751214438475768000,4.04876806640625,-2.5273427963256836,-9.31046199798584,1.7601808309555054
1751214438485762000,4.058761962890625,-2.647294044494629,-9.240034103393555,1.945252537727356
1751214438495756300,4.06875634765625,-2.7774434089660645,-9.161996841430664,2.124619722366333
1751214438505750300,4.078750244140625,-2.911594867706299,-9.078160285949707,2.2978286743164062
1751214438515744300,4.088744140625,-3.044229030609131,-8.990331649780273,2.4651551246643066
1751214438525738500,4.098738525390625,-3.172412157058716,-8.899894714355469,2.6264140605926514
1751214438535732500,4.108732421875,-3.2896134853363037,-8.808547973632812,2.7853734493255615
1751214438545726500,4.1187265625,-3.3899619579315186,-8.717700004577637,2.946228504180908
1751214438555720400,4.128720458984375,-3.472222089767456,-8.628732681274414,3.1078994274139404
1751214438565714700,4.138714599609375,-3.544377088546753,-8.541707038879395,3.262974500656128
1751214438575708700,4.148708740234375,-3.6154778003692627,-8.455548286437988,3.4062328338623047
1751214438585702700,4.15870263671875,-3.6950931549072266,-8.369304656982422,3.531489133834839
1751214438595697000,4.16869677734375,-3.783393621444702,-8.284066200256348,3.6373844146728516
1751214438605691000,4.17869091796875,-3.8748652935028076,-8.201672554016113,3.726712942123413
1751214438615684900,4.188684814453125,-3.9605350494384766,-8.123133659362793,3.8077893257141113
1751214438625679000,4.19867919921875,-4.033069610595703,-8.050756454467773,3.8845930099487305
1751214438635673000,4.208673095703125,-4.0887298583984375,-7.986721515655518,3.9578959941864014
1751214438645667000,4.2186669921875,-4.1269941329956055,-7.932374954223633,4.026876926422119
1751214438655661000,4.2286611328125,-4.148387908935547,-7.887854099273682,4.091822147369385
1751214438665655300,4.2386552734375,-4.159045219421387,-7.8531951904296875,4.147294521331787
1751214438675649300,4.248649169921875,-4.167859077453613,-7.82704496383667,4.187684535980225
1751214438685643300,4.258643310546875,-4.178677558898926,-7.805397033691406,4.217203617095947
1751214438695637500,4.268637451171875,-4.194380760192871,-7.789185047149658,4.231564521789551
1751214438705631500,4.278631591796875,-4.214439868927002,-7.779788017272949,4.2289228439331055
1751214438715625500,4.28862548828125,-4.2367777824401855,-7.7783331871032715,4.209232807159424
1751214438725619700,4.29861962890625,-4.2564592361450195,-7.7846760749816895,4.177527904510498
1751214438735613700,4.30861376953125,-4.267358779907227,-7.799536228179932,4.1385111808776855
1751214438755602000,4.328601806640625,-4.247679233551025,-7.860288143157959,4.0427045822143555
1751214438765596000,4.338595947265625,-4.214345932006836,-7.90787935256958,3.9843616485595703
1751214438775590000,4.34858984375,-4.164154529571533,-7.967437744140625,3.9179258346557617
1751214438785583900,4.358583984375,-4.099401473999023,-8.03731918334961,3.842759370803833
1751214438795578000,4.368578125,-4.028395652770996,-8.111006736755371,3.7621800899505615
1751214438805572000,4.378572021484375,-3.963639259338379,-8.178760528564453,3.683454751968384
1751214438815566000,4.388566162109375,-3.901536464691162,-8.243256568908691,3.6051523685455322
1751214438825560300,4.398560302734375,-3.8236727714538574,-8.315826416015625,3.5209293365478516
1751214438835554300,4.40855419921875,-3.708787202835083,-8.404230117797852,3.432812213897705
1751214438845548300,4.41854833984375,-3.545280694961548,-8.507588386535645,3.349970579147339
1751214438855542500,4.42854248046875,-3.3390867710113525,-8.618803024291992,3.276754140853882
1751214438865536500,4.43853662109375,-3.1048684120178223,-8.733170509338379,3.203420639038086
1751214438875530500,4.448530517578125,-2.8522775173187256,-8.848569869995117,3.120527982711792
1751214438885524700,4.458524658203125,-2.590611219406128,-8.963077545166016,3.020326852798462
1751214438895518700,4.468518798828125,-2.331256628036499,-9.0740327835083,2.897853136062622
1751214438905512700,4.4785126953125,-2.079188346862793,-9.178236961364746,2.7581381797790527
1751214438915506700,4.488506591796875,-1.8291994333267212,-9.274687767028809,2.6085586547851562
1751214438925501000,4.4985009765625,-1.572989821434021,-9.35985279083252,2.4676389694213867
1751214438935495000,4.508494873046875,-1.3148071765899658,-9.4306001663208,2.3463685512542725
1751214438945489000,4.518489013671875,-1.0739591121673584,-9.488572120666504,2.232489585876465
1751214438955483000,4.52848291015625,-0.8651784658432007,-9.535221099853516,2.121650218963623
1751214438965476900,4.538476806640625,-0.6950578093528748,-9.572369575500488,2.0142064094543457
1751214438975470800,4.548470947265625,-0.5609033703804016,-9.603347778320312,1.9056483507156372
1751214438985464800,4.55846484375,-0.4581296145915985,-9.630599021911621,1.7922221422195435
1751214438995458800,4.568458740234375,-0.3861027657985687,-9.654523849487305,1.6767483949661255
1751214439005452800,4.578452880859375,-0.3457357585430145,-9.676352500915527,1.5553313493728638
1751214439015447000,4.588447021484375,-0.3336973190307617,-9.697043418884277,1.423512578010559
1751214439025441000,4.59844091796875,-0.3448759913444519,-9.716243743896484,1.2829854488372803
1751214439035435000,4.60843505859375,-0.37139785289764404,-9.733499526977539,1.1364150047302246
1751214439045429000,4.618428955078125,-0.40513452887535095,-9.748503684997559,0.9863714575767517
1751214439055423000,4.628423095703125,-0.4393520951271057,-9.761180877685547,0.8346931338310242
1751214439065417000,4.6384169921875,-0.46914342045783997,-9.771516799926758,0.6839224100112915
1751214439075411000,4.648410888671875,-0.49264511466026306,-9.779483795166016,0.5379476547241211
1751214439085405000,4.658405029296875,-0.5069838166236877,-9.785386085510254,0.39946040511131287
1751214439095399000,4.66839892578125,-0.5114227533340454,-9.789573669433594,0.2703437805175781
1751214439105393000,4.678392822265625,-0.5051925182342529,-9.792473793029785,0.1504606008529663
1751214439115387100,4.68838720703125,-0.4883255362510681,-9.79440975189209,0.03794332966208458
1751214439125381000,4.698381103515625,-0.4614134430885315,-9.795546531677246,-0.06894466280937195
1751214439135375000,4.708375,-0.42543452978134155,-9.79590892791748,-0.17192848026752472
1751214439145369000,4.718369140625,-0.3815786838531494,-9.795425415039062,-0.27277693152427673
1751214439155363000,4.728363037109375,-0.3308466970920563,-9.793990135192871,-0.37242284417152405
1751214439165357000,4.738357177734375,-0.2732974588871002,-9.791460037231445,-0.4722444415092468
1751214439175351000,4.74835107421875,-0.20866239070892334,-9.787700653076172,-0.5725100636482239
1751214439195339000,4.768339111328125,-0.058730270713567734,-9.775919914245605,-0.7735227942466736
1751214439205333000,4.7783330078125,0.021439190953969955,-9.767807960510254,-0.8717010617256165
1751214439215327200,4.7883271484375,0.10062702745199203,-9.758432388305664,-0.9660465121269226
1751214439225321200,4.7983212890625,0.1757863312959671,-9.748018264770508,-1.0562398433685303
1751214439235315200,4.808315185546875,0.24537509679794312,-9.736673355102539,-1.1433992385864258
1751214439245309200,4.81830908203125,0.31054094433784485,-9.724538803100586,-1.2277199029922485
1751214439255303200,4.82830322265625,0.3739255666732788,-9.711710929870605,-1.3089054822921753
1751214439265297200,4.838297119140625,0.4363898038864136,-9.698541641235352,-1.3850096464157104
1751214439275291100,4.848291015625,0.49726903438568115,-9.685539245605469,-1.453769326210022
1751214439285285000,4.85828515625,0.5562209486961365,-9.673296928405762,-1.5127209424972534
1751214439295279000,4.868279052734375,0.6153509616851807,-9.661541938781738,-1.564073920249939
1751214439305273000,4.878273193359375,0.6754968762397766,-9.650116920471191,-1.6091440916061401
1751214439315267300,4.888267333984375,0.74001145362854,-9.639825820922852,-1.6421114206314087
1751214439325261300,4.89826123046875,0.80965256690979,-9.631376266479492,-1.6587469577789307
1751214439335255300,4.90825537109375,0.879214882850647,-9.6243896484375,-1.6638790369033813
1751214439345249500,4.91824951171875,0.9425116777420044,-9.618924140930176,-1.6608315706253052
1751214439355243500,4.928243408203125,0.9951127767562866,-9.61469841003418,-1.6546025276184082
1751214439365237500,4.938237548828125,1.0355573892593384,-9.61109733581543,-1.6507015228271484
1751214439375231500,4.9482314453125,1.0631823539733887,-9.60794734954834,-1.6514744758605957
1751214439385225700,4.958225830078125,1.0802433490753174,-9.604716300964355,-1.6591849327087402
1751214439395219700,4.9682197265625,1.088880181312561,-9.601072311401367,-1.674556851387024
1751214439405213700,4.978213623046875,1.090221881866455,-9.596718788146973,-1.6984670162200928
1751214439415208000,4.9882080078125,1.0842344760894775,-9.5917329788208,-1.7301658391952515
1751214439425202000,4.998201904296875,1.070411205291748,-9.586569786071777,-1.7669966220855713
1751214439435196000,5.00819580078125,1.049946665763855,-9.581622123718262,-1.8056881427764893
1751214439445190100,5.018190185546875,1.023715615272522,-9.577028274536133,-1.8447000980377197
1751214439455184100,5.02818408203125,0.9925862550735474,-9.572505950927734,-1.8847533464431763
1751214439465178000,5.03817822265625,0.9574996829032898,-9.56777286529541,-1.9264771938323975
1751214439475172400,5.04817236328125,0.918070912361145,-9.562795639038086,-1.9698920249938965
1751214439485166300,5.058166259765625,0.8742650747299194,-9.55777645111084,-2.0136895179748535
1751214439495160300,5.068160400390625,0.8282122611999512,-9.552653312683105,-2.0570085048675537
1751214439505154300,5.078154296875,0.7851378321647644,-9.547245025634766,-2.098586082458496
1751214439515148500,5.0881484375,0.7527645826339722,-9.541635513305664,-2.1356325149536133
1751214439525142500,5.098142578125,0.7361361384391785,-9.536516189575195,-2.164104700088501
1751214439535136500,5.108136474609375,0.738110363483429,-9.532120704650879,-2.1827189922332764
1751214439545130800,5.118130859375,0.7607733011245728,-9.527792930603027,-2.1938045024871826
1751214439555124700,5.128124755859375,0.8043349981307983,-9.523334503173828,-2.197619915008545
1751214439565118700,5.13811865234375,0.8673887848854065,-9.519305229187012,-2.191086530685425
1751214439575113000,5.148113037109375,0.9454565644264221,-9.516276359558105,-2.171860933303833
1751214439585107000,5.15810693359375,1.028584599494934,-9.51406192779541,-2.1436030864715576
1751214439595101000,5.168100830078125,1.1061939001083374,-9.511960983276367,-2.1140787601470947
1751214439605095000,5.178094970703125,1.1734068393707275,-9.510539054870605,-2.0840203762054443
1751214439615089200,5.188089111328125,1.2255604267120361,-9.510631561279297,-2.0533552169799805
1751214439625083100,5.198083251953125,1.248932957649231,-9.513761520385742,-2.024574041366577
1751214439635077000,5.2080771484375,1.217368245124817,-9.52291488647461,-2.0006232261657715
1751214439645071400,5.2180712890625,1.09792959690094,-9.542194366455078,-1.977736473083496
1751214439655065300,5.2280654296875,0.8946897983551025,-9.56989574432373,-1.9460269212722778
1751214439665059300,5.238059326171875,0.6520076394081116,-9.599503517150879,-1.8959964513778687
1751214439675053600,5.248053466796875,0.39035436511039734,-9.627534866333008,-1.8244388103485107
1751214439695041500,5.26804150390625,-0.138025164604187,-9.671829223632812,-1.6146315336227417
1751214439705035800,5.278035888671875,-0.3868151307106018,-9.6865234375,-1.4805485010147095
1751214439715029800,5.28802978515625,-0.6180782318115234,-9.695859909057617,-1.3336628675460815
1751214439725023700,5.298023681640625,-0.8316537737846375,-9.700325012207031,-1.175768494606018
1751214439735017700,5.308017822265625,-1.0253371000289917,-9.700518608093262,-1.009466290473938
1751214439745012000,5.318011962890625,-1.197947382926941,-9.697239875793457,-0.8359730839729309
1751214439755006000,5.328005859375,-1.3531690835952759,-9.690427780151367,-0.6594915390014648
1751214439765000000,5.338,-1.4817814826965332,-9.681694030761719,-0.489388108253479
1751214439774994200,5.347994140625,-1.5797098875045776,-9.672934532165527,-0.3304927349090576
1751214439784988200,5.35798828125,-1.6583683490753174,-9.663703918457031,-0.1817290037870407
1751214439794982100,5.367982177734375,-1.7324342727661133,-9.65230655670166,-0.04502361640334129
1751214439804976400,5.377976318359375,-1.807440996170044,-9.638310432434082,0.08068058639764786
1751214439814970400,5.387970458984375,-1.8856329917907715,-9.621578216552734,0.20004062354564667
1751214439824964400,5.39796435546875,-1.9668145179748535,-9.602051734924316,0.32035332918167114
1751214439834958600,5.40795849609375,-2.052276611328125,-9.578622817993164,0.4566308856010437
1751214439844952600,5.41795263671875,-2.1409125328063965,-9.550167083740234,0.6174099445343018
1751214439854946600,5.427946533203125,-2.2288854122161865,-9.51645278930664,0.7997459769248962
1751214439864940500,5.4379404296875,-2.310978889465332,-9.478522300720215,0.99367356300354
1751214439874934800,5.447934814453125,-2.382744073867798,-9.438033103942871,1.1901427507400513
1751214439884928800,5.4579287109375,-2.442129135131836,-9.396733283996582,1.3812336921691895
1751214439894922800,5.4679228515625,-2.490424633026123,-9.356101036071777,1.559341311454773
1751214439904917000,5.4779169921875,-2.5319509506225586,-9.31631851196289,1.7221521139144897
1751214439914911000,5.487910888671875,-2.5732102394104004,-9.275903701782227,1.8725932836532593
1751214439924905000,5.497905029296875,-2.620694160461426,-9.232444763183594,2.01601505279541
1751214439934899200,5.507899169921875,-2.6789939403533936,-9.184011459350586,2.1557631492614746
1751214439944893200,5.51789306640625,-2.7475976943969727,-9.130703926086426,2.2915754318237305
1751214439954887200,5.52788720703125,-2.8230907917022705,-9.074396133422852,2.4198949337005615
1751214439964881200,5.537881103515625,-2.903524875640869,-9.01682186126709,2.5370984077453613
1751214439974875100,5.547875244140625,-2.9874157905578613,-8.95785140991211,2.6462502479553223
1751214439984869000,5.557869140625,-3.0755584239959717,-8.896912574768066,2.7488670349121094
1751214439994863000,5.567863037109375,-3.165506601333618,-8.835502624511719,2.843215227127075
1751214440004857300,5.577857421875,-3.254530429840088,-8.775259017944336,2.9280123710632324
1751214440014851300,5.587851318359375,-3.34324049949646,-8.71424388885498,3.0091683864593506
1751214440024845300,5.59784521484375,-3.429375171661377,-8.655362129211426,3.0813095569610596
1751214440034839300,5.60783935546875,-3.5064101219177246,-8.600821495056152,3.1466407775878906
1751214440044833300,5.617833251953125,-3.5715019702911377,-8.551102638244629,3.208331823348999
1751214440054827300,5.6278271484375,-3.6255486011505127,-8.504814147949219,3.2701568603515625
1751214440064821200,5.6378212890625,-3.669492483139038,-8.461211204528809,3.3336338996887207
1751214440074815200,5.647815185546875,-3.7073028087615967,-8.419478416442871,3.3968634605407715
1751214440084809200,5.657809326171875,-3.7397944927215576,-8.379956245422363,3.4584174156188965
1751214440094803200,5.66780322265625,-3.7681455612182617,-8.34448528289795,3.5129811763763428
1751214440104797400,5.67779736328125,-3.788417339324951,-8.313102722167969,3.565194845199585
1751214440114791400,5.68779150390625,-3.8019936084747314,-8.287094116210938,3.610997200012207
1751214440124785400,5.697785400390625,-3.8131051063537598,-8.266396522521973,3.646548271179199
1751214440134779400,5.707779296875,-3.8225677013397217,-8.251508712768555,3.670281410217285
1751214440144773400,5.7177734375,-3.8275351524353027,-8.242521286010742,3.685269355773926
1751214440154767400,5.727767333984375,-3.8270456790924072,-8.239245414733887,3.6930949687957764
1751214440164761300,5.73776123046875,-3.822800397872925,-8.241957664489746,3.6914403438568115
1751214440174755300,5.74775537109375,-3.8190011978149414,-8.248483657836914,3.6807782649993896
1751214440184749300,5.757749267578125,-3.8176794052124023,-8.25692367553711,3.6631839275360107
1751214440194743300,5.767743408203125,-3.8168675899505615,-8.267207145690918,3.6407651901245117
1751214440204737500,5.777737548828125,-3.8147642612457275,-8.279187202453613,3.6156628131866455
1751214440214731500,5.7877314453125,-3.811108350753784,-8.292975425720215,3.5878100395202637
1751214440224725500,5.7977255859375,-3.807870388031006,-8.307954788208008,3.5564584732055664
1751214440234719500,5.807719482421875,-3.806563377380371,-8.323346138000488,3.521700382232666
1751214440244713500,5.81771337890625,-3.803697109222412,-8.339487075805664,3.4864368438720703
1751214440254707500,5.82770751953125,-3.795198440551758,-8.355900764465332,3.4562668800354004
1751214440264701400,5.837701416015625,-3.783017873764038,-8.369597434997559,3.4364206790924072
1751214440274695400,5.8476953125,-3.770648241043091,-8.378711700439453,3.42779803276062
1751214440284689400,5.857689453125,-3.758826971054077,-8.385133743286133,3.4250755310058594
1751214440294683600,5.86768359375,-3.7456858158111572,-8.392218589782715,3.422116994857788
1751214440304677600,5.877677734375,-3.728868246078491,-8.402135848999023,3.4161460399627686
1751214440314671600,5.887671630859375,-3.7045092582702637,-8.416509628295898,3.407249689102173
1751214440324665600,5.89766552734375,-3.6693050861358643,-8.437067031860352,3.3944804668426514
1751214440334659600,5.90765966796875,-3.623051643371582,-8.464749336242676,3.3751893043518066
1751214440344653600,5.917653564453125,-3.57102370262146,-8.497430801391602,3.3484115600585938
1751214440354647600,5.9276474609375,-3.5162465572357178,-8.530935287475586,3.3210763931274414
1751214440364641800,5.937641845703125,-3.463453769683838,-8.56734848022461,3.2825911045074463
1751214440374635800,5.9476357421875,-3.4130170345306396,-8.607111930847168,3.230994462966919
1751214440384629800,5.957629638671875,-3.3571665287017822,-8.654755592346191,3.161492109298706
1751214440394624000,5.9676240234375,-3.2811479568481445,-8.714104652404785,3.07715106010437
1751214440404618000,5.977617919921875,-3.1803395748138428,-8.78311824798584,2.98540997505188
1751214440414612000,5.987612060546875,-3.0571680068969727,-8.858053207397461,2.8911948204040527
1751214440424606000,5.99760595703125,-2.9141316413879395,-8.934111595153809,2.803546190261841
1751214440434600200,6.00760009765625,-2.7523577213287354,-9.007180213928223,2.732326030731201
1751214440444594200,6.01759423828125,-2.5738208293914795,-9.075966835021973,2.67818284034729
1751214440454588200,6.027588134765625,-2.384450674057007,-9.141253471374512,2.631019353866577
1751214440464582400,6.03758251953125,-2.190042495727539,-9.205586433410645,2.5751256942749023
1751214440474576400,6.047576416015625,-1.9961204528808594,-9.268989562988281,2.5043373107910156
1751214440484570400,6.0575703125,-1.8064168691635132,-9.33044147491455,2.418700933456421
1751214440494564600,6.067564697265625,-1.6323801279067993,-9.384828567504883,2.330390691757202
1751214440504558600,6.07755859375,-1.4749536514282227,-9.43432331085205,2.233478546142578
1751214440514552600,6.087552490234375,-1.332322120666504,-9.480547904968262,2.124739646911621
1751214440524546800,6.097546875,-1.1975551843643188,-9.524248123168945,2.006227970123291
1751214440534540800,6.107540771484375,-1.0650986433029175,-9.565892219543457,1.8787380456924438
1751214440544534800,6.11753466796875,-0.9362130165100098,-9.605537414550781,1.7399864196777344
1751214440554528800,6.12752880859375,-0.8135677576065063,-9.641792297363281,1.5950944423675537
1751214440564523000,6.13752294921875,-0.7022466063499451,-9.673474311828613,1.4495272636413574
1751214440574517000,6.14751708984375,-0.6078355312347412,-9.70018196105957,1.3066731691360474
1751214440584511000,6.157510986328125,-0.5321165323257446,-9.722451210021973,1.1667025089263916
1751214440594505200,6.167505126953125,-0.4759970009326935,-9.740605354309082,1.0317057371139526
1751214440604499200,6.177499267578125,-0.436900794506073,-9.755172729492188,0.9033986926078796
1751214440614493200,6.1874931640625,-0.4115699827671051,-9.76688289642334,0.7803829312324524
1751214440624487400,6.1974873046875,-0.3957173228263855,-9.77645492553711,0.6593433618545532
1751214440634481400,6.2074814453125,-0.38605567812919617,-9.784258842468262,0.5381676554679871
1751214440644475400,6.217475341796875,-0.38038989901542664,-9.790410041809082,0.4166066348552704
1751214440654469600,6.2274697265625,-0.376951664686203,-9.794952392578125,0.29532110691070557
1751214440664463600,6.237463623046875,-0.37309420108795166,-9.797964096069336,0.1763371378183365
1751214440674457600,6.24745751953125,-0.3662436306476593,-9.799615859985352,0.06144632771611214
1751214440684451600,6.25745166015625,-0.35418322682380676,-9.800134658813477,-0.04807208478450775
1751214440694445800,6.26744580078125,-0.3347308039665222,-9.799758911132812,-0.1518455147743225
1751214440704439800,6.277439697265625,-0.30544233322143555,-9.798657417297363,-0.2517884373664856
1751214440714433800,6.287433837890625,-0.26523828506469727,-9.796829223632812,-0.3495366871356964
1751214440724428000,6.297427978515625,-0.2140001803636551,-9.794136047363281,-0.44663241505622864
1751214440734422000,6.307422119140625,-0.15510691702365875,-9.790373802185059,-0.5430558919906616
1751214440744416000,6.317416015625,-0.09276171773672104,-9.785469055175781,-0.6374717950820923
1751214440754410200,6.32741015625,-0.028469441458582878,-9.779500961303711,-0.7286565899848938
1751214440764404200,6.337404296875,0.037529461085796356,-9.77263069152832,-0.815269947052002
1751214440774398200,6.347398193359375,0.10535284131765366,-9.76490306854248,-0.8977435827255249
1751214440784392400,6.357392333984375,0.17446689307689667,-9.756122589111328,-0.9787850975990295
1751214440794386400,6.367386474609375,0.24367113411426544,-9.746284484863281,-1.058750033378601
1751214440804380400,6.37738037109375,0.3121936023235321,-9.735546112060547,-1.1366894245147705
1751214440814374400,6.38737451171875,0.37998926639556885,-9.724006652832031,-1.212303876876831
1751214440824368600,6.39736865234375,0.4457431435585022,-9.711877822875977,-1.28496515750885
1751214440834362600,6.407362548828125,0.5085930228233337,-9.6994047164917,-1.35397469997406
1751214440844356600,6.417356689453125,0.5697043538093567,-9.686705589294434,-1.4189990758895874
1751214440854350800,6.427350830078125,0.6306856274604797,-9.673830032348633,-1.4797449111938477
1751214440864344800,6.4373447265625,0.6921299695968628,-9.660506248474121,-1.538165807723999
1751214440874338800,6.4473388671875,0.755263090133667,-9.646127700805664,-1.5975502729415894
1751214440884333000,6.4573330078125,0.8225083351135254,-9.630995750427246,-1.6546332836151123
1751214440894327000,6.4673271484375,0.89328533411026,-9.616004943847656,-1.7043735980987549
1751214440904321000,6.477321044921875,0.965557873249054,-9.602028846740723,-1.7433072328567505
1751214440914315300,6.487315185546875,1.0376625061035156,-9.589390754699707,-1.7712197303771973
1751214440924309200,6.497309326171875,1.1075515747070312,-9.577980995178223,-1.7905337810516357
1751214440934303200,6.50730322265625,1.1752073764801025,-9.567625045776367,-1.8027238845825195
1751214440944297200,6.517297119140625,1.2399903535842896,-9.558073043823242,-1.809983491897583
1751214440954291500,6.52729150390625,1.299356460571289,-9.549501419067383,-1.8135809898376465
1751214440964285400,6.537285400390625,1.3499306440353394,-9.542267799377441,-1.8147172927856445
1751214440974279400,6.547279541015625,1.3895384073257446,-9.536248207092285,-1.8164641857147217
1751214440984273400,6.5572734375,1.4178261756896973,-9.531204223632812,-1.8210675716400146
1751214440994267400,6.567267333984375,1.4346246719360352,-9.526834487915039,-1.83075749874115
1751214441004261400,6.577261474609375,1.440390706062317,-9.52319049835205,-1.8451298475265503
1751214441014255400,6.58725537109375,1.4362528324127197,-9.52047061920166,-1.8623110055923462
1751214441024249300,6.597249267578125,1.4238137006759644,-9.518682479858398,-1.8809069395065308
1751214441034243300,6.607243408203125,1.4045710563659668,-9.517848014831543,-1.8995097875595093
1751214441044237300,6.6172373046875,1.3787243366241455,-9.517962455749512,-1.9177870750427246
1751214441054231600,6.6272314453125,1.3475912809371948,-9.51876449584961,-1.9358464479446411
1751214441064225500,6.6372255859375,1.3141409158706665,-9.519994735717773,-1.9527231454849243
1751214441074219500,6.647219482421875,1.282871961593628,-9.520986557006836,-1.9686131477355957
1751214441084213500,6.657213623046875,1.2580182552337646,-9.521071434020996,-1.984177589416504
1751214441094207500,6.66720751953125,1.2443485260009766,-9.519594192504883,-1.9998303651809692
1751214441104201500,6.677201416015625,1.2449225187301636,-9.51622486114502,-2.0154435634613037
1751214441114195500,6.687195556640625,1.2641746997833252,-9.5105619430542,-2.030141592025757
1751214441124189400,6.697189453125,1.3048015832901,-9.502497673034668,-2.04215931892395
1751214441134183400,6.707183349609375,1.3671929836273193,-9.492389678955078,-2.0483460426330566
1751214441144177700,6.717177734375,1.4489505290985107,-9.480673789978027,-2.046398401260376
1751214441154171600,6.727171630859375,1.542548418045044,-9.467552185058594,-2.0387232303619385
1751214441164165600,6.73716552734375,1.635656476020813,-9.454288482666016,-2.0276710987091064
1751214441174159600,6.74715966796875,1.7136577367782593,-9.442947387695312,-2.016062021255493
1751214441184153600,6.757153564453125,1.760172724723816,-9.436490058898926,-2.00620174407959
1751214441194147600,6.767147705078125,1.7632533311843872,-9.437494277954102,-1.9987576007843018
1751214441204141600,6.7771416015625,1.7188506126403809,-9.44747257232666,-1.990279197692871
1751214441214135600,6.787135498046875,1.6307700872421265,-9.465967178344727,-1.9764736890792847
1751214441224129500,6.797129638671875,1.504762887954712,-9.49156665802002,-1.9535183906555176
1751214441234123500,6.80712353515625,1.3460580110549927,-9.522457122802734,-1.918680191040039
1751214441244117800,6.81711767578125,1.156116008758545,-9.556134223937988,-1.8745869398117065
1751214441254111700,6.82711181640625,0.9385177493095398,-9.591076850891113,-1.8168129920959473
1751214441264105700,6.837105712890625,0.6938904523849487,-9.625465393066406,-1.7433651685714722
1751214441274099700,6.847099609375,0.42851683497428894,-9.656708717346191,-1.6537061929702759
1751214441284093700,6.85709375,0.1559363156557083,-9.682177543640137,-1.5496783256530762
1751214441294087700,6.867087646484375,-0.1122419610619545,-9.70083999633789,-1.432302713394165
1751214441314075600,6.88707568359375,-0.6066187620162964,-9.72097110748291,-1.1424161195755005
1751214441324069600,6.897069580078125,-0.8257142305374146,-9.723271369934082,-0.972931444644928
1751214441334063600,6.907063720703125,-1.0229586362838745,-9.720576286315918,-0.7964473962783813
1751214441344057900,6.917057861328125,-1.201317548751831,-9.712994575500488,-0.6204526424407959
1751214441354051800,6.9270517578125,-1.3627461194992065,-9.700955390930176,-0.45251935720443726
1751214441364045800,6.9370458984375,-1.5015455484390259,-9.686391830444336,-0.29927852749824524
1751214441374039800,6.947039794921875,-1.6143791675567627,-9.671548843383789,-0.159116730093956
1751214441384033800,6.95703369140625,-1.7093464136123657,-9.65647029876709,-0.03306153789162636
1751214441394027800,6.96702783203125,-1.7949172258377075,-9.64067268371582,0.07805953919887543
1751214441404022000,6.97702197265625,-1.8730169534683228,-9.624430656433105,0.18033534288406372
1751214441414016000,6.98701611328125,-1.942022442817688,-9.608138084411621,0.2874370813369751
1751214441424010000,6.997010009765625,-2.002340316772461,-9.590971946716309,0.4174679219722748
1751214441434004200,7.007004150390625,-2.0558621883392334,-9.570853233337402,0.5853026509284973
1751214441443998200,7.016998291015625,-2.101576805114746,-9.545458793640137,0.7987437844276428
1751214441453992200,7.0269921875,-2.132328748703003,-9.514348030090332,1.0491670370101929
1751214441463986400,7.036986328125,-2.142350673675537,-9.478971481323242,1.315224528312683
1751214441473980400,7.04698046875,-2.1322951316833496,-9.441232681274414,1.5769643783569336
1751214441483974400,7.056974365234375,-2.114046573638916,-9.400914192199707,1.8231850862503052
1751214441493968600,7.06696875,-2.106895685195923,-9.35549545288086,2.050873041152954
1751214441503962600,7.076962646484375,-2.1263654232025146,-9.302811622619629,2.25978946685791
1751214441513956600,7.08695654296875,-2.175872325897217,-9.242916107177734,2.450404405593872
1751214441523950600,7.09695068359375,-2.255995035171509,-9.176403999328613,2.6219236850738525
1751214441533944800,7.10694482421875,-2.362602949142456,-9.104999542236328,2.7726266384124756
1751214441543938800,7.116938720703125,-2.4866676330566406,-9.030723571777344,2.9039483070373535
1751214441553932800,7.126932861328125,-2.610957622528076,-8.954804420471191,3.027334690093994
1751214441563927000,7.136927001953125,-2.715559244155884,-8.8793363571167,3.1549172401428223
1751214441573921000,7.146921142578125,-2.806349992752075,-8.807014465332031,3.2758641242980957
1751214441583915000,7.1569150390625,-2.8896405696868896,-8.739246368408203,3.3831820487976074
1751214441593909200,7.1669091796875,-2.9700028896331787,-8.673030853271484,3.4825313091278076
1751214441603903200,7.1769033203125,-3.0517852306365967,-8.609006881713867,3.5695950984954834
1751214441613897200,7.186897216796875,-3.129321813583374,-8.550457954406738,3.6424431800842285
1751214441623891500,7.196891357421875,-3.198147773742676,-8.498127937316895,3.7046005725860596
1751214441633885400,7.206885498046875,-3.2615435123443604,-8.449104309082031,3.761032819747925
1751214441643879400,7.21687939453125,-3.3217387199401855,-8.401846885681152,3.813845157623291
1751214441653873400,7.226873291015625,-3.3755393028259277,-8.358732223510742,3.861051559448242
1751214441663867600,7.23686767578125,-3.4227943420410156,-8.319875717163086,3.9031450748443604
1751214441673861600,7.246861572265625,-3.462348222732544,-8.284942626953125,3.942368984222412
1751214441683855600,7.256855712890625,-3.491288900375366,-8.255070686340332,3.9793334007263184
1751214441693849900,7.266849853515625,-3.5093798637390137,-8.230766296386719,4.013617038726807
1751214441703843800,7.27684375,-3.5183281898498535,-8.21176528930664,4.044585227966309
1751214441713837800,7.286837890625,-3.520883321762085,-8.19909381866455,4.067999362945557
1751214441723832000,7.29683203125,-3.522186756134033,-8.193855285644531,4.077414512634277
1751214441733826000,7.306825927734375,-3.5260305404663086,-8.195466995239258,4.070849895477295
1751214441753814300,7.326814208984375,-3.5378048419952393,-8.211645126342773,4.027803897857666
1751214441763808300,7.336808349609375,-3.546384334564209,-8.224615097045898,3.993650436401367
1751214441773802200,7.34680224609375,-3.555417537689209,-8.241619110107422,3.950331211090088
1751214441783796200,7.356796142578125,-3.5604450702667236,-8.264204978942871,3.8982737064361572
1751214441793790500,7.36679052734375,-3.5582897663116455,-8.294142723083496,3.8361661434173584
1751214441803784400,7.376784423828125,-3.547140598297119,-8.332985877990723,3.7615866661071777
1751214441813778400,7.3867783203125,-3.524871826171875,-8.381125450134277,3.6745595932006836
1751214441823772700,7.396772705078125,-3.4905073642730713,-8.437994003295898,3.575892925262451
1751214441833766700,7.4067666015625,-3.4473867416381836,-8.500959396362305,3.466928243637085
1751214441843760600,7.4167607421875,-3.4011151790618896,-8.565343856811523,3.352266788482666
1751214441853755000,7.4267548828125,-3.3477139472961426,-8.631199836730957,3.2350542545318604
1751214441863748900,7.436748779296875,-3.267183303833008,-8.705037117004395,3.117405652999878
1751214441873742800,7.446742919921875,-3.1447291374206543,-8.791036605834961,2.9997897148132324
1751214441883737000,7.456737060546875,-2.9772233963012695,-8.887928009033203,2.8829264640808105
1751214441893731000,7.46673095703125,-2.7692017555236816,-8.991909980773926,2.7654051780700684
1751214441903725000,7.47672509765625,-2.524031639099121,-9.097841262817383,2.6512134075164795
1751214441913719000,7.486718994140625,-2.250401020050049,-9.198003768920898,2.5500588417053223
1751214441923713300,7.49671337890625,-1.9721404314041138,-9.284380912780762,2.466032028198242
1751214441933707300,7.506707275390625,-1.7193163633346558,-9.35584831237793,2.383786916732788
1751214441943701200,7.516701171875,-1.5016717910766602,-9.415721893310547,2.2933716773986816
1751214441953695500,7.526695556640625,-1.2911897897720337,-9.468606948852539,2.201977014541626
1751214441963689500,7.536689453125,-1.0821125507354736,-9.515047073364258,2.1126465797424316
1751214441973683500,7.546683349609375,-0.8871693015098572,-9.554926872253418,2.0215530395507812
1751214441983677400,7.556677490234375,-0.7128103375434875,-9.589852333068848,1.9227662086486816
1751214441993671400,7.56667138671875,-0.5602654218673706,-9.619718551635742,1.8214077949523926
1751214442003665700,7.576665771484375,-0.43020084500312805,-9.64380931854248,1.7269178628921509
1751214442013659600,7.58665966796875,-0.32596495747566223,-9.664250373840332,1.6329100131988525
1751214442023653600,7.596653564453125,-0.24744366109371185,-9.683117866516113,1.5317906141281128
1751214442033647600,7.606647705078125,-0.19000141322612762,-9.700284957885742,1.427847146987915
1751214442043641600,7.6166416015625,-0.1427948921918869,-9.715277671813965,1.327925443649292
1751214442053635600,7.626635498046875,-0.10060489922761917,-9.72783374786377,1.2367274761199951
1751214442063629600,7.636629638671875,-0.06206041947007179,-9.738499641418457,1.152457356452942
1751214442073623600,7.64662353515625,-0.02638988196849823,-9.748079299926758,1.0698786973953247
1751214442083617500,7.656617431640625,0.006754297763109207,-9.757194519042969,0.9836138486862183
1751214442093611800,7.66661181640625,0.03889072686433792,-9.76617431640625,0.8892140984535217
1751214442103605800,7.676605712890625,0.07259689271450043,-9.774721145629883,0.7873703837394714
1751214442113599700,7.686599853515625,0.10825417935848236,-9.781922340393066,0.6875153183937073
1751214442123593700,7.69659375,0.14966614544391632,-9.78707218170166,0.6009995341300964
1751214442133587700,7.706587646484375,0.20001520216464996,-9.790508270263672,0.5256717205047607
1751214442143581700,7.716581787109375,0.2593132555484772,-9.792743682861328,0.45312100648880005
1751214442153575700,7.72657568359375,0.32408949732780457,-9.793920516967773,0.38009512424468994
1751214442163569700,7.736569580078125,0.390726238489151,-9.794187545776367,0.3026556670665741
1751214442173563600,7.746563720703125,0.4546785354614258,-9.793615341186523,0.2207982838153839
1751214442183557600,7.7565576171875,0.5156553983688354,-9.792099952697754,0.1388261467218399
1751214442193552000,7.7665517578125,0.5763161778450012,-9.78952693939209,0.05837462842464447
1751214442203545900,7.7765458984375,0.6367730498313904,-9.785926818847656,-0.02320168726146221
1751214442233527800,7.80652783203125,0.8013717532157898,-9.769661903381348,-0.28617268800735474
1751214442243521800,7.816521728515625,0.8468217849731445,-9.762945175170898,-0.371750146150589
1751214442253515800,7.826515869140625,0.8865327835083008,-9.755899429321289,-0.45482203364372253
1751214442263509800,7.836509765625,0.9212266206741333,-9.748477935791016,-0.5374903082847595
1751214442273503700,7.846503662109375,0.9525884389877319,-9.740686416625977,-0.6180464029312134
1751214442283497700,7.856497802734375,0.9819678068161011,-9.732712745666504,-0.6931240558624268
1751214442293492000,7.866491943359375,1.0106253623962402,-9.724685668945312,-0.7612490653991699
1751214442303486000,7.87648583984375,1.039426326751709,-9.716729164123535,-0.8216733932495117
1751214442313480000,7.88647998046875,1.0703508853912354,-9.708742141723633,-0.8746877908706665
1751214442323474000,7.896473876953125,1.1034637689590454,-9.700569152832031,-0.9228811860084534
1751214442333468000,7.906468017578125,1.1380870342254639,-9.69253158569336,-0.964353621006012
1751214442343462000,7.9164619140625,1.172834038734436,-9.684806823730469,-0.999679446220398
1751214442353455900,7.926455810546875,1.2060072422027588,-9.67751693725586,-1.0303349494934082
1751214442363449900,7.936449951171875,1.2357614040374756,-9.670760154724121,-1.0581499338150024
1751214442373443800,7.94644384765625,1.2599272727966309,-9.664892196655273,-1.0829763412475586
1751214442383438000,7.95643798828125,1.2768402099609375,-9.660141944885254,-1.1053135395050049
1751214442393432000,7.96643212890625,1.2850542068481445,-9.656502723693848,-1.1273820400238037
1751214442413420000,7.986419921875,1.2799108028411865,-9.652231216430664,-1.169039249420166
1751214442423414000,7.9964140625,1.2729586362838745,-9.651116371154785,-1.185718297958374
1751214442433408000,8.006407958984376,1.2657723426818848,-9.650532722473145,-1.1980899572372437
1751214442443402200,8.01640234375,1.2586183547973633,-9.650571823120117,-1.2052927017211914
1751214442453396200,8.026396240234375,1.2522956132888794,-9.651084899902344,-1.207762598991394
1751214442463390200,8.03639013671875,1.24726140499115,-9.651592254638672,-1.2089195251464844
1751214442473384400,8.046384521484375,1.2414886951446533,-9.652092933654785,-1.210862636566162
1751214442483378400,8.05637841796875,1.2329403162002563,-9.652765274047852,-1.2142375707626343
1751214442493372400,8.066372314453124,1.2216670513153076,-9.653690338134766,-1.2182644605636597
1751214442503366700,8.07636669921875,1.2089414596557617,-9.654254913330078,-1.2264654636383057
1751214442513360600,8.086360595703125,1.195915937423706,-9.654539108276367,-1.2369484901428223
1751214442523354600,8.096354736328125,1.1834720373153687,-9.655133247375488,-1.2442545890808105
1751214442533348600,8.1063486328125,1.1729596853256226,-9.65611457824707,-1.246593952178955
1751214442543342800,8.1163427734375,1.1661146879196167,-9.65717887878418,-1.2447649240493774
1751214442553336800,8.1263369140625,1.1652486324310303,-9.657881736755371,-1.2401130199432373
1751214442563330800,8.136330810546875,1.172847867012024,-9.657817840576172,-1.2334327697753906
1751214442573325000,8.146324951171875,1.1906336545944214,-9.656512260437012,-1.2266061305999756
1751214442583319000,8.156319091796876,1.2185211181640625,-9.653579711914062,-1.2222918272018433
1751214442593313000,8.16631298828125,1.2549017667770386,-9.648656845092773,-1.224348783493042
1751214442603307300,8.176307373046875,1.295043706893921,-9.641552925109863,-1.238432765007019
1751214442613301200,8.18630126953125,1.3357590436935425,-9.63210678100586,-1.2683295011520386
1751214442623295200,8.196295166015625,1.3743302822113037,-9.620667457580566,-1.3131486177444458
1751214442633289500,8.20628955078125,1.4074490070343018,-9.6085205078125,-1.3659433126449585
1751214442643283500,8.216283447265624,1.4344674348831177,-9.596729278564453,-1.4196758270263672
1751214442653277400,8.22627734375,1.455891728401184,-9.585636138916016,-1.471849799156189
1751214442663271400,8.236271484375,1.470668077468872,-9.576388359069824,-1.516675353050232
1751214442673265700,8.246265625,1.4758594036102295,-9.570960998535156,-1.5456138849258423
1751214442683259600,8.256259765625,1.4689031839370728,-9.570877075195312,-1.552752137184143
1751214442693253600,8.266253662109374,1.4450984001159668,-9.577829360961914,-1.5320789813995361
1751214442703248000,8.276247802734375,1.4042917490005493,-9.59187126159668,-1.481336236000061
1751214442713241900,8.286241943359375,1.3448240756988525,-9.611891746520996,-1.4047683477401733
1751214442723235800,8.29623583984375,1.2637804746627808,-9.635326385498047,-1.3167202472686768
1751214442733230000,8.30622998046875,1.1560859680175781,-9.661107063293457,-1.2234604358673096
1751214442743224000,8.31622412109375,1.016898512840271,-9.688438415527344,-1.1271507740020752
1751214442753218000,8.326218017578125,0.8455421924591064,-9.715826034545898,-1.0286667346954346
1751214442763212300,8.33621240234375,0.6498735547065735,-9.741119384765625,-0.9266259074211121
1751214442783200300,8.3562001953125,0.22039198875427246,-9.779317855834961,-0.6976690888404846
1751214442793194200,8.3661943359375,-0.003202135907486081,-9.790367126464844,-0.5648748874664307
1751214442803188500,8.3761884765625,-0.22432160377502441,-9.795219421386719,-0.41683411598205566
1751214442813182500,8.386182373046875,-0.43144485354423523,-9.793883323669434,-0.25314730405807495
1751214442823176400,8.396176513671875,-0.6140395402908325,-9.787114143371582,-0.07579033076763153
1751214442833170700,8.406170654296876,-0.7667709589004517,-9.776020050048828,0.10901912301778793
1751214442843164700,8.41616455078125,-0.8891648054122925,-9.761775970458984,0.2958236336708069
1751214442853158700,8.42615869140625,-0.982559084892273,-9.745567321777344,0.4784262776374817
1751214442863153000,8.43615283203125,-1.0556527376174927,-9.727458953857422,0.6576536893844604
1751214442873147000,8.44614697265625,-1.1172516345977783,-9.707073211669922,0.8335854411125183
1751214442883140900,8.456140869140626,-1.1734240055084229,-9.683923721313477,1.0075204372406006
1751214442893135000,8.466135009765624,-1.2320045232772827,-9.656900405883789,1.1818687915802002
1751214442903129000,8.476129150390625,-1.3034546375274658,-9.623805046081543,1.361533761024475
1751214442913123000,8.486123046875,-1.4007354974746704,-9.581299781799316,1.5514519214630127
1751214442923117000,8.496116943359375,-1.5275131464004517,-9.5274076461792,1.7508819103240967
1751214442933111300,8.506111328125,-1.6733647584915161,-9.462738990783691,1.9562230110168457
1751214442943105300,8.516105224609374,-1.8243666887283325,-9.389592170715332,2.162781000137329
1751214442953099300,8.526099365234375,-1.9715888500213623,-9.310527801513672,2.365856170654297
1751214442963093200,8.53609326171875,-2.112440347671509,-9.228912353515625,2.556396722793579
1751214442973087200,8.546087158203125,-2.2465121746063232,-9.145434379577637,2.7358005046844482
1751214442983081200,8.556081298828126,-2.376244306564331,-9.059394836425781,2.907097816467285
1751214442993075500,8.566075439453124,-2.5075502395629883,-8.970191955566406,3.068913459777832
1751214443003069400,8.5760693359375,-2.640786647796631,-8.878117561340332,3.2211272716522217
1751214443013063400,8.5860634765625,-2.773728847503662,-8.783855438232422,3.364623546600342
1751214443023057400,8.596057373046875,-2.9042322635650635,-8.688928604125977,3.4983344078063965
1751214443033051400,8.606051513671876,-3.028822660446167,-8.594884872436523,3.6227869987487793
1751214443043045400,8.61604541015625,-3.1419308185577393,-8.503055572509766,3.741215705871582
1751214443053039400,8.626039306640624,-3.238476276397705,-8.413986206054688,3.858431816101074
1751214443063033300,8.636033447265625,-3.319654703140259,-8.327566146850586,3.9751625061035156
1751214443073027300,8.64602734375,-3.393193483352661,-8.242520332336426,4.0887017250061035
1751214443083021600,8.656021484375,-3.4644501209259033,-8.158385276794434,4.196273326873779
1751214443093015600,8.666015625,-3.532961845397949,-8.075522422790527,4.298198223114014
1751214443103009500,8.676009521484374,-3.594248056411743,-7.995855331420898,4.395233154296875
1751214443113003500,8.68600341796875,-3.646301031112671,-7.920844554901123,4.4872145652771
1751214443122997500,8.69599755859375,-3.6891062259674072,-7.8514790534973145,4.573309898376465
1751214443132991500,8.705991455078125,-3.7239158153533936,-7.788602828979492,4.651935577392578
1751214443142985500,8.7159853515625,-3.7511096000671387,-7.73170280456543,4.724440574645996
1751214443152979500,8.7259794921875,-3.769582748413086,-7.680286884307861,4.793101787567139
1751214443162973400,8.735973388671875,-3.783217430114746,-7.634709358215332,4.854778289794922
1751214443172967400,8.745967529296875,-3.791368246078491,-7.595393657684326,4.909776210784912
1751214443182961700,8.755961669921875,-3.7937684059143066,-7.561318397521973,4.960259437561035
1751214443192955600,8.76595556640625,-3.7932486534118652,-7.531191349029541,5.006277561187744
1751214443202949600,8.77594970703125,-3.7981631755828857,-7.5070576667785645,5.038693428039551
1751214443212943600,8.785943603515625,-3.806688070297241,-7.490732192993164,5.056524753570557
1751214443222937600,8.7959375,-3.818300724029541,-7.481261253356934,5.061788082122803
1751214443232931600,8.805931640625,-3.831148624420166,-7.478396415710449,5.056311130523682
1751214443242925600,8.815925537109376,-3.839214324951172,-7.483189582824707,5.043083667755127
1751214443252919600,8.82591943359375,-3.837834358215332,-7.495739459991455,5.025465488433838
1751214443262913500,8.83591357421875,-3.826916217803955,-7.516000270843506,5.003483772277832
1751214443272907500,8.845907470703125,-3.807433843612671,-7.5438642501831055,4.976339817047119
1751214443282901800,8.85590185546875,-3.7810428142547607,-7.579591751098633,4.94205379486084
1751214443292895700,8.865895751953126,-3.745683431625366,-7.625139236450195,4.89872407913208
1751214443302889700,8.8758896484375,-3.6969351768493652,-7.682283401489258,4.846193790435791
1751214443312883700,8.8858837890625,-3.6330337524414062,-7.750858306884766,4.784940242767334
1751214443322877700,8.895877685546875,-3.551201581954956,-7.829230785369873,4.718316078186035
1751214443332871700,8.90587158203125,-3.4408652782440186,-7.920274257659912,4.647590637207031
1751214443342865700,8.91586572265625,-3.28537917137146,-8.02858829498291,4.573668956756592
1751214443352859600,8.925859619140626,-3.0744922161102295,-8.152674674987793,4.500197410583496
1751214443362853600,8.935853515625,-2.8163321018218994,-8.285065650939941,4.426774024963379
1751214443372847900,8.945847900390625,-2.529554843902588,-8.415853500366211,4.352602005004883
1751214443382841900,8.955841796875,-2.23158597946167,-8.535409927368164,4.282195568084717
1751214443392835800,8.9658359375,-1.931031584739685,-8.645301818847656,4.207167625427246
1751214443402829800,8.975829833984376,-1.6334987878799438,-8.752998352050781,4.10938835144043
1751214443412823800,8.98582373046875,-1.3576983213424683,-8.863628387451172,3.970280647277832
1751214443432812000,9.00581201171875,-0.9514967799186707,-9.068968772888184,3.6081631183624268
1751214443442806000,9.015805908203125,-0.8372414708137512,-9.15002727508545,3.42730450630188
1751214443452800000,9.025800048828126,-0.7606027722358704,-9.219223976135254,3.255422353744507
1751214443462794200,9.035794189453124,-0.6942826509475708,-9.280546188354492,3.0918962955474854
1751214443472788200,9.045788330078125,-0.628251850605011,-9.333104133605957,2.944291830062866
1751214443482782200,9.0557822265625,-0.5664500594139099,-9.379825592041016,2.805063486099243
1751214443492776400,9.0657763671875,-0.5144332051277161,-9.423460006713867,2.6653621196746826
1751214443502770400,9.0757705078125,-0.47247573733329773,-9.463325500488281,2.528364658355713
1751214443512764400,9.085764404296874,-0.43623924255371094,-9.499096870422363,2.397341012954712
1751214443522758400,9.09575830078125,-0.4028741121292114,-9.53120231628418,2.272501230239868
1751214443532752600,9.105752685546875,-0.3716866672039032,-9.560163497924805,2.1530261039733887
1751214443542746600,9.11574658203125,-0.3395841121673584,-9.58615493774414,2.0397791862487793
1751214443552740600,9.12574072265625,-0.30375349521636963,-9.609664916992188,1.9319545030593872
1751214443562734800,9.13573486328125,-0.26281529664993286,-9.631461143493652,1.8265446424484253
1751214443572728800,9.145728759765625,-0.21568728983402252,-9.652104377746582,1.7206830978393555
1751214443582722800,9.155722900390625,-0.1616421490907669,-9.67180061340332,1.6126140356063843
1751214443592717000,9.165717041015625,-0.09977266937494278,-9.690642356872559,1.5006303787231445
1751214443602711000,9.1757109375,-0.03109166771173477,-9.708309173583984,1.384974718093872
1751214443612705000,9.185705078125,0.0426444336771965,-9.724432945251465,1.2664817571640015
1751214443622699300,9.19569921875,0.12044331431388855,-9.738637924194336,1.1466556787490845
1751214443632693200,9.205693359375,0.1994292438030243,-9.750754356384277,1.0263606309890747
1751214443642687200,9.215687255859375,0.2763673961162567,-9.760738372802734,0.906630277633667
1751214443652681200,9.22568115234375,0.35061103105545044,-9.768633842468262,0.7881974577903748
1751214443662675500,9.235675537109374,0.4224540889263153,-9.774431228637695,0.6726146340370178
1751214443672669400,9.24566943359375,0.4930831789970398,-9.778175354003906,0.560837984085083
1751214443682663400,9.255663330078125,0.5630233287811279,-9.779986381530762,0.45304933190345764
1751214443692657700,9.26565771484375,0.6324368715286255,-9.779984474182129,0.3497602641582489
1751214443702651600,9.275651611328126,0.7006574869155884,-9.778332710266113,0.2523203194141388
1751214443712645600,9.285645751953124,0.7660771012306213,-9.775355339050293,0.1610606610774994
1751214443722640000,9.295639892578125,0.8288885951042175,-9.771255493164062,0.07676177471876144
1751214443732633900,9.3056337890625,0.8899343609809875,-9.766186714172363,-0.0004348976362962276
1751214443742627800,9.3156279296875,0.9483824372291565,-9.760419845581055,-0.0717528834939003
1751214443752622000,9.3256220703125,1.0008972883224487,-9.754461288452148,-0.1381465196609497
1751214443762616000,9.335615966796874,1.0438638925552368,-9.748882293701172,-0.20007774233818054
1751214443772610000,9.345610107421875,1.07760488986969,-9.743854522705078,-0.2577941417694092
1751214443782604000,9.35560400390625,1.1033711433410645,-9.73943042755127,-0.3105815649032593
1751214443792598300,9.365598388671875,1.1229199171066284,-9.735577583312988,-0.35773545503616333
1751214443802592300,9.37559228515625,1.137869119644165,-9.7321138381958,-0.4020109474658966
1751214443812586200,9.385586181640624,1.1502079963684082,-9.728738784790039,-0.44616010785102844
1751214443822580500,9.39558056640625,1.1627137660980225,-9.725205421447754,-0.4887465238571167
1751214443832574500,9.405574462890625,1.1781480312347412,-9.721323013305664,-0.5274906158447266
1751214443842568400,9.415568359375,1.1976244449615479,-9.716924667358398,-0.563423216342926
1751214443852562700,9.425562744140626,1.2210490703582764,-9.71183967590332,-0.5996489524841309
1751214443862556700,9.435556640625,1.2475136518478394,-9.706029891967773,-0.6380173563957214
1751214443872550700,9.445550537109375,1.2762364149093628,-9.699740409851074,-0.6757580041885376
1751214443882545000,9.455544921875,1.30672025680542,-9.69311809539795,-0.7115772366523743
1751214443892539000,9.465538818359375,1.3385248184204102,-9.68628978729248,-0.7446722984313965
1751214443902532900,9.475532958984376,1.371567964553833,-9.67924976348877,-0.7754473686218262
1751214443912526800,9.48552685546875,1.4036948680877686,-9.671958923339844,-0.8082268834114075
1751214443922520800,9.495520751953125,1.4342482089996338,-9.664582252502441,-0.8421230316162109
1751214443932514800,9.505514892578125,1.4615929126739502,-9.657681465148926,-0.8736873269081116
1751214443942508800,9.5155087890625,1.4843190908432007,-9.651430130004883,-0.9039247632026672
1751214443952502800,9.525502685546876,1.503125548362732,-9.645578384399414,-0.9347878694534302
1751214443962497000,9.5354970703125,1.5189661979675293,-9.639843940734863,-0.9677404761314392
1751214443972491000,9.545490966796875,1.5324620008468628,-9.634286880493164,-1.0012198686599731
1751214443982485000,9.555485107421875,1.5431710481643677,-9.629190444946289,-1.0332955121994019
1751214443992479000,9.56547900390625,1.5510443449020386,-9.62452507019043,-1.064504861831665
1751214444002473000,9.575472900390626,1.5561211109161377,-9.620392799377441,-1.0940418243408203
1751214444012467000,9.585467041015624,1.554229736328125,-9.617925643920898,-1.1181520223617554
1751214444022461000,9.5954609375,1.5419528484344482,-9.617552757263184,-1.138179898262024
1751214444032455000,9.605454833984375,1.5215044021606445,-9.618996620178223,-1.1533931493759155
1751214444042449000,9.615448974609375,1.495184063911438,-9.622248649597168,-1.1606628894805908
1751214444052443000,9.62544287109375,1.4630976915359497,-9.627361297607422,-1.1591606140136719
1751214444062437000,9.63543701171875,1.42880380153656,-9.632929801940918,-1.1556737422943115
1751214444072431000,9.64543115234375,1.3964920043945312,-9.63780689239502,-1.1545037031173706
1751214444082425000,9.655425048828125,1.3680627346038818,-9.641676902770996,-1.1562256813049316
1751214444092419000,9.665419189453125,1.3441061973571777,-9.644344329833984,-1.1620547771453857
1751214444102413000,9.6754130859375,1.3257356882095337,-9.645651817321777,-1.1722694635391235
1751214444112407000,9.685406982421876,1.3140218257904053,-9.644217491149902,-1.1969990730285645
1751214444122401000,9.695401123046874,1.3131178617477417,-9.639822006225586,-1.232853889465332
1751214444132395000,9.70539501953125,1.3216087818145752,-9.63410472869873,-1.2679792642593384
1751214444142389000,9.715388916015625,1.3353923559188843,-9.627842903137207,-1.3006787300109863
1751214444152383200,9.72538330078125,1.3527507781982422,-9.62116527557373,-1.3317688703536987
1751214444162377200,9.735377197265626,1.3758963346481323,-9.613880157470703,-1.3603672981262207
1751214444172371200,9.74537109375,1.4066884517669678,-9.606368064880371,-1.381777048110962
1751214444182365200,9.755365234375,1.4452115297317505,-9.599308013916016,-1.3910558223724365
1751214444192359200,9.765359130859375,1.4892263412475586,-9.593179702758789,-1.38690185546875
1751214444202353200,9.775353271484375,1.5334148406982422,-9.58826732635498,-1.3726428747177124
1751214444242329000,9.8153291015625,1.603588581085205,-9.57921028137207,-1.3555927276611328
1751214444252323300,9.8253232421875,1.5698885917663574,-9.585887908935547,-1.347814679145813
1751214444262317300,9.8353173828125,1.497815489768982,-9.599169731140137,-1.3352453708648682
1751214444272311300,9.845311279296874,1.3865506649017334,-9.618086814880371,-1.3191925287246704
1751214444282305300,9.85530517578125,1.2451517581939697,-9.639809608459473,-1.3015573024749756
1751214444292299300,9.86529931640625,1.0842818021774292,-9.661863327026367,-1.281842589378357
1751214444302293200,9.875293212890625,0.9117412567138672,-9.682498931884766,-1.2602908611297607
1751214444312287200,9.885287353515626,0.7331777811050415,-9.700648307800293,-1.237041711807251
1751214444322281200,9.89528125,0.5524676442146301,-9.715781211853027,-1.2119182348251343
1751214444332275200,9.905275146484374,0.37334880232810974,-9.727899551391602,-1.1827813386917114
1751214444342269200,9.915269287109375,0.19951969385147095,-9.737593650817871,-1.1444854736328125
1751214444352263400,9.925263427734375,0.03444363921880722,-9.745701789855957,-1.0910993814468384
1751214444362257400,9.93525732421875,-0.11915671825408936,-9.75291919708252,-1.018211841583252
1751214444372251400,9.94525146484375,-0.2583632171154022,-9.759337425231934,-0.9267961382865906
1751214444382245400,9.955245361328124,-0.3826703727245331,-9.76490592956543,-0.8188871741294861
1751214444392239400,9.9652392578125,-0.49155327677726746,-9.769735336303711,-0.6935727000236511
1751214444402233300,9.9752333984375,-0.5836455225944519,-9.773780822753906,-0.5504167675971985
1751214444412227600,9.9852275390625,-0.656870424747467,-9.776906967163086,-0.38858604431152344
1751214444422221600,9.9952216796875,-0.7198964357376099,-9.778013229370117,-0.2063833326101303
1751214444432215600,10.005215576171874,-0.7841469049453735,-9.77524471282959,-0.009322957135736942
1751214444442209800,10.015209716796875,-0.855404794216156,-9.767383575439453,0.19208131730556488
1751214444452203800,10.025203857421875,-0.9387118220329285,-9.753806114196777,0.39046549797058105
1751214444462197800,10.03519775390625,-1.0417379140853882,-9.733779907226562,0.581982433795929
1751214444472191700,10.045191650390626,-1.1697241067886353,-9.706583023071289,0.7644468545913696
1751214444482186000,10.05518603515625,-1.3220628499984741,-9.6718111038208,0.9373297691345215
1751214444492180000,10.065179931640625,-1.4922293424606323,-9.629134178161621,1.1060802936553955
1751214444502174000,10.075174072265625,-1.6684495210647583,-9.579444885253906,1.2731448411941528
1751214444512168200,10.085168212890625,-1.8329992294311523,-9.525997161865234,1.4373177289962769
1751214444522162200,10.095162109375,-1.968509554862976,-9.473154067993164,1.5983433723449707
1751214444532156200,10.10515625,-2.0814239978790283,-9.42093563079834,1.7561393976211548
1751214444542150400,10.115150390625,-2.1757311820983887,-9.368707656860352,1.9141342639923096
1751214444552144400,10.125144287109375,-2.253922462463379,-9.316020011901855,2.074125289916992
1751214444562138400,10.135138427734375,-2.322498083114624,-9.262262344360352,2.2331361770629883
1751214444572132600,10.145132568359376,-2.389913320541382,-9.206501960754395,2.3872625827789307
1751214444582126600,10.155126708984374,-2.4647274017333984,-9.147529602050781,2.533418655395508
1751214444592120600,10.16512060546875,-2.5471038818359375,-9.085562705993652,2.6711812019348145
1751214444602114600,10.175114501953125,-2.633409023284912,-9.020825386047363,2.8036162853240967
1751214444612108800,10.18510888671875,-2.718918800354004,-8.954194068908691,2.9326229095458984
1751214444622102800,10.195102783203126,-2.798663854598999,-8.886089324951172,3.0619072914123535
1751214444632096800,10.2050966796875,-2.8714778423309326,-8.816975593566895,3.191541910171509
1751214444642091000,10.215091064453125,-2.93524169921875,-8.746593475341797,3.3244287967681885
1751214444652085000,10.2250849609375,-2.9892234802246094,-8.674224853515625,3.463055372238159
1751214444662079000,10.235078857421875,-3.033504009246826,-8.602096557617188,3.6016924381256104
1751214444672073200,10.2450732421875,-3.0695736408233643,-8.532950401306152,3.7332100868225098
1751214444682067200,10.255067138671874,-3.100405216217041,-8.467120170593262,3.855611801147461
1751214444692061200,10.265061279296875,-3.129897117614746,-8.403393745422363,3.9695229530334473
1751214444702055400,10.275055419921875,-3.1582729816436768,-8.340217590332031,4.07878303527832
1751214444712049400,10.28504931640625,-3.185408115386963,-8.273174285888672,4.192631244659424
1751214444722043400,10.29504345703125,-3.214679479598999,-8.204194068908691,4.304349422454834
1751214444732037400,10.305037353515624,-3.246619462966919,-8.137309074401855,4.406137466430664
1751214444742031600,10.315031494140625,-3.2817728519439697,-8.075754165649414,4.492499351501465
1751214444752025600,10.325025634765625,-3.319361686706543,-8.018479347229004,4.566858768463135
1751214444762019600,10.33501953125,-3.36047625541687,-7.964995861053467,4.629948616027832
1751214444772013800,10.345013916015626,-3.404664993286133,-7.9164347648620605,4.680673599243164
1751214444782007800,10.3550078125,-3.45078706741333,-7.873297214508057,4.719496726989746
1751214444792001800,10.365001708984375,-3.49819016456604,-7.835234642028809,4.747858047485352
1751214444801996000,10.37499609375,-3.5453364849090576,-7.801870822906494,4.767787933349609
1751214444811990000,10.384989990234375,-3.590972900390625,-7.775233268737793,4.777137756347656
1751214444821984000,10.39498388671875,-3.6284749507904053,-7.754278659820557,4.782856464385986
1751214444831978000,10.40497802734375,-3.656643867492676,-7.738751411437988,4.786550998687744
1751214444841972200,10.41497216796875,-3.6768858432769775,-7.729275703430176,4.786355495452881
1751214444851966200,10.42496630859375,-3.6864078044891357,-7.722620010375977,4.7897725105285645
1751214444861960200,10.434960205078125,-3.688304901123047,-7.718091011047363,4.795609474182129
1751214444871954400,10.444954345703126,-3.6848926544189453,-7.717142581939697,4.7997565269470215
1751214444881948400,10.454948486328124,-3.6749489307403564,-7.7207112312316895,4.801641464233398
1751214444891942400,10.4649423828125,-3.657410144805908,-7.729008197784424,4.801684856414795
1751214444901936400,10.474936279296875,-3.6312477588653564,-7.74141263961792,4.8015570640563965
1751214444911930400,10.484930419921875,-3.597776412963867,-7.758015155792236,4.799958229064941
1751214444921924400,10.49492431640625,-3.5587637424468994,-7.779430389404297,4.794378280639648
1751214444931918300,10.50491845703125,-3.516040802001953,-7.80674934387207,4.78147554397583
1751214444941912300,10.514912353515625,-3.470799207687378,-7.8412299156188965,4.758052825927734
1751214444951906300,10.52490625,-3.4264488220214844,-7.881997585296631,4.722705364227295
1751214444961900300,10.534900390625,-3.3909921646118164,-7.923127174377441,4.679275989532471
1751214444971894500,10.54489453125,-3.3670709133148193,-7.963094234466553,4.6284284591674805
1751214444981888500,10.554888427734374,-3.345518112182617,-8.006468772888184,4.568844795227051
1751214444991882500,10.564882568359375,-3.3144402503967285,-8.057435989379883,4.501400947570801
1751214445001876500,10.57487646484375,-3.256653070449829,-8.120328903198242,4.429996490478516
1751214445011870500,10.584870361328125,-3.1542835235595703,-8.199065208435059,4.358464241027832
1751214445021864400,10.594864501953126,-3.0006091594696045,-8.291568756103516,4.2914581298828125
1751214445031858400,10.6048583984375,-2.8031606674194336,-8.391963005065918,4.229379177093506
1751214445041852400,10.614852294921874,-2.5766565799713135,-8.496824264526367,4.163557529449463
1751214445051846400,10.624846435546875,-2.339052438735962,-8.604975700378418,4.080882549285889
1751214445061840400,10.63484033203125,-2.1069538593292236,-8.713624954223633,3.9754092693328857
1751214445071834600,10.644834716796876,-1.8925130367279053,-8.819860458374023,3.846923828125
1751214445081828600,10.65482861328125,-1.696527123451233,-8.923990249633789,3.6952104568481445
1751214445091822600,10.664822509765624,-1.5127465724945068,-9.027020454406738,3.5206358432769775
1751214445101816600,10.674816650390625,-1.333213448524475,-9.12751293182373,3.32887864112854
1751214445111810600,10.684810546875,-1.1445081233978271,-9.22138500213623,3.1347312927246094
1751214445121804500,10.694804443359375,-0.9311773180961609,-9.301573753356934,2.9637856483459473
1751214445131798500,10.704798583984376,-0.6928166151046753,-9.363312721252441,2.8317439556121826
1751214445141792500,10.71479248046875,-0.46072179079055786,-9.410881042480469,2.719085216522217
1751214445151786500,10.724786376953125,-0.26719164848327637,-9.447989463806152,2.614288330078125
1751214445161780700,10.73478076171875,-0.12396339327096939,-9.478825569152832,2.5113542079925537
1751214445171774700,10.744774658203125,-0.03306253254413605,-9.508269309997559,2.4004406929016113
1751214445181768700,10.754768798828126,0.0132374232634902,-9.534754753112793,2.293177843093872
1751214445191762700,10.7647626953125,0.03352060168981552,-9.559914588928223,2.185703992843628
1751214445201756700,10.774756591796875,0.04077626019716263,-9.585633277893066,2.069873571395874
1751214445211750700,10.784750732421875,0.04363025352358818,-9.611394882202148,1.946682333946228
1751214445221744600,10.79474462890625,0.05001319572329521,-9.636253356933594,1.8194801807403564
1751214445231738600,10.804738525390626,0.06366454809904099,-9.659420013427734,1.6917248964309692
1751214445241732600,10.814732666015624,0.0854148343205452,-9.680767059326172,1.5639171600341797
1751214445251726600,10.8247265625,0.11512582749128342,-9.700475692749023,1.434536099433899
1751214445261720800,10.834720947265625,0.15273110568523407,-9.718693733215332,1.301559567451477
1751214445271714800,10.84471484375,0.19756966829299927,-9.735342979431152,1.1638108491897583
1751214445281708800,10.854708740234376,0.24760523438453674,-9.750245094299316,1.0206915140151978
1751214445291702800,10.864702880859374,0.30167555809020996,-9.763018608093262,0.8734049201011658
1751214445301696800,10.87469677734375,0.3608893156051636,-9.773225784301758,0.7240191698074341
1751214445311690800,10.884690673828125,0.4268370568752289,-9.780579566955566,0.573119044303894
1751214445321684700,10.894684814453125,0.4989379644393921,-9.784810066223145,0.42299968004226685
1751214445331678700,10.9046787109375,0.5746118426322937,-9.78588581085205,0.27683693170547485
1751214445341672700,10.914672607421876,0.651312530040741,-9.784048080444336,0.13627944886684418
1751214445351666700,10.924666748046874,0.7275111675262451,-9.779626846313477,0.0015452763764187694
1751214445361661000,10.934660888671875,0.8040828108787537,-9.772805213928223,-0.12686176598072052
1751214445371655000,10.944655029296875,0.881048321723938,-9.763824462890625,-0.24876484274864197
1751214445381649000,10.95464892578125,0.9556622505187988,-9.753222465515137,-0.36295005679130554
1751214445391643000,10.964642822265626,1.023962140083313,-9.741765022277832,-0.46893957257270813
1751214445401636900,10.974636962890624,1.0819851160049438,-9.730188369750977,-0.5684531927108765
1751214445411630800,10.984630859375,1.128931999206543,-9.718937873840332,-0.6619343757629395
1751214445421625000,10.994625,1.1651946306228638,-9.708288192749023,-0.7495697140693665
1751214445431619000,11.004619140625,1.1926790475845337,-9.69823169708252,-0.8319889903068542
1751214445441613000,11.014613037109376,1.2129753828048706,-9.68869400024414,-0.9100958108901978
1751214445451607300,11.024607177734374,1.227708101272583,-9.67962646484375,-0.9838496446609497
1751214445461601300,11.034601318359375,1.2393593788146973,-9.671062469482422,-1.051148772239685
1751214445471595300,11.04459521484375,1.2506349086761475,-9.663055419921875,-1.1098018884658813
1751214445481589200,11.05458935546875,1.2627688646316528,-9.655614852905273,-1.1596955060958862
1751214445491583500,11.06458349609375,1.2748268842697144,-9.648744583129883,-1.2028822898864746
1751214445501577500,11.074577392578124,1.288223385810852,-9.642533302307129,-1.2379119396209717
1751214445511571500,11.084571533203125,1.3051197528839111,-9.636972427368164,-1.26325523853302
1751214445521565700,11.094565673828125,1.3255912065505981,-9.631875991821289,-1.2806878089904785
1751214445531559700,11.1045595703125,1.3498553037643433,-9.627016067504883,-1.291836142539978
1751214445541553700,11.1145537109375,1.3772069215774536,-9.622112274169922,-1.299474835395813
1751214445551548000,11.1245478515625,1.4066275358200073,-9.617029190063477,-1.3055740594863892
1751214445561542000,11.1345419921875,1.4371591806411743,-9.611926078796387,-1.309891939163208
1751214445571536000,11.144535888671875,1.4672393798828125,-9.60712718963623,-1.3117560148239136
1751214445581530000,11.154530029296875,1.4973094463348389,-9.602301597595215,-1.3131166696548462
1751214445591524000,11.164524169921876,1.5270674228668213,-9.597110748291016,-1.3167860507965088
1751214445601518000,11.17451806640625,1.5553584098815918,-9.591446876525879,-1.3249155282974243
1751214445611512000,11.184511962890625,1.580879807472229,-9.58546257019043,-1.3379517793655396
1751214445621506300,11.19450634765625,1.6029077768325806,-9.579236030578613,-1.3562074899673462
1751214445631500300,11.204500244140625,1.6206061840057373,-9.572997093200684,-1.3790372610092163
1751214445641494300,11.214494384765626,1.633975625038147,-9.566886901855469,-1.4054158926010132
1751214445651488500,11.224488525390624,1.643355369567871,-9.561073303222656,-1.433755874633789
1751214445661482500,11.234482421875,1.649330735206604,-9.555747985839844,-1.4621168375015259
1751214445671476500,11.2444765625,1.6533749103546143,-9.550668716430664,-1.490462303161621
1751214445681470700,11.254470703125,1.6564462184906006,-9.545625686645508,-1.5190808773040771
1751214445691464700,11.264464599609376,1.6600021123886108,-9.540254592895508,-1.5486503839492798
1751214445701458700,11.274458740234374,1.665653109550476,-9.534139633178711,-1.5799224376678467
1751214445711452700,11.28445263671875,1.6742578744888306,-9.52700138092041,-1.6135345697402954
1751214445721447000,11.294447021484375,1.6860697269439697,-9.518588066101074,-1.6504662036895752
1751214445731441000,11.30444091796875,1.6995985507965088,-9.508951187133789,-1.6916269063949585
1751214445741435000,11.314434814453126,1.713696837425232,-9.498093605041504,-1.7377734184265137
1751214445751429000,11.32442919921875,1.7274342775344849,-9.486245155334473,-1.7881600856781006
1751214445761423000,11.334423095703125,1.7401798963546753,-9.47391414642334,-1.8404114246368408
1751214445771417000,11.3444169921875,1.7517904043197632,-9.461294174194336,-1.893552541732788
1751214445781411300,11.354411376953125,1.7618660926818848,-9.449117660522461,-1.9443206787109375
1751214445791405300,11.3644052734375,1.768319845199585,-9.438514709472656,-1.9894413948059082
1751214445801399300,11.3743994140625,1.7688368558883667,-9.430771827697754,-2.0253758430480957
1751214445811393500,11.3843935546875,1.7617183923721313,-9.426819801330566,-2.049834966659546
1751214445821387500,11.394387451171875,1.7460039854049683,-9.427319526672363,-2.0609467029571533
1751214445831381500,11.404381591796875,1.7203757762908936,-9.433060646057129,-2.0562260150909424
1751214445841375500,11.41437548828125,1.6850688457489014,-9.444012641906738,-2.035081624984741
1751214445851369500,11.424369384765624,1.640762448310852,-9.459444999694824,-1.999295711517334
1751214445861363500,11.434363525390625,1.587603211402893,-9.478682518005371,-1.9505071640014648
1751214445871357400,11.444357421875,1.5207798480987549,-9.501585006713867,-1.8914268016815186
1751214445881351400,11.454351318359375,1.4273788928985596,-9.52932357788086,-1.8234527111053467
1751214445891345700,11.464345703125,1.2878528833389282,-9.563511848449707,-1.746729850769043
1751214445901339600,11.474339599609374,1.1091469526290894,-9.600829124450684,-1.6626063585281372
1751214445911333600,11.484333740234375,0.909313976764679,-9.63669490814209,-1.5740500688552856
1751214445921327600,11.49432763671875,0.696341335773468,-9.669307708740234,-1.479857087135315
1751214445931321600,11.504321533203125,0.4746103882789612,-9.698416709899902,-1.373259425163269
1751214445941315600,11.514315673828126,0.25089403986930847,-9.724143981933594,-1.2443735599517822
1751214445951309600,11.5243095703125,0.03604184091091156,-9.746472358703613,-1.0841425657272339
1751214445961303600,11.534303466796874,-0.15901479125022888,-9.764616966247559,-0.8929517865180969
1751214445971297500,11.544297607421875,-0.3292129337787628,-9.777552604675293,-0.6793127655982971
1751214445981291800,11.554291748046875,-0.4705209732055664,-9.784600257873535,-0.4589056372642517
1751214445991285800,11.56428564453125,-0.5681120753288269,-9.787240028381348,-0.2399313598871231
1751214446001279700,11.57427978515625,-0.6412672400474548,-9.785636901855469,-0.021653402596712112
1751214446011273700,11.584273681640624,-0.7045637369155884,-9.779420852661133,0.1921001523733139
1751214446021267700,11.594267822265625,-0.7628351449966431,-9.768880844116211,0.3967757225036621
1751214446031261700,11.60426171875,-0.8175684213638306,-9.754825592041016,0.5876588225364685
1751214446041255700,11.614255615234375,-0.8702255487442017,-9.738130569458008,0.7628307342529297
1751214446051249700,11.624249755859376,-0.918139636516571,-9.719053268432617,0.9313438534736633
1751214446061243600,11.63424365234375,-0.9579474925994873,-9.696789741516113,1.1067873239517212
1751214446071237600,11.644237548828125,-0.9988821148872375,-9.667580604553223,1.3078622817993164
1751214446081232000,11.65423193359375,-1.04037606716156,-9.627287864685059,1.5502671003341675
1751214446091225900,11.664225830078125,-1.0625752210617065,-9.577498435974121,1.820124626159668
1751214446101219800,11.6742197265625,-1.0673223733901978,-9.519183158874512,2.101512908935547
1751214446111213800,11.6842138671875,-1.070448637008667,-9.453024864196777,2.38008975982666
1751214446121207800,11.694207763671875,-1.0957682132720947,-9.379673957824707,2.644123077392578
1751214446131201800,11.704201904296875,-1.1648894548416138,-9.300261497497559,2.8841898441314697
1751214446141195800,11.71419580078125,-1.2798805236816406,-9.216654777526855,3.096057415008545
1751214446151189800,11.724189697265626,-1.4217555522918701,-9.128622055053711,3.2889599800109863
1751214446161183700,11.734183837890624,-1.5630624294281006,-9.036490440368652,3.474055051803589
1751214446171177700,11.744177734375,-1.6831316947937012,-8.940917015075684,3.66025447845459
1751214446181172000,11.754171875,-1.7770941257476807,-8.845636367797852,3.8427884578704834
1751214446191166000,11.764166015625,-1.858656883239746,-8.754310607910156,4.00971794128418
1751214446201160000,11.774159912109376,-1.9420546293258667,-8.665785789489746,4.159682750701904
1751214446211154000,11.78415380859375,-2.0314345359802246,-8.57863712310791,4.295421600341797
1751214446221148000,11.79414794921875,-2.1250171661376953,-8.489872932434082,4.424560070037842
1751214446231142000,11.804141845703125,-2.216567277908325,-8.40123462677002,4.547138214111328
1751214446241135900,11.814135986328125,-2.300337314605713,-8.316250801086426,4.660345554351807
1751214446251129900,11.8241298828125,-2.375103235244751,-8.233677864074707,4.768208980560303
1751214446261123800,11.834123779296876,-2.444580554962158,-8.152350425720215,4.871715545654297
1751214446271118000,11.8441181640625,-2.5131020545959473,-8.073175430297852,4.967749118804932
1751214446281112000,11.854112060546875,-2.5833146572113037,-7.996429443359375,5.055096626281738
1751214446291106000,11.86410595703125,-2.6551499366760254,-7.923267364501953,5.13248348236084
1751214446301100000,11.87410009765625,-2.72413969039917,-7.8559980392456055,5.199303150177002
1751214446311094000,11.884093994140626,-2.7887933254241943,-7.795475006103516,5.255815029144287
1751214446321088000,11.894087890625,-2.851715326309204,-7.741035461425781,5.302309036254883
1751214446331082000,11.90408203125,-2.915733814239502,-7.691561698913574,5.339359760284424
1751214446341076000,11.914075927734375,-2.9808528423309326,-7.648961544036865,5.364541053771973
1751214446351070000,11.924070068359375,-3.0466277599334717,-7.613279819488525,5.378328323364258
1751214446361064000,11.93406396484375,-3.1144585609436035,-7.585848331451416,5.378238677978516
1751214446371058200,11.94405810546875,-3.1802878379821777,-7.567194938659668,5.365976810455322
1751214446381052200,11.95405224609375,-3.2396888732910156,-7.556647777557373,5.3452677726745605
1751214446391046100,11.964046142578125,-3.2856521606445312,-7.554111957550049,5.320739269256592
1751214446401040100,11.9740400390625,-3.3125874996185303,-7.559537410736084,5.296276092529297
1751214446411034000,11.9840341796875,-3.31349515914917,-7.573113441467285,5.276276111602783
1751214446421028400,11.9940283203125,-3.286574125289917,-7.595204830169678,5.261338710784912
1751214446431022300,12.004022216796875,-3.2378180027008057,-7.625670433044434,5.2474822998046875
1751214446441016300,12.014016357421875,-3.1752214431762695,-7.663475513458252,5.230632305145264
1751214446451010600,12.024010498046875,-3.104036331176758,-7.70650053024292,5.210104465484619
1751214446461004500,12.034004638671876,-3.026203155517578,-7.7547478675842285,5.184241771697998
1751214446470998500,12.04399853515625,-2.945385694503784,-7.809621810913086,5.148290634155273
1751214446480992800,12.05399267578125,-2.8682072162628174,-7.8715410232543945,5.09731388092041
1751214446490986800,12.06398681640625,-2.809532642364502,-7.9342265129089355,5.032390594482422
1751214446500980700,12.073980712890625,-2.778712034225464,-7.993514060974121,4.9550862312316895
1751214446510974700,12.083974609375,-2.7604660987854004,-8.054777145385742,4.865261077880859
1751214446520969000,12.093968994140624,-2.722683906555176,-8.125290870666504,4.76833438873291
1751214446530963000,12.103962890625,-2.6411983966827393,-8.208566665649414,4.670534133911133
1751214446540957000,12.11395703125,-2.5041372776031494,-8.301552772521973,4.580820560455322
1751214446550951200,12.123951171875,-2.3193471431732178,-8.39984130859375,4.498185157775879
1751214446560945200,12.133945068359376,-2.104912757873535,-8.500554084777832,4.413649559020996
1751214446570939100,12.143939208984374,-1.8766825199127197,-8.60163688659668,4.319756507873535
1751214446580933400,12.153933349609375,-1.6474140882492065,-8.700108528137207,4.2148003578186035
1751214446590927400,12.16392724609375,-1.4274530410766602,-8.79137134552002,4.104209899902344
1751214446600921300,12.17392138671875,-1.228541612625122,-8.873945236206055,3.98925518989563
1751214446610915300,12.183915283203126,-1.054643154144287,-8.947514533996582,3.8729968070983887
1751214446620909600,12.19390966796875,-0.903183102607727,-9.011517524719238,3.76127552986145
1751214446630903600,12.203903564453125,-0.7718304991722107,-9.067767143249512,3.653804063796997
1751214446640897500,12.2138974609375,-0.6554067730903625,-9.11899185180664,3.5475077629089355
1751214446650891800,12.223891845703125,-0.5456826686859131,-9.169695854187012,3.433556318283081
1751214446660885800,12.2338857421875,-0.44268229603767395,-9.222143173217773,3.3055238723754883
1751214446670879700,12.243879638671874,-0.3486741781234741,-9.276287078857422,3.1621689796447754
1751214446680874000,12.2538740234375,-0.2676822245121002,-9.331221580505371,3.004502773284912
1751214446690868000,12.263867919921875,-0.2018202543258667,-9.385469436645508,2.835951328277588
1751214446710856200,12.283856201171876,-0.11748655885457993,-9.486385345458984,2.4829564094543457
1751214446720850200,12.29385009765625,-0.09514737874269485,-9.5311861038208,2.306041717529297
1751214446730844200,12.30384423828125,-0.08285023272037506,-9.571643829345703,2.1324071884155273
1751214446740838100,12.313838134765625,-0.07707399874925613,-9.60811996459961,1.9617563486099243
1751214446750832400,12.323832275390625,-0.07331228256225586,-9.641141891479492,1.792593002319336
1751214446760826400,12.333826416015626,-0.06889207661151886,-9.67082691192627,1.6250382661819458
1751214446770820400,12.3438203125,-0.06165409833192825,-9.697196960449219,1.459781527519226
1751214446780814600,12.353814697265625,-0.05017036572098732,-9.71989631652832,1.3005725145339966
1751214446790808600,12.36380859375,-0.03468149155378342,-9.738932609558105,1.149950385093689
1751214446800802600,12.373802490234375,-0.0166926309466362,-9.754715919494629,1.0077857971191406
1751214446810796500,12.383796630859376,0.0032348111271858215,-9.767730712890625,0.8728228807449341
1751214446820790500,12.39379052734375,0.02722317911684513,-9.77846622467041,0.7424575090408325
1751214446830784500,12.403784423828125,0.05669211968779564,-9.78720474243164,0.6146517395973206
1751214446840778500,12.413778564453125,0.09162802249193192,-9.79409408569336,0.4875616431236267
1751214446850772500,12.4237724609375,0.13088227808475494,-9.799169540405273,0.359897255897522
1751214446860766700,12.4337666015625,0.17327506840229034,-9.802385330200195,0.23154577612876892
1751214446870760700,12.4437607421875,0.21869878470897675,-9.803665161132812,0.10345292836427689
1751214446880754700,12.453754638671874,0.26675906777381897,-9.802993774414062,-0.023010440170764923
1751214446890748700,12.463748779296875,0.3171645998954773,-9.80042552947998,-0.1464773267507553
1751214446900742700,12.47374267578125,0.3684141933917999,-9.796077728271484,-0.26740726828575134
1751214446910736600,12.483736572265625,0.41977590322494507,-9.790045738220215,-0.386219322681427
1751214446920730600,12.493730712890626,0.4697922170162201,-9.782432556152344,-0.5036969780921936
1751214446930724600,12.503724609375,0.5173850059509277,-9.773374557495117,-0.6195492148399353
1751214446940718600,12.513718505859375,0.5613258481025696,-9.763126373291016,-0.7325706481933594
1751214446950712600,12.523712646484375,0.6006891131401062,-9.751975059509277,-0.8417444825172424
1751214446960706800,12.533706787109375,0.6356812119483948,-9.740196228027344,-0.945979654788971
1751214446970700800,12.54370068359375,0.6675692796707153,-9.727971076965332,-1.0446661710739136
1751214446980694800,12.55369482421875,0.6986862421035767,-9.715463638305664,-1.136657476425171
1751214446990688800,12.563688720703125,0.7316252589225769,-9.702857971191406,-1.220516562461853
1751214447000682800,12.573682861328125,0.7681745290756226,-9.690418243408203,-1.29463791847229
1751214447010676700,12.5836767578125,0.8093318343162537,-9.678472518920898,-1.357398271560669
1751214447020670700,12.593670654296876,0.8546845316886902,-9.667468070983887,-1.4071072340011597
1751214447030664700,12.603664794921874,0.9035143852233887,-9.657394409179688,-1.445261001586914
1751214447040658700,12.61365869140625,0.9556174874305725,-9.647768020629883,-1.4757215976715088
1751214447050652700,12.623652587890625,1.0097085237503052,-9.638866424560547,-1.4977174997329712
1751214447060647000,12.63364697265625,1.0612304210662842,-9.631163597106934,-1.5115762948989868
1751214447080635000,12.653634765625,1.1383953094482422,-9.62091064453125,-1.5206983089447021
1751214447090628900,12.66362890625,1.161157488822937,-9.618321418762207,-1.5198702812194824
1751214447100622800,12.673622802734375,1.1740272045135498,-9.617230415344238,-1.5168812274932861
1751214447110616800,12.683616943359375,1.1779110431671143,-9.61755657196045,-1.5117897987365723
1751214447120610800,12.69361083984375,1.1727155447006226,-9.619144439697266,-1.505715250968933
1751214447130604800,12.703604736328124,1.157740831375122,-9.62183666229248,-1.5000910758972168
1751214447140598800,12.713598876953125,1.1337209939956665,-9.625639915466309,-1.4940228462219238
1751214447150593000,12.723593017578125,1.1037144660949707,-9.63060474395752,-1.4844708442687988
1751214447160587000,12.7335869140625,1.0694493055343628,-9.636496543884277,-1.4712592363357544
1751214447170581000,12.7435810546875,1.0319361686706543,-9.643105506896973,-1.4546513557434082
1751214447180575000,12.753574951171874,0.9904685616493225,-9.65038013458252,-1.4351041316986084
1751214447190569000,12.76356884765625,0.9453677535057068,-9.657686233520508,-1.4162521362304688
1751214447200563000,12.77356298828125,0.8991535305976868,-9.664011001586914,-1.4031423330307007
1751214447210557000,12.783556884765625,0.8544784784317017,-9.66884708404541,-1.397729516029358
1751214447220551000,12.793551025390625,0.814189076423645,-9.672189712524414,-1.3986492156982422
1751214447230545000,12.803544921875,0.7815427780151367,-9.674296379089355,-1.4027029275894165
1751214447240539000,12.813538818359374,0.7586100101470947,-9.675251007080078,-1.4086976051330566
1751214447250533000,12.823533203125,0.7466867566108704,-9.674779891967773,-1.4182664155960083
1751214447260527000,12.833527099609375,0.7447264790534973,-9.672893524169922,-1.4320988655090332
1751214447270521000,12.84352099609375,0.7518446445465088,-9.669482231140137,-1.451285719871521
1751214447280515000,12.85351513671875,0.7684616446495056,-9.664207458496094,-1.4774785041809082
1751214447290509000,12.863509033203124,0.7981685996055603,-9.65673828125,-1.510205864906311
1751214447300503000,12.8735029296875,0.8488831520080566,-9.64669418334961,-1.5463095903396606
1751214447310497000,12.8834970703125,0.9298639893531799,-9.63371753692627,-1.580257534980774
1751214447320491000,12.893490966796875,1.0454554557800293,-9.61678695678711,-1.6108417510986328
1751214447330485000,12.903485107421876,1.1855212450027466,-9.5951566696167,-1.6425257921218872
1751214447340479000,12.91347900390625,1.3236366510391235,-9.571248054504395,-1.67617928981781
1751214447350473200,12.92347314453125,1.4355683326721191,-9.549042701721191,-1.7103571891784668
1751214447360467200,12.93346728515625,1.5010665655136108,-9.53215503692627,-1.747913122177124
1751214447370461200,12.943461181640625,1.5044814348220825,-9.524763107299805,-1.7848875522613525
1751214447380455200,12.953455078125,1.4460536241531372,-9.528973579406738,-1.8105236291885376
1751214447390449200,12.96344921875,1.3406630754470825,-9.542667388916016,-1.8194794654846191
1751214447400443100,12.973443115234375,1.2120132446289062,-9.561601638793945,-1.810300588607788
1751214447410437000,12.98343701171875,1.0832017660140991,-9.581674575805664,-1.785659670829773
1751214447420431000,12.99343115234375,0.9688494801521301,-9.600944519042969,-1.7474491596221924
1751214447430425000,13.003425048828126,0.8709830045700073,-9.619176864624023,-1.6980056762695312
1751214447440419300,13.01341943359375,0.7800747156143188,-9.637042999267578,-1.639901041984558
1751214447460407300,13.0334072265625,0.5649711489677429,-9.673761367797852,-1.506496548652649
1751214447470401300,13.0434013671875,0.4242059588432312,-9.69295597076416,-1.4272494316101074
1751214447480395300,13.053395263671876,0.25765669345855713,-9.712382316589355,-1.3317747116088867
1751214447490389200,13.06338916015625,0.06915096938610077,-9.731204986572266,-1.212131381034851
1751214447500383200,13.07338330078125,-0.12702526152133942,-9.747984886169434,-1.0635013580322266
1751214447510377200,13.083377197265625,-0.31447839736938477,-9.761340141296387,-0.8875342607498169
1751214447520371200,13.09337109375,-0.47909945249557495,-9.770622253417969,-0.6897827982902527
1751214447530365400,13.103365478515625,-0.6100904941558838,-9.775749206542969,-0.48258793354034424
