time,seconds_elapsed,z,y,x
1751214434627979300,0.200979248046875,-0.04980107396841049,-0.303866446018219,-0.19148114323616028
1751214434637799000,0.210798828125,-0.05086633935570717,-0.3134538233280182,-0.18295903503894806
1751214434647635700,0.2206357421875,-0.03382211923599243,-0.4071970283985138,-0.17550218105316162
1751214434657495600,0.23049560546875,-0.013582111336290836,-0.5510076284408569,-0.17443692684173584
1751214434677300500,0.250300537109375,0.11318425834178925,-0.6319676637649536,-0.11797794699668884
1751214434687250700,0.260250732421875,0.18349166214466095,-0.6660560965538025,-0.06151897460222244
1751214434697233700,0.270233642578125,0.2804306447505951,-0.659664511680603,-0.007190529722720385
1751214434707248600,0.28024853515625,0.37630438804626465,-0.6362286806106567,0.019441060721874237
1751214434717293600,0.29029345703125,0.4487423002719879,-0.613858163356781,0.02157158963382244
1751214434727364900,0.30036474609375,0.49454864859580994,-0.5765739679336548,-0.011451584286987782
1751214434737459000,0.310458984375,0.5094623565673828,-0.5360939502716064,-0.08282424509525299
1751214434747570400,0.3205703125,0.5094623565673828,-0.546746551990509,-0.18828535079956055
1751214434757694000,0.33069384765625,0.5510076284408569,-0.6170539855957031,-0.2990727722644806
1751214434767824100,0.34082421875,0.6799045205116272,-0.7278413772583008,-0.3736412227153778
1751214434777955000,0.350955078125,0.8333024978637695,-0.9643298983573914,-0.40453386306762695
1751214434787969000,0.360968994140625,1.0804436206817627,-1.4969617128372192,-0.391750693321228
1751214434797963000,0.370962890625,1.4117406606674194,-2.1627514362335205,-0.36192330718040466
1751214434807957000,0.38095703125,1.6759259700775146,-2.7092318534851074,-0.3171822428703308
1751214434817951000,0.390950927734375,1.731319785118103,-2.8775434494018555,-0.29694223403930664
1751214434827945000,0.400945068359375,1.6301196813583374,-2.893522262573242,-0.36298859119415283
1751214434837939000,0.41093896484375,1.5640733242034912,-2.9467854499816895,-0.5014728307723999
1751214434847933000,0.420932861328125,1.6354459524154663,-3.1704909801483154,-0.626108705997467
1751214434857927000,0.430927001953125,1.882587194442749,-3.509244680404663,-0.6463487148284912
1751214434867921200,0.440921142578125,2.201101064682007,-3.838411331176758,-0.550475001335144
1751214434877915100,0.4509150390625,2.4865915775299072,-4.191013336181641,-0.32463908195495605
1751214434887909000,0.4609091796875,2.710297107696533,-4.5840959548950195,-0.013582111336290836
1751214434897903000,0.470903076171875,2.8573033809661865,-5.059203147888184,0.303866446018219
1751214434907897000,0.48089697265625,2.9702212810516357,-5.647228717803955,0.5456812977790833
1751214434917891000,0.49089111328125,3.1065750122070312,-6.336454391479492,0.7086666226387024
1751214434927885000,0.500885009765625,3.360107898712158,-7.041658878326416,0.8556730151176453
1751214434937879000,0.510879150390625,3.6967310905456543,-7.633945465087891,1.0527467727661133
1751214434947873000,0.520873046875,4.023766994476318,-8.02170181274414,1.2572773694992065
1751214434957867000,0.530866943359375,4.314584255218506,-8.316779136657715,1.4042837619781494
1751214434967861200,0.540861328125,4.607531547546387,-8.632097244262695,1.527854323387146
1751214434977855200,0.550855224609375,4.94735050201416,-8.7183837890625,1.7526249885559082
1751214434987849200,0.56084912109375,5.263733863830566,-8.273103713989258,2.0594208240509033
1751214434997843200,0.57084326171875,5.499157428741455,-7.400652885437012,2.308692693710327
1751214435007837200,0.580837158203125,5.617401599884033,-6.331128120422363,2.4418506622314453
1751214435017831200,0.5908310546875,5.603553295135498,-5.174252033233643,2.4791347980499268
1751214435027825200,0.6008251953125,5.46293830871582,-3.951329231262207,2.4908525943756104
1751214435037819100,0.610819091796875,5.243494033813477,-2.571812629699707,2.3917832374572754
1751214435047813000,0.620813232421875,4.979308605194092,-1.13370680809021,2.0796608924865723
1751214435057807000,0.63080712890625,4.66185998916626,0.19773955643177032,1.6141407489776611
1751214435067801300,0.64080126953125,4.322041034698486,1.2970916032791138,1.1720563173294067
1751214435077795300,0.65079541015625,4.021636486053467,2.0406455993652344,0.8428898453712463
1751214435087789300,0.660789306640625,3.767038583755493,2.430532217025757,0.6095971465110779
1751214435097783300,0.670783203125,3.5262889862060547,2.4422500133514404,0.4498075842857361
1751214435107777300,0.68077734375,3.257842540740967,2.1237361431121826,0.3922833502292633
1751214435117771300,0.690771240234375,2.98406982421875,1.6315844058990479,0.4956139028072357
1751214435127765200,0.70076513671875,2.785930633544922,1.0861694812774658,0.7310371994972229
1751214435137759200,0.71075927734375,2.6495769023895264,0.5087965726852417,0.9749825596809387
1751214435147753200,0.720753173828125,2.4908525943756104,0.034754227846860886,1.1805784702301025
1751214435157747500,0.73074755859375,2.3118884563446045,-0.26338642835617065,1.3883048295974731
1751214435167741400,0.740741455078125,2.1084229946136475,-0.4647212624549866,1.5374417304992676
1751214435177735400,0.7507353515625,1.932654619216919,-0.6426202654838562,1.6652734279632568
1751214435187729400,0.7607294921875,1.7547554969787598,-0.6958834528923035,1.7590166330337524
1751214435197723400,0.770723388671875,1.5044186115264893,-0.2878875136375427,1.4575469493865967
1751214435207717400,0.78071728515625,1.2903006076812744,0.24035011231899261,0.8652604222297668
1751214435217711400,0.79071142578125,1.1550121307373047,0.06564687192440033,0.7459508776664734
1751214435227705300,0.800705322265625,0.8535425066947937,-0.007856319658458233,0.8322372436523438
1751214435237699300,0.81069921875,0.4157191216945648,0.13382373750209808,0.48922231793403625
1751214435247693300,0.820693359375,0.011984216049313545,0.0762995108962059,0.14620743691921234
1751214435257687600,0.8306875,-0.251135915517807,0.16897743940353394,-0.2884201407432556
1751214435267681500,0.840681640625,-0.4205128252506256,0.28615644574165344,-0.7848330140113831
1751214435277675500,0.850675537109375,-0.5302349925041199,0.25739431381225586,-1.0873678922653198
1751214435287669500,0.86066943359375,-0.5984118580818176,0.14873743057250977,-1.1267826557159424
1751214435297663500,0.87066357421875,-0.7273087501525879,-0.07816372066736221,-1.0149298906326294
1751214435307657500,0.880657470703125,-0.9392961859703064,-0.41784965991973877,-0.9084035754203796
1751214435317651500,0.8906513671875,-1.1693931818008423,-0.7896266579627991,-0.9126646518707275
1751214435327645400,0.9006455078125,-1.3281174898147583,-1.1006836891174316,-1.0436919927597046
1751214435337639400,0.910639404296875,-1.3781847953796387,-1.3574122190475464,-1.225852131843567
1751214435347633400,0.92063330078125,-1.3973596096038818,-1.5885744094848633,-1.3504879474639893
1751214435357627600,0.930627685546875,-1.4250564575195312,-1.828258752822876,-1.3430311679840088
1751214435367621600,0.94062158203125,-1.4580795764923096,-1.9038923978805542,-1.3249216079711914
1751214435377615600,0.95061572265625,-1.3824459314346313,-1.9017618894577026,-1.321725845336914
1751214435387609900,0.96060986328125,-1.28018057346344,-1.9081535339355469,-1.2311784029006958
1751214435397603800,0.970603759765625,-1.3004206418991089,-1.7920397520065308,-1.0468878746032715
1751214435407597800,0.980597900390625,-1.4602100849151611,-1.0708563327789307,-1.1129342317581177
1751214435417592000,0.990592041015625,-2.041844129562378,-0.33795487880706787,-1.2151994705200195
1751214435427586000,1.0005859375,-2.333726406097412,-0.4636560082435608,-0.7273087501525879
1751214435437580000,1.010580078125,-2.204829454421997,-0.19414429366588593,-0.3225085735321045
1751214435447574300,1.02057421875,-2.1441094875335693,0.24035011231899261,-0.03275685757398605
1751214435457568300,1.030568359375,-2.096172571182251,0.6653903126716614,0.05779055133461952
1751214435467562200,1.040562255859375,-1.900164008140564,0.7644598484039307,0.004527370445430279
1751214435477556200,1.05055615234375,-1.6221301555633545,0.5386239290237427,0.008788425475358963
1751214435487550500,1.060550537109375,-1.3504879474639893,0.01771000772714615,0.21651484072208405
1751214435497544400,1.07054443359375,-1.0266478061676025,-0.6159886717796326,0.5542033910751343
1751214435507538400,1.080538330078125,-0.8029424548149109,-1.0688588619232178,0.7129276990890503
1751214435517532700,1.09053271484375,-0.6676539778709412,-1.0699241161346436,0.5573992133140564
1751214435527526700,1.100526611328125,-0.4972118139266968,-0.6703171730041504,0.22610220313072205
1751214435537520600,1.110520751953125,-0.24474431574344635,-0.12703268229961395,-0.10199899226427078
1751214435547515000,1.120514892578125,0.056725289672613144,0.5258407592773438,-0.26818013191223145
1751214435557508900,1.1305087890625,0.4199801981449127,0.9892304539680481,-0.37151068449020386
1751214435567502800,1.1405029296875,0.8663256764411926,1.3109400272369385,-0.3970770239830017
1751214435577497000,1.1504970703125,1.4202626943588257,1.4813822507858276,-0.37151068449020386
1751214435587491000,1.160490966796875,2.042376756668091,1.4526201486587524,-0.3640538454055786
1751214435597485000,1.170485107421875,2.6101622581481934,1.3077442646026611,-0.4822981059551239
1751214435607479000,1.18047900390625,3.1108360290527344,1.1159968376159668,-0.7123950719833374
1751214435617473300,1.190473388671875,3.5284194946289062,1.0254493951797485,-1.0362352132797241
1751214435627467300,1.20046728515625,3.8906090259552,0.9199883341789246,-1.4048163890838623
1751214435637461200,1.210461181640625,4.293278694152832,0.7538071870803833,-1.7009596824645996
1751214435647455500,1.22045556640625,4.746016025543213,0.637693464756012,-1.9267956018447876
1751214435657449500,1.230449462890625,5.324453830718994,0.6962829232215881,-2.1536967754364014
1751214435667443500,1.240443359375,5.942306995391846,0.821984052658081,-2.3795325756073
1751214435677437700,1.250437744140625,6.470677852630615,0.35646384954452515,-2.611760139465332
1751214435687431700,1.260431640625,6.770016670227051,-0.5169191956520081,-2.7523748874664307
1751214435697425700,1.27042578125,6.449372291564941,-1.249820590019226,-2.458362102508545
1751214435707420000,1.280419921875,5.470395088195801,-1.4362417459487915,-1.5464965105056763
1751214435717414000,1.290413818359375,4.332693576812744,-1.4128059148788452,-0.4407528340816498
1751214435727407900,1.300407958984375,3.400587797164917,-1.6375765800476074,0.435959130525589
1751214435737401900,1.31040185546875,2.761429786682129,-1.9113492965698242,1.053812026977539
1751214435747396000,1.32039599609375,2.319345235824585,-2.0232019424438477,1.5566165447235107
1751214435757390000,1.33039013671875,2.030658721923828,-1.996570348739624,2.0200061798095703
1751214435767384000,1.340384033203125,1.882587194442749,-1.8346502780914307,2.443981170654297
1751214435777378300,1.35037841796875,1.8218671083450317,-1.6034880876541138,2.779539108276367
1751214435787372300,1.360372314453125,1.7643429040908813,-1.329715371131897,3.023484468460083
1751214435797366300,1.3703662109375,1.7504944801330566,-0.9771130681037903,3.1502509117126465
1751214435807360500,1.380360595703125,1.8239976167678833,-0.772582471370697,2.8317370414733887
1751214435817354500,1.3903544921875,1.7387765645980835,-1.438372254371643,1.8293240070343018
1751214435827348500,1.400348388671875,1.393631100654602,-3.1012487411499023,0.02583264373242855
1751214435837342500,1.410342529296875,1.0378330945968628,-4.735363006591797,-2.0290608406066895
1751214435847336400,1.42033642578125,1.0761826038360596,-5.292496204376221,-3.340400457382202
1751214435857330400,1.430330322265625,1.6375765800476074,-4.606466293334961,-3.6067163944244385
1751214435867324400,1.440324462890625,2.195774793624878,-3.096987724304199,-3.1209561824798584
1751214435877318400,1.450318359375,2.5451810359954834,-1.6184017658233643,-2.121738910675049
1751214435887312400,1.4603125,2.631467580795288,-0.30493173003196716,-1.0234520435333252
1751214435897306600,1.470306640625,2.5792696475982666,0.7644598484039307,-0.10412952303886414
1751214435907300600,1.480300537109375,2.467417001724243,1.4259885549545288,0.58403080701828
1751214435917294600,1.490294677734375,2.2671473026275635,1.7796560525894165,1.165664792060852
1751214435927288600,1.50028857421875,1.8793914318084717,1.723197102546692,1.8144103288650513
1751214435937282600,1.510282470703125,1.3787174224853516,1.3514200448989868,2.359825372695923
1751214435957270500,1.5302705078125,0.16538217663764954,0.34155014157295227,2.6378591060638428
1751214435967264500,1.540264404296875,-0.393881231546402,-0.16005586087703705,2.38326096534729
1751214435977258500,1.550258544921875,-0.8221172094345093,-0.5169191956520081,1.9475682973861694
1751214435987252500,1.56025244140625,-0.9957551956176758,-0.6564686894416809,1.4777870178222656
1751214435997246700,1.570246826171875,-0.8178561329841614,-0.5978792309761047,1.09109628200531
1751214436007240700,1.58024072265625,-0.4258391261100769,-0.4785696864128113,0.8333024978637695
1751214436017234700,1.590234619140625,-0.07004108279943466,-0.4210454523563385,0.7374287843704224
1751214436027228700,1.600228759765625,0.10998847335577011,-0.3965443968772888,0.7076013684272766
1751214436037222700,1.61022265625,0.2239716798067093,-0.34754225611686707,0.6500771641731262
1751214436047216600,1.620216552734375,0.29747486114501953,-0.29214856028556824,0.5424855351448059
1751214436057210600,1.630210693359375,0.31984540820121765,-0.22929799556732178,0.3890875577926636
1751214436067204600,1.64020458984375,0.3070622384548187,-0.13768532872200012,0.20266640186309814
1751214436077198600,1.650198486328125,0.30067065358161926,-0.01318263728171587,-0.012516847811639309
1751214436087192600,1.660192626953125,0.32410645484924316,0.11784479022026062,-0.24474431574344635
1751214436097186800,1.670186767578125,0.36245596408843994,0.2275669425725937,-0.4737760126590729
1751214436107180800,1.680180908203125,0.39441385865211487,0.30000486969947815,-0.6793718934059143
1751214436117174800,1.6901748046875,0.4103928208351135,0.325571209192276,-0.851944625377655
1751214436127168800,1.700168701171875,0.406131774187088,0.3106575012207031,-0.9797762632369995
1751214436137162800,1.710162841796875,0.39015281200408936,0.2744385600090027,-1.0649973154067993
1751214436147156700,1.72015673828125,0.36245596408843994,0.23715431988239288,-1.116129994392395
1751214436157150700,1.730150634765625,0.3273022472858429,0.20093534886837006,-1.1448920965194702
1751214436167144700,1.740144775390625,0.29214856028556824,0.16684691607952118,-1.1598057746887207
1751214436177138700,1.750138671875,0.2623211741447449,0.11464899778366089,-1.163001537322998
1751214436187132700,1.760132568359375,0.14194637537002563,0.7122619152069092,-1.0948246717453003
1751214436197127000,1.770126953125,-0.1339569091796875,3.68434739112854,-1.2269173860549927
1751214436207121000,1.780120849609375,0.2878875136375427,3.5394716262817383,-1.2556794881820679
1751214436217115000,1.790114990234375,0.2836264371871948,2.509361743927002,-0.18402428925037384
1751214436227108900,1.80010888671875,-0.07536740601062775,1.3173316717147827,0.9877657294273376
1751214436237102800,1.810102783203125,-0.4258391261100769,0.3969438672065735,1.6780565977096558
1751214436247096800,1.820096923828125,-0.6761760711669922,-0.3986749053001404,1.9145450592041016
1751214436257090800,1.8300908203125,-0.8647277355194092,-1.1093388795852661,1.9773956537246704
1751214436267084800,1.840084716796875,-0.9595362544059753,-1.7078839540481567,2.0445072650909424
1751214436277078800,1.850078857421875,-0.9392961859703064,-2.1041619777679443,2.12014102935791
1751214436287073000,1.860072998046875,-0.7933551073074341,-2.1968400478363037,2.0935094356536865
1751214436297067000,1.87006689453125,-0.5547360181808472,-1.783517599105835,1.7963007688522339
1751214436307061000,1.88006103515625,-0.2798980176448822,-0.9195888638496399,1.1795132160186768
1751214436317055000,1.890054931640625,-0.029561065137386322,0.031558435410261154,0.36671701073646545
1751214436327049000,1.900049072265625,0.171773761510849,0.6941524147987366,-0.4013380706310272
1751214436337043200,1.910043212890625,0.3028011918067932,1.015861988067627,-0.9893636107444763
1751214436347037200,1.920037109375,0.3837612271308899,1.1543463468551636,-1.3675322532653809
1751214436357031200,1.93003125,0.42743703722953796,1.169260025024414,-1.5486270189285278
1751214436367025400,1.940025390625,0.4157191216945648,1.0574073791503906,-1.5837807655334473
1751214436377019400,1.950019287109375,0.39974018931388855,0.8582029938697815,-1.4538185596466064
1751214436387013400,1.960013427734375,0.4029359817504883,0.5940176248550415,-1.2056121826171875
1751214436397007400,1.97000732421875,0.3795001804828644,0.27550381422042847,-0.9392961859703064
1751214436407001600,1.980001708984375,0.31025803089141846,-0.06737792491912842,-0.7155908346176147
1751214436416995600,1.98999560546875,0.20160114765167236,-0.3986749053001404,-0.5398223400115967
1751214436426989600,1.999989501953125,0.11318425834178925,-0.6607297658920288,-0.38962018489837646
1751214436436983800,2.00998388671875,0.06631266325712204,-0.8705866932868958,-0.28628960251808167
1751214436446977800,2.019977783203125,0.008788425475358963,-0.9632646441459656,-0.17337165772914886
1751214436456971800,2.0299716796875,-0.10626004636287689,-0.9345025420188904,-0.1435442715883255
1751214436466966000,2.039966064453125,-0.18722008168697357,-0.8151929974555969,-0.2138516753911972
1751214436476960000,2.0499599609375,-0.16058848798274994,-0.58403080701828,-0.3278348743915558
1751214436486954000,2.0599541015625,-0.08921582996845245,-0.23675484955310822,-0.43862229585647583
1751214436496948200,2.0699482421875,-0.044474758207798004,0.10612688958644867,-0.5494097471237183
1751214436506942200,2.079942138671875,-0.012516847811639309,0.34687647223472595,-0.617586612701416
1751214436516936200,2.089936279296875,0.01837579719722271,0.45020705461502075,-0.6399571299552917
1751214436526930200,2.09993017578125,0.05139897018671036,0.3884217441082001,-0.6538055539131165
1751214436536924400,2.10992431640625,0.07590003311634064,0.19241324067115784,-0.6495444774627686
1751214436546918400,2.11991845703125,0.0918789878487587,-0.0600542388856411,-0.6229129433631897
1751214436556912400,2.129912353515625,0.10466215014457703,-0.29534435272216797,-0.6005423665046692
1751214436566906600,2.13990673828125,0.10146636515855789,-0.29534435272216797,-0.5110602378845215
1751214436576900600,2.149900634765625,0.07696529477834702,-0.7150582075119019,-0.30652961134910583
1751214436586894600,2.15989453125,0.017310533672571182,-1.1326415538787842,0.04500738903880119
1751214436596888800,2.169888916015625,-0.027430538088083267,-1.1816437244415283,0.4487423002719879
1751214436606882800,2.1798828125,-0.03488738462328911,-1.1667300462722778,0.7693866491317749
1751214436616876800,2.189876708984375,-0.09560741484165192,-0.9643298983573914,1.0591384172439575
1751214436626871000,2.19987109375,-0.21065588295459747,-0.41784965991973877,1.3158669471740723
1751214436636865000,2.209864990234375,-0.3118559420108795,0.42251017689704895,1.5448986291885376
1751214436646859000,2.21985888671875,-0.33422645926475525,1.0723210573196411,1.6961660385131836
1751214436656853000,2.22985302734375,-0.28628960251808167,1.5037528276443481,1.7504944801330566
1751214436666847200,2.23984716796875,-0.204264298081398,1.5996265411376953,1.649294376373291
1751214436676841200,2.24984130859375,-0.11584742367267609,1.1713905334472656,1.299888014793396
1751214436686835200,2.259835205078125,-0.013582111336290836,0.3916175365447998,0.7225150465965271
1751214436696829400,2.269829345703125,0.05033370852470398,-0.3081275224685669,0.09614004194736481
1751214436706823400,2.279823486328125,0.06418213248252869,-0.6490118503570557,-0.3960117697715759
1751214436716817400,2.2898173828125,0.060986343771219254,-0.6372939944267273,-0.6740455627441406
1751214436726811600,2.299811767578125,0.03861580789089203,-0.4210454523563385,-0.7763108611106873
1751214436736805600,2.3098056640625,-0.007190529722720385,-0.18029586970806122,-0.7667235136032104
1751214436746799600,2.319799560546875,-0.05086633935570717,-0.02277000993490219,-0.6921550631523132
1751214436756793900,2.3297939453125,-0.07962846010923386,0.050733182579278946,-0.5771065950393677
1751214436766787800,2.339787841796875,-0.07430213689804077,0.09014793485403061,-0.4311654567718506
1751214436776781800,2.34978173828125,-0.05193160101771355,0.13062795996665955,-0.2756369709968567
1751214436786775800,2.35977587890625,-0.030626330524683,0.16258586943149567,-0.148870587348938
1751214436796770000,2.36977001953125,-0.014647374860942364,0.19667430222034454,-0.08069372177124023
1751214436806764000,2.379763916015625,-0.002929474925622344,0.24354590475559235,-0.06471476703882217
1751214436816758000,2.389758056640625,0.0023968431632965803,0.2936132848262787,-0.09028109163045883
1751214436826752000,2.399751953125,0.0002663159102667123,0.334093302488327,-0.1392832249403
1751214436836746000,2.40974609375,-0.007190529722720385,0.3532680571079254,-0.20213377475738525
1751214436846740000,2.419739990234375,-0.023169483989477158,0.36072489619255066,-0.2756369709968567
1751214436856734200,2.429734130859375,-0.04767054691910744,0.3724428117275238,-0.3459443747997284
1751214436866728200,2.439728271484375,-0.07430213689804077,0.3767038583755493,-0.4109254479408264
1751214436876722200,2.44972216796875,-0.12117373943328857,0.3628554344177246,-0.4769718050956726
1751214436886716200,2.459716064453125,-0.15632744133472443,0.31917962431907654,-0.5376918315887451
1751214436896710100,2.469710205078125,-0.20639483630657196,0.269112229347229,-0.5856286883354187
1751214436906704100,2.4797041015625,-0.2553969621658325,0.23502379655838013,-0.6218476295471191
1751214436916698000,2.489697998046875,-0.2937464416027069,0.22011010348796844,-0.6623276472091675
1751214436926692000,2.499692138671875,-0.3171822428703308,0.20519641041755676,-0.7070687413215637
1751214436936686000,2.50968603515625,-0.33316120505332947,0.1753690242767334,-0.7560708522796631
1751214436946680300,2.519680419921875,-0.3448790907859802,0.12743216753005981,-0.8103992938995361
1751214436956674300,2.52967431640625,-0.35766226053237915,0.11251847445964813,-0.8775109052658081
1751214436966668300,2.539668212890625,-0.36724963784217834,0.11571425944566727,-0.9478183388710022
1751214436976662300,2.549662353515625,-0.37577176094055176,0.11677952855825424,-1.028778314590454
1751214436986656300,2.55965625,-0.391750693321228,0.050733182579278946,-1.1129342317581177
1751214436996650200,2.569650146484375,-0.4311654567718506,-0.07816372066736221,-1.2045468091964722
1751214437006644200,2.579644287109375,-0.4876244366168976,-0.18029586970806122,-1.2759195566177368
1751214437016638200,2.58963818359375,-0.5536707639694214,-0.16964323818683624,-1.3313132524490356
1751214437026632200,2.599632080078125,-0.6282392144203186,-0.02277000993490219,-1.3813806772232056
1751214437036626200,2.609626220703125,-0.7113298177719116,0.22011010348796844,-1.4378396272659302
1751214437046620400,2.619620361328125,-0.8050730228424072,0.5066660046577454,-1.4783196449279785
1751214437056614400,2.629614501953125,-0.8860330581665039,0.7314366698265076,-1.4708627462387085
1751214437066608400,2.6396083984375,-0.9680583477020264,0.8177229762077332,-1.3899027109146118
1751214437076602400,2.649602294921875,-1.024517297744751,0.7442198395729065,-1.2514184713363647
1751214437086596400,2.659596435546875,-1.0607362985610962,0.5631250143051147,-1.095889925956726
1751214437096590300,2.66959033203125,-1.0735194683074951,0.38948702812194824,-0.9819067716598511
1751214437106584300,2.679584228515625,-1.0713889598846436,0.32450592517852783,-0.9510141015052795
1751214437116578300,2.689578369140625,-1.0926941633224487,0.35113751888275146,-1.0106688737869263
1751214437126572300,2.699572265625,-1.1416963338851929,0.4246407151222229,-1.1363699436187744
1751214437136566300,2.709566162109375,-1.1928290128707886,0.4587291479110718,-1.2855068445205688
1751214437146560500,2.719560546875,-1.2365047931671143,0.40333545207977295,-1.4026858806610107
1751214437156554500,2.729554443359375,-1.2599406242370605,0.2680469751358032,-1.4655364751815796
1751214437166548500,2.739548583984375,-1.2716584205627441,0.06351634114980698,-1.4697974920272827
1751214437176542500,2.74954248046875,-1.2716584205627441,-0.18775272369384766,-1.4197300672531128
1751214437186536400,2.759536376953125,-1.2652668952941895,-0.4114580750465393,-1.3238563537597656
1751214437196530400,2.769530517578125,-1.2610058784484863,-0.538224458694458,-1.213068962097168
1751214437206524400,2.7795244140625,-1.2737890481948853,-0.5105276107788086,-1.0937594175338745
1751214437216518400,2.789518310546875,-1.2705931663513184,-0.43276336789131165,-1.0021467208862305
1751214437226512400,2.799512451171875,-1.2311784029006958,-0.3731085956096649,-0.9584709405899048
1751214437236506600,2.809506591796875,-1.163001537322998,-0.37204334139823914,-0.9701888561248779
1751214437246500600,2.81950048828125,-1.0820415019989014,-0.4103928208351135,-1.0106688737869263
1751214437256494600,2.82949462890625,-1.000016212463379,-0.4764391779899597,-1.0479531288146973
1751214437266488600,2.839488525390625,-0.9137299060821533,-0.5499423742294312,-1.0532793998718262
1751214437276482800,2.84948291015625,-0.8285087943077087,-0.5946834087371826,-1.0202562808990479
1751214437286476800,2.859476806640625,-0.7486140131950378,-0.5616602301597595,-0.948883593082428
1751214437296470800,2.869470703125,-0.6878939867019653,-0.45726442337036133,-0.8306393027305603
1751214437306464800,2.87946484375,-0.6314350366592407,-0.35286858677864075,-0.6783066391944885
1751214437316459000,2.889458984375,-0.5664539337158203,-0.25379905104637146,-0.5249086618423462
1751214437326453000,2.899452880859375,-0.48336338996887207,-0.15366427600383759,-0.3821633458137512
1751214437336447000,2.909447021484375,-0.38535910844802856,-0.06431528925895691,-0.24580958485603333
1751214437346441200,2.919441162109375,-0.2884201407432556,-0.0025300011038780212,-0.11371689289808273
1751214437356435200,2.929435302734375,-0.1861548274755478,0.02516685426235199,0.0002663159102667123
1751214437376423400,2.94942333984375,-0.015712639316916466,0.028362644836306572,0.1898832470178604
1751214437386417400,2.95941748046875,0.06631266325712204,0.002796316985040903,0.2665822207927704
1751214437396411400,2.969411376953125,0.15366427600383759,-0.021704746410250664,0.32836753129959106
1751214437406405600,2.979405517578125,0.2697780132293701,-0.0270310640335083,0.3976096510887146
1751214437416399600,2.989399658203125,0.3986749053001404,-0.01957421936094761,0.48922231793403625
1751214437426393600,2.9993935546875,0.529702365398407,0.005992108024656773,0.5946834087371826
1751214437436387600,3.0093876953125,0.6639255881309509,0.05819002538919449,0.7321024537086487
1751214437446381800,3.0193818359375,0.810931921005249,0.1519332230091095,0.9004141092300415
1751214437456375800,3.029375732421875,0.961134135723114,0.2563290596008301,1.0825741291046143
1751214437466369800,3.039369873046875,1.0847047567367554,0.3767038583755493,1.2647342681884766
1751214437476364000,3.049364013671875,1.1145321130752563,0.7069355845451355,1.3435637950897217
1751214437486358000,3.05935791015625,0.9920267462730408,1.5431675910949707,1.0484857559204102
1751214437496352000,3.06935205078125,0.7001445293426514,1.960750937461853,0.4956139028072357
1751214437506346200,3.07934619140625,0.5169191956520081,1.7636771202087402,0.3890875577926636
1751214437516340200,3.08934033203125,0.5350286364555359,1.1586073637008667,0.6340981721878052
1751214437526334200,3.099334228515625,0.7555382251739502,0.6472808122634888,1.0090709924697876
1751214437536328200,3.109328125,0.9803088903427124,0.608931303024292,1.2317110300064087
1751214437546322400,3.119322509765625,1.0037447214126587,0.759133517742157,1.3030837774276733
1751214437556316400,3.12931640625,0.9739173054695129,0.926379919052124,1.3286501169204712
1751214437566310400,3.139310302734375,0.9355677962303162,1.0552767515182495,1.2892353534698486
1751214437576304600,3.1493046875,0.86952143907547,0.8986830115318298,1.3414332866668701
1751214437586298600,3.159298583984375,0.8258456587791443,0.6057355403900146,1.4351764917373657
1751214437596292600,3.169292724609375,0.8460856676101685,0.3490070104598999,1.5044186115264893
1751214437606286800,3.179286865234375,0.8929572701454163,0.29893961548805237,1.510810136795044
1751214437616280800,3.18928076171875,0.9376983046531677,0.32450592517852783,1.5065491199493408
1751214437626274800,3.19927490234375,0.9728519916534424,0.2968090772628784,1.5363764762878418
1751214437636269000,3.20926904296875,0.9920267462730408,0.2680469751358032,1.5693997144699097
1751214437646263000,3.219262939453125,0.9898962378501892,0.30959224700927734,1.5704649686813354
1751214437656257000,3.229257080078125,0.9728519916534424,0.41292282938957214,1.5235933065414429
1751214437666251000,3.2392509765625,0.9387635588645935,0.5110602378845215,1.4021532535552979
1751214437676245200,3.249245361328125,0.9195888638496399,0.447011262178421,1.188035249710083
1751214437686239200,3.2592392578125,0.9185235500335693,0.16258586943149567,0.9046751260757446
1751214437696233200,3.269233154296875,0.906805694103241,-0.1898832470178604,0.6213150024414062
1751214437706227500,3.2792275390625,0.915327787399292,-0.4881570637226105,0.3869570195674896
1751214437716221400,3.289221435546875,0.9345025420188904,-0.7086666226387024,0.22716747224330902
1751214437726215400,3.29921533203125,0.9366330504417419,-0.8812393546104431,0.17070849239826202
1751214437736209700,3.309209716796875,0.9249151349067688,-1.0218541622161865,0.2090579867362976
1751214437746203600,3.31920361328125,0.9100014567375183,-1.1124016046524048,0.31984540820121765
1751214437756197600,3.32919775390625,0.9163930416107178,-1.108140468597412,0.4583296775817871
1751214437766191900,3.33919189453125,0.932371973991394,-1.0090709924697876,0.596813976764679
1751214437776185900,3.349185791015625,0.9206541180610657,-0.8333024978637695,0.718254029750824
1751214437786179800,3.359179931640625,0.8876309394836426,-0.6436855792999268,0.793887734413147
1751214437796173800,3.369173828125,0.8375635147094727,-0.4721781015396118,0.8386288285255432
1751214437806168000,3.37916796875,0.785365641117096,-0.349672794342041,0.8631298542022705
1751214437816162000,3.389162109375,0.7374287843704224,-0.27297380566596985,0.8876309394836426
1751214437826156000,3.399156005859375,0.6852308511734009,-0.1994706094264984,0.9291762113571167
1751214437836150300,3.409150390625,0.6458160877227783,-0.09933583438396454,0.990961492061615
1751214437846144300,3.419144287109375,0.6309024095535278,0.034754227846860886,1.0346373319625854
1751214437856138200,3.42913818359375,0.6255760788917542,0.1849564015865326,1.0399636030197144
1751214437866132200,3.43913232421875,0.6170539855957031,0.2936132848262787,1.0186583995819092
1751214437876126200,3.449126220703125,0.6032055616378784,0.325571209192276,0.9877657294273376
1751214437886120200,3.4591201171875,0.5808349847793579,0.3266364634037018,0.9526119828224182
1751214437896114200,3.4691142578125,0.5637907981872559,0.336223840713501,0.9057404398918152
1751214437906108200,3.479108154296875,0.5531381368637085,0.32876700162887573,0.8258456587791443
1751214437916102400,3.489102294921875,0.568051815032959,0.2978743314743042,0.7001445293426514
1751214437926096400,3.499096435546875,0.5510076284408569,0.25313326716423035,0.5371592044830322
1751214437936090400,3.50909033203125,0.47963494062423706,0.17323850095272064,0.39015281200408936
1751214437946084400,3.51908447265625,0.3848264813423157,0.07523424178361893,0.27190855145454407
1751214437956078300,3.529078369140625,0.303866446018219,0.010253162123262882,0.16005586087703705
1751214437966072300,3.539072265625,0.22077588737010956,-0.05153212696313858,0.07057371735572815
1751214437976066300,3.54906640625,0.13555480539798737,-0.06538055837154388,0.011984216049313545
1751214437986060300,3.559060302734375,0.05033370852470398,-0.024900536984205246,-0.03169159218668938
1751214437996054300,3.56905419921875,-0.013582111336290836,0.04008054360747337,-0.06151897460222244
1751214438006048300,3.57904833984375,-0.05299686640501022,0.08056056499481201,-0.06684529036283493
1751214438016042500,3.58904248046875,-0.05832318589091301,0.08695214241743088,-0.06258423626422882
1751214438026036500,3.599036376953125,-0.014647374860942364,0.0954742506146431,-0.07004108279943466
1751214438036030500,3.609030517578125,0.07163897901773453,0.10719215124845505,-0.09241162240505219
1751214438046024400,3.6190244140625,0.15686006844043732,0.0858868807554245,-0.12650005519390106
1751214438056018400,3.629018310546875,0.2047969400882721,0.024101590737700462,-0.15632744133472443
1751214438066012400,3.639012451171875,0.2239716798067093,-0.0600542388856411,-0.1861548274755478
1751214438076006400,3.64900634765625,0.2420811653137207,-0.1261005848646164,-0.2095906287431717
1751214438086000400,3.65900048828125,0.32943278551101685,-0.20692746341228485,-0.22450430691242218
1751214438095994400,3.668994384765625,0.3922833502292633,-0.27830013632774353,-0.20532956719398499
1751214438105988400,3.67898828125,0.3784348964691162,-0.29108327627182007,-0.148870587348938
1751214438115982600,3.688982666015625,0.3273022472858429,-0.18668745458126068,-0.06151897460222244
1751214438125976600,3.6989765625,0.2751043438911438,0.043276336044073105,0.04394212365150452
1751214438135970600,3.708970458984375,0.23888537287712097,0.34261542558670044,0.15472954511642456
1751214438145964500,3.718964599609375,0.22503694891929626,0.6291713118553162,0.2836264371871948
1751214438155958500,3.72895849609375,0.2612559199333191,0.8518114686012268,0.3922833502292633
1751214438165952500,3.738952392578125,0.349672794342041,1.0052094459533691,0.4338286221027374
1751214438175946500,3.748946533203125,0.4263717830181122,1.030775785446167,0.42317599058151245
1751214438185940500,3.7589404296875,0.425306499004364,0.9242493510246277,0.36671701073646545
1751214438195934500,3.7689345703125,0.3613906800746918,0.7154576778411865,0.24421168863773346
1751214438205928700,3.7789287109375,0.2665822207927704,0.4523375630378723,0.06524740159511566
1751214438215922700,3.788922607421875,0.14407691359519958,0.18708692491054535,-0.14674006402492523
1751214438225916700,3.798916748046875,0.00985368900001049,0.003861580742523074,-0.37577176094055176
1751214438235910700,3.80891064453125,-0.11478215456008911,-0.08668582886457443,-0.6048034429550171
1751214438245904600,3.818904541015625,-0.22237378358840942,-0.13235901296138763,-0.8423572182655334
1751214438255898600,3.828898681640625,-0.3320959508419037,-0.13235901296138763,-1.1054773330688477
1751214438265892900,3.838892822265625,-0.43755704164505005,-0.08668582886457443,-1.371793270111084
1751214438275886800,3.848886962890625,-0.5419528484344482,0.02090579830110073,-1.6189343929290771
1751214438285880800,3.858880859375,-0.6889592409133911,0.26272064447402954,-1.8192039728164673
1751214438295874800,3.868874755859375,-0.9137299060821533,0.6643250584602356,-1.9576882123947144
1751214438305869000,3.878869140625,-1.2120037078857422,1.1042789220809937,-2.0247998237609863
1751214438315863000,3.888863037109375,-1.5443660020828247,1.3546159267425537,-1.997102975845337
1751214438325857000,3.89885693359375,-1.8841850757598877,1.3791168928146362,-1.9065556526184082
1751214438335851300,3.908851318359375,-2.1771326065063477,1.2459590435028076,-1.7872461080551147
1751214438345845200,3.91884521484375,-2.340117931365967,1.0275799036026,-1.7030901908874512
1751214438355839200,3.928839111328125,-2.3859243392944336,0.7772429585456848,-1.6849807500839233
1751214438365833500,3.93883349609375,-2.3955116271972656,0.5865607857704163,-1.6828502416610718
1751214438375827500,3.948827392578125,-2.3209431171417236,0.5918871164321899,-1.6093471050262451
1751214438385821400,3.958821533203125,-2.164349317550659,0.637693464756012,-1.4623407125473022
1751214438395815700,3.968815673828125,-2.01627779006958,0.6323671340942383,-1.2578099966049194
1751214438405809700,3.9788095703125,-1.9150776863098145,0.5407544374465942,-1.0841721296310425
1751214438415803600,3.9888037109375,-1.8341176509857178,0.5258407592773438,-1.000016212463379
1751214438425797600,3.998797607421875,-1.7915071249008179,0.7165229320526123,-0.9808415174484253
1751214438435792000,4.0087919921875,-1.7744629383087158,0.9604683518409729,-1.0277130603790283
1751214438445785900,4.018785888671875,-1.8010945320129395,1.0765820741653442,-1.1012163162231445
1751214438465774000,4.038774169921875,-2.0098862648010254,0.38096490502357483,-1.1640667915344238
1751214438475768000,4.04876806640625,-2.1046946048736572,-0.16325165331363678,-1.2034815549850464
1751214438485762000,4.058761962890625,-2.179263114929199,-0.5424855351448059,-1.2610058784484863
1751214438495756300,4.06875634765625,-2.2090904712677,-0.7022750377655029,-1.3270522356033325
1751214438505750300,4.078750244140625,-2.189915657043457,-0.6948181986808777,-1.3654016256332397
1751214438515744300,4.088744140625,-2.145174741744995,-0.6234455704689026,-1.364336371421814
1751214438525738500,4.098738525390625,-2.085519790649414,-0.5435507893562317,-1.3313132524490356
1751214438535732500,4.108732421875,-2.025865077972412,-0.37630438804626465,-1.2524837255477905
1751214438545726500,4.1187265625,-1.9736672639846802,-0.13235901296138763,-1.1395658254623413
1751214438555720400,4.128720458984375,-1.924665093421936,0.059255290776491165,-1.0096036195755005
1751214438565714700,4.138714599609375,-1.857553482055664,0.08269108831882477,-0.9158604145050049
1751214438575708700,4.148708740234375,-1.782984972000122,-0.021704746410250664,-0.873249888420105
1751214438585702700,4.15870263671875,-1.6753933429718018,-0.20586219429969788,-0.8988161683082581
1751214438595697000,4.16869677734375,-1.5294523239135742,-0.3507380485534668,-0.940361499786377
1751214438605691000,4.17869091796875,-1.3728585243225098,-0.40932756662368774,-0.9520793557167053
1751214438615684900,4.188684814453125,-1.2407658100128174,-0.3262369930744171,-0.9190561771392822
1751214438625679000,4.19867919921875,-1.1310436725616455,-0.20373167097568512,-0.8199867010116577
1751214438635673000,4.208673095703125,-1.0351699590682983,-0.09933583438396454,-0.6665887236595154
1751214438645667000,4.2186669921875,-0.9297088384628296,0.004926844500005245,-0.5004075765609741
1751214438655661000,4.2286611328125,-0.827443540096283,0.0997353047132492,-0.337422251701355
1751214438665655300,4.2386552734375,-0.7060034871101379,0.08908267319202423,-0.19893798232078552
1751214438675649300,4.248649169921875,-0.5685844421386719,-0.030226856470108032,-0.11265163123607635
1751214438685643300,4.258643310546875,-0.4961465299129486,-0.16325165331363678,-0.07004108279943466
1751214438695637500,4.268637451171875,-0.383228600025177,-0.31878015398979187,-0.04767054691910744
1751214438705631500,4.278631591796875,-0.23089589178562164,-0.44661179184913635,-0.02636527456343174
1751214438715625500,4.28862548828125,-0.05086633935570717,-0.5275717973709106,-0.0007989477599039674
1751214438725619700,4.29861962890625,0.09827057272195816,-0.5424855351448059,0.04607265070080757
1751214438735613700,4.30861376953125,0.21331904828548431,-0.5020055174827576,0.13555480539798737
1751214438755602000,4.328601806640625,0.44767704606056213,-0.3315632939338684,0.39974018931388855
1751214438765596000,4.338595947265625,0.5882918238639832,-0.22503694891929626,0.5424855351448059
1751214438775590000,4.34858984375,0.7470161318778992,-0.09294424951076508,0.680969774723053
1751214438785583900,4.358583984375,0.906805694103241,0.03795001655817032,0.7960182428359985
1751214438795578000,4.368578125,1.0207889080047607,0.14447638392448425,0.8460856676101685
1751214438805572000,4.378572021484375,1.0378330945968628,0.24461115896701813,0.7757782340049744
1751214438815566000,4.388566162109375,1.031441569328308,0.29041749238967896,0.718254029750824
1751214438825560300,4.398560302734375,1.0847047567367554,0.3063964545726776,0.8524772524833679
1751214438835554300,4.40855419921875,1.2274500131607056,0.5556681752204895,1.1528816223144531
1751214438845548300,4.41854833984375,1.346759557723999,0.993491530418396,1.5140058994293213
1751214438855542500,4.42854248046875,1.3872395753860474,1.460076928138733,1.7973660230636597
1751214438865536500,4.43853662109375,1.4351764917373657,1.7871129512786865,1.9635472297668457
1751214438875530500,4.448530517578125,1.5544859170913696,2.1003003120422363,2.0530292987823486
1751214438885524700,4.458524658203125,1.7227976322174072,2.314418315887451,2.0540945529937744
1751214438895518700,4.468518798828125,1.8804566860198975,2.2696774005889893,2.0146799087524414
1751214438905512700,4.4785126953125,1.9614167213439941,2.0640814304351807,1.9859176874160767
1751214438915506700,4.488506591796875,1.983787178993225,1.8595508337020874,2.041311502456665
1751214438925501000,4.4985009765625,1.8975008726119995,1.9618161916732788,2.159555673599243
1751214438935495000,4.508494873046875,1.7004270553588867,2.1855216026306152,2.1638166904449463
1751214438945489000,4.518489013671875,1.5267890691757202,1.8797909021377563,2.0402462482452393
1751214438955483000,4.52848291015625,1.3765869140625,1.1809779405593872,1.887913465499878
1751214438965476900,4.538476806640625,1.2764521837234497,0.8102661371231079,1.6535555124282837
1751214438975470800,4.548470947265625,1.2295805215835571,0.5631250143051147,1.3510205745697021
1751214438985464800,4.55846484375,1.219993233680725,0.17110797762870789,1.09109628200531
1751214438995458800,4.568458740234375,1.1944268941879272,-0.26338642835617065,0.84821617603302
1751214439005452800,4.578452880859375,1.2167973518371582,-0.672447681427002,0.5872265696525574
1751214439015447000,4.588447021484375,1.296692132949829,-1.006940484046936,0.3326285779476166
1751214439025441000,4.59844091796875,1.371260643005371,-1.2689952850341797,0.10785794258117676
1751214439035435000,4.60843505859375,1.4223933219909668,-1.4745911359786987,-0.05299686640501022
1751214439045429000,4.618428955078125,1.4500901699066162,-1.5907049179077148,-0.14567480981349945
1751214439055423000,4.628423095703125,1.4628733396530151,-1.6258586645126343,-0.18402428925037384
1751214439065417000,4.6384169921875,1.4532859325408936,-1.61946702003479,-0.17550218105316162
1751214439075411000,4.648410888671875,1.406414270401001,-1.594965934753418,-0.14674006402492523
1751214439085405000,4.658405029296875,1.3329111337661743,-1.5459638833999634,-0.0870852991938591
1751214439095399000,4.66839892578125,1.2402331829071045,-1.4660691022872925,-0.015712639316916466
1751214439105393000,4.678392822265625,1.1486204862594604,-1.3371721506118774,0.0684431865811348
1751214439115387100,4.68838720703125,1.0772478580474854,-1.1603384017944336,0.15899059176445007
1751214439125381000,4.698381103515625,1.0271804332733154,-0.9376983046531677,0.24847275018692017
1751214439135375000,4.708375,0.9973530769348145,-0.7129276990890503,0.3315632939338684
1751214439145369000,4.718369140625,0.9856351613998413,-0.5360939502716064,0.40400123596191406
1751214439155363000,4.728363037109375,0.982439398765564,-0.4263717830181122,0.4679170548915863
1751214439165357000,4.738357177734375,0.9920267462730408,-0.3731085956096649,0.5318328738212585
1751214439175351000,4.74835107421875,1.0048099756240845,-0.3795001804828644,0.5978792309761047
1751214439195339000,4.768339111328125,1.0261151790618896,-0.4210454523563385,0.7363634705543518
1751214439205333000,4.7783330078125,1.0143972635269165,-0.3645864725112915,0.7747129797935486
1751214439215327200,4.7883271484375,0.9867004752159119,-0.27403905987739563,0.781104564666748
1751214439225321200,4.7983212890625,0.9515467286109924,-0.19414429366588593,0.7534077167510986
1751214439235315200,4.808315185546875,0.9249151349067688,-0.1483379602432251,0.705470860004425
1751214439245309200,4.81830908203125,0.9014793634414673,-0.15366427600383759,0.6585992574691772
1751214439255303200,4.82830322265625,0.8791088461875916,-0.22077588737010956,0.629837155342102
1751214439265297200,4.838297119140625,0.8386288285255432,-0.31132328510284424,0.6106624007225037
1751214439275291100,4.848291015625,0.7747129797935486,-0.37736964225769043,0.5872265696525574
1751214439285285000,4.85828515625,0.6852308511734009,-0.43702441453933716,0.5584644675254822
1751214439295279000,4.868279052734375,0.6149234175682068,-0.5179844498634338,0.5456812977790833
1751214439305273000,4.878273193359375,0.5510076284408569,-0.5478118062019348,0.5542033910751343
1751214439315267300,4.888267333984375,0.4402202069759369,-0.5584644675254822,0.592552900314331
1751214439325261300,4.89826123046875,0.2804306447505951,-0.5616602301597595,0.6458160877227783
1751214439335255300,4.90825537109375,0.15153375267982483,-0.48922231793403625,0.6703171730041504
1751214439345249500,4.91824951171875,0.048203181475400925,-0.3315632939338684,0.6479465961456299
1751214439355243500,4.928243408203125,-0.013582111336290836,-0.13662005960941315,0.5797697305679321
1751214439365237500,4.938237548828125,-0.01784316636621952,0.03262370079755783,0.48496127128601074
1751214439375231500,4.9482314453125,0.005592633970081806,0.18708692491054535,0.3784348964691162
1751214439385225700,4.958225830078125,0.056725289672613144,0.2978743314743042,0.2836264371871948
1751214439395219700,4.9682197265625,0.12596742808818817,0.3266364634037018,0.19840535521507263
1751214439405213700,4.978213623046875,0.21118851006031036,0.314918577671051,0.11957584321498871
1751214439415208000,4.9882080078125,0.29534435272216797,0.2872216999530792,0.036485280841588974
1751214439425202000,4.998201904296875,0.360325425863266,0.2510027587413788,-0.05725792050361633
1751214439435196000,5.00819580078125,0.3986749053001404,0.1934785097837448,-0.1478053331375122
1751214439445190100,5.018190185546875,0.4221107065677643,0.10399636626243591,-0.2372874766588211
1751214439455184100,5.02818408203125,0.4551338851451874,-0.029161592945456505,-0.3257043659687042
1751214439465178000,5.03817822265625,0.4913528561592102,-0.16857796907424927,-0.40453386306762695
1751214439475172400,5.04817236328125,0.5243760347366333,-0.2889527678489685,-0.4822981059551239
1751214439485166300,5.058166259765625,0.538224458694458,-0.35712963342666626,-0.550475001335144
1751214439495160300,5.068160400390625,0.5350286364555359,-0.349672794342041,-0.5813676118850708
1751214439505154300,5.078154296875,0.5094623565673828,-0.24421168863773346,-0.5408875942230225
1751214439515148500,5.0881484375,0.44661179184913635,-0.04620581120252609,-0.40027281641960144
1751214439525142500,5.098142578125,0.3368896245956421,0.23076273500919342,-0.18295903503894806
1751214439535136500,5.108136474609375,0.2090579867362976,0.504668653011322,0.0684431865811348
1751214439545130800,5.118130859375,0.10785794258117676,0.6589987277984619,0.31878015398979187
1751214439555124700,5.128124755859375,0.027963170781731606,0.6099966168403625,0.5318328738212585
1751214439565118700,5.13811865234375,-0.06151897460222244,0.33835434913635254,0.6841655969619751
1751214439575113000,5.148113037109375,-0.15526217222213745,-0.11211899667978287,0.7544729709625244
1751214439585107000,5.15810693359375,-0.20639483630657196,-0.6234455704689026,0.7193192839622498
1751214439595101000,5.168100830078125,-0.17337165772914886,-1.0847047567367554,0.5914876461029053
1751214439605095000,5.178094970703125,-0.138217955827713,-1.3616732358932495,0.4593949317932129
1751214439615089200,5.188089111328125,-0.1435442715883255,-1.299888014793396,0.37097805738449097
1751214439625083100,5.198083251953125,-0.1765674501657486,-0.8748477697372437,0.24314641952514648
1751214439635077000,5.2080771484375,-0.21172115206718445,-0.23355905711650848,-0.09773793816566467
1751214439645071400,5.2180712890625,-0.27776750922203064,0.4374238848686218,-0.7858982682228088
1751214439655065300,5.2280654296875,-0.39494648575782776,0.8965525031089783,-1.5859112739562988
1751214439665059300,5.238059326171875,-0.5536707639694214,0.9785777926445007,-2.081258773803711
1751214439675053600,5.248053466796875,-0.7400919198989868,0.9423588514328003,-2.349705219268799
1751214439695041500,5.26804150390625,-1.1448920965194702,0.7985482811927795,-2.4764716625213623
1751214439705035800,5.278035888671875,-1.3195953369140625,0.897617757320404,-2.3710105419158936
1751214439715029800,5.28802978515625,-1.4346438646316528,1.139432668685913,-2.19417667388916
1751214439725023700,5.298023681640625,-1.5145385265350342,1.4632728099822998,-2.010951519012451
1751214439735017700,5.308017822265625,-1.5656712055206299,1.6816518306732178,-1.8415745496749878
1751214439745012000,5.318011962890625,-1.6082817316055298,1.781786561012268,-1.6753933429718018
1751214439755006000,5.328005859375,-1.6242607831954956,1.8339844942092896,-1.547561764717102
1751214439765000000,5.338,-1.5997596979141235,1.5016223192214966,-1.3973596096038818
1751214439774994200,5.347994140625,-1.5496922731399536,0.9892304539680481,-1.1544795036315918
1751214439784988200,5.35798828125,-1.4953638315200806,0.5822997093200684,-0.9648625254631042
1751214439794982100,5.367982177734375,-1.4026858806610107,0.3532680571079254,-0.890294075012207
1751214439804976400,5.377976318359375,-1.2908332347869873,0.279764860868454,-0.8775109052658081
1751214439814970400,5.387970458984375,-1.2045468091964722,0.30533120036125183,-0.8892288208007812
1751214439824964400,5.39796435546875,-1.1640667915344238,0.44594597816467285,-0.8988161683082581
1751214439834958600,5.40795849609375,-1.2450268268585205,0.7261103391647339,-0.9286435842514038
1751214439844952600,5.41795263671875,-1.409077525138855,1.082973599433899,-0.9733846783638
1751214439854946600,5.427946533203125,-1.5592796802520752,1.407879114151001,-1.0096036195755005
1751214439864940500,5.4379404296875,-1.6562186479568481,1.5250580310821533,-1.0106688737869263
1751214439874934800,5.447934814453125,-1.7222650051116943,1.3727253675460815,-0.9510141015052795
1751214439884928800,5.4579287109375,-1.7776587009429932,0.9594030380249023,-0.8306393027305603
1751214439894922800,5.4679228515625,-1.8000292778015137,0.41292282938957214,-0.6719150543212891
1751214439904917000,5.4779169921875,-1.782984972000122,-0.0504668653011322,-0.5302349925041199
1751214439914911000,5.487910888671875,-1.7435702085494995,-0.31558436155319214,-0.46099284291267395
1751214439924905000,5.497905029296875,-1.6924376487731934,-0.33369383215904236,-0.4929507374763489
1751214439934899200,5.507899169921875,-1.6381092071533203,-0.23995064198970795,-0.6101297736167908
1751214439944893200,5.51789306640625,-1.5869765281677246,-0.17496955394744873,-0.739026665687561
1751214439954887200,5.52788720703125,-1.530517578125,-0.21971063315868378,-0.8157256245613098
1751214439964881200,5.537881103515625,-1.4602100849151611,-0.3549990952014923,-0.8412919640541077
1751214439974875100,5.547875244140625,-1.421860694885254,-0.49348339438438416,-0.8412919640541077
1751214439984869000,5.557869140625,-1.4048163890838623,-0.6191844940185547,-0.8423572182655334
1751214439994863000,5.567863037109375,-1.3579448461532593,-0.6873613595962524,-0.8327698707580566
1751214440004857300,5.577857421875,-1.2929637432098389,-0.756603479385376,-0.8050730228424072
1751214440014851300,5.587851318359375,-1.3036164045333862,-0.8311719298362732,-0.7763108611106873
1751214440024845300,5.59784521484375,-1.2311784029006958,-0.8343677520751953,-0.7326350808143616
1751214440034839300,5.60783935546875,-1.1321089267730713,-0.7395592927932739,-0.6538055539131165
1751214440044833300,5.617833251953125,-1.0479531288146973,-0.6213150024414062,-0.5547360181808472
1751214440054827300,5.6278271484375,-1.0032119750976562,-0.5052012801170349,-0.4631233811378479
1751214440064821200,5.6378212890625,-0.9776456952095032,-0.40400123596191406,-0.3821633458137512
1751214440074815200,5.647815185546875,-0.9531446695327759,-0.34754225611686707,-0.3257043659687042
1751214440084809200,5.657809326171875,-0.9211867451667786,-0.31878015398979187,-0.2788327634334564
1751214440094803200,5.66780322265625,-0.8636624813079834,-0.3741738498210907,-0.2095906287431717
1751214440104797400,5.67779736328125,-0.8199867010116577,-0.3411506712436676,-0.12223900109529495
1751214440114791400,5.68779150390625,-0.7486140131950378,-0.37097805738449097,-0.030626330524683
1751214440124785400,5.697785400390625,-0.6591318845748901,-0.4530033767223358,0.04287686198949814
1751214440134779400,5.707779296875,-0.5472791790962219,-0.5179844498634338,0.10146636515855789
1751214440144773400,5.7177734375,-0.46525388956069946,-0.5531381368637085,0.17390428483486176
1751214440154767400,5.727767333984375,-0.40986019372940063,-0.5946834087371826,0.25806012749671936
1751214440164761300,5.73776123046875,-0.32996541261672974,-0.6617950201034546,0.33902016282081604
1751214440174755300,5.74775537109375,-0.24900537729263306,-0.7374287843704224,0.3784348964691162
1751214440184749300,5.757749267578125,-0.1861548274755478,-0.8066709041595459,0.3869570195674896
1751214440194743300,5.767743408203125,-0.12863057851791382,-0.8258456587791443,0.39441385865211487
1751214440204737500,5.777737548828125,-0.06578002870082855,-0.7715172171592712,0.3922833502292633
1751214440214731500,5.7877314453125,0.007723161485046148,-0.6873613595962524,0.3784348964691162
1751214440224725500,5.7977255859375,0.08016108721494675,-0.6202497482299805,0.34434646368026733
1751214440234719500,5.807719482421875,0.13981585204601288,-0.5755086541175842,0.2985401451587677
1751214440244713500,5.81771337890625,0.18349166214466095,-0.4913528561592102,0.2761695981025696
1751214440254707500,5.82770751953125,0.19734008610248566,-0.3368896245956421,0.27723485231399536
1751214440264701400,5.837701416015625,0.17923060059547424,-0.11957584321498871,0.2420811653137207
1751214440274695400,5.8476953125,0.14940322935581207,0.10825742036104202,0.16005586087703705
1751214440284689400,5.857689453125,0.1387505829334259,0.25206801295280457,0.08761793375015259
1751214440294683600,5.86768359375,0.1579253375530243,0.3032006621360779,0.06418213248252869
1751214440304677600,5.877677734375,0.18668745458126068,0.29893961548805237,0.08761793375015259
1751214440314671600,5.887671630859375,0.21225377917289734,0.2829606533050537,0.16538217663764954
1751214440324665600,5.89766552734375,0.237820103764534,0.24780695140361786,0.2942790687084198
1751214440334659600,5.90765966796875,0.27403905987739563,0.17430377006530762,0.4455465078353882
1751214440344653600,5.917653564453125,0.3134538233280182,0.07097318768501282,0.5573992133140564
1751214440354647600,5.9276474609375,0.3028011918067932,0.03795001655817032,0.6159886717796326
1751214440364641800,5.937641845703125,0.4029359817504883,0.02090579830110073,0.629837155342102
1751214440374635800,5.9476357421875,0.538224458694458,0.012383690103888512,0.6181192398071289
1751214440384629800,5.957629638671875,0.7107971906661987,-0.0492684431374073,0.6820350289344788
1751214440394624000,5.9676240234375,0.8759130239486694,-0.05153212696313858,0.8844351172447205
1751214440404618000,5.977617919921875,0.9952225685119629,0.08269108831882477,1.1070752143859863
1751214440414612000,5.987612060546875,1.086835265159607,0.29041749238967896,1.279647946357727
1751214440424606000,5.99760595703125,1.0996184349060059,0.5237102508544922,1.42665433883667
1751214440434600200,6.00760009765625,1.0388983488082886,0.8858999013900757,1.5512901544570923
1751214440444594200,6.01759423828125,0.9856351613998413,1.3780516386032104,1.5992270708084106
1751214440454588200,6.027588134765625,0.9781783223152161,1.7210665941238403,1.5619428157806396
1751214440464582400,6.03758251953125,1.019723653793335,1.673129677772522,1.559812307357788
1751214440474576400,6.047576416015625,1.0974878072738647,1.5037528276443481,1.6056185960769653
1751214440484570400,6.0575703125,1.2029489278793335,1.4430327415466309,1.6215975284576416
1751214440494564600,6.067564697265625,1.1891005039215088,1.2896348237991333,1.5235933065414429
1751214440504558600,6.07755859375,1.2263847589492798,1.097887396812439,1.401087999343872
1751214440514552600,6.087552490234375,1.2807132005691528,0.8155924677848816,1.2956268787384033
1751214440524546800,6.097546875,1.3201279640197754,0.5439502596855164,1.272191047668457
1751214440534540800,6.107540771484375,1.363803744316101,0.40866175293922424,1.2881700992584229
1751214440544534800,6.11753466796875,1.4458290338516235,0.3021354079246521,1.275386929512024
1751214440554528800,6.12752880859375,1.498026967048645,0.1657816469669342,1.2349069118499756
1751214440564523000,6.13752294921875,1.4958964586257935,-0.04727107286453247,1.1592731475830078
1751214440574517000,6.14751708984375,1.4596774578094482,-0.31451907753944397,1.0346373319625854
1751214440584511000,6.157510986328125,1.4202626943588257,-0.5478118062019348,0.8812393546104431
1751214440594505200,6.167505126953125,1.3616732358932495,-0.735298216342926,0.696948766708374
1751214440604499200,6.177499267578125,1.2817784547805786,-0.923849880695343,0.5243760347366333
1751214440614493200,6.1874931640625,1.2136015892028809,-1.116662621498108,0.38056543469429016
1751214440624487400,6.1974873046875,1.1816437244415283,-1.284974217414856,0.27830013632774353
1751214440634481400,6.2074814453125,1.1741868257522583,-1.401087999343872,0.20799273252487183
1751214440644475400,6.217475341796875,1.1741868257522583,-1.4405027627944946,0.15153375267982483
1751214440654469600,6.2274697265625,1.170991063117981,-1.4096101522445679,0.105727419257164
1751214440664463600,6.237463623046875,1.1496857404708862,-1.3361068964004517,0.0822916179895401
1751214440674457600,6.24745751953125,1.1102709770202637,-1.2540816068649292,0.08548741042613983
1751214440684451600,6.25745166015625,1.0591384172439575,-1.1198583841323853,0.11638005077838898
1751214440694445800,6.26744580078125,1.0058752298355103,-0.9430246353149414,0.17390428483486176
1751214440704439800,6.277439697265625,0.9749825596809387,-0.7491466403007507,0.2623211741447449
1751214440714433800,6.287433837890625,0.9621993899345398,-0.5648560523986816,0.36778226494789124
1751214440724428000,6.297427978515625,0.9653951525688171,-0.4082622826099396,0.47963494062423706
1751214440734422000,6.307422119140625,0.9685909748077393,-0.29534435272216797,0.5605949759483337
1751214440744416000,6.317416015625,0.9579383134841919,-0.237820103764534,0.5989444851875305
1751214440754410200,6.32741015625,0.9345025420188904,-0.17496955394744873,0.6266413331031799
1751214440764404200,6.337404296875,0.8972182869911194,-0.05779055133461952,0.6585992574691772
1751214440774398200,6.347398193359375,0.8599340915679932,0.09334372729063034,0.6958834528923035
1751214440784392400,6.357392333984375,0.8460856676101685,0.23715431988239288,0.726776123046875
1751214440794386400,6.367386474609375,0.8364982604980469,0.3436806797981262,0.7427550554275513
1751214440804380400,6.37738037109375,0.8173235058784485,0.39481332898139954,0.743820309638977
1751214440814374400,6.38737451171875,0.7928224802017212,0.43209755420684814,0.7470161318778992
1751214440824368600,6.39736865234375,0.7608645558357239,0.4672512710094452,0.7384940385818481
1751214440834362600,6.407362548828125,0.7257108688354492,0.466185986995697,0.7129276990890503
1751214440844356600,6.417356689453125,0.6905571818351746,0.411857545375824,0.6905571818351746
1751214440854350800,6.427350830078125,0.6543381810188293,0.31811434030532837,0.6788392663002014
1751214440864344800,6.4373447265625,0.6372939944267273,0.18815219402313232,0.6660560965538025
1751214440874338800,6.4473388671875,0.6543381810188293,0.05819002538919449,0.6649908423423767
1751214440884333000,6.4573330078125,0.6500771641731262,-0.04833633825182915,0.6916224360466003
1751214440894327000,6.4673271484375,0.5893571376800537,-0.07177213579416275,0.7342329621315002
1751214440904321000,6.477321044921875,0.48389601707458496,-0.05685844644904137,0.7597993016242981
1751214440914315300,6.487315185546875,0.37204334139823914,-0.04833633825182915,0.7651256322860718
1751214440924309200,6.497309326171875,0.27830013632774353,-0.012117373757064342,0.756603479385376
1751214440934303200,6.50730322265625,0.2005358785390854,0.002796316985040903,0.7342329621315002
1751214440944297200,6.517297119140625,0.14088112115859985,0.013448953628540039,0.7065361142158508
1751214440954291500,6.52729150390625,0.08868319541215897,0.06990792602300644,0.6660560965538025
1751214440964285400,6.537285400390625,0.04181159660220146,0.16045533120632172,0.6000097393989563
1751214440974279400,6.547279541015625,0.026897907257080078,0.23715431988239288,0.5052012801170349
1751214440984273400,6.5572734375,0.040746334940195084,0.27550381422042847,0.39441385865211487
1751214440994267400,6.567267333984375,0.08122635632753372,0.29893961548805237,0.27830013632774353
1751214441004261400,6.577261474609375,0.12809795141220093,0.2936132848262787,0.15579481422901154
1751214441014255400,6.58725537109375,0.16538217663764954,0.24993747472763062,0.0354200154542923
1751214441024249300,6.597249267578125,0.1952095627784729,0.17323850095272064,-0.0774979293346405
1751214441034243300,6.607243408203125,0.2143843024969101,0.07097318768501282,-0.17869797348976135
1751214441044237300,6.6172373046875,0.22716747224330902,-0.024900536984205246,-0.2745717167854309
1751214441054231600,6.6272314453125,0.23568958044052124,-0.09733846783638,-0.35233595967292786
1751214441064225500,6.6372255859375,0.22716747224330902,-0.12290479242801666,-0.3928159773349762
1751214441074219500,6.647219482421875,0.20586219429969788,-0.06325002759695053,-0.3683148920536041
1751214441084213500,6.657213623046875,0.1771000772714615,0.08908267319202423,-0.27776750922203064
1751214441094207500,6.66720751953125,0.14620743691921234,0.29041749238967896,-0.12543480098247528
1751214441104201500,6.677201416015625,0.1153147891163826,0.4800344407558441,0.060986343771219254
1751214441114195500,6.687195556640625,0.08442214131355286,0.5897566080093384,0.2804306447505951
1751214441124189400,6.697189453125,0.05459476262331009,0.5514070987701416,0.5020055174827576
1751214441134183400,6.707183349609375,0.019441060721874237,0.32770171761512756,0.6926876902580261
1751214441144177700,6.717177734375,-0.01784316636621952,-0.040879491716623306,0.8333024978637695
1751214441154171600,6.727171630859375,-0.019973693415522575,-0.4583296775817871,0.8918919563293457
1751214441164165600,6.73716552734375,0.0141147430986166,-0.84821617603302,0.8354330062866211
1751214441174159600,6.74715966796875,0.0727042406797409,-1.1550121307373047,0.6522076725959778
1751214441184153600,6.757153564453125,0.13981585204601288,-1.3318458795547485,0.3262369930744171
1751214441194147600,6.767147705078125,0.18775272369384766,-1.3552817106246948,-0.09773793816566467
1751214441204141600,6.7771416015625,0.1664474457502365,-1.2167973518371582,-0.5398223400115967
1751214441214135600,6.787135498046875,0.06205160543322563,-0.9121319651603699,-0.9169256687164307
1751214441224129500,6.797129638671875,-0.10732531547546387,-0.47111284732818604,-1.2120037078857422
1751214441234123500,6.80712353515625,-0.29161593317985535,-0.11851058155298233,-1.4847111701965332
1751214441244117800,6.81711767578125,-0.4066644012928009,-0.009986846707761288,-1.798964023590088
1751214441254111700,6.82711181640625,-0.5589970946311951,0.2169143110513687,-2.025865077972412
1751214441264105700,6.837105712890625,-0.739026665687561,0.5801692008972168,-2.239983081817627
1751214441274099700,6.847099609375,-0.911599338054657,0.9785777926445007,-2.4114906787872314
1751214441284093700,6.85709375,-1.0436919927597046,1.290700078010559,-2.4913852214813232
1751214441294087700,6.867087646484375,-1.153414249420166,1.5847128629684448,-2.4519705772399902
1751214441314075600,6.88707568359375,-1.450622797012329,2.0640814304351807,-2.2122862339019775
1751214441324069600,6.897069580078125,-1.5688669681549072,2.2142837047576904,-2.0684757232666016
1751214441334063600,6.907063720703125,-1.6168038845062256,2.2323930263519287,-1.920404076576233
1751214441344057900,6.917057861328125,-1.6040207147598267,2.113083600997925,-1.795768141746521
1751214441354051800,6.9270517578125,-1.5518227815628052,1.734915018081665,-1.7126775979995728
1751214441364045800,6.9370458984375,-1.4825806617736816,1.0286451578140259,-1.577389121055603
1751214441374039800,6.947039794921875,-1.4452964067459106,0.3074617087841034,-1.351553201675415
1751214441384033800,6.95703369140625,-1.409077525138855,-0.32943278551101685,-1.163001537322998
1751214441394027800,6.96702783203125,-1.339835286140442,-0.7374287843704224,-1.028778314590454
1751214441404022000,6.97702197265625,-1.2737890481948853,-0.8439550995826721,-0.9094688296318054
1751214441414016000,6.98701611328125,-1.267397403717041,-0.5904223918914795,-0.768854022026062
1751214441424010000,6.997010009765625,-1.351553201675415,0.08482161909341812,-0.6367613673210144
1751214441434004200,7.007004150390625,-1.5081470012664795,1.1213231086730957,-0.5643234252929688
1751214441443998200,7.016998291015625,-1.7382439374923706,2.1727383136749268,-0.5653886795043945
1751214441453992200,7.0269921875,-1.984319806098938,2.782069206237793,-0.563258171081543
1751214441463986400,7.036986328125,-2.1686105728149414,2.7202837467193604,-0.48016759753227234
1751214441473980400,7.04698046875,-2.269810438156128,2.1546287536621094,-0.30546435713768005
1751214441483974400,7.056974365234375,-2.298572540283203,1.4440979957580566,-0.14674006402492523
1751214441493968600,7.06696875,-2.275136709213257,0.8486156463623047,-0.14567480981349945
1751214441503962600,7.076962646484375,-2.2133514881134033,0.4001396596431732,-0.3214432895183563
1751214441513956600,7.08695654296875,-2.140913486480713,-0.011052110232412815,-0.5526055097579956
1751214441523950600,7.09695068359375,-2.0684757232666016,-0.4775044322013855,-0.7720498442649841
1751214441533944800,7.10694482421875,-1.9757977724075317,-0.9142625331878662,-0.940361499786377
1751214441543938800,7.116938720703125,-1.8586187362670898,-1.1699258089065552,-1.0436919927597046
1751214441553932800,7.126932861328125,-1.7595492601394653,-1.0474205017089844,-1.0692583322525024
1751214441563927000,7.136927001953125,-1.6935029029846191,-0.6000097393989563,-0.9989509582519531
1751214441573921000,7.146921142578125,-1.577389121055603,-0.3890875577926636,-0.9233172535896301
1751214441583915000,7.1569150390625,-1.413338541984558,-0.3166496157646179,-0.8530098795890808
1751214441593909200,7.1669091796875,-1.2929637432098389,-0.1898832470178604,-0.8498140573501587
1751214441603903200,7.1769033203125,-1.1917636394500732,-0.28149592876434326,-0.8508793115615845
1751214441613897200,7.186897216796875,-1.0937594175338745,-0.4593949317932129,-0.7464835047721863
1751214441623891500,7.196891357421875,-1.0064078569412231,-0.5424855351448059,-0.6026729345321655
1751214441633885400,7.206885498046875,-0.9286435842514038,-0.49880969524383545,-0.5355613231658936
1751214441643879400,7.21687939453125,-0.8508793115615845,-0.40080544352531433,-0.5355613231658936
1751214441653873400,7.226873291015625,-0.7635276913642883,-0.349672794342041,-0.4929507374763489
1751214441663867600,7.23686767578125,-0.6889592409133911,-0.32091066241264343,-0.42903491854667664
1751214441673861600,7.246861572265625,-0.6378266215324402,-0.29747486114501953,-0.35233595967292786
1751214441683855600,7.256855712890625,-0.5813676118850708,-0.24421168863773346,-0.24794010818004608
1751214441693849900,7.266849853515625,-0.504668653011322,-0.15579481422901154,-0.14993585646152496
1751214441703843800,7.27684375,-0.41518649458885193,-0.0588558167219162,-0.07962846010923386
1751214441713837800,7.286837890625,-0.2990727722644806,-0.017443692311644554,-0.02210422046482563
1751214441723832000,7.29683203125,-0.14034847915172577,-0.04620581120252609,0.010918952524662018
1751214441733826000,7.306825927734375,0.029028434306383133,-0.09614004194736481,0.013049479573965073
1751214441743820000,7.316820068359375,0.14514216780662537,-0.12170637398958206,0.011984216049313545
1751214441753814300,7.326814208984375,0.21225377917289734,-0.15472954511642456,0.011984216049313545
1751214441763808300,7.336808349609375,0.2761695981025696,-0.23036326467990875,0.01837579719722271
1751214441773802200,7.34680224609375,0.35712963342666626,-0.2942790687084198,0.03755054250359535
1751214441783796200,7.356796142578125,0.45619916915893555,-0.30599698424339294,0.08122635632753372
1751214441793790500,7.36679052734375,0.5712476372718811,-0.31132328510284424,0.1579253375530243
1751214441803784400,7.376784423828125,0.7044056057929993,-0.34434646368026733,0.2708432674407959
1751214441813778400,7.3867783203125,0.8311719298362732,-0.39121806621551514,0.4210454523563385
1751214441823772700,7.396772705078125,0.9472857117652893,-0.4210454523563385,0.5850960612297058
1751214441833766700,7.4067666015625,1.0623341798782349,-0.4071970283985138,0.7203845381736755
1751214441843760600,7.4167607421875,1.1528816223144531,-0.3262369930744171,0.7715172171592712
1751214441853755000,7.4267548828125,1.1773825883865356,-0.3273022472858429,0.8290414214134216
1751214441863748900,7.436748779296875,1.195492148399353,-0.26764747500419617,1.049551010131836
1751214441873742800,7.446742919921875,1.275386929512024,-0.02383527345955372,1.3755216598510742
1751214441883737000,7.456737060546875,1.38404381275177,0.35539859533309937,1.7132102251052856
1751214441893731000,7.46673095703125,1.505483865737915,0.8113313913345337,1.9859176874160767
1751214441903725000,7.47672509765625,1.5757912397384644,1.3311800956726074,2.225602149963379
1751214441913719000,7.486718994140625,1.5715302228927612,2.0310583114624023,2.3619558811187744
1751214441923713300,7.49671337890625,1.498026967048645,2.745850086212158,2.2469072341918945
1751214441933707300,7.506707275390625,1.4447637796401978,2.900313377380371,1.8921746015548706
1751214441943701200,7.516701171875,1.3883048295974731,2.2995047569274902,1.6333154439926147
1751214441953695500,7.526695556640625,1.3020185232162476,1.9809908866882324,1.694035530090332
1751214441963689500,7.536689453125,1.2242542505264282,2.053428888320923,1.7387765645980835
1751214441973683500,7.546683349609375,1.1731215715408325,2.0246667861938477,1.6247934103012085
1751214441983677400,7.556677490234375,1.1667300462722778,1.618801236152649,1.4799175262451172
1751214441993671400,7.56667138671875,1.1273152828216553,0.9530115127563477,1.3883048295974731
1751214442003665700,7.576665771484375,1.019723653793335,0.4438154697418213,1.2828437089920044
1751214442013659600,7.58665966796875,0.9877657294273376,-0.011052110232412815,1.1155973672866821
1751214442033647600,7.606647705078125,1.0783131122589111,-0.6149234175682068,0.7299718856811523
1751214442043641600,7.6166416015625,1.042094111442566,-0.668186604976654,0.6117276549339294
1751214442053635600,7.626635498046875,0.9515467286109924,-0.659664511680603,0.5371592044830322
1751214442063629600,7.636629638671875,0.8727172613143921,-0.6340981721878052,0.4828307330608368
1751214442073623600,7.64662353515625,0.8439550995826721,-0.592552900314331,0.4391549229621887
1751214442083617500,7.656617431640625,0.8705866932868958,-0.5275717973709106,0.4029359817504883
1751214442093611800,7.66661181640625,0.9430246353149414,-0.45087283849716187,0.3741738498210907
1751214442103605800,7.676605712890625,1.0090709924697876,-0.3731085956096649,0.36778226494789124
1751214442113599700,7.686599853515625,0.9867004752159119,-0.31984540820121765,0.3699128031730652
1751214442123593700,7.69659375,0.8514119386672974,-0.20586219429969788,0.41358861327171326
1751214442133587700,7.706587646484375,0.7331677079200745,-0.009986846707761288,0.4902876019477844
1751214442143581700,7.716581787109375,0.6990792751312256,0.23076273500919342,0.5755086541175842
1751214442153575700,7.72657568359375,0.7012097835540771,0.49707865715026855,0.629837155342102
1751214442163569700,7.736569580078125,0.7416898012161255,0.6866955757141113,0.6479465961456299
1751214442173563600,7.746563720703125,0.7874961495399475,0.7772429585456848,0.622380256652832
1751214442183557600,7.7565576171875,0.793887734413147,0.8251798748970032,0.5936181545257568
1751214442193552000,7.7665517578125,0.7821698188781738,0.7878956198692322,0.5893571376800537
1751214442203545900,7.7765458984375,0.7928224802017212,0.683499813079834,0.5946834087371826
1751214442233527800,7.80652783203125,0.8684561848640442,0.5950828790664673,0.5371592044830322
1751214442243521800,7.816521728515625,0.8514119386672974,0.5343628525733948,0.4913528561592102
1751214442253515800,7.826515869140625,0.8322372436523438,0.5024049878120422,0.43808966875076294
1751214442263509800,7.836509765625,0.8343677520751953,0.466185986995697,0.38589176535606384
1751214442273503700,7.846503662109375,0.8247803449630737,0.4246407151222229,0.3507380485534668
1751214442283497700,7.856497802734375,0.7821698188781738,0.3628554344177246,0.3262369930744171
1751214442293492000,7.866491943359375,0.7257108688354492,0.25313326716423035,0.3091927766799927
1751214442303486000,7.87648583984375,0.6628602743148804,0.1423458606004715,0.30067065358161926
1751214442313480000,7.88647998046875,0.5936181545257568,0.07736477255821228,0.31878015398979187
1751214442323474000,7.896473876953125,0.5414202213287354,0.059255290776491165,0.3454117476940155
1751214442333468000,7.906468017578125,0.4679170548915863,0.09334372729063034,0.3699128031730652
1751214442343462000,7.9164619140625,0.39974018931388855,0.09334372729063034,0.3741738498210907
1751214442353455900,7.926455810546875,0.3592601716518402,0.0017310534603893757,0.3518033027648926
1751214442363449900,7.936449951171875,0.3400854170322418,-0.11744531989097595,0.3123885691165924
1751214442373443800,7.94644384765625,0.32091066241264343,-0.21331904828548431,0.25379905104637146
1751214442383438000,7.95643798828125,0.3028011918067932,-0.2889527678489685,0.17816534638404846
1751214442393432000,7.96643212890625,0.30599698424339294,-0.34860754013061523,0.08655267208814621
1751214442403426000,7.976426025390625,0.3070622384548187,-0.3922833502292633,-0.008255792781710625
1751214442413420000,7.986419921875,0.29747486114501953,-0.42743703722953796,-0.07856319099664688
1751214442423414000,7.9964140625,0.2655169665813446,-0.40400123596191406,-0.09986846894025803
1751214442433408000,8.006407958984376,0.21544957160949707,-0.33795487880706787,-0.09880319982767105
1751214442443402200,8.01640234375,0.15366427600383759,-0.2708432674407959,-0.09347688406705856
1751214442453396200,8.026396240234375,0.09400951862335205,-0.2143843024969101,-0.08069372177124023
1751214442463390200,8.03639013671875,0.06950845569372177,-0.18242639303207397,-0.06578002870082855
1751214442473384400,8.046384521484375,0.0727042406797409,-0.14514216780662537,-0.06578002870082855
1751214442483378400,8.05637841796875,0.08974846452474594,-0.14407691359519958,-0.09454214572906494
1751214442493372400,8.066372314453124,0.09827057272195816,-0.14088112115859985,-0.12223900109529495
1751214442503366700,8.07636669921875,0.13129374384880066,-0.11211899667978287,-0.13608743250370026
1751214442513360600,8.086360595703125,0.15366427600383759,-0.09294424951076508,-0.14247901737689972
1751214442523354600,8.096354736328125,0.12277163565158844,-0.09733846783638,-0.1435442715883255
1751214442533348600,8.1063486328125,0.06631266325712204,-0.09933583438396454,-0.13076111674308777
1751214442543342800,8.1163427734375,0.017310533672571182,-0.12929637730121613,-0.10732531547546387
1751214442553336800,8.1263369140625,-0.011451584286987782,-0.20160114765167236,-0.06471476703882217
1751214442563330800,8.136330810546875,-0.030626330524683,-0.2836264371871948,0.006657897960394621
1751214442573325000,8.146324951171875,-0.03169159218668938,-0.3613906800746918,0.09933583438396454
1751214442583319000,8.156319091796876,-0.003994738683104515,-0.44661179184913635,0.19414429366588593
1751214442593313000,8.16631298828125,0.06205160543322563,-0.48070022463798523,0.2857569754123688
1751214442603307300,8.176307373046875,0.1760348230600357,-0.4263717830181122,0.34328120946884155
1751214442613301200,8.18630126953125,0.32517173886299133,-0.3177148699760437,0.3699128031730652
1751214442623295200,8.196295166015625,0.47004759311676025,-0.18242639303207397,0.37204334139823914
1751214442633289500,8.20628955078125,0.5510076284408569,-0.06538055837154388,0.3400854170322418
1751214442643283500,8.216283447265624,0.5691171288490295,-0.01957421936094761,0.2878875136375427
1751214442653277400,8.22627734375,0.5819002389907837,-0.07709845900535583,0.22610220313072205
1751214442663271400,8.236271484375,0.5584644675254822,-0.2516685426235199,0.13768532872200012
1751214442673265700,8.246265625,0.4583296775817871,-0.5094623565673828,0.007723161485046148
1751214442683259600,8.256259765625,0.2889527678489685,-0.7661908864974976,-0.1435442715883255
1751214442693253600,8.266253662109374,0.05566002428531647,-1.0816420316696167,-0.3512706756591797
1751214442703248000,8.276247802734375,-0.21278640627861023,-1.3733911514282227,-0.5526055097579956
1751214442713241900,8.286241943359375,-0.47058022022247314,-1.6045533418655396,-0.7528750896453857
1751214442723235800,8.29623583984375,-0.6154560446739197,-1.7078839540481567,-0.9552751779556274
1751214442733230000,8.30622998046875,-0.7123950719833374,-1.6215975284576416,-1.170458436012268
1751214442743224000,8.31622412109375,-0.8008119463920593,-1.3616732358932495,-1.4175995588302612
1751214442753218000,8.326218017578125,-0.881771981716156,-1.0017472505569458,-1.6764585971832275
1751214442763212300,8.33621240234375,-0.96592777967453,-0.58403080701828,-1.8777934312820435
1751214442773206300,8.346206298828125,-1.0692583322525024,-0.08442214131355286,-1.9907114505767822
1751214442783200300,8.3562001953125,-1.1949595212936401,0.4896217882633209,-2.0439746379852295
1751214442793194200,8.3661943359375,-1.321725845336914,1.137302041053772,-2.076997756958008
1751214442803188500,8.3761884765625,-1.4495575428009033,1.7860476970672607,-2.075932502746582
1751214442813182500,8.386182373046875,-1.5688669681549072,2.2973742485046387,-2.005625009536743
1751214442823176400,8.396176513671875,-1.6711323261260986,2.582864761352539,-1.8586187362670898
1751214442833170700,8.406170654296876,-1.728656530380249,2.5658206939697266,-1.6636755466461182
1751214442843164700,8.41616455078125,-1.7478313446044922,2.2643511295318604,-1.4421006441116333
1751214442853158700,8.42615869140625,-1.7329176664352417,1.764742374420166,-1.1981552839279175
1751214442863153000,8.43615283203125,-1.7275912761688232,1.296026349067688,-0.9840372800827026
1751214442873147000,8.44614697265625,-1.7148081064224243,1.030775785446167,-0.8434224724769592
1751214442883140900,8.456140869140626,-1.7073513269424438,0.8539419770240784,-0.7709845304489136
1751214442893135000,8.466135009765624,-1.724395513534546,0.6739124059677124,-0.7677887678146362
1751214442903129000,8.476129150390625,-1.7936376333236694,0.4725775718688965,-0.8476835489273071
1751214442913123000,8.486123046875,-1.9214693307876587,0.2882869839668274,-1.0458226203918457
1751214442923117000,8.496116943359375,-2.059953451156616,0.10612688958644867,-1.3036164045333862
1751214442933111300,8.506111328125,-2.180328369140625,-0.14194637537002563,-1.4836459159851074
1751214442943105300,8.516105224609374,-2.274071455001831,-0.4636560082435608,-1.5166691541671753
1751214442953099300,8.526099365234375,-2.3358569145202637,-0.7885614037513733,-1.443165898323059
1751214442963093200,8.53609326171875,-2.323073625564575,-1.1571426391601562,-1.3089426755905151
1751214442973087200,8.546087158203125,-2.2964420318603516,-1.3648689985275269,-1.166197419166565
1751214442983081200,8.556081298828126,-2.2570273876190186,-1.3488900661468506,-1.0852373838424683
1751214442993075500,8.566075439453124,-2.1781978607177734,-1.2167973518371582,-1.1076078414916992
1751214443003069400,8.5760693359375,-2.0844545364379883,-1.079378366470337,-1.1598057746887207
1751214443013063400,8.5860634765625,-2.002429246902466,-0.9877657294273376,-1.1821763515472412
1751214443023057400,8.596057373046875,-1.9140124320983887,-0.9366330504417419,-1.1683279275894165
1751214443033051400,8.606051513671876,-1.8213344812393188,-0.8769782781600952,-1.1203910112380981
1751214443043045400,8.61604541015625,-1.731852412223816,-0.7427550554275513,-1.0404962301254272
1751214443053039400,8.626039306640624,-1.6626101732254028,-0.5286371111869812,-0.940361499786377
1751214443063033300,8.636033447265625,-1.6029554605484009,-0.32943278551101685,-0.8487488031387329
1751214443073027300,8.64602734375,-1.5507575273513794,-0.23142851889133453,-0.7976161241531372
1751214443083021600,8.656021484375,-1.5006901025772095,-0.23675484955310822,-0.7677887678146362
1751214443093015600,8.666015625,-1.463405966758728,-0.2751043438911438,-0.7241129875183105
1751214443103009500,8.676009521484374,-1.4112080335617065,-0.25060325860977173,-0.6452834606170654
1751214443113003500,8.68600341796875,-1.3334437608718872,-0.20373167097568512,-0.5568665862083435
1751214443122997500,8.69599755859375,-1.2460922002792358,-0.16431692242622375,-0.4588623046875
1751214443132991500,8.705991455078125,-1.1427615880966187,-0.14634059369564056,-0.3693801760673523
1751214443142985500,8.7159853515625,-1.0522141456604004,-0.11211899667978287,-0.2841590642929077
1751214443152979500,8.7259794921875,-0.9733846783638,-0.05685844644904137,-0.21172115206718445
1751214443162973400,8.735973388671875,-0.890294075012207,-0.08135951310396194,-0.14141374826431274
1751214443172967400,8.745967529296875,-0.7997466921806335,-0.0739026665687561,-0.0732368752360344
1751214443182961700,8.755961669921875,-0.7251782417297363,-0.0492684431374073,-0.011451584286987782
1751214443192955600,8.76595556640625,-0.663392961025238,-0.04620581120252609,0.027963170781731606
1751214443202949600,8.77594970703125,-0.5462139248847961,-0.1664474457502365,0.03968106955289841
1751214443212943600,8.785943603515625,-0.4247738718986511,-0.3070622384548187,0.08548741042613983
1751214443222937600,8.7959375,-0.3352917432785034,-0.4593949317932129,0.14620743691921234
1751214443232931600,8.805931640625,-0.23941799998283386,-0.5499423742294312,0.19734008610248566
1751214443242925600,8.815925537109376,-0.1296958476305008,-0.5435507893562317,0.2601906359195709
1751214443252919600,8.82591943359375,-0.021038956940174103,-0.45087283849716187,0.32410645484924316
1751214443262913500,8.83591357421875,0.09507478028535843,-0.34328120946884155,0.37736964225769043
1751214443272907500,8.845907470703125,0.21544957160949707,-0.23995064198970795,0.4199801981449127
1751214443282901800,8.85590185546875,0.3368896245956421,-0.1760348230600357,0.46578651666641235
1751214443292895700,8.865895751953126,0.47324338555336,-0.11638005077838898,0.5371592044830322
1751214443302889700,8.8758896484375,0.6266413331031799,-0.01957421936094761,0.6500771641731262
1751214443312883700,8.8858837890625,0.802409827709198,0.13701952993869781,0.7715172171592712
1751214443322877700,8.895877685546875,0.9685909748077393,0.36498594284057617,0.8918919563293457
1751214443332871700,8.90587158203125,1.1230541467666626,0.600409209728241,1.0953572988510132
1751214443342865700,8.91586572265625,1.2540816068649292,0.8305061459541321,1.4543511867523193
1751214443352859600,8.925859619140626,1.352085828781128,1.1841737031936646,1.8804566860198975
1751214443362853600,8.935853515625,1.4522206783294678,1.6454328298568726,2.1723389625549316
1751214443372847900,8.945847900390625,1.5235933065414429,2.0949740409851074,2.279930591583252
1751214443382841900,8.955841796875,1.555551290512085,2.688325881958008,2.1819262504577637
1751214443392835800,8.9658359375,1.6429028511047363,3.2901999950408936,1.949698805809021
1751214443402829800,8.975829833984376,1.7824523448944092,3.4137704372406006,1.7888439893722534
1751214443412823800,8.98582373046875,1.9816566705703735,2.7650249004364014,1.7590166330337524
1751214443432812000,9.00581201171875,2.1584904193878174,1.1713905334472656,1.4277195930480957
1751214443442806000,9.015805908203125,2.0349199771881104,0.533297598361969,1.074052095413208
1751214443452800000,9.025800048828126,1.895370364189148,0.039015281945466995,0.8503466844558716
1751214443462794200,9.035794189453124,1.7760608196258545,-0.17283903062343597,0.7896266579627991
1751214443472788200,9.045788330078125,1.5885744094848633,-0.1525990217924118,0.7683213949203491
1751214443482782200,9.0557822265625,1.4628733396530151,-0.19840535521507263,0.7171887755393982
1751214443492776400,9.0657763671875,1.4426332712173462,-0.4210454523563385,0.6660560965538025
1751214443502770400,9.0757705078125,1.4074796438217163,-0.6426202654838562,0.6170539855957031
1751214443512764400,9.085764404296874,1.3456943035125732,-0.7534077167510986,0.5819002389907837
1751214443522758400,9.09575830078125,1.279647946357727,-0.7906919121742249,0.546746551990509
1751214443532752600,9.105752685546875,1.219993233680725,-0.810931921005249,0.5126581192016602
1751214443542746600,9.11574658203125,1.150750994682312,-0.7651256322860718,0.4966791868209839
1751214443552740600,9.12574072265625,1.0879005193710327,-0.6703171730041504,0.5020055174827576
1751214443562734800,9.13573486328125,1.0559425354003906,-0.5808349847793579,0.5243760347366333
1751214443572728800,9.145728759765625,1.0570077896118164,-0.49454864859580994,0.5637907981872559
1751214443582722800,9.155722900390625,1.0772478580474854,-0.406131774187088,0.613858163356781
1751214443592717000,9.165717041015625,1.1155973672866821,-0.30493173003196716,0.6735129356384277
1751214443602711000,9.1757109375,1.1550121307373047,-0.19414429366588593,0.7246456146240234
1751214443612705000,9.185705078125,1.188035249710083,-0.08988162130117416,0.7608645558357239
1751214443622699300,9.19569921875,1.2072100639343262,0.02090579830110073,0.7896266579627991
1751214443632693200,9.205693359375,1.2157320976257324,0.10825742036104202,0.7949529886245728
1751214443642687200,9.215687255859375,1.2146668434143066,0.19028271734714508,0.7715172171592712
1751214443652681200,9.22568115234375,1.2061448097229004,0.2595248520374298,0.7395592927932739
1751214443662675500,9.235675537109374,1.182708978652954,0.3021354079246521,0.7129276990890503
1751214443672669400,9.24566943359375,1.1486204862594604,0.3159838318824768,0.7001445293426514
1751214443682663400,9.255663330078125,1.111336350440979,0.3106575012207031,0.6948181986808777
1751214443692657700,9.26565771484375,1.0687257051467896,0.3266364634037018,0.6937529444694519
1751214443702651600,9.275651611328126,1.0101362466812134,0.3436806797981262,0.6841655969619751
1751214443712645600,9.285645751953124,0.9472857117652893,0.32876700162887573,0.6585992574691772
1751214443722640000,9.295639892578125,0.878043532371521,0.2829606533050537,0.635163426399231
1751214443732633900,9.3056337890625,0.8066709041595459,0.23928484320640564,0.6255760788917542
1751214443742627800,9.3156279296875,0.7459508776664734,0.21371851861476898,0.6106624007225037
1751214443752622000,9.3256220703125,0.6948181986808777,0.17643429338932037,0.559529721736908
1751214443762616000,9.335615966796874,0.6522076725959778,0.11784479022026062,0.46578651666641235
1751214443772610000,9.345610107421875,0.6149234175682068,0.02197106182575226,0.36671701073646545
1751214443782604000,9.35560400390625,0.5744433999061584,-0.0918789878487587,0.27723485231399536
1751214443792598300,9.365598388671875,0.5265065431594849,-0.19307903945446014,0.20586219429969788
1751214443802592300,9.37559228515625,0.500940203666687,-0.25806012749671936,0.1525990217924118
1751214443812586200,9.385586181640624,0.49987494945526123,-0.2761695981025696,0.12064110487699509
1751214443822580500,9.39558056640625,0.48389601707458496,-0.2623211741447449,0.11851058155298233
1751214443832574500,9.405574462890625,0.4444812536239624,-0.25060325860977173,0.14194637537002563
1751214443842568400,9.415568359375,0.4157191216945648,-0.25486433506011963,0.17923060059547424
1751214443852562700,9.425562744140626,0.416784405708313,-0.2655169665813446,0.21758009493350983
1751214443862556700,9.435556640625,0.43702441453933716,-0.26871275901794434,0.25060325860977173
1751214443872550700,9.445550537109375,0.4316980838775635,-0.2420811653137207,0.2793653905391693
1751214443882545000,9.455544921875,0.4125233590602875,-0.2047969400882721,0.30173593759536743
1751214443892539000,9.465538818359375,0.3826959729194641,-0.1675127148628235,0.32091066241264343
1751214443902532900,9.475532958984376,0.3560643792152405,-0.14514216780662537,0.33475908637046814
1751214443912526800,9.48552685546875,0.3688475489616394,-0.12170637398958206,0.3315632939338684
1751214443922520800,9.495520751953125,0.38056543469429016,-0.08135951310396194,0.3219759464263916
1751214443932514800,9.505514892578125,0.3549990952014923,-0.02383527345955372,0.2985401451587677
1751214443942508800,9.5155087890625,0.33369383215904236,0.04008054360747337,0.2569948434829712
1751214443952502800,9.525502685546876,0.3304980397224426,0.11038794368505478,0.22077588737010956
1751214443962497000,9.5354970703125,0.34434646368026733,0.16045533120632172,0.1909485012292862
1751214443972491000,9.545490966796875,0.3507380485534668,0.18282587826251984,0.16857796907424927
1751214443982485000,9.555485107421875,0.34328120946884155,0.16258586943149567,0.13981585204601288
1751214443992479000,9.56547900390625,0.34328120946884155,0.12636689841747284,0.11318425834178925
1751214444002473000,9.575472900390626,0.3273022472858429,0.14980269968509674,0.09933583438396454
1751214444012467000,9.585467041015624,0.26764747500419617,0.22117535769939423,0.0492684431374073
1751214444022461000,9.5954609375,0.21758009493350983,0.26698169112205505,-0.04767054691910744
1751214444032455000,9.605454833984375,0.16325165331363678,0.33835434913635254,-0.12330426275730133
1751214444042449000,9.615448974609375,0.06950845569372177,0.41718387603759766,-0.17976324260234833
1751214444052443000,9.62544287109375,-0.03701791167259216,0.4704470634460449,-0.2468748539686203
1751214444062437000,9.63543701171875,-0.07110634446144104,0.4352933466434479,-0.29587697982788086
1751214444072431000,9.64543115234375,-0.048735812306404114,0.35113751888275146,-0.3022685647010803
1751214444082425000,9.655425048828125,-0.014647374860942364,0.2541985511779785,-0.2841590642929077
1751214444092419000,9.665419189453125,0.03009369783103466,0.16365112364292145,-0.2553969621658325
1751214444102413000,9.6754130859375,0.07909582555294037,0.07843003422021866,-0.21598219871520996
1751214444112407000,9.685406982421876,0.228232741355896,-0.05779055133461952,-0.1765674501657486
1751214444122401000,9.695401123046874,0.3752391040325165,-0.20692746341228485,-0.0913463607430458
1751214444132395000,9.70539501953125,0.4125233590602875,-0.3688475489616394,-0.014647374860942364
1751214444142389000,9.715388916015625,0.42743703722953796,-0.5488771200180054,0.016245270147919655
1751214444152383200,9.72538330078125,0.45193809270858765,-0.7597993016242981,0.020506324246525764
1751214444162377200,9.735377197265626,0.4647212624549866,-0.9462204575538635,0.05352949723601341
1751214444172371200,9.74537109375,0.416784405708313,-1.0250499248504639,0.12809795141220093
1751214444182365200,9.755365234375,0.29214856028556824,-0.9408941268920898,0.23462431132793427
1751214444192359200,9.765359130859375,0.1249021589756012,-0.7001445293426514,0.349672794342041
1751214444202353200,9.775353271484375,-0.03275685757398605,-0.3826959729194641,0.42743703722953796
1751214444242329000,9.8153291015625,-0.04554001986980438,0.04966791719198227,0.0684431865811348
1751214444252323300,9.8253232421875,-0.044474758207798004,-0.30067065358161926,-0.24794010818004608
1751214444262317300,9.8353173828125,-0.04767054691910744,-0.6042708158493042,-0.6612623929977417
1751214444272311300,9.845311279296874,-0.06471476703882217,-0.7129276990890503,-1.0756499767303467
1751214444282305300,9.85530517578125,-0.08921582996845245,-0.6340981721878052,-1.3899027109146118
1751214444292299300,9.86529931640625,-0.13182637095451355,-0.4402202069759369,-1.584846019744873
1751214444302293200,9.875293212890625,-0.17443692684173584,-0.1898832470178604,-1.6881765127182007
1751214444312287200,9.885287353515626,-0.21172115206718445,0.10825742036104202,-1.724395513534546
1751214444322281200,9.89528125,-0.24367906153202057,0.4534028470516205,-1.7137428522109985
1751214444332275200,9.905275146484374,-0.2852243483066559,0.8273103833198547,-1.664740800857544
1751214444342269200,9.915269287109375,-0.36298859119415283,1.1767168045043945,-1.5912375450134277
1751214444352263400,9.925263427734375,-0.4876244366168976,1.407879114151001,-1.5081470012664795
1751214444362257400,9.93525732421875,-0.6548708081245422,1.529319167137146,-1.4165343046188354
1751214444372251400,9.94525146484375,-0.8189214468002319,1.5655380487442017,-1.3068121671676636
1751214444382245400,9.955245361328124,-0.9648625254631042,1.583647608757019,-1.188567876815796
1751214444392239400,9.9652392578125,-1.1225215196609497,1.593234896659851,-1.066062569618225
1751214444402233300,9.9752333984375,-1.2950942516326904,1.5580812692642212,-0.9350351691246033
1751214444412227600,9.9852275390625,-1.4847111701965332,1.387639045715332,-0.7933551073074341
1751214444422221600,9.9952216796875,-1.6966986656188965,1.2427631616592407,-0.6974813938140869
1751214444432215600,10.005215576171874,-1.8650102615356445,1.182043194770813,-0.70174241065979
1751214444442209800,10.015209716796875,-1.9342525005340576,1.12771475315094,-0.768854022026062
1751214444452203800,10.025203857421875,-1.9363830089569092,0.9743167757987976,-0.8870983123779297
1751214444462197800,10.03519775390625,-1.9086861610412598,0.6675208210945129,-1.0724542140960693
1751214444472191700,10.045191650390626,-1.8745976686477661,0.18708692491054535,-1.304681658744812
1751214444482186000,10.05518603515625,-1.8564882278442383,-0.4018706977367401,-1.5241259336471558
1751214444492180000,10.065179931640625,-1.9012292623519897,-0.9419593811035156,-1.674328088760376
1751214444502174000,10.075174072265625,-1.9704713821411133,-1.3084100484848022,-1.7137428522109985
1751214444512168200,10.085168212890625,-2.00136399269104,-1.443698525428772,-1.594433307647705
1751214444522162200,10.095162109375,-1.9811240434646606,-1.3126710653305054,-1.3195953369140625
1751214444532156200,10.10515625,-1.9331872463226318,-1.108140468597412,-1.0905636548995972
1751214444542150400,10.115150390625,-1.8905766010284424,-0.7917572259902954,-0.9233172535896301
1751214444552144400,10.125144287109375,-1.857553482055664,-0.4540686309337616,-0.7986814379692078
1751214444562138400,10.135138427734375,-1.8128124475479126,-0.20799273252487183,-0.7326350808143616
1751214444572132600,10.145132568359376,-1.7584840059280396,-0.12383689731359482,-0.7283740043640137
1751214444582126600,10.155126708984374,-1.6998944282531738,-0.16538217663764954,-0.7880287766456604
1751214444592120600,10.16512060546875,-1.644500732421875,-0.2516685426235199,-0.8498140573501587
1751214444602114600,10.175114501953125,-1.6285218000411987,-0.3784348964691162,-0.8700540661811829
1751214444612108800,10.18510888671875,-1.6327828168869019,-0.49774444103240967,-0.8338351249694824
1751214444622102800,10.195102783203126,-1.6562186479568481,-0.5339633822441101,-0.7582014203071594
1751214444632096800,10.2050966796875,-1.661544919013977,-0.4860265254974365,-0.6889592409133911
1751214444642091000,10.215091064453125,-1.681784987449646,-0.3848264813423157,-0.6197171211242676
1751214444652085000,10.2250849609375,-1.7297217845916748,-0.2623211741447449,-0.5515402555465698
1751214444662079000,10.235078857421875,-1.7297217845916748,-0.1856221854686737,-0.4716454744338989
1751214444672073200,10.2450732421875,-1.6604796648025513,-0.16964323818683624,-0.3821633458137512
1751214444682067200,10.255067138671874,-1.5709975957870483,-0.18668745458126068,-0.3118559420108795
1751214444692061200,10.265061279296875,-1.485776424407959,-0.21118851006031036,-0.280963271856308
1751214444702055400,10.275055419921875,-1.4303827285766602,-0.2047969400882721,-0.270310640335083
1751214444712049400,10.28504931640625,-1.4751238822937012,-0.16112112998962402,-0.2798980176448822
1751214444722043400,10.29504345703125,-1.47299325466156,-0.19840535521507263,-0.28628960251808167
1751214444732037400,10.305037353515624,-1.3920332193374634,-0.2665822207927704,-0.2713759243488312
1751214444742031600,10.315031494140625,-1.2535489797592163,-0.3592601716518402,-0.24900537729263306
1751214444752025600,10.325025634765625,-1.1502183675765991,-0.44128546118736267,-0.2287653684616089
1751214444762019600,10.33501953125,-1.0607362985610962,-0.5339633822441101,-0.21491694450378418
1751214444772013800,10.345013916015626,-0.9552751779556274,-0.6234455704689026,-0.1957421898841858
1751214444782007800,10.3550078125,-0.8498140573501587,-0.7044056057929993,-0.1669800728559494
1751214444792001800,10.365001708984375,-0.7528750896453857,-0.7704519033432007,-0.1392832249403
1751214444801996000,10.37499609375,-0.6665887236595154,-0.8066709041595459,-0.10732531547546387
1751214444811990000,10.384989990234375,-0.5334307551383972,-0.8034750819206238,-0.08282424509525299
1751214444821984000,10.39498388671875,-0.4492749273777008,-0.7171887755393982,-0.03169159218668938
1751214444831978000,10.40497802734375,-0.38003280758857727,-0.6170539855957031,0.029028434306383133
1751214444841972200,10.41497216796875,-0.29268118739128113,-0.5371592044830322,0.08122635632753372
1751214444851966200,10.42496630859375,-0.28202855587005615,-0.4157191216945648,0.14194637537002563
1751214444861960200,10.434960205078125,-0.261788547039032,-0.31451907753944397,0.1771000772714615
1751214444871954400,10.444954345703126,-0.204264298081398,-0.24527695775032043,0.21012325584888458
1751214444881948400,10.454948486328124,-0.1296958476305008,-0.14514216780662537,0.23888537287712097
1751214444891942400,10.4649423828125,-0.0540621280670166,-0.0366184376180172,0.26764747500419617
1751214444901936400,10.474936279296875,-0.002929474925622344,0.0624510794878006,0.3091927766799927
1751214444911930400,10.484930419921875,0.0492684431374073,0.12956269085407257,0.3560643792152405
1751214444921924400,10.49492431640625,0.11211899667978287,0.15832480788230896,0.4082622826099396
1751214444931918300,10.50491845703125,0.19734008610248566,0.15086796879768372,0.4593949317932129
1751214444941912300,10.514912353515625,0.31451907753944397,0.12956269085407257,0.5073317885398865
1751214444951906300,10.52490625,0.46152547001838684,0.13701952993869781,0.5147886276245117
1751214444961900300,10.534900390625,0.559529721736908,0.13062795996665955,0.43702441453933716
1751214444971894500,10.54489453125,0.60533607006073,0.030493171885609627,0.35393384099006653
1751214444981888500,10.554888427734374,0.6532729268074036,-0.10466215014457703,0.38163068890571594
1751214444991882500,10.564882568359375,0.7225150465965271,-0.1675127148628235,0.5158539414405823
1751214445001876500,10.57487646484375,0.823715090751648,-0.04500738903880119,0.7534077167510986
1751214445011870500,10.584870361328125,0.9558078050613403,0.2701774835586548,1.0942920446395874
1751214445021864400,10.594864501953126,1.0847047567367554,0.7612640261650085,1.4319806098937988
1751214445031858400,10.6048583984375,1.1965574026107788,1.338636875152588,1.6578165292739868
1751214445041852400,10.614852294921874,1.3190627098083496,1.7988308668136597,1.7654081583023071
1751214445051846400,10.624846435546875,1.4660691022872925,1.940510869026184,1.8101491928100586
1751214445061840400,10.63484033203125,1.6056185960769653,1.8105486631393433,1.7973660230636597
1751214445071834600,10.644834716796876,1.7334502935409546,1.559146523475647,1.7004270553588867
1751214445081828600,10.65482861328125,1.8729997873306274,1.2566115856170654,1.594965934753418
1751214445091822600,10.664822509765624,2.026397705078125,0.9689904451370239,1.5470291376113892
1751214445101816600,10.674816650390625,2.145707368850708,0.7452850937843323,1.5608775615692139
1751214445111810600,10.684810546875,2.1627514362335205,0.7090660929679871,1.6833828687667847
1751214445121804500,10.694804443359375,2.0200061798095703,1.32798433303833,1.8548903465270996
1751214445131798500,10.704798583984376,1.716405987739563,2.296308994293213,1.8740650415420532
1751214445141792500,10.71479248046875,1.4351764917373657,2.033188819885254,1.8005619049072266
1751214445151786500,10.724786376953125,1.2508858442306519,1.2757863998413086,1.6897743940353394
1751214445161780700,10.73478076171875,1.163534164428711,0.926379919052124,1.3765869140625
1751214445171774700,10.744774658203125,1.182708978652954,0.3490070104598999,0.9621993899345398
1751214445181768700,10.754768798828126,1.1230541467666626,-0.3848264813423157,0.6468813419342041
1751214445191762700,10.7647626953125,1.103879451751709,-0.7715172171592712,0.45193809270858765
1751214445201756700,10.774756591796875,1.1720563173294067,-0.8247803449630737,0.3123885691165924
1751214445211750700,10.784750732421875,1.2434289455413818,-0.7416898012161255,0.22290641069412231
1751214445221744600,10.79474462890625,1.2860394716262817,-0.6756434440612793,0.21651484072208405
1751214445231738600,10.804738525390626,1.292431116104126,-0.5957486629486084,0.2569948434829712
1751214445241732600,10.814732666015624,1.287104845046997,-0.47537389397621155,0.30599698424339294
1751214445251726600,10.8247265625,1.2903006076812744,-0.33902016282081604,0.35286858677864075
1751214445261720800,10.834720947265625,1.3148016929626465,-0.23995064198970795,0.40400123596191406
1751214445271714800,10.84471484375,1.3552817106246948,-0.171773761510849,0.4593949317932129
1751214445281708800,10.854708740234376,1.4042837619781494,-0.07909582555294037,0.49880969524383545
1751214445291702800,10.864702880859374,1.4458290338516235,0.050733182579278946,0.5265065431594849
1751214445301696800,10.87469677734375,1.4703301191329956,0.21478378772735596,0.5648560523986816
1751214445311690800,10.884690673828125,1.493765950202942,0.35113751888275146,0.6213150024414062
1751214445321684700,10.894684814453125,1.498026967048645,0.44488072395324707,0.6799045205116272
1751214445331678700,10.9046787109375,1.4703301191329956,0.4906870722770691,0.718254029750824
1751214445341672700,10.914672607421876,1.4223933219909668,0.5290365815162659,0.7374287843704224
1751214445351666700,10.924666748046874,1.366999626159668,0.5950828790664673,0.7459508776664734
1751214445361661000,10.934660888671875,1.305214285850525,0.6792387366294861,0.7661908864974976
1751214445371655000,10.944655029296875,1.2402331829071045,0.7431545257568359,0.7896266579627991
1751214445381649000,10.95464892578125,1.1624689102172852,0.7612640261650085,0.785365641117096
1751214445391643000,10.964642822265626,1.0783131122589111,0.6973482370376587,0.7363634705543518
1751214445401636900,10.974636962890624,1.0133320093154907,0.5716471076011658,0.6426202654838562
1751214445411630800,10.984630859375,0.9632646441459656,0.3969438672065735,0.529702365398407
1751214445421625000,10.994625,0.9195888638496399,0.21158799529075623,0.4125233590602875
1751214445431619000,11.004619140625,0.8833698630332947,0.03795001655817032,0.31025803089141846
1751214445441613000,11.014613037109376,0.8578035235404968,-0.11638005077838898,0.22184115648269653
1751214445451607300,11.024607177734374,0.8343677520751953,-0.2569948434829712,0.14620743691921234
1751214445461601300,11.034601318359375,0.7906919121742249,-0.3837612271308899,0.09294424951076508
1751214445471595300,11.04459521484375,0.7246456146240234,-0.5105276107788086,0.06418213248252869
1751214445481589200,11.05458935546875,0.6522076725959778,-0.6330329179763794,0.05033370852470398
1751214445491583500,11.06458349609375,0.5914876461029053,-0.7001445293426514,0.040746334940195084
1751214445501577500,11.074577392578124,0.5201149582862854,-0.7555382251739502,0.040746334940195084
1751214445511571500,11.084571533203125,0.4306328296661377,-0.8173235058784485,0.06524740159511566
1751214445521565700,11.094565673828125,0.349672794342041,-0.8418245911598206,0.10146636515855789
1751214445531559700,11.1045595703125,0.27723485231399536,-0.8301066756248474,0.14620743691921234
1751214445541553700,11.1145537109375,0.23355905711650848,-0.8226498365402222,0.1813611388206482
1751214445551548000,11.1245478515625,0.21225377917289734,-0.7981488108634949,0.20692746341228485
1751214445561542000,11.1345419921875,0.1856221854686737,-0.7395592927932739,0.22929799556732178
1751214445571536000,11.144535888671875,0.14620743691921234,-0.6426202654838562,0.24101589620113373
1751214445581530000,11.154530029296875,0.12277163565158844,-0.5403549671173096,0.2559295892715454
1751214445591524000,11.164524169921876,0.12064110487699509,-0.4082622826099396,0.27190855145454407
1751214445601518000,11.17451806640625,0.14088112115859985,-0.28149592876434326,0.2751043438911438
1751214445611512000,11.184511962890625,0.171773761510849,-0.1771000772714615,0.2601906359195709
1751214445621506300,11.19450634765625,0.21012325584888458,-0.09840372949838638,0.23355905711650848
1751214445631500300,11.204500244140625,0.24953800439834595,-0.06857634335756302,0.1909485012292862
1751214445641494300,11.214494384765626,0.2878875136375427,-0.08442214131355286,0.14088112115859985
1751214445651488500,11.224488525390624,0.3230412006378174,-0.16431692242622375,0.08335687965154648
1751214445661482500,11.234482421875,0.34328120946884155,-0.2601906359195709,0.032224226742982864
1751214445671476500,11.2444765625,0.35286858677864075,-0.3091927766799927,0.0034621069207787514
1751214445681470700,11.254470703125,0.35819488763809204,-0.3230412006378174,-0.013582111336290836
1751214445691464700,11.264464599609376,0.3645864725112915,-0.3123885691165924,-0.012516847811639309
1751214445701458700,11.274458740234374,0.37097805738449097,-0.25912538170814514,0.013049479573965073
1751214445711452700,11.28445263671875,0.3795001804828644,-0.16538217663764954,0.056725289672613144
1751214445721447000,11.294447021484375,0.39547911286354065,-0.04833633825182915,0.10998847335577011
1751214445731441000,11.30444091796875,0.416784405708313,0.0997353047132492,0.15686006844043732
1751214445741435000,11.314434814453126,0.4434159994125366,0.26698169112205505,0.19734008610248566
1751214445751429000,11.32442919921875,0.4668518006801605,0.4150533378124237,0.22610220313072205
1751214445761423000,11.334423095703125,0.4721781015396118,0.5364934206008911,0.24421168863773346
1751214445771417000,11.3444169921875,0.481765478849411,0.5737776160240173,0.24421168863773346
1751214445781411300,11.354411376953125,0.4785696864128113,0.504668653011322,0.22077588737010956
1751214445791405300,11.3644052734375,0.4540686309337616,0.3777691125869751,0.1664474457502365
1751214445801399300,11.3743994140625,0.3965443968772888,0.23395852744579315,0.08442214131355286
1751214445811393500,11.3843935546875,0.3134538233280182,0.08269108831882477,-0.019973693415522575
1751214445821387500,11.394387451171875,0.21225377917289734,-0.08242477476596832,-0.1392832249403
1751214445831381500,11.404381591796875,0.08016108721494675,-0.22184115648269653,-0.2649843394756317
1751214445841375500,11.41437548828125,-0.07430213689804077,-0.31878015398979187,-0.37683701515197754
1751214445851369500,11.424369384765624,-0.2277000993490219,-0.3731085956096649,-0.4684496819972992
1751214445861363500,11.434363525390625,-0.37151068449020386,-0.41891491413116455,-0.550475001335144
1751214445871357400,11.444357421875,-0.48549389839172363,-0.4860265254974365,-0.6751108169555664
1751214445881351400,11.454351318359375,-0.5760413408279419,-0.5627255439758301,-0.9179909229278564
1751214445891345700,11.464345703125,-0.6676539778709412,-0.5510076284408569,-1.3409006595611572
1751214445901339600,11.474339599609374,-0.7571361064910889,-0.48389601707458496,-1.7478313446044922
1751214445911333600,11.484333740234375,-0.8199867010116577,-0.3688475489616394,-1.9757977724075317
1751214445921327600,11.49432763671875,-0.8881635665893555,-0.12929637730121613,-2.0897810459136963
1751214445931321600,11.504321533203125,-1.0159951448440552,0.27550381422042847,-2.131326198577881
1751214445941315600,11.514315673828126,-1.2386353015899658,0.8613988161087036,-2.091911554336548
1751214445951309600,11.5243095703125,-1.5464965105056763,1.4888391494750977,-1.9726018905639648
1751214445961303600,11.534303466796874,-1.8447703123092651,1.9394456148147583,-1.798964023590088
1751214445971297500,11.544297607421875,-2.06634521484375,2.1897826194763184,-1.6050859689712524
1751214445981291800,11.554291748046875,-2.1430442333221436,2.15675950050354,-1.4207954406738281
1751214445991285800,11.56428564453125,-2.1387829780578613,1.7466329336166382,-1.1054773330688477
1751214446001279700,11.57427978515625,-2.1568925380706787,1.258742094039917,-0.8870983123779297
1751214446011273700,11.584273681640624,-2.1536967754364014,0.8763124942779541,-0.7944203615188599
1751214446021267700,11.594267822265625,-2.0993683338165283,0.637693464756012,-0.7475487589836121
1751214446031261700,11.60426171875,-1.9928419589996338,0.4427502155303955,-0.7123950719833374
1751214446041255700,11.614255615234375,-1.8671408891677856,0.17430377006530762,-0.6729803085327148
1751214446051249700,11.624249755859376,-1.8096165657043457,-0.006791055668145418,-0.5856286883354187
1751214446061243600,11.63424365234375,-1.850096583366394,0.19987009465694427,-0.45566651225090027
1751214446071237600,11.644237548828125,-1.991776704788208,1.07764732837677,-0.450340211391449
1751214446081232000,11.65423193359375,-2.2730062007904053,2.1503677368164062,-0.6239781975746155
1751214446091225900,11.664225830078125,-2.5212128162384033,2.418814182281494,-0.6239781975746155
1751214446101219800,11.6742197265625,-2.7086992263793945,1.8765950202941895,-0.4769718050956726
1751214446111213800,11.6842138671875,-2.8216171264648438,0.8571377396583557,-0.30972540378570557
1751214446121207800,11.694207763671875,-2.8269433975219727,-0.11957584321498871,-0.28628960251808167
1751214446131201800,11.704201904296875,-2.7140254974365234,-0.7928224802017212,-0.5121254920959473
1751214446141195800,11.71419580078125,-2.5190823078155518,-1.1795132160186768,-0.8583361506462097
1751214446151189800,11.724189697265626,-2.3667495250701904,-1.1933616399765015,-1.1395658254623413
1751214446161183700,11.734183837890624,-2.2730062007904053,-0.8290414214134216,-1.2684626579284668
1751214446171177700,11.744177734375,-2.230395793914795,-0.3134538233280182,-1.23757004737854
1751214446181172000,11.754171875,-2.1579577922821045,0.008122635073959827,-1.0884331464767456
1751214446191166000,11.764166015625,-2.0130820274353027,-0.03981423005461693,-0.9286435842514038
1751214446201160000,11.774159912109376,-1.8735324144363403,-0.237820103764534,-0.8551403880119324
1751214446211154000,11.78415380859375,-1.7648755311965942,-0.4391549229621887,-0.8370308876037598
1751214446221148000,11.79414794921875,-1.7350481748580933,-0.5819002389907837,-0.8242477178573608
1751214446231142000,11.804141845703125,-1.6881765127182007,-0.5850960612297058,-0.7965508699417114
1751214446241135900,11.814135986328125,-1.5837807655334473,-0.5179844498634338,-0.7379614114761353
1751214446251129900,11.8241298828125,-1.4996248483657837,-0.39015281200408936,-0.6953508257865906
1751214446261123800,11.834123779296876,-1.4410353899002075,-0.3230412006378174,-0.6729803085327148
1751214446271118000,11.8441181640625,-1.3749890327453613,-0.3635212182998657,-0.6420876383781433
1751214446281112000,11.854112060546875,-1.3068121671676636,-0.4540686309337616,-0.6122602820396423
1751214446291106000,11.86410595703125,-1.220525860786438,-0.5318328738212585,-0.5824328660964966
1751214446301100000,11.87410009765625,-1.1044120788574219,-0.5499423742294312,-0.5334307551383972
1751214446311094000,11.884093994140626,-0.9776456952095032,-0.5446160435676575,-0.47910231351852417
1751214446321088000,11.894087890625,-0.8572708964347839,-0.5510076284408569,-0.4439486265182495
1751214446331082000,11.90408203125,-0.7486140131950378,-0.5819002389907837,-0.43223071098327637
1751214446341076000,11.914075927734375,-0.6111950278282166,-0.6202497482299805,-0.4162517786026001
1751214446351070000,11.924070068359375,-0.4780370593070984,-0.6458160877227783,-0.40453386306762695
1751214446361064000,11.93406396484375,-0.3235738277435303,-0.6980140209197998,-0.391750693321228
1751214446371058200,11.94405810546875,-0.17337165772914886,-0.7129276990890503,-0.35766226053237915
1751214446381052200,11.95405224609375,-0.04234423115849495,-0.6745781898498535,-0.30652961134910583
1751214446391046100,11.964046142578125,0.06311687082052231,-0.5701823830604553,-0.2138516753911972
1751214446401040100,11.9740400390625,0.1483379602432251,-0.3933486044406891,-0.0966726765036583
1751214446411034000,11.9840341796875,0.21331904828548431,-0.11744531989097595,0.0492684431374073
1751214446421028400,11.9940283203125,0.2761695981025696,0.18815219402313232,0.20373167097568512
1751214446431022300,12.004022216796875,0.35286858677864075,0.42144492268562317,0.33475908637046814
1751214446441016300,12.014016357421875,0.44235071539878845,0.5620597004890442,0.42850229144096375
1751214446451010600,12.024010498046875,0.5147886276245117,0.6334323883056641,0.4966791868209839
1751214446461004500,12.034004638671876,0.5861613154411316,0.6696513295173645,0.5627255439758301
1751214446470998500,12.04399853515625,0.6831002831459045,0.6387587189674377,0.6245108246803284
1751214446480992800,12.05399267578125,0.8130624890327454,0.5354281663894653,0.6564686894416809
1751214446490986800,12.06398681640625,0.915327787399292,0.35539859533309937,0.5819002389907837
1751214446500980700,12.073980712890625,0.9600688815116882,0.047537390142679214,0.4402202069759369
1751214446510974700,12.083974609375,1.0005488395690918,-0.2751043438911438,0.4391549229621887
1751214446520969000,12.093968994140624,1.0644646883010864,-0.3400854170322418,0.6617950201034546
1751214446530963000,12.103962890625,1.1624689102172852,-0.04833633825182915,0.999483585357666
1751214446540957000,12.11395703125,1.2519510984420776,0.6323671340942383,1.3041490316390991
1751214446550951200,12.123951171875,1.3318458795547485,1.3759211301803589,1.4650038480758667
1751214446560945200,12.133945068359376,1.4170669317245483,1.886182427406311,1.5203975439071655
1751214446570939100,12.143939208984374,1.5214627981185913,2.171673059463501,1.518267035484314
1751214446580933400,12.153933349609375,1.6002923250198364,2.2132184505462646,1.4969617128372192
1751214446590927400,12.16392724609375,1.5992270708084106,2.0811257362365723,1.4500901699066162
1751214446600921300,12.17392138671875,1.572595477104187,1.8702034950256348,1.3286501169204712
1751214446610915300,12.183915283203126,1.5203975439071655,1.6294538974761963,1.1944268941879272
1751214446620909600,12.19390966796875,1.4128059148788452,1.2821779251098633,1.1145321130752563
1751214446630903600,12.203903564453125,1.2988226413726807,0.843289315700531,1.0879005193710327
1751214446640897500,12.2138974609375,1.2231889963150024,0.5290365815162659,1.0591384172439575
1751214446650891800,12.223891845703125,1.2508858442306519,0.43209755420684814,1.029310941696167
1751214446660885800,12.2338857421875,1.3659342527389526,0.36605122685432434,0.9835046529769897
1751214446670879700,12.243879638671874,1.5076143741607666,0.21158799529075623,0.9355677962303162
1751214446680874000,12.2538740234375,1.652490258216858,-0.04833633825182915,0.8791088461875916
1751214446690868000,12.263867919921875,1.7728650569915771,-0.30067065358161926,0.7981488108634949
1751214446700862000,12.273862060546875,1.8484987020492554,-0.5179844498634338,0.6884266138076782
1751214446710856200,12.283856201171876,1.8815219402313232,-0.6990792751312256,0.5701823830604553
1751214446720850200,12.29385009765625,1.8644776344299316,-0.8578035235404968,0.46046021580696106
1751214446730844200,12.30384423828125,1.8197365999221802,-0.9877657294273376,0.3645864725112915
1751214446740838100,12.313838134765625,1.773930311203003,-1.09109628200531,0.29534435272216797
1751214446750832400,12.323832275390625,1.7430375814437866,-1.1837742328643799,0.2655169665813446
1751214446760826400,12.333826416015626,1.7142754793167114,-1.2604732513427734,0.2612559199333191
1751214446770820400,12.3438203125,1.6833828687667847,-1.2723242044448853,0.27403905987739563
1751214446780814600,12.353814697265625,1.6184017658233643,-1.2114710807800293,0.29108327627182007
1751214446790808600,12.36380859375,1.527854323387146,-1.0954904556274414,0.2996053993701935
1751214446800802600,12.373802490234375,1.4373070001602173,-0.969656229019165,0.293213814496994
1751214446810796500,12.383796630859376,1.359542727470398,-0.8386288285255432,0.28149592876434326
1751214446820790500,12.39379052734375,1.309475302696228,-0.6884266138076782,0.2942790687084198
1751214446830784500,12.403784423828125,1.2828437089920044,-0.5211802124977112,0.32517173886299133
1751214446840778500,12.413778564453125,1.2775174379348755,-0.36778226494789124,0.36245596408843994
1751214446850772500,12.4237724609375,1.287104845046997,-0.24847275018692017,0.39547911286354065
1751214446860766700,12.4337666015625,1.3009532690048218,-0.1760348230600357,0.4210454523563385
1751214446870760700,12.4437607421875,1.3062795400619507,-0.1346226930618286,0.4498075842857361
1751214446880754700,12.453754638671874,1.296692132949829,-0.1069258376955986,0.4764391779899597
1751214446890748700,12.463748779296875,1.2711257934570312,-0.08881635963916779,0.49987494945526123
1751214446900742700,12.47374267578125,1.2487553358078003,-0.08562056720256805,0.508397102355957
1751214446910736600,12.483736572265625,1.2317110300064087,-0.09507478028535843,0.5094623565673828
1751214446920730600,12.493730712890626,1.2231889963150024,-0.10892320424318314,0.4966791868209839
1751214446930724600,12.503724609375,1.2136015892028809,-0.1249021589756012,0.47324338555336
1751214446940718600,12.513718505859375,1.1933616399765015,-0.14940322935581207,0.4348938763141632
1751214446950712600,12.523712646484375,1.1645994186401367,-0.18029586970806122,0.38589176535606384
1751214446960706800,12.533706787109375,1.1230541467666626,-0.1898832470178604,0.3411506712436676
1751214446970700800,12.54370068359375,1.0719215869903564,-0.171773761510849,0.31132328510284424
1751214446980694800,12.55369482421875,1.0080057382583618,-0.13235901296138763,0.3070622384548187
1751214446990688800,12.563688720703125,0.9291762113571167,-0.09840372949838638,0.32836753129959106
1751214447000682800,12.573682861328125,0.8343677520751953,-0.08988162130117416,0.3656517565250397
1751214447010676700,12.5836767578125,0.7246456146240234,-0.08881635963916779,0.41465386748313904
1751214447020670700,12.593670654296876,0.5936181545257568,-0.08135951310396194,0.4625907242298126
1751214447030664700,12.603664794921874,0.47430863976478577,-0.08562056720256805,0.5041360259056091
1751214447040658700,12.61365869140625,0.3869570195674896,-0.07177213579416275,0.546746551990509
1751214447050652700,12.623652587890625,0.30067065358161926,-0.06325002759695053,0.5755086541175842
1751214447060647000,12.63364697265625,0.21331904828548431,-0.01957421936094761,0.5669865608215332
1751214447070641000,12.643640869140626,0.13022847473621368,0.06884266436100006,0.5115928649902344
1751214447080635000,12.653634765625,0.06311687082052231,0.15512901544570923,0.4221107065677643
1751214447090628900,12.66362890625,0.024767380207777023,0.19560903310775757,0.3177148699760437
1751214447100622800,12.673622802734375,-0.003994738683104515,0.2318280041217804,0.22077588737010956
1751214447110616800,12.683616943359375,-0.03382211923599243,0.27763432264328003,0.13342426717281342
1751214447120610800,12.69361083984375,-0.05193160101771355,0.29467856884002686,0.036485280841588974
1751214447130604800,12.703604736328124,-0.04660528525710106,0.24248063564300537,-0.08282424509525299
1751214447140598800,12.713598876953125,-0.03169159218668938,0.10293109714984894,-0.2138516753911972
1751214447150593000,12.723593017578125,-0.03701791167259216,-0.11318425834178925,-0.32676962018013
1751214447160587000,12.7335869140625,-0.0540621280670166,-0.3091927766799927,-0.4066644012928009
1751214447170581000,12.7435810546875,-0.07643266767263412,-0.4679170548915863,-0.4673844277858734
1751214447180575000,12.753574951171874,-0.10199899226427078,-0.5904223918914795,-0.525973916053772
1751214447190569000,12.76356884765625,-0.09880319982767105,-0.6799045205116272,-0.5771065950393677
1751214447200563000,12.77356298828125,-0.04980107396841049,-0.7299718856811523,-0.5984118580818176
1751214447210557000,12.783556884765625,0.019441060721874237,-0.7289066314697266,-0.5856286883354187
1751214447220551000,12.793551025390625,0.07376950979232788,-0.6735129356384277,-0.5366265773773193
1751214447230545000,12.803544921875,0.09294424951076508,-0.5371592044830322,-0.4407528340816498
1751214447240539000,12.813538818359374,0.08868319541215897,-0.31558436155319214,-0.3118559420108795
