time,seconds_elapsed,z,y,x
1750065394459801000,0.074801025390625,-0.028692245483398438,-0.040624141693115234,-0.004439592361450195
1750065394475731200,0.090731201171875,-0.0724344253540039,-0.045014381408691406,-0.035354673862457275
1750065394491722500,0.106722412109375,-0.08623647689819336,-0.02645111083984375,-0.05086958408355713
1750065394507713800,0.1227138671875,-0.04049539566040039,-0.06340265274047852,0.028002023696899414
1750065394523735600,0.138735595703125,0.040637969970703125,-0.0756230354309082,0.04037362337112427
1750065394539696000,0.154696044921875,0.15597200393676758,-0.03389263153076172,-0.010869801044464111
1750065394555626200,0.170626220703125,0.26830196380615234,-0.010265827178955078,-0.08916252851486206
1750065394571617500,0.186617431640625,0.2904510498046875,0.05410575866699219,-0.08664524555206299
1750065394587578000,0.202578125,0.2671785354614258,0.10262727737426758,-0.08762097358703613
1750065394603569400,0.2185693359375,0.10759782791137695,0.08539438247680664,-0.044878602027893066
1750065394619530000,0.234530029296875,0.04999113082885742,0.07654762268066406,-0.009700119495391846
1750065394635490800,0.25049072265625,0.016021728515625,0.08931350708007812,0.030369997024536133
1750065394651451400,0.266451416015625,0.09372234344482422,0.1243586540222168,-0.08990544080734253
1750065394667381800,0.2823818359375,0.12011241912841797,0.12398338317871094,-0.22446292638778687
1750065394683372800,0.298372802734375,0.14760303497314453,0.20272302627563477,-0.15327686071395874
1750065394699333600,0.314333740234375,0.06107616424560547,0.17727422714233398,0.011013031005859375
1750065394715294200,0.330294189453125,-0.05187511444091797,0.15462303161621094,0.05857586860656738
1750065394731285500,0.346285400390625,-0.10752296447753906,0.12369489669799805,0.03819352388381958
1750065394747307300,0.362307373046875,-0.06536197662353516,0.13525915145874023,-0.059193313121795654
1750065394763298300,0.37829833984375,-0.09924888610839844,0.16177129745483398,-0.10617244243621826
1750065394779289600,0.39428955078125,-0.10187292098999023,0.1923675537109375,-0.08941447734832764
1750065394795311400,0.410311279296875,-0.08148908615112305,0.13503217697143555,-0.09156149625778198
1750065394811333000,0.4263330078125,-0.05146026611328125,0.09920358657836914,-0.012252748012542725
1750065394827263200,0.44226318359375,0.04683494567871094,0.08581352233886719,0.05193591117858887
1750065394843285000,0.458284912109375,0.14870691299438477,0.09249114990234375,0.08910340070724487
1750065394859245600,0.47424560546875,0.14995861053466797,0.10873603820800781,0.009710967540740967
1750065394875176000,0.490176025390625,0.17314434051513672,0.13190174102783203,-0.1080394983291626
1750065394891167000,0.5061669921875,0.2033977508544922,0.14093303680419922,-0.1271488070487976
1750065394907158300,0.522158203125,0.17231035232543945,0.14958572387695312,-0.0993453860282898
1750065394923118800,0.538118896484375,0.17629194259643555,0.16449832916259766,-0.07361412048339844
1750065394939079700,0.55407958984375,0.16994047164916992,0.17822742462158203,-0.11192560195922852
1750065394955101400,0.570101318359375,0.041745662689208984,0.20922374725341797,-0.1543664038181305
1750065394971062000,0.58606201171875,-0.08706045150756836,0.20067787170410156,-0.14157193899154663
1750065394986992400,0.601992431640625,-0.18956613540649414,0.16338253021240234,-0.08472335338592529
1750065395002953000,0.617952880859375,-0.2688617706298828,0.1313629150390625,-0.04402899742126465
1750065395018944300,0.6339443359375,-0.3228878974914551,0.11681270599365234,-0.021852970123291016
1750065395034935300,0.649935302734375,-0.25981807708740234,0.11845970153808594,0.00970757007598877
1750065395050896100,0.665896240234375,-0.1533656120300293,0.0945577621459961,-0.007722139358520508
1750065395066856700,0.681856689453125,-0.16249656677246094,0.1206960678100586,-0.059367835521698
1750065395082817500,0.697817626953125,-0.04831504821777344,0.13259029388427734,-0.0016955137252807617
1750065395098839300,0.71383935546875,0.06666040420532227,0.0993194580078125,0.06598210334777832
1750065395114799900,0.7297998046875,0.08153581619262695,0.06960773468017578,0.08572578430175781
1750065395130760400,0.745760498046875,0.03330421447753906,0.06176471710205078,0.1067737340927124
1750065395146721300,0.76172119140625,0.015631675720214844,0.07334709167480469,0.024349451065063477
1750065395170647000,0.78564697265625,0.055559635162353516,0.07296371459960938,-0.02282470464706421
1750065395186668800,0.801668701171875,0.16783618927001953,0.1432790756225586,-0.11723190546035767
1750065395202660000,0.81766015625,0.1306324005126953,0.16241455078125,-0.20465674996376038
1750065395218620700,0.83362060546875,-0.0067234039306640625,0.17484378814697266,-0.20862030982971191
1750065395234550800,0.84955078125,-0.045810699462890625,0.16328907012939453,-0.11463108658790588
1750065395250572500,0.865572509765625,0.030956268310546875,0.10266828536987305,-0.027751147747039795
1750065395266533400,0.881533447265625,0.0003151893615722656,0.06044912338256836,0.07599353790283203
1750065395282494000,0.897493896484375,-0.11250448226928711,0.04751396179199219,0.10580825805664062
1750065395298485200,0.9134853515625,-0.17781400680541992,0.032393455505371094,0.15837502479553223
1750065395314507000,0.929507080078125,-0.17437505722045898,0.005687713623046875,0.14575612545013428
1750065395330467600,0.945467529296875,-0.16311407089233398,0.0351557731628418,0.025644958019256592
1750065395346428400,0.961428466796875,-0.07512092590332031,0.06621217727661133,-0.08587232232093811
1750065395362419500,0.97741943359375,-0.16204595565795898,0.06796884536743164,-0.08851096034049988
1750065395378380300,0.99338037109375,-0.11704778671264648,0.07834959030151367,0.014881253242492676
1750065395394402000,1.009402099609375,-0.0028162002563476562,-0.041364192962646484,-0.11714431643486023
1750065395410393000,1.02539306640625,-0.2565574645996094,-0.08971834182739258,-0.4706146717071533
1750065395426384400,1.04138427734375,-0.14695501327514648,0.010130882263183594,-0.5864408612251282
1750065395442375700,1.057375732421875,-0.22535419464111328,0.3136911392211914,-0.8215106725692749
1750065395466362400,1.0813623046875,-0.288419246673584,0.17412662506103516,-0.5956484079360962
1750065395482384100,1.097384033203125,-0.43118953704833984,0.27474021911621094,0.1841583251953125
1750065395498344700,1.1133447265625,-0.6393404006958008,0.4812803268432617,0.6288076639175415
1750065395514275000,1.129275146484375,-0.6661515235900879,0.332796573638916,-0.04469412565231323
1750065395530266000,1.14526611328125,-0.8412065505981445,0.5306015014648438,0.5009958744049072
1750065395546227000,1.16122705078125,-0.03963518142700195,0.8115439414978027,1.655227780342102
1750065395562218000,1.177218017578125,1.2861886024475098,0.3496723175048828,2.1813042163848877
1750065395578239700,1.19323974609375,2.5000267028808594,-0.28074073791503906,0.9342758655548096
1750065395594200600,1.20920068359375,2.18186616897583,-0.6384420394897461,-1.0685960054397583
1750065395610130700,1.225130615234375,0.8297772407531738,-0.2772045135498047,-1.7752363681793213
1750065395626152400,1.24115234375,0.06505298614501953,-0.07426834106445312,-1.0582901239395142
1750065395642082600,1.25708251953125,-0.43860435485839844,0.21145343780517578,-1.1855438947677612
1750065395658073900,1.273073974609375,-0.9816365242004395,0.432830810546875,-1.3872764110565186
1750065395674034400,1.289034423828125,-1.095733642578125,0.4343080520629883,-1.4977805614471436
1750065395689964500,1.304964599609375,-0.6141643524169922,-0.12016010284423828,-1.4436379671096802
1750065395705986300,1.320986328125,0.6883463859558105,-0.8771872520446777,-0.23354464769363403
1750065395721977600,1.3369775390625,1.0076584815979004,-0.938535213470459,0.7922300100326538
1750065395737969000,1.352968994140625,0.7927632331848145,-1.0901994705200195,0.9394654631614685
1750065395753929500,1.368929443359375,0.7707710266113281,-1.1836910247802734,0.9578901529312134
1750065395769890300,1.384890380859375,0.37868785858154297,-0.5775408744812012,1.3682243824005127
1750065395785851000,1.400850830078125,0.982663631439209,0.166412353515625,2.00130558013916
1750065395801811700,1.416811767578125,1.2147035598754883,-0.27480125427246094,1.8687810897827148
1750065395817802800,1.432802734375,1.7625246047973633,0.19414234161376953,1.4184155464172363
1750065395833824500,1.448824462890625,-2.4757070541381836,-1.0299968719482422,2.22597074508667
1750065395849785300,1.464785400390625,-2.018282890319824,-0.3994474411010742,0.5447658896446228
1750065395865776400,1.4807763671875,-1.4518814086914062,0.2848844528198242,-0.19730126857757568
1750065395881737200,1.4967373046875,-0.8815555572509766,0.7811222076416016,-0.93183434009552
1750065395897759000,1.512759033203125,-0.6228170394897461,0.6283283233642578,-1.2664310932159424
1750065395913658600,1.52865869140625,-0.27921628952026367,0.18012428283691406,-1.3971593379974365
1750065395929680100,1.54468017578125,-0.09653615951538086,-0.2502164840698242,-1.0663098096847534
1750065395945641000,1.560640869140625,0.3081669807434082,-0.45768308639526367,-0.5829682350158691
1750065395969658400,1.584658447265625,0.665379524230957,-0.5044922828674316,-0.6496106386184692
1750065395985619000,1.600618896484375,-0.28186845779418945,-0.7157483100891113,-1.262870192527771
1750065396001579800,1.616579833984375,-0.019315719604492188,-0.5873684883117676,-0.9348766803741455
1750065396017570800,1.63257080078125,0.9745917320251465,-0.3784799575805664,1.491457462310791
1750065396033562000,1.64856201171875,1.6252598762512207,-0.3268575668334961,3.9782066345214844
1750065396049522700,1.664522705078125,1.4156336784362793,-0.803703784942627,3.459972620010376
1750065396065544400,1.68054443359375,1.812382698059082,-0.8498306274414062,2.8794732093811035
1750065396081535700,1.69653564453125,1.4071588516235352,-1.2493820190429688,1.678757667541504
1750065396097496300,1.712496337890625,-0.27054500579833984,-0.5146722793579102,-0.24870266020298004
1750065396113457200,1.72845703125,-0.7030625343322754,1.309926986694336,-1.6055541038513184
1750065396129448200,1.7444482421875,-0.9327764511108398,2.523456573486328,-4.434882164001465
1750065396145439500,1.760439453125,-0.24766874313354492,1.6443662643432617,-2.405336856842041
1750065396161430800,1.7764306640625,0.6324152946472168,0.6021814346313477,-0.6152053475379944
1750065396177391400,1.792391357421875,1.4621129035949707,0.1169586181640625,0.02775324322283268
1750065396193382700,1.808382568359375,2.0453414916992188,-0.07189083099365234,-0.134365513920784
1750065396209312800,1.824312744140625,1.6735424995422363,0.020847320556640625,-0.023636970669031143
1750065396225243000,1.840242919921875,0.807652473449707,-0.0625314712524414,0.02003200352191925
1750065396241203700,1.85620361328125,-0.4881429672241211,-0.24494552612304688,-0.049637600779533386
1750065396257164300,1.872164306640625,-0.6720824241638184,-0.32787322998046875,1.2735515832901
1750065396273155600,1.888155517578125,-0.7786741256713867,0.05999183654785156,0.1429465115070343
1750065396289116200,1.9041162109375,-0.30555295944213867,-0.03540229797363281,-0.3581717312335968
1750065396305077000,1.920076904296875,0.45354557037353516,-0.017828941345214844,-0.2287445068359375
1750065396321068300,1.936068359375,0.9203081130981445,-0.012148857116699219,-0.10171973705291748
1750065396337059300,1.952059326171875,1.127309799194336,-0.018868446350097656,0.007067173719406128
1750065396353020200,1.968020263671875,1.2646961212158203,0.0644063949584961,-0.15095701813697815
1750065396369011200,1.98401123046875,0.7494354248046875,0.15680646896362305,-0.35490742325782776
1750065396384972000,1.999971923828125,0.7650532722473145,0.2336897850036621,-0.2655125856399536
1750065396400932600,2.0159326171875,0.5782890319824219,-0.20652341842651367,0.013861864805221558
1750065396416954400,2.031954345703125,1.0477919578552246,0.05598640441894531,-0.14004436135292053
1750065396432945700,2.047945556640625,0.9238967895507812,0.23478221893310547,-0.3701821565628052
1750065396448906200,2.06390625,0.46980953216552734,0.0011610984802246094,0.14185798168182373
1750065396464836600,2.079836669921875,-0.04590749740600586,0.017464637756347656,0.24655914306640625
1750065396480827600,2.09582763671875,-0.33331966400146484,0.03429603576660156,0.2106122225522995
1750065396496788500,2.11178857421875,-0.3411073684692383,-0.001613616943359375,0.1645430624485016
1750065396512688000,2.127688232421875,-0.20784854888916016,-0.0034551620483398438,0.10292239487171173
1750065396528710000,2.1437099609375,-0.1768779754638672,0.054406166076660156,0.07264898717403412
1750065396544670500,2.15967041015625,-0.13579607009887695,-0.036472320556640625,0.3642175495624542
1750065396560661800,2.175661865234375,-0.14411354064941406,0.055744171142578125,-0.18337278068065643
1750065396576652800,2.19165283203125,0.046944618225097656,0.009623527526855469,0.1677759885787964
1750065396592644000,2.20764404296875,0.1789841651916504,0.021326065063476562,0.09559885412454605
1750065396608635400,2.223635498046875,0.17773723602294922,0.1059865951538086,0.08575703948736191
1750065396624657200,2.2396572265625,0.45650625228881836,0.0822591781616211,-0.07156594097614288
1750065396640648200,2.255648193359375,0.5881729125976562,-0.10830545425415039,0.06725165247917175
1750065396656639500,2.271639404296875,0.24132871627807617,0.17622089385986328,-0.11609401553869247
1750065396672661200,2.2876611328125,0.2340536117553711,0.0899496078491211,-0.05190379172563553
1750065396688621800,2.303621826171875,0.06453275680541992,0.07590293884277344,0.07791370153427124
1750065396704613000,2.319613037109375,-0.2251572608947754,0.11800289154052734,0.18870016932487488
1750065396720573700,2.33557373046875,-0.1509079933166504,0.08915138244628906,0.08458396792411804
1750065396736565000,2.35156494140625,0.12694549560546875,0.048392295837402344,-0.052546177059412
1750065396752556300,2.367556396484375,0.30518293380737305,0.044567108154296875,0.07890739291906357
1750065396768516900,2.383516845703125,0.2812929153442383,-0.020053863525390625,-0.017556264996528625
1750065396784477700,2.399477783203125,0.1807117462158203,0.05977916717529297,-0.013196676969528198
1750065396800468700,2.41546875,-0.015021324157714844,0.11766529083251953,-0.0008675754070281982
1750065396816429600,2.4314296875,-0.06949853897094727,0.08864212036132812,0.10792078822851181
1750065396832390100,2.44739013671875,0.14755582809448242,0.026308059692382812,0.016837812960147858
1750065396848351000,2.46335107421875,0.21801471710205078,0.04336738586425781,-0.05254808068275452
1750065396864372700,2.479372802734375,0.17371320724487305,0.0227813720703125,0.054112985730171204
1750065396880333300,2.495333251953125,0.1586294174194336,0.04015159606933594,0.04240429401397705
1750065396896355000,2.51135498046875,0.17887592315673828,0.07707500457763672,0.014400646090507507
1750065396912376800,2.527376953125,0.20365619659423828,0.03518390655517578,0.028796985745429993
1750065396928367900,2.543367919921875,0.16715049743652344,0.026152610778808594,0.08160042762756348
1750065396944389600,2.5593896484375,0.09280920028686523,0.05268287658691406,0.08803118765354156
1750065396960350500,2.5753505859375,0.040833473205566406,0.06425189971923828,0.031637534499168396
1750065396976311000,2.59131103515625,0.10018587112426758,0.07901859283447266,-0.002087041735649109
1750065396992332800,2.607332763671875,0.17793989181518555,0.11107635498046875,0.011466339230537415
1750065397008324000,2.623323974609375,0.26776838302612305,-0.09157037734985352,0.1281222254037857
1750065397024284700,2.63928466796875,0.2580132484436035,-0.2493729591369629,-0.48166710138320923
1750065397040306400,2.655306396484375,0.19621944427490234,0.4374818801879883,1.195216417312622
1750065397056267300,2.671267333984375,0.28061771392822266,-0.45740175247192383,0.6376157402992249
1750065397072227800,2.687227783203125,-0.00347900390625,0.3522462844848633,-1.4927984476089478
1750065397088158000,2.703157958984375,0.1652393341064453,-0.2199850082397461,1.331972360610962
1750065397104149200,2.719149169921875,-0.022080421447753906,0.45408153533935547,0.11202171444892883
1750065397120109800,2.73510986328125,0.005190372467041016,0.029770851135253906,-1.1753277778625488
1750065397136101000,2.75110107421875,0.09988689422607422,-0.09868764877319336,-0.7502362728118896
1750065397152031200,2.76703125,0.14298486709594727,-0.03228187561035156,-0.7664729356765747
1750065397168053000,2.783052978515625,0.08983659744262695,0.1613178253173828,-0.7194334268569946
1750065397183983000,2.798983154296875,0.12781572341918945,0.24635887145996094,0.16716785728931427
1750065397199944000,2.81494384765625,0.7851362228393555,-0.11658859252929688,0.39277297258377075
1750065397215935200,2.830935302734375,0.23608016967773438,0.09640312194824219,-0.29078662395477295
1750065397231956700,2.846956787109375,-0.100250244140625,0.0763235092163086,0.37326210737228394
1750065397247948000,2.862947998046875,-0.3449726104736328,0.17545700073242188,-0.03257972002029419
1750065397263939300,2.878939208984375,-0.09357261657714844,0.12588882446289062,-0.12009594589471817
1750065397287895600,2.9028955078125,0.2742176055908203,0.022225379943847656,0.0521371066570282
1750065397303856400,2.9188564453125,0.34276580810546875,0.041347503662109375,0.012793496251106262
1750065397319878000,2.9348779296875,0.27266836166381836,0.07540416717529297,-0.0041237324476242065
1750065397335838700,2.950838623046875,0.1293196678161621,0.10476493835449219,0.009550362825393677
1750065397351799300,2.96679931640625,0.11151838302612305,0.09992122650146484,-0.03538691997528076
1750065397367760100,2.982760009765625,0.14826536178588867,0.06679821014404297,0.02469882369041443
1750065397383720700,2.998720703125,0.32291698455810547,-0.11401557922363281,0.31691938638687134
1750065397399712000,3.0147119140625,0.4831843376159668,0.22170734405517578,-0.0022255778312683105
1750065397415672600,3.030672607421875,0.9949202537536621,0.28974056243896484,-0.14474749565124512
1750065397431633400,3.04663330078125,1.1148638725280762,0.2595968246459961,-0.21469101309776306
1750065397447624700,3.062624755859375,0.930511474609375,0.09174633026123047,-0.15087315440177917
1750065397463585300,3.078585205078125,0.5115361213684082,0.08282184600830078,-0.0033031105995178223
1750065397479545900,3.0945458984375,0.004856586456298828,0.0009489059448242188,-0.14873281121253967
1750065397495567600,3.110567626953125,-0.4401688575744629,-0.011311531066894531,-0.014409422874450684
1750065397511498000,3.126498046875,-0.734990119934082,0.056534767150878906,0.16828984022140503
1750065397527428000,3.142427978515625,-0.5378227233886719,0.1340036392211914,0.11269992589950562
1750065397543419100,3.158419189453125,-0.6325626373291016,0.10178947448730469,0.2020704746246338
1750065397559410400,3.174410400390625,-0.5369844436645508,-0.07483100891113281,0.22321254014968872
1750065397575371300,3.190371337890625,-0.6527819633483887,0.01805877685546875,-0.4845110774040222
1750065397591392800,3.206392822265625,-0.41437339782714844,-0.26856327056884766,-1.6234883069992065
1750065397607384000,3.222384033203125,0.1818852424621582,-0.029685020446777344,0.9805456399917603
1750065397623375400,3.238375244140625,-0.29392528533935547,0.5484838485717773,1.2758033275604248
1750065397639366700,3.25436669921875,-0.10898637771606445,0.050772666931152344,0.2620398998260498
1750065397655327200,3.2703271484375,0.03102254867553711,-0.06855201721191406,-0.31591853499412537
1750065397671318500,3.286318603515625,0.4037303924560547,0.13079261779785156,-0.009529650211334229
1750065397687279000,3.302279052734375,0.5322890281677246,-0.012079238891601562,-0.10924583673477173
1750065397703240000,3.318239990234375,0.3829364776611328,0.045174598693847656,-0.07358431816101074
1750065397719261400,3.334261474609375,0.3145279884338379,0.12515926361083984,-0.12059718370437622
1750065397735222300,3.35022216796875,0.17055940628051758,0.1563558578491211,-0.19098353385925293
1750065397751213600,3.366213623046875,0.05873298645019531,0.1618328094482422,-0.30936354398727417
1750065397767174100,3.382174072265625,0.017000198364257812,0.05649089813232422,-0.11032456159591675
1750065397783134700,3.398134765625,0.09161376953125,0.13058757781982422,-0.006440281867980957
1750065397799095600,3.414095458984375,0.09487009048461914,0.1329479217529297,0.04737842082977295
1750065397815056100,3.43005615234375,0.09305572509765625,0.027879714965820312,0.023232877254486084
1750065397830986500,3.445986572265625,0.2527484893798828,0.13276290893554688,-0.07436829805374146
1750065397846977500,3.4619775390625,0.23944711685180664,0.09220314025878906,0.06491100788116455
1750065397862968800,3.47796875,0.25160741806030273,0.17522621154785156,-0.04069113731384277
1750065397878929400,3.493929443359375,0.1060490608215332,0.06507492065429688,0.027177155017852783
1750065397894920700,3.509920654296875,0.18610858917236328,0.14339733123779297,-0.1232769787311554
1750065397910942500,3.5259423828125,0.20847177505493164,0.1430072784423828,-0.27796298265457153
1750065397926903000,3.541903076171875,0.4715142250061035,0.12436294555664062,-0.2576453685760498
1750065397942864000,3.55786376953125,0.2151198387145996,0.1637859344482422,-0.3833070397377014
1750065397958855200,3.573855224609375,-0.43689680099487305,0.17651939392089844,0.4537726044654846
1750065397974815700,3.589815673828125,-0.27770423889160156,0.025231361389160156,0.26769644021987915
1750065397990745900,3.605745849609375,0.33440351486206055,0.19753742218017578,-0.22536087036132812
1750065398006737200,3.621737060546875,0.9446992874145508,0.25852203369140625,-0.1813013255596161
1750065398022759000,3.637759033203125,0.6114835739135742,0.17364883422851562,-0.44744014739990234
1750065398038750000,3.65375,0.12602806091308594,-0.03530597686767578,0.028701484203338623
1750065398054741200,3.6697412109375,-0.3483238220214844,-0.09252262115478516,-0.16701865196228027
1750065398070763000,3.685762939453125,-0.4425816535949707,0.2611207962036133,0.07026684284210205
1750065398086754300,3.70175439453125,-0.2796764373779297,0.1704416275024414,-0.2120688557624817
1750065398102776000,3.717776123046875,-0.07402515411376953,0.0784444808959961,0.07419431209564209
1750065398118736600,3.733736572265625,0.07601404190063477,0.009893417358398438,0.23718148469924927
1750065398134728000,3.74972802734375,0.36151647567749023,0.03265094757080078,0.07543092966079712
1750065398150749700,3.765749755859375,0.5438547134399414,0.04665374755859375,-0.045531511306762695
1750065398174736400,3.789736328125,0.23287010192871094,0.11508941650390625,0.1606704592704773
1750065398190758100,3.805758056640625,0.04901885986328125,0.1546783447265625,-0.021552681922912598
1750065398206749400,3.82174951171875,0.05527925491333008,0.10183048248291016,-0.1892208456993103
1750065398222710000,3.8377099609375,0.2581195831298828,0.062478065490722656,-0.18584966659545898
1750065398238731800,3.853731689453125,0.4075937271118164,0.05747032165527344,0.022985219955444336
1750065398254692400,3.8696923828125,0.35579347610473633,0.07507991790771484,0.15768390893936157
1750065398270683600,3.88568359375,0.2550506591796875,0.12362098693847656,0.04953187704086304
1750065398286675000,3.901675048828125,0.17207717895507812,0.1506328582763672,-0.07638311386108398
1750065398302696700,3.91769677734375,0.09076452255249023,0.12149238586425781,-0.0014882087707519531
1750065398318657300,3.9336572265625,-0.013138294219970703,0.08185863494873047,0.013864994049072266
1750065398334648600,3.949648681640625,-0.031249523162841797,0.10949134826660156,-0.05150359869003296
1750065398350670300,3.96567041015625,-0.039139747619628906,0.09522819519042969,0.05038362741470337
1750065398366631000,3.981630859375,0.028230667114257812,0.1176900863647461,0.012325644493103027
1750065398382591700,3.997591796875,-0.2497572898864746,0.13089942932128906,-0.17078614234924316
1750065398398582800,4.013582763671875,-0.17562437057495117,0.2422504425048828,-0.41388702392578125
1750065398414543600,4.029543701171875,0.11436700820922852,-0.09087276458740234,0.045210838317871094
1750065398430473700,4.0454736328125,0.4388551712036133,-0.1700448989868164,0.42530620098114014
1750065398446403800,4.06140380859375,0.5492911338806152,0.058081626892089844,0.24162143468856812
1750065398462334000,4.077333984375,0.5239644050598145,0.2893486022949219,-0.37527182698249817
1750065398478294800,4.093294677734375,0.4416999816894531,0.23700809478759766,-0.14771229028701782
1750065398494286000,4.1092861328125,0.16506624221801758,-0.016160964965820312,0.5753650665283203
1750065398510307600,4.1253076171875,0.10895013809204102,-0.030199050903320312,0.510358989238739
1750065398534233300,4.1492333984375,-0.3678431510925293,0.042568206787109375,0.41629326343536377
1750065398550255000,4.165255126953125,-0.2801985740661621,-0.005122184753417969,-1.2827401161193848
1750065398566216000,4.1812158203125,-0.36354541778564453,0.1734151840209961,-0.7124180793762207
1750065398582176500,4.197176513671875,-0.21018218994140625,0.3401346206665039,0.3988114595413208
1750065398598198300,4.2131982421875,-0.03254508972167969,0.20752620697021484,-0.08489978313446045
1750065398614159000,4.2291591796875,0.18802976608276367,0.15460586547851562,0.6140833497047424
1750065398630180900,4.245180908203125,0.33175086975097656,0.4178171157836914,0.6986424922943115
1750065398646141400,4.261141357421875,0.34584522247314453,-0.2585926055908203,-1.4490385055541992
1750065398662102000,4.27710205078125,0.14722967147827148,0.5837793350219727,-0.4107587933540344
1750065398678123800,4.293123779296875,0.07634878158569336,-0.30705976486206055,0.8078871965408325
1750065398694084600,4.309084716796875,-0.13710546493530273,0.5368690490722656,0.04270517826080322
1750065398710106400,4.3251064453125,-0.06811380386352539,-0.14039993286132812,-0.9843932390213013
1750065398726128000,4.341128173828125,0.03193235397338867,-0.2223358154296875,-0.03554648160934448
1750065398742149600,4.357149658203125,0.16410207748413086,-0.14056110382080078,0.0037532448768615723
1750065398766136600,4.381136474609375,0.24268245697021484,0.22908592224121094,0.5200775265693665
1750065398782127900,4.3971279296875,0.20101165771484375,0.009271621704101562,0.34770238399505615
1750065398798119000,4.413118896484375,0.050837039947509766,0.11887645721435547,-0.4077190160751343
1750065398814140700,4.429140625,0.0369267463684082,0.15918540954589844,0.24467366933822632
1750065398830070800,4.44507080078125,0.08234930038452148,0.1423044204711914,-0.232062429189682
1750065398846062000,4.46106201171875,0.054830074310302734,0.10465431213378906,0.023330271244049072
1750065398862053400,4.477053466796875,-0.01344442367553711,0.11983489990234375,0.023411989212036133
1750065398878014000,4.493013916015625,-0.00821065902709961,0.12096500396728516,-0.09900587797164917
1750065398893974800,4.508974853515625,0.09877824783325195,0.14199447631835938,-0.07951897382736206
1750065398909965800,4.5249658203125,0.21892404556274414,0.10886859893798828,-0.013509631156921387
1750065398925926700,4.5409267578125,0.19796991348266602,0.0901174545288086,0.005557000637054443
1750065398941887200,4.55688720703125,0.14986228942871094,0.08700847625732422,-0.04388684034347534
1750065398957878500,4.57287841796875,0.09073877334594727,0.08565235137939453,-0.04056447744369507
1750065398973839000,4.588839111328125,0.0708017349243164,0.10291004180908203,-0.0522269606590271
1750065398989769500,4.60476953125,0.018004894256591797,0.12454509735107422,-0.021161675453186035
1750065399005699600,4.620699462890625,-0.03475666046142578,0.10779476165771484,-0.020513474941253662
1750065399021721300,4.636721435546875,-0.007109642028808594,0.10120868682861328,-0.023676633834838867
1750065399045647000,4.660647216796875,0.106201171875,0.09167766571044922,-0.011070549488067627
1750065399061577200,4.6765771484375,0.16270923614501953,0.10813140869140625,-0.033093273639678955
1750065399077537800,4.692537841796875,0.23142528533935547,0.0980997085571289,-0.03844636678695679
1750065399093498600,4.70849853515625,0.2486400604248047,0.12082576751708984,-0.05126899480819702
1750065399109428700,4.7244287109375,0.14124011993408203,0.10859394073486328,0.0138474702835083
1750065399125420000,4.740419921875,-0.11186027526855469,0.11600971221923828,0.06307369470596313
1750065399141441800,4.75644189453125,-0.18447208404541016,0.11946964263916016,-0.04849898815155029
1750065399157432800,4.772432861328125,0.03399038314819336,0.08683109283447266,-0.2333087921142578
1750065399173454600,4.78845458984375,0.2099742889404297,0.1034402847290039,-0.1115836501121521
1750065399189415400,4.80441552734375,0.1555619239807129,0.09984874725341797,0.08430254459381104
1750065399205376000,4.8203759765625,0.07510662078857422,0.07756423950195312,0.06651520729064941
1750065399221367300,4.8363671875,-0.06901741027832031,0.07606315612792969,0.04546546936035156
1750065399237328000,4.852327880859375,-0.20453214645385742,0.0774993896484375,0.0905194878578186
1750065399253319200,4.868319091796875,-0.016087055206298828,0.021467208862304688,-0.05159580707550049
1750065399269341000,4.8843408203125,0.15053510665893555,0.031800270080566406,-0.05374878644943237
1750065399285332200,4.900332275390625,0.1733989715576172,0.12617015838623047,-0.08677518367767334
1750065399301323300,4.9163232421875,0.34879302978515625,0.1835622787475586,-0.03929334878921509
1750065399317284000,4.9322841796875,-0.06006002426147461,0.38176918029785156,-0.09952595829963684
1750065399333305900,4.948305908203125,-0.45419740676879883,-0.02277088165283203,0.1580522060394287
1750065399349327400,4.964327392578125,0.13175010681152344,-0.20346498489379883,0.2001420259475708
1750065399365349000,4.98034912109375,1.2441339492797852,0.055843353271484375,-0.4640604257583618
1750065399381371000,4.996370849609375,1.8727478981018066,-0.042113304138183594,-1.1292293071746826
1750065399397331700,5.012331787109375,1.5126161575317383,-0.25318288803100586,0.3695216774940491
1750065399413292300,5.028292236328125,1.1413965225219727,0.23546886444091797,-0.7213476896286011
1750065399429222400,5.044222412109375,0.4343452453613281,0.02664470672607422,0.17184197902679443
1750065399445152800,5.06015283203125,-0.08242559432983398,-0.7569189071655273,1.7864484786987305
1750065399461174300,5.07617431640625,-0.6599078178405762,-1.0222034454345703,2.523500442504883
1750065399477104600,5.092104736328125,-0.5888195037841797,0.18262004852294922,0.44201546907424927
1750065399493095700,5.108095703125,-1.1244654655456543,0.7122821807861328,-0.05007237195968628
1750065399509056500,5.124056396484375,-1.9489643573760986,-0.0707693099975586,-0.41130250692367554
1750065399525078300,5.140078369140625,-1.3827152252197266,-0.09171390533447266,-0.3787083029747009
1750065399541038800,5.156038818359375,-0.6639657020568848,0.13609981536865234,0.08991992473602295
1750065399557030100,5.172030029296875,0.031138896942138672,0.2172708511352539,-0.21496394276618958
1750065399572929800,5.1879296875,0.6246380805969238,0.18545913696289062,-0.2548661530017853
1750065399588921000,5.203921142578125,0.8161039352416992,0.1628265380859375,-0.22693142294883728
1750065399604942600,5.219942626953125,0.9803147315979004,0.31163787841796875,-0.21059614419937134
1750065399620964400,5.23596435546875,0.5884170532226562,0.42104434967041016,-0.29783231019973755
1750065399636955600,5.25195556640625,0.20096826553344727,0.4843025207519531,-0.26611649990081787
1750065399652916200,5.267916259765625,0.4040665626525879,0.25227928161621094,-0.23275837302207947
1750065399668846600,5.2838466796875,0.3251638412475586,0.08374309539794922,0.3805994391441345
1750065399684837600,5.299837646484375,0.46686649322509766,0.07065677642822266,-0.005860045552253723
1750065399700768000,5.31576806640625,1.1430954933166504,-0.09093093872070312,0.21362125873565674
1750065399716759000,5.331759033203125,1.131091594696045,-0.22586917877197266,0.5809473991394043
1750065399732719900,5.347719970703125,0.5886282920837402,-0.36540794372558594,0.9409542083740234
1750065399748680400,5.363680419921875,0.5440702438354492,-0.12446308135986328,0.5177255868911743
1750065399764671700,5.379671630859375,0.5752205848693848,-0.2315816879272461,0.28037935495376587
1750065399780693500,5.395693603515625,0.11151504516601562,0.012598991394042969,-0.2569767236709595
1750065399796684500,5.4116845703125,-0.7082877159118652,0.3424797058105469,-0.7704097032546997
1750065399812615000,5.427614990234375,-3.5282461643218994,1.6086235046386719,-3.3308520317077637
1750065399828606000,5.44360595703125,0.6501836776733398,0.6125602722167969,-2.0375077724456787
1750065399844536300,5.459536376953125,0.6501102447509766,0.006092071533203125,-0.9589686393737793
1750065399860527400,5.47552734375,-0.8047089576721191,0.5165624618530273,-0.9660340547561646
1750065399876488200,5.49148828125,-1.3427143096923828,0.1764974594116211,-0.4937954545021057
1750065399892448800,5.50744873046875,-0.8363933563232422,0.010008811950683594,0.2093626856803894
1750065399908379000,5.52337890625,0.05551958084106445,0.1370067596435547,0.061562538146972656
1750065399924309200,5.539309326171875,0.6375880241394043,0.21257877349853516,-0.3439529538154602
1750065399940331000,5.5553310546875,0.7071418762207031,0.22845172882080078,-0.3957909941673279
1750065399956291600,5.57129150390625,0.3520317077636719,0.056201934814453125,0.022709429264068604
1750065399972252200,5.587252197265625,0.07282257080078125,0.042626380920410156,0.2189522385597229
1750065399988151800,5.60315185546875,-0.13428258895874023,0.006984710693359375,0.24171221256256104
1750065400004173600,5.619173583984375,-0.06252908706665039,-0.02155590057373047,0.16080951690673828
1750065400020134400,5.635134521484375,0.1441936492919922,0.0769662857055664,-0.085377037525177
1750065400036064500,5.651064453125,0.09724664688110352,0.13313674926757812,-0.24926835298538208
1750065400052025300,5.667025390625,-0.14946746826171875,0.1542644500732422,-0.18014174699783325
1750065400067955500,5.68295556640625,-0.28964853286743164,0.08306884765625,0.0013767480850219727
1750065400083977200,5.698977294921875,-0.11641216278076172,-0.032988548278808594,0.24213114380836487
1750065400099968300,5.71496826171875,0.29760313034057617,-0.18095970153808594,0.4345262050628662
1750065400115959600,5.73095947265625,0.5425920486450195,-0.27497005462646484,0.571720540523529
1750065400131981300,5.746981201171875,0.6281032562255859,-0.1904735565185547,0.5561048984527588
1750065400147942000,5.76294189453125,0.48282527923583984,-0.031563758850097656,0.45710936188697815
1750065400163933200,5.77893310546875,0.2732982635498047,0.05560874938964844,0.38496702909469604
1750065400179832800,5.794832763671875,0.18085622787475586,0.028156280517578125,0.2502075135707855
1750065400195824000,5.81082421875,0.19907522201538086,0.10171985626220703,0.2457187920808792
1750065400211815200,5.826815185546875,0.2824878692626953,0.1656351089477539,0.15767547488212585
1750065400227837000,5.8428369140625,0.26051759719848633,0.1531972885131836,-0.06443389505147934
1750065400243828200,5.858828125,0.3718400001525879,0.056110382080078125,-0.008584804832935333
1750065400259850000,5.87485009765625,0.35760068893432617,0.004573822021484375,0.10578900575637817
1750065400275810600,5.890810546875,0.5547599792480469,-0.001056671142578125,-0.043967776000499725
1750065400291771400,5.906771484375,1.0905179977416992,-0.08458232879638672,-0.49933528900146484
1750065400307793200,5.922793212890625,0.967435359954834,-0.12564325332641602,0.6787945032119751
1750065400323784200,5.9387841796875,0.4996623992919922,0.22684860229492188,0.12403613328933716
1750065400339775500,5.954775390625,0.11214065551757812,0.09372234344482422,-0.07684454321861267
1750065400355766800,5.970766845703125,0.10312604904174805,-0.004460334777832031,0.18958894908428192
1750065400371788300,5.986788330078125,0.14299678802490234,0.07394218444824219,0.13226890563964844
1750065400387718700,6.00271875,-0.1568470001220703,0.1741962432861328,-0.13700711727142334
1750065400403709700,6.018709716796875,-0.18529510498046875,0.1537466049194336,-0.039294011890888214
1750065400419701000,6.034700927734375,0.006686687469482422,0.045413970947265625,0.13531717658042908
1750065400435692300,6.0506923828125,0.08128070831298828,0.048127174377441406,0.18758094310760498
1750065400451683300,6.066683349609375,0.3306446075439453,0.12756824493408203,0.22291922569274902
1750065400467613700,6.08261376953125,0.4581918716430664,0.045182228088378906,0.22112175822257996
1750065400483635200,6.09863525390625,0.5149974822998047,0.09645938873291016,0.1159193143248558
1750065400499565600,6.114565673828125,0.9459371566772461,-0.1657390594482422,0.18648001551628113
1750065400515556600,6.130556640625,1.1319894790649414,-0.13532066345214844,0.075736403465271
1750065400531548000,6.1465478515625,0.4508509635925293,0.032756805419921875,0.1487281322479248
1750065400547478000,6.16247802734375,-0.4455375671386719,0.3708820343017578,-0.35690656304359436
1750065400563469300,6.17846923828125,-1.2033038139343262,0.5672540664672852,-0.8214187026023865
1750065400579460600,6.194460693359375,-1.6264784336090088,0.5876016616821289,-0.8580610156059265
1750065400595421200,6.210421142578125,-1.808434009552002,0.9967565536499023,-1.195293664932251
1750065400611351300,6.226351318359375,-1.3549854755401611,0.34039306640625,-1.0168383121490479
1750065400627373000,6.242373046875,-0.6266512870788574,0.333221435546875,-0.7574321627616882
1750065400643334000,6.258333984375,-0.7869095802307129,0.24215221405029297,-0.6531133651733398
1750065400659294500,6.27429443359375,-0.5758042335510254,0.25567054748535156,-0.4779800772666931
1750065400675316200,6.290316162109375,-0.420835018157959,0.30401039123535156,-0.47576433420181274
1750065400691276800,6.30627685546875,-0.03420591354370117,0.22052764892578125,-0.2894606590270996
1750065400707207200,6.322207275390625,0.47048377990722656,0.1363544464111328,-0.17116600275039673
1750065400723198200,6.3381982421875,0.7696018218994141,0.025496482849121094,0.04482513666152954
1750065400739189500,6.354189453125,0.5274248123168945,0.09589195251464844,0.01700812578201294
1750065400755150300,6.370150390625,0.09459114074707031,0.22460269927978516,-0.2148212194442749
1750065400771111000,6.38611083984375,-0.28270769119262695,0.3213977813720703,-0.331439733505249
1750065400787102200,6.402102294921875,-0.5427842140197754,0.35842323303222656,-0.4547167420387268
1750065400803032300,6.4180322265625,-0.555910587310791,0.24852275848388672,-0.39967089891433716
1750065400819023600,6.434023681640625,-0.4625668525695801,0.05032920837402344,-0.22833353281021118
1750065400835014700,6.4500146484375,-0.2399430274963379,0.05545806884765625,-0.0352596640586853
1750065400850975500,6.4659755859375,0.15549755096435547,-0.13311481475830078,0.30984148383140564
1750065400866966500,6.481966552734375,0.7454237937927246,-0.06623649597167969,0.3959355354309082
1750065400882957800,6.497957763671875,1.5229215621948242,0.2622089385986328,0.1712089478969574
1750065400898918700,6.513918701171875,1.928603172302246,0.4982900619506836,-0.3329673707485199
1750065400914909700,6.52990966796875,1.5632538795471191,0.05727195739746094,0.3454155921936035
1750065400930870500,6.54587060546875,1.4115943908691406,-0.3838372230529785,0.734150767326355
1750065400946800600,6.561800537109375,0.8751201629638672,-1.2083516120910645,1.7837260961532593
1750065400962761200,6.57776123046875,0.2938694953918457,-1.7532615661621094,2.3929145336151123
1750065400978722000,6.59372216796875,0.10725259780883789,-1.762986183166504,2.714350938796997
1750065400994743800,6.609743896484375,0.3231377601623535,-1.0835752487182617,2.0285472869873047
1750065401010765600,6.625765625,0.6398210525512695,-0.226531982421875,0.6103188991546631
1750065401026726100,6.64172607421875,0.7085390090942383,0.3593425750732422,-0.4314287304878235
1750065401042717400,6.657717529296875,0.5556082725524902,0.6255378723144531,-0.8497593998908997
1750065401058678000,6.673677978515625,-0.060708045959472656,0.1353588104248047,-0.07817395776510239
1750065401074699800,6.68969970703125,0.1944437026977539,-0.5982112884521484,1.3069993257522583
1750065401090643700,6.705643798828125,-0.27686262130737305,-0.99114990234375,1.5989352464675903
1750065401106604500,6.7216044921875,-0.1982288360595703,-0.14823055267333984,0.17165836691856384
1750065401122595600,6.737595703125,0.8123431205749512,0.8996086120605469,-1.112485408782959
1750065401138587000,6.7535869140625,0.8953628540039062,0.19171524047851562,0.1718299239873886
1750065401154578200,6.769578125,1.344984531402588,-0.12996959686279297,0.43516185879707336
1750065401170569200,6.7855693359375,1.5172700881958008,-0.2052903175354004,0.7650877237319946
1750065401186591000,6.801591064453125,1.526322841644287,-0.3529963493347168,0.6487569808959961
1750065401202521000,6.81752099609375,1.312772274017334,-0.3635249137878418,0.4574110507965088
1750065401218512400,6.833512451171875,0.7629885673522949,-0.30243492126464844,0.5558429956436157
1750065401234473200,6.84947314453125,0.10851764678955078,-0.25075531005859375,0.7890422940254211
1750065401250464300,6.86546435546875,-0.31473588943481445,-0.21689939498901367,0.6657221913337708
1750065401266455600,6.88145556640625,-0.5317177772521973,-0.21837806701660156,0.32848405838012695
1750065401282446800,6.89744677734375,-0.3184967041015625,-0.1293649673461914,0.018940389156341553
1750065401298438000,6.91343798828125,0.03331422805786133,-0.02059650421142578,-0.03069615364074707
1750065401314398700,6.929398681640625,0.2861042022705078,-0.009742259979248047,-0.07571271061897278
1750065401330420500,6.94542041015625,0.452880859375,0.026613712310791016,-0.11527454853057861
1750065401346381000,6.961381103515625,0.5262351036071777,0.06616067886352539,-0.13575038313865662
1750065401362402800,6.97740283203125,0.41260719299316406,0.14046478271484375,-0.13216856122016907
1750065401378424600,6.993424560546875,0.09675168991088867,0.12186384201049805,0.06885254383087158
1750065401394385200,7.00938525390625,-0.3563714027404785,0.1358175277709961,0.21298116445541382
1750065401410407000,7.025406982421875,-0.7103724479675293,0.17833709716796875,0.15093350410461426
1750065401426428700,7.0414287109375,-0.712893009185791,0.11112642288208008,-0.001849353313446045
1750065401442389500,7.057389404296875,-0.44267988204956055,0.07132434844970703,-0.18639257550239563
1750065401458350000,7.07335009765625,-0.020461559295654297,0.11250686645507812,-0.1840241253376007
1750065401474371800,7.089371826171875,0.3478584289550781,0.14762210845947266,-0.09797072410583496
1750065401490332400,7.10533251953125,0.23137807846069336,0.0718545913696289,0.06850224733352661
1750065401506293200,7.121293212890625,0.3272695541381836,0.057935237884521484,0.016993701457977295
1750065401522253800,7.13725390625,0.15193653106689453,-0.007193088531494141,0.03256461024284363
1750065401538214700,7.153214599609375,0.16338825225830078,0.10226202011108398,-0.26212453842163086
1750065401554205700,7.169205810546875,0.09966278076171875,0.0903162956237793,-0.06247630715370178
1750065401570166500,7.18516650390625,0.01159048080444336,0.09403133392333984,-0.01951327919960022
1750065401586127000,7.201127197265625,0.01316690444946289,0.08987951278686523,-0.025896579027175903
1750065401602088000,7.217087890625,-0.037346839904785156,0.0010480880737304688,0.006259322166442871
1750065401618048500,7.233048583984375,0.2040996551513672,0.12188482284545898,-0.11988130211830139
1750065401634039800,7.249039794921875,0.24355602264404297,0.13154315948486328,-0.20162135362625122
1750065401650000400,7.26500048828125,0.3707451820373535,-0.015470504760742188,0.06692487001419067
1750065401665991700,7.28099169921875,0.410306453704834,0.03376626968383789,-0.1181725561618805
1750065401681983000,7.29698291015625,0.5452771186828613,0.05035066604614258,-0.22699344158172607
1750065401697943600,7.312943603515625,0.44286346435546875,0.04405403137207031,-0.15326282382011414
1750065401713934800,7.328934814453125,0.10548639297485352,0.0951228141784668,0.0620456337928772
1750065401729926000,7.34492578125,-0.19489765167236328,0.09126758575439453,0.10803228616714478
1750065401745856300,7.360856201171875,-0.5495376586914062,0.11303138732910156,-0.009008437395095825
1750065401761847300,7.376847412109375,-0.2807440757751465,0.11503028869628906,0.015588611364364624
1750065401777808100,7.39280810546875,-0.09626531600952148,0.061740875244140625,0.06259945034980774
1750065401793830000,7.408829833984375,0.5767936706542969,-0.009734630584716797,0.2037213146686554
1750065401809790500,7.42479052734375,0.03113269805908203,0.04569435119628906,-0.10204139351844788
1750065401825812200,7.440812255859375,0.30657958984375,0.21963167190551758,-0.30682408809661865
1750065401841772800,7.456772705078125,0.20932340621948242,0.10599851608276367,-0.11573868989944458
1750065401857764000,7.47276416015625,0.4408078193664551,0.07079887390136719,0.1618025302886963
1750065401873725000,7.488724853515625,0.2284083366394043,0.030190467834472656,-0.001954883337020874
1750065401889746400,7.504746337890625,-0.08441638946533203,0.05820608139038086,0.02388700842857361
1750065401905768200,7.520768310546875,-0.15945053100585938,0.14789581298828125,-0.012231320142745972
1750065401921729000,7.53672900390625,-0.014416694641113281,0.1650552749633789,-0.14450949430465698
1750065401937720000,7.552719970703125,0.12258672714233398,0.05564594268798828,0.0371016263961792
1750065401953711400,7.56871142578125,0.2446751594543457,0.09511804580688477,-0.03523898124694824
1750065401969733000,7.584733154296875,0.2525606155395508,0.0765695571899414,-0.05679386854171753
1750065401985693700,7.600693603515625,0.21894550323486328,0.09741067886352539,-0.04284146428108215
1750065402001685000,7.61668505859375,-0.033446311950683594,0.05783700942993164,0.08423662185668945
1750065402017645800,7.632645751953125,-0.3696565628051758,0.07858562469482422,-0.008653223514556885
1750065402041602000,7.65660205078125,-0.46564579010009766,0.09367179870605469,-0.0343988835811615
1750065402065619500,7.680619384765625,-0.2000432014465332,0.09640312194824219,0.046100497245788574
1750065402081610500,7.696610595703125,0.004319667816162109,0.11803293228149414,-0.0297316312789917
1750065402097632300,7.71263232421875,0.18156671524047852,0.08457279205322266,-0.07167530059814453
1750065402113623600,7.72862353515625,0.2552528381347656,0.07079410552978516,-0.03071761131286621
1750065402129645300,7.744645263671875,0.3119988441467285,0.06985282897949219,-0.018265873193740845
1750065402145606000,7.76060595703125,0.3415074348449707,0.058284759521484375,-0.062103718519210815
1750065402161597200,7.77659716796875,0.27262401580810547,0.047524452209472656,-0.05642426013946533
1750065402177527300,7.79252734375,0.13913297653198242,0.0661320686340332,-0.05452272295951843
1750065402193549000,7.808549072265625,0.08106803894042969,0.09584808349609375,-0.07502603530883789
1750065402209509600,7.824509521484375,0.05658102035522461,0.10880327224731445,-0.07951664924621582
1750065402225440000,7.84043994140625,-0.003615856170654297,0.0593571662902832,-0.03615793585777283
1750065402241431000,7.85643115234375,0.046367645263671875,0.09368228912353516,-0.0001386702060699463
1750065402257422300,7.87242236328125,0.14621734619140625,0.07083940505981445,-0.02839285135269165
1750065402273383000,7.8883828125,0.1529388427734375,0.05261039733886719,0.06763565540313721
1750065402289404700,7.90440478515625,0.1442704200744629,0.10757160186767578,-0.011070609092712402
1750065402305365500,7.920365478515625,0.17717409133911133,0.12117528915405273,-0.07536298036575317
1750065402321356500,7.9363564453125,0.2019205093383789,-0.04576730728149414,0.09357306361198425
1750065402337347800,7.952347900390625,0.1441025733947754,0.14550065994262695,-0.12294450402259827
1750065402353339100,7.968339111328125,0.013895034790039062,0.09356307983398438,-0.08744779229164124
1750065402369330200,7.984330078125,-0.10588550567626953,0.09135913848876953,-0.036542415618896484
1750065402385321500,8.000321533203126,-0.2051258087158203,0.10188961029052734,-0.06695443391799927
1750065402401312800,8.016312744140626,-0.21997976303100586,0.11133146286010742,-0.08217090368270874
1750065402417273300,8.0322734375,-0.1703357696533203,0.10822153091430664,-0.0026327967643737793
1750065402433295000,8.048295166015626,-0.07079410552978516,0.14771604537963867,-0.10937392711639404
1750065402449286400,8.064286376953126,0.31996917724609375,0.18709230422973633,-0.1368589699268341
1750065402465216500,8.080216552734376,0.3762836456298828,0.010807037353515625,-0.21445007622241974
1750065402481238300,8.09623828125,0.1848597526550293,0.014391422271728516,-0.16225793957710266
1750065402497168400,8.11216845703125,0.2722477912902832,0.15786504745483398,0.09232965111732483
1750065402513129200,8.128129150390626,0.12223052978515625,0.08917999267578125,-0.11301571130752563
1750065402529089800,8.14408984375,0.07419967651367188,-0.025383472442626953,0.040247946977615356
1750065402545020000,8.16002001953125,-0.08949518203735352,0.04512166976928711,0.1259404718875885
1750065402561041700,8.176041748046876,-0.31653404235839844,0.0641622543334961,-0.10438176989555359
1750065402576971800,8.1919716796875,-0.14125299453735352,0.03689908981323242,-0.04988798499107361
1750065402592963000,8.207963134765626,0.0042362213134765625,0.10737752914428711,-0.04019924998283386
1750065402608924000,8.223923828125,0.15729379653930664,0.0572667121887207,-0.06015244126319885
1750065402624854000,8.23985400390625,0.20801305770874023,0.07140541076660156,-0.033302634954452515
1750065402640845300,8.25584521484375,0.08611392974853516,0.0792236328125,0.019178926944732666
1750065402656836400,8.27183642578125,-0.03426647186279297,0.07153606414794922,0.014781653881072998
1750065402672827600,8.28782763671875,-0.10278844833374023,0.0691671371459961,-0.0026742219924926758
1750065402688819000,8.30381884765625,-0.15683221817016602,0.08277082443237305,-0.019142568111419678
1750065402704749000,8.3197490234375,-0.046498775482177734,0.1130528450012207,-0.049360066652297974
1750065402720740000,8.335739990234375,0.14225435256958008,0.12395238876342773,-0.11773809790611267
1750065402736670500,8.35167041015625,0.2344646453857422,0.08045816421508789,-0.07070019841194153
1750065402752661500,8.36766162109375,0.29678869247436523,0.06724786758422852,-0.04152241349220276
1750065402768622300,8.383622314453126,0.3108363151550293,0.1268148422241211,-0.07971930503845215
1750065402784552400,8.399552490234376,0.2761850357055664,0.10871553421020508,-0.02406439185142517
1750065402800543700,8.415543701171876,0.06514835357666016,0.08115816116333008,-0.05312669277191162
1750065402816534800,8.43153466796875,-0.10989761352539062,0.09728050231933594,-0.04136544466018677
1750065402832495600,8.44749560546875,-0.17899084091186523,0.09374427795410156,-0.07388463616371155
1750065402848487000,8.46348681640625,-0.1594529151916504,0.06606626510620117,-0.04103785753250122
1750065402864447500,8.479447509765626,-0.10601091384887695,0.07096433639526367,-0.05818021297454834
1750065402880408000,8.495407958984375,0.03432321548461914,0.04532909393310547,0.015559196472167969
1750065402896338400,8.51133837890625,0.1451554298400879,0.05543994903564453,0.08352130651473999
1750065402912329500,8.52732958984375,0.2947244644165039,0.10281181335449219,-0.035981565713882446
1750065402928320800,8.54332080078125,0.41329383850097656,0.09981107711791992,-0.09787255525588989
1750065402944251000,8.5592509765625,0.3333463668823242,0.07103109359741211,-0.0673958957195282
1750065402960242200,8.5752421875,0.20758342742919922,0.10848093032836914,-0.09317359328269958
1750065402976202800,8.59120263671875,-0.04212236404418945,0.048130035400390625,-0.02068522572517395
1750065402992163600,8.60716357421875,-0.05051088333129883,0.031884193420410156,-0.029572367668151855
1750065403008185300,8.623185302734376,0.0025844573974609375,0.07127523422241211,-0.03375038504600525
1750065403024146000,8.63914599609375,0.35648059844970703,-0.1083369255065918,0.2426777482032776
1750065403040106800,8.655106689453126,-0.6472387313842773,0.22879934310913086,-0.3349393606185913
1750065403056067300,8.6710673828125,0.28501081466674805,0.33356428146362305,-0.05618515610694885
1750065403072028200,8.687028076171876,0.39207935333251953,0.06396865844726562,-0.06452500820159912
1750065403088019200,8.703019287109376,0.35453081130981445,0.10976123809814453,0.16673016548156738
1750065403103949300,8.71894921875,0.18206214904785156,0.15968561172485352,0.004259943962097168
1750065403119971000,8.73497119140625,-0.5916876792907715,-0.08337974548339844,0.015881776809692383
1750065403143836000,8.7588359375,-0.2637314796447754,0.16217851638793945,-0.07450005412101746
1750065403159827200,8.7748271484375,0.07095050811767578,0.13583040237426758,-0.22148461639881134
1750065403175818200,8.790818359375,0.5715827941894531,0.07831525802612305,-0.2908625900745392
1750065403191809500,8.8068095703125,0.47173500061035156,0.026218414306640625,0.15711820125579834
1750065403207770000,8.82277001953125,0.37441396713256836,-0.050162315368652344,0.24325081706047058
1750065403223791900,8.8387919921875,0.13889455795288086,0.043659210205078125,0.04558572173118591
1750065403239783200,8.854783203125,-0.1324481964111328,0.12893056869506836,-0.08122581243515015
1750065403255774500,8.8707744140625,-0.15993690490722656,0.08990907669067383,-0.06320539116859436
1750065403271765500,8.886765625,0.01234292984008789,0.046482086181640625,0.07588857412338257
1750065403287756800,8.9027568359375,0.05587053298950195,0.0689687728881836,-0.032360970973968506
1750065403303748000,8.918748046875,-0.038025856018066406,0.16710376739501953,-0.11320438981056213
1750065403319739100,8.9347392578125,-0.1150355339050293,0.19824743270874023,-0.06493210792541504
1750065403335700000,8.950699951171876,0.0568385124206543,0.11882305145263672,-0.031231671571731567
1750065403351721700,8.9667216796875,-0.12839031219482422,0.014211177825927734,0.1368570327758789
1750065403367682300,8.982682373046876,0.5370750427246094,0.12304115295410156,-0.2620534300804138
1750065403383673600,8.998673583984376,0.7209558486938477,-0.01925182342529297,-0.10725030303001404
1750065403399634200,9.01463427734375,0.4859294891357422,0.04630231857299805,-0.15689218044281006
1750065403415595000,9.030594970703126,-0.12765169143676758,0.14111804962158203,-0.2169797420501709
1750065403431586000,9.0465859375,-0.46330928802490234,0.12432384490966797,0.10920187830924988
1750065403447547000,9.062546875,-0.4847879409790039,0.09391450881958008,0.14492958784103394
1750065403463477000,9.07847705078125,-0.2138657569885254,0.077880859375,-0.02287900447845459
1750065403479468300,9.09446826171875,0.37156248092651367,0.02739715576171875,-0.19734813272953033
1750065403495428900,9.110428955078126,0.6822671890258789,0.050199031829833984,-0.14677482843399048
1750065403511359200,9.126359130859376,0.4346027374267578,-0.02684640884399414,0.09165790677070618
1750065403527350300,9.142350341796876,0.1701798439025879,0.08719635009765625,0.11813125014305115
1750065403543372000,9.1583720703125,-0.22796201705932617,0.13756370544433594,0.04708859324455261
1750065403559332900,9.174332763671876,-0.5698633193969727,0.2174077033996582,-0.2239627093076706
1750065403575293400,9.19029345703125,-0.31165266036987305,0.08679962158203125,0.19372418522834778
1750065403591254000,9.20625390625,0.17322254180908203,0.03915977478027344,-0.026074618101119995
1750065403615180000,9.230179931640626,0.2909383773803711,0.15522003173828125,-0.2321302741765976
1750065403631140600,9.246140625,0.37450551986694336,0.1271352767944336,-0.04880145192146301
1750065403647132000,9.2621318359375,0.3646426200866699,0.09981918334960938,0.093831866979599
1750065403663153700,9.278153564453126,0.2790546417236328,0.14417266845703125,0.14819303154945374
1750065403679114200,9.2941142578125,0.1773667335510254,0.03292655944824219,0.0444985032081604
1750065403695105500,9.31010546875,-0.1548309326171875,0.09506750106811523,-0.08765947818756104
1750065403711066000,9.326066162109376,0.2593350410461426,0.0456843376159668,-0.136319100856781
1750065403727057400,9.342057373046876,0.39369630813598633,0.13884544372558594,-0.23681172728538513
1750065403743079200,9.3580791015625,-0.14375543594360352,0.25191402435302734,0.028349876403808594
1750065403759039700,9.374039794921876,0.037923336029052734,0.052735328674316406,0.007642537355422974
1750065403775000600,9.39000048828125,0.08267831802368164,0.10303974151611328,-0.049477607011795044
1750065403791022000,9.40602197265625,-0.07590389251708984,0.13417625427246094,-0.010896623134613037
1750065403806983000,9.42198291015625,0.14959144592285156,-0.02117776870727539,-0.1367964893579483
1750065403822943500,9.437943603515626,-0.1289992332458496,0.16278886795043945,-0.06726270914077759
1750065403838904300,9.453904296875,-0.14390277862548828,0.10487747192382812,0.003032863140106201
1750065403854865000,9.469864990234376,0.11218118667602539,0.08829212188720703,-0.03762942552566528
1750065403870825700,9.48582568359375,0.4240398406982422,0.07048368453979492,-0.10795807838439941
1750065403886755800,9.501755859375,0.5831441879272461,0.05058097839355469,0.020240575075149536
1750065403902716400,9.51771630859375,0.6512141227722168,0.03616905212402344,-0.007656961679458618
1750065403918707700,9.533707763671876,0.2840428352355957,0.08737897872924805,-0.13017021119594574
1750065403934699000,9.549698974609376,-0.19078445434570312,0.06474161148071289,-0.17579787969589233
1750065403950690000,9.56568994140625,-0.8657398223876953,0.1773543357849121,0.13921433687210083
1750065403966620400,9.581620361328126,-0.2349700927734375,0.1564640998840332,0.07613670825958252
1750065403982642200,9.59764208984375,0.1179666519165039,0.0798959732055664,-0.0932442843914032
1750065403998633200,9.61363330078125,0.32064151763916016,0.09555339813232422,-0.09845280647277832
1750065404014594000,9.629593994140626,0.16578960418701172,0.13238811492919922,-0.16092096269130707
1750065404030615800,9.64561572265625,-0.12434196472167969,0.04011106491088867,0.12895768880844116
1750065404046576400,9.661576416015626,-0.21973752975463867,0.05901908874511719,0.21984422206878662
1750065404062537000,9.677536865234375,-0.25863075256347656,0.09183788299560547,0.04206553101539612
1750065404078497800,9.693497802734376,0.214752197265625,0.09445333480834961,-0.05826908349990845
1750065404094428000,9.709427978515626,0.5482978820800781,0.14540624618530273,-0.08616572618484497
1750065404110419200,9.725419189453126,1.4793691635131836,0.12200784683227539,-0.07919231057167053
1750065404126379800,9.7413798828125,0.987123966217041,0.10074901580810547,0.034787148237228394
1750065404142340600,9.757340576171876,-0.30500364303588867,0.15122556686401367,-0.04541537165641785
1750065404158362400,9.7733623046875,-0.9816932678222656,0.18799209594726562,-0.11173132061958313
1750065404174353400,9.789353515625,-0.7769632339477539,0.1312112808227539,-0.06517964601516724
1750065404190375200,9.805375244140626,-0.7943115234375,0.14712810516357422,0.11943891644477844
1750065404206336000,9.8213359375,-0.11801862716674805,0.05731773376464844,-0.0054621100425720215
1750065404222266000,9.83726611328125,0.11365890502929688,0.024078369140625,-0.06169208884239197
1750065404238257400,9.85325732421875,0.26763153076171875,0.10260009765625,-0.1179414689540863
1750065404254218000,9.869218017578126,0.03325462341308594,0.08864116668701172,-0.0843125581741333
1750065404270178600,9.885178466796875,-0.3329811096191406,0.11764144897460938,-0.06182074546813965
1750065404294135000,9.909135009765626,0.002285480499267578,0.07039260864257812,-0.012958556413650513
1750065404310156800,9.92515673828125,1.0918784141540527,0.2792816162109375,-0.34795522689819336
1750065404326117400,9.941117431640626,0.8007717132568359,-0.03332662582397461,0.019408226013183594
1750065404342108700,9.957108642578126,0.12158489227294922,0.020427703857421875,0.1313561201095581
1750065404358099700,9.973099609375,-0.6125779151916504,0.1712021827697754,0.1568652093410492
1750065404374091000,9.989091064453126,-0.687347412109375,0.1930088996887207,0.0027197301387786865
1750065404390082300,10.005082275390626,-0.1732940673828125,0.15050458908081055,-0.16201549768447876
1750065404406043000,10.02104296875,0.24931907653808594,0.06320714950561523,-0.0671403706073761
1750065404422064600,10.037064697265626,0.2758936882019043,0.0317082405090332,0.13523298501968384
1750065404438056000,10.053055908203126,-0.15152931213378906,0.0055599212646484375,0.22168195247650146
1750065404454047000,10.069046875,-1.0197415351867676,0.27097320556640625,-0.23477961122989655
1750065404470038300,10.085038330078126,-0.2049860954284668,0.2125544548034668,-0.19243134558200836
1750065404486029600,10.101029541015626,0.8447566032409668,0.05409955978393555,-0.18343067169189453
1750065404501990100,10.116990234375,1.3823957443237305,-0.09779644012451172,0.22272232174873352
1750065404518012000,10.133011962890626,0.5635757446289062,-0.00940847396850586,0.16842395067214966
1750065404533972700,10.14897265625,-0.17505693435668945,0.15521764755249023,0.027336061000823975
1750065404549963800,10.1649638671875,-0.11730051040649414,0.3133859634399414,-0.34260430932044983
1750065404565985500,10.180985595703126,0.04358625411987305,0.19278240203857422,-0.23007839918136597
1750065404581946400,10.1969462890625,-0.05807209014892578,-0.022504806518554688,0.24274203181266785
1750065404597876500,10.21287646484375,-0.30019712448120117,0.02321481704711914,0.23840239644050598
1750065404613867800,10.22886767578125,-0.06712865829467773,0.04328203201293945,0.2535887360572815
1750065404629858800,10.24485888671875,-0.327176570892334,0.21660804748535156,-0.11586758494377136
1750065404645880600,10.260880615234376,0.5670857429504395,0.21152687072753906,-0.2116575390100479
1750065404661871900,10.276871826171876,1.1240544319152832,-0.2970695495605469,0.15185236930847168
1750065404677832400,10.29283251953125,0.6670465469360352,0.0716099739074707,0.2742830812931061
1750065404693793300,10.308793212890626,0.12613821029663086,-0.03276872634887695,0.20706018805503845
1750065404709815000,10.32481494140625,-0.5269207954406738,0.13727045059204102,-0.09390705823898315
1750065404725775600,10.340775634765626,-0.08853292465209961,0.5128231048583984,-0.26332566142082214
1750065404741767000,10.356766845703126,-0.5255894660949707,0.3227100372314453,0.30291876196861267
1750065404757727500,10.3727275390625,-0.48099851608276367,-0.08551931381225586,0.17143291234970093
1750065404773688300,10.388688232421876,-0.31698036193847656,-0.11537551879882812,-0.023073315620422363
1750065404789679400,10.404679443359376,-0.038640499114990234,0.10052108764648438,-0.1164160668849945
1750065404805640200,10.42064013671875,0.21591854095458984,0.14090538024902344,-0.46985265612602234
1750065404821570300,10.4365703125,0.46725034713745117,0.22534847259521484,-0.41108086705207825
1750065404837561600,10.4525615234375,0.5906915664672852,0.13976383209228516,0.03985840082168579
1750065404853552600,10.468552734375,0.12106800079345703,0.007580757141113281,0.2968878746032715
1750065404869544000,10.4845439453125,-1.2970662117004395,0.38370704650878906,-0.12429162859916687
1750065404885474000,10.50047412109375,-0.17348814010620117,0.06829547882080078,-0.8983827829360962
1750065404901465300,10.51646533203125,1.4653115272521973,0.11385059356689453,-0.24804189801216125
1750065404917426000,10.532426025390626,1.8629307746887207,0.2250499725341797,0.1516907513141632
1750065404933417200,10.548417236328126,0.3696584701538086,0.10325813293457031,0.4753694534301758
1750065404949408500,10.564408447265626,-0.3647489547729492,0.10010528564453125,-0.3523904085159302
1750065404965430300,10.58043017578125,-0.745755672454834,0.2941732406616211,-0.16157807409763336
1750065404981390800,10.596390869140626,-0.46771812438964844,0.2093486785888672,-0.12480276823043823
1750065404997382100,10.612382080078126,-0.08485794067382812,0.05674934387207031,-0.08063647150993347
1750065405013373200,10.628373291015626,-0.17208242416381836,-0.02327442169189453,0.229234516620636
1750065405029364500,10.644364501953126,-0.26282215118408203,-0.015280723571777344,0.29936298727989197
1750065405045386200,10.66038623046875,-0.2131333351135254,0.03837108612060547,0.1114974319934845
1750065405061316400,10.67631640625,-0.034044742584228516,0.024567604064941406,-0.029191583395004272
1750065405077307600,10.6923076171875,0.1983489990234375,-0.017820358276367188,-0.03853499889373779
1750065405093329400,10.708329345703126,0.11962175369262695,0.0044269561767578125,0.05695345997810364
1750065405109320400,10.724320556640626,0.12993526458740234,0.04787158966064453,0.060457855463027954
1750065405125311700,10.740311767578126,0.08250617980957031,0.04594707489013672,-0.03472110629081726
1750065405141333500,10.75633349609375,0.15378379821777344,0.07582473754882812,-0.06942752003669739
1750065405157324800,10.77232470703125,0.3915529251098633,0.14232444763183594,-0.026010870933532715
1750065405181311500,10.7963115234375,0.8768973350524902,0.15291309356689453,-0.2121720165014267
1750065405197272000,10.81227197265625,0.9255518913269043,0.057211875915527344,-0.2503049969673157
1750065405213233000,10.82823291015625,0.5777707099914551,-0.0038557052612304688,-0.06503698229789734
1750065405229254700,10.844254638671876,0.11353588104248047,0.0039196014404296875,0.04237094521522522
1750065405245215200,10.86021533203125,-0.2016134262084961,0.030305862426757812,-0.014162689447402954
1750065405261176000,10.876176025390626,-0.3598947525024414,0.07824993133544922,0.06143960356712341
1750065405277167000,10.8921669921875,-0.4945707321166992,0.11853218078613281,0.11041691899299622
1750065405293128000,10.9081279296875,-0.46293210983276367,0.0886220932006836,0.11188912391662598
1750065405309119200,10.924119140625,-0.336031436920166,0.05974388122558594,-0.02149096131324768
1750065405325049300,10.94004931640625,-0.07389307022094727,0.07554149627685547,-0.09449753165245056
1750065405340979500,10.9559794921875,0.1989612579345703,0.0668020248413086,-0.12310287356376648
1750065405356970800,10.971970703125,0.36394596099853516,0.06951045989990234,-0.09179067611694336
1750065405372931300,10.987931396484376,0.2696552276611328,0.08312225341796875,-0.028335899114608765
1750065405388892200,11.00389208984375,-0.15435361862182617,0.096954345703125,0.06311243772506714
1750065405404883200,11.01988330078125,-0.5295958518981934,-0.076751708984375,0.044159501791000366
1750065405420905000,11.035905029296876,-0.06134033203125,0.08874130249023438,-0.16663457453250885
1750065405436926700,11.0519267578125,0.6543946266174316,0.058327674865722656,-0.039084672927856445
1750065405452948500,11.067948486328126,1.3778014183044434,0.055825233459472656,0.11844882369041443
1750065405468878600,11.083878662109376,0.9690666198730469,0.15877723693847656,0.045827269554138184
1750065405484808700,11.09980859375,0.05392313003540039,-0.15986156463623047,-0.13536888360977173
1750065405500830500,11.11583056640625,-0.4262838363647461,0.06612586975097656,-0.17786793410778046
1750065405516760800,11.1317607421875,-0.5668392181396484,0.1206197738647461,0.03350195288658142
1750065405532721400,11.147721435546876,-0.2607417106628418,0.0747995376586914,-0.051172494888305664
1750065405548682000,11.163681884765625,0.04742431640625,0.03792381286621094,-0.04631483554840088
1750065405564673300,11.17967333984375,-0.0023450851440429688,0.028806686401367188,0.28293630480766296
1750065405580695000,11.195695068359376,-0.12470626831054688,0.11139106750488281,0.23977887630462646
1750065405596655600,11.211655517578125,-0.31937742233276367,0.1076059341430664,-0.036318033933639526
1750065405612677400,11.227677490234376,0.6455373764038086,-0.16902780532836914,0.06268605589866638
1750065405628668700,11.243668701171876,0.3834376335144043,0.03563976287841797,-0.69036865234375
1750065405644598800,11.259598876953126,1.4066557884216309,0.20572280883789062,-0.4158511161804199
1750065405660620500,11.27562060546875,0.984677791595459,0.07081794738769531,-0.08544738590717316
1750065405676611800,11.29161181640625,0.5069065093994141,-0.014850139617919922,0.13162997364997864
1750065405692603000,11.307602783203125,-0.5017213821411133,-0.00739288330078125,0.4836168885231018
1750065405708563700,11.323563720703126,-0.9975004196166992,-0.04654073715209961,0.0618000328540802
1750065405724585500,11.33958544921875,-0.9525542259216309,0.051178932189941406,-0.3514852523803711
1750065405740546000,11.355546142578126,-0.4727897644042969,0.037390708923339844,-0.09395736455917358
1750065405756537300,11.371537353515626,0.9259672164916992,0.017475128173828125,-0.2782478630542755
1750065405772528600,11.387528564453126,1.357429027557373,-0.3673419952392578,-0.04855109751224518
1750065405788519700,11.403519775390626,0.968193531036377,-0.32868528366088867,0.17977768182754517
1750065405804541400,11.41954150390625,0.11420345306396484,-0.11444520950317383,0.2114095687866211
1750065405820502300,11.435502197265626,-0.1227564811706543,0.11346817016601562,-0.19759902358055115
1750065405836432400,11.451432373046876,-0.32912683486938477,0.2572464942932129,-0.47601038217544556
1750065405852423700,11.467423583984376,1.3640236854553223,0.1328134536743164,-0.6905656456947327
1750065405868384300,11.48338427734375,1.9180960655212402,-0.11445999145507812,-0.008295238018035889
1750065405884344800,11.4993447265625,0.721491813659668,-0.17686796188354492,0.6338205337524414
1750065405900336000,11.515336181640626,-0.3389158248901367,0.10551166534423828,0.03985714912414551
1750065405916297000,11.531296875,-0.4687032699584961,0.1118783950805664,-0.36527812480926514
1750065405932318500,11.547318359375,0.3290281295776367,0.03972005844116211,-0.32713907957077026
1750065405948248800,11.563248779296876,0.6371512413024902,-0.19712591171264648,0.05793759226799011
1750065405964209400,11.57920947265625,0.4259219169616699,-0.08172130584716797,0.034615665674209595
1750065405980109000,11.595109130859376,-0.06418418884277344,0.05517864227294922,0.04452434182167053
1750065405996130800,11.611130859375,-0.7163896560668945,0.009859561920166016,0.17352458834648132
1750065406012030500,11.627030517578126,-0.16778993606567383,0.18058109283447266,-0.12061769515275955
1750065406028021800,11.643021728515626,0.7071013450622559,0.09250307083129883,-0.03673136234283447
1750065406044043500,11.65904345703125,0.7256383895874023,0.3844304084777832,-0.2645089626312256
1750065406059973600,11.6749736328125,-0.18645286560058594,-0.2057323455810547,0.25063204765319824
1750065406075965000,11.69096484375,-0.1416788101196289,0.1060185432434082,-0.12614311277866364
1750065406091925500,11.706925537109376,0.022713661193847656,0.23488712310791016,0.05819062888622284
1750065406107886000,11.722885986328125,0.011334896087646484,0.0958089828491211,0.02345028519630432
1750065406123907800,11.738907958984376,-0.2002854347229004,0.07563304901123047,-0.02248319983482361
1750065406139838200,11.754838134765626,-0.24470233917236328,0.06043672561645508,-0.04089584946632385
1750065406155829200,11.770829345703126,-0.3015918731689453,-0.08908700942993164,0.13130319118499756
1750065406171820500,11.786820556640626,-0.059337615966796875,0.1665177345275879,-0.15194091200828552
1750065406187811800,11.802811767578126,0.27846717834472656,0.13720273971557617,-0.026943251490592957
1750065406203772400,11.8187724609375,0.7607636451721191,0.03818082809448242,0.12010857462882996
1750065406219794200,11.834794189453126,0.36204957962036133,0.06673192977905273,0.1439100205898285
1750065406235754800,11.850754638671875,0.21556901931762695,0.1679821014404297,-0.30373722314834595
1750065406251715600,11.866715576171876,0.38530969619750977,0.13040781021118164,-0.18301278352737427
1750065406267737300,11.8827373046875,0.5022211074829102,0.16725683212280273,-0.21350546181201935
1750065406283698000,11.898697998046876,0.3564877510070801,0.04626893997192383,-0.16271698474884033
1750065406299658800,11.91465869140625,-0.01468515396118164,0.05684518814086914,0.20881178975105286
1750065406315619300,11.930619384765626,-0.40319108963012695,0.12408685684204102,0.23050391674041748
1750065406331580200,11.946580078125,-0.9096775054931641,0.11921405792236328,0.140032559633255
1750065406347510300,11.96251025390625,-0.07520151138305664,-0.19903326034545898,0.517486572265625
1750065406363470800,11.978470947265626,-0.8004136085510254,0.07641315460205078,-0.11442330479621887
1750065406379431700,11.994431640625,0.6097812652587891,0.1223750114440918,-0.17995938658714294
1750065406395392300,12.010392333984376,1.0382938385009766,0.058365821838378906,-0.029064878821372986
1750065406411322400,12.026322265625,0.8296394348144531,0.047852516174316406,0.1048198938369751
1750065406427344100,12.04234423828125,0.4218173027038574,0.0870060920715332,0.07884906232357025
1750065406443305000,12.058304931640626,-1.3851838111877441,-0.030419349670410156,0.23212072253227234
1750065406459265500,12.074265625,-0.5984897613525391,0.28354549407958984,0.3424757719039917
1750065406483283000,12.098282958984376,0.08490180969238281,0.11999368667602539,-0.5340487957000732
1750065406499274200,12.114274169921876,0.8851947784423828,0.1032266616821289,-0.2651703953742981
1750065406515204400,12.130204345703126,1.184591293334961,0.08524370193481445,-0.00019375979900360107
1750065406531226000,12.14622607421875,0.4171428680419922,-0.06218767166137695,0.11746597290039062
1750065406547217200,12.162217041015625,-0.5650391578674316,0.028759002685546875,0.11493301391601562
1750065406563208400,12.17820849609375,-0.4772372245788574,0.27568912506103516,0.14143477380275726
1750065406579199700,12.19419970703125,0.03709220886230469,0.1993098258972168,-0.024389609694480896
1750065406595190800,12.210190673828125,0.3200392723083496,0.06298637390136719,-0.06281352043151855
1750065406611182000,12.22618212890625,0.003406047821044922,0.09511566162109375,-0.036863163113594055
1750065406627143000,12.242142822265626,0.42884302139282227,-0.2695026397705078,-0.355488121509552
1750065406643134000,12.258134033203126,-0.8380975723266602,0.38211488723754883,0.09741321206092834
1750065406659155700,12.27415576171875,0.1177663803100586,0.13811063766479492,0.26858577132225037
1750065406675147000,12.29014697265625,0.6822810173034668,0.05846261978149414,-0.04234546422958374
1750065406691138000,12.306137939453125,1.2060275077819824,0.08312797546386719,-0.011371791362762451
1750065406707099000,12.322098876953126,1.3836860656738281,0.008054733276367188,-0.6100853681564331
1750065406723090200,12.338090087890626,0.08810567855834961,0.13871002197265625,-0.32793861627578735
1750065406739111700,12.354111572265625,-0.2905302047729492,0.1544499397277832,0.2813573479652405
1750065406755133400,12.370133544921876,-0.081298828125,0.12195825576782227,0.21484476327896118
1750065406771094300,12.38609423828125,0.3067140579223633,0.08638477325439453,-0.006283357739448547
1750065406787116000,12.402115966796876,0.7120757102966309,0.028951168060302734,-0.1040530800819397
1750065406803107000,12.418107177734376,0.5983262062072754,0.11831188201904297,-0.04816727340221405
1750065406819006700,12.4340068359375,-0.17198419570922852,0.15848207473754883,-0.252021849155426
1750065406834998000,12.449998046875,-1.5990428924560547,0.09500741958618164,0.11094197630882263
1750065406851019800,12.466019775390626,-1.3548212051391602,0.3320279121398926,-0.12064847350120544
1750065406866980400,12.48198046875,-1.5621657371520996,0.035803794860839844,1.1056008338928223
1750065406882880000,12.4978798828125,-0.4347720146179199,0.05831432342529297,0.22133183479309082
1750065406898823000,12.513822998046875,0.16686630249023438,0.13310003280639648,-0.12313875555992126
1750065406914783700,12.52978369140625,0.765190601348877,0.20546865463256836,-0.26976102590560913
1750065406930713900,12.5457138671875,0.4501814842224121,0.3192324638366699,0.23291999101638794
1750065406946705200,12.561705078125,-0.5809521675109863,0.07965612411499023,-0.004386007785797119
1750065406962665700,12.577665771484375,-0.4626784324645996,0.1562652587890625,0.26525843143463135
1750065406978626600,12.59362646484375,0.5639948844909668,0.16834783554077148,0.14245885610580444
1750065406994587100,12.609587158203125,1.2033982276916504,0.0932455062866211,-0.0827721655368805
1750065407010548000,12.6255478515625,0.45359086990356445,0.13356304168701172,-0.4084843099117279
1750065407026508500,12.641508544921875,-0.4936532974243164,0.23026418685913086,-0.24756011366844177
1750065407042469000,12.65746923828125,-0.9544863700866699,0.2222304344177246,0.0993262231349945
1750065407058430000,12.673429931640625,-0.979529857635498,0.26406288146972656,0.3129673898220062
1750065407074421200,12.689421142578125,-0.24796724319458008,0.12272453308105469,0.03488752245903015
1750065407090442800,12.70544287109375,0.24443769454956055,0.022321224212646484,-0.17512449622154236
1750065407106434000,12.72143408203125,0.5493559837341309,0.046370506286621094,-0.1868637502193451
1750065407122425300,12.73742529296875,0.2616910934448242,0.0494847297668457,-0.4585469663143158
1750065407138355500,12.75335546875,0.7620463371276855,0.10713577270507812,-0.00865057110786438
1750065407154346800,12.7693466796875,0.5292396545410156,0.22126007080078125,0.024866849184036255
1750065407170337800,12.785337890625,-0.09479188919067383,0.10042905807495117,0.36086153984069824
1750065407186298600,12.801298583984375,-0.5129537582397461,0.13289594650268555,-0.021595120429992676
1750065407202290000,12.8172900390625,-0.4349246025085449,0.15466022491455078,-0.27029237151145935
1750065407218281000,12.833281005859375,0.02436351776123047,0.033333778381347656,-0.11996637284755707
1750065407234272300,12.849272216796875,-0.0773930549621582,-0.023227214813232422,0.207408607006073
1750065407250263600,12.865263671875,-0.15374994277954102,0.006422519683837891,0.24782323837280273
1750065407266254600,12.881254638671875,-0.47002744674682617,0.12783432006835938,0.1940380334854126
1750065407282215400,12.89721533203125,-0.01588582992553711,0.11048030853271484,0.0883636474609375
1750065407298237200,12.9132373046875,0.3856678009033203,0.10898447036743164,-0.25019514560699463
1750065407314228200,12.929228271484375,0.8274312019348145,0.06429862976074219,-0.17771178483963013
1750065407330219500,12.945219482421875,0.7683887481689453,0.4883613586425781,-0.2833497226238251
1750065407346210800,12.9612109375,0.11477947235107422,-0.12047386169433594,-0.03894217312335968
1750065407362201900,12.977201904296875,0.004806041717529297,0.0834040641784668,-0.27868881821632385
1750065407378223600,12.9932236328125,0.20008230209350586,0.18539190292358398,-0.1577092409133911
1750065407394184400,13.009184326171875,0.26511383056640625,0.13266277313232422,-0.05030931532382965
1750065407410175500,13.025175537109375,0.1960906982421875,0.10700654983520508,0.0006729662418365479
1750065407426166800,13.041166748046875,0.6624507904052734,-0.21415996551513672,0.3183632791042328
1750065407442127400,13.05712744140625,-0.2666764259338379,0.21082067489624023,0.006832212209701538
1750065407458088200,13.073088134765625,0.08561086654663086,0.2882862091064453,-0.07339295744895935
1750065407474018300,13.089018310546875,0.5416617393493652,0.2174396514892578,-0.08800092339515686
1750065407490009600,13.105009521484375,1.0812163352966309,0.12161779403686523,0.1077418327331543
1750065407506000600,13.121000732421875,0.7217721939086914,0.12622547149658203,0.05472034215927124
1750065407521961500,13.13696142578125,-0.9208111763000488,-0.15912723541259766,0.10739779472351074
1750065407537952800,13.152952880859376,-0.8026671409606934,0.1491680145263672,-0.14819279313087463
1750065407553943800,13.16894384765625,-0.7746138572692871,0.17847871780395508,-0.1394677311182022
1750065407569965600,13.184965576171875,-0.3783745765686035,0.1881403923034668,-0.06882593035697937
1750065407585926400,13.200926513671876,0.010558605194091797,0.1034250259399414,0.02523660659790039
1750065407601887000,13.216886962890625,0.08131885528564453,0.07758426666259766,0.21816259622573853
1750065407625873700,13.240873779296875,-0.17728853225708008,0.1662287712097168,0.1202210783958435
1750065407641865000,13.256864990234375,0.010414600372314453,0.06808090209960938,-0.2032376229763031
1750065407657886700,13.27288671875,0.5079288482666016,0.10314798355102539,-0.3297649025917053
1750065407673878000,13.2888779296875,1.3196930885314941,0.08020257949829102,-0.06760260462760925
1750065407689899800,13.304899658203125,0.8678455352783203,-0.41750574111938477,0.5668472051620483
1750065407705860400,13.3208603515625,-0.3328828811645508,0.10115385055541992,0.3001658320426941
1750065407721821000,13.336821044921875,-0.9036545753479004,0.35097503662109375,-0.1288021057844162
1750065407737751300,13.352751220703125,-1.0147943496704102,0.3573179244995117,0.05961179733276367
1750065407753681400,13.368681396484375,-0.48433780670166016,0.27704811096191406,0.2665409743785858
1750065407769642000,13.38464208984375,0.23115968704223633,0.1743483543395996,0.026821225881576538
1750065407785633300,13.40063330078125,0.7921934127807617,0.13164138793945312,0.015419691801071167
1750065407801655000,13.416655029296875,0.4639730453491211,0.15068340301513672,-0.15368206799030304
1750065407817615600,13.43261572265625,0.022789955139160156,0.13943910598754883,-0.17202997207641602
1750065407833607000,13.44860693359375,-0.16823244094848633,0.13357019424438477,-0.07380513846874237
1750065407849598200,13.46459814453125,0.06296062469482422,0.09255027770996094,-0.08371332287788391
1750065407865589200,13.48058935546875,0.2675919532775879,0.1612839698791504,-0.32006314396858215
1750065407881550000,13.496550048828125,0.04325675964355469,0.22304344177246094,-0.3346308171749115
1750065407897480200,13.512480224609375,-0.3504047393798828,0.28052186965942383,-0.12322452664375305
1750065407913441000,13.52844091796875,-0.5392999649047852,0.24827337265014648,0.05770260840654373
1750065407929401600,13.544401611328125,-0.6627702713012695,0.16614723205566406,0.13959668576717377
1750065407945423400,13.56042333984375,-0.5774836540222168,0.06041145324707031,0.10800591856241226
1750065407961475600,13.5764755859375,-0.2656993865966797,0.009194374084472656,-0.04345627874135971
1750065407977405700,13.59240576171875,0.30010366439819336,-0.09492111206054688,-0.14105623960494995
1750065407993397000,13.60839697265625,0.5893759727478027,-0.3417644500732422,-0.03599076718091965
1750065408009388300,13.62438818359375,0.504054069519043,-0.3474769592285156,0.12464030086994171
1750065408025379300,13.64037939453125,0.16146087646484375,-0.1595745086669922,0.331554114818573
1750065408041340200,13.656340087890625,0.014773368835449219,-0.035871028900146484,0.29108524322509766
1750065408057362000,13.67236181640625,0.07248544692993164,0.09019184112548828,0.0029220283031463623
1750065408073322500,13.688322509765625,0.2162795066833496,0.2868809700012207,-0.3866209089756012
1750065408089283300,13.704283447265626,0.08538103103637695,0.15160465240478516,-0.14642441272735596
1750065408105274400,13.7202744140625,-0.15653610229492188,-0.07110261917114258,0.27026134729385376
1750065408121265700,13.736265625,-0.0362248420715332,0.09025001525878906,-0.10042400658130646
1750065408137195800,13.75219580078125,0.5574793815612793,0.27534961700439453,-0.4583923816680908
1750065408153187000,13.76818701171875,0.2740926742553711,0.2351541519165039,0.22461122274398804
1750065408169178000,13.78417822265625,-1.7145142555236816,0.7590703964233398,-0.6905134320259094
1750065408185139000,13.800138916015625,-0.8765826225280762,0.4288644790649414,-0.6848296523094177
1750065408201160700,13.81616064453125,1.0245790481567383,0.07000160217285156,0.07700498402118683
1750065408217182500,13.832182373046875,2.0763063430786133,0.4116659164428711,-0.32728099822998047
1750065408233112600,13.848112548828125,1.535447597503662,0.42003345489501953,-0.7997652292251587
1750065408249104000,13.864103759765625,-0.4981503486633301,0.20116424560546875,-0.19086620211601257
1750065408265095000,13.880094970703125,-1.342240333557129,0.03871631622314453,-0.2939937710762024
1750065408281055700,13.8960556640625,-1.352196216583252,0.2800569534301758,-0.044001348316669464
1750065408297046800,13.912046875,-0.7801961898803711,0.17208194732666016,0.07479725778102875
1750065408321033700,13.93603369140625,-0.03463029861450195,-0.06210041046142578,0.06985963881015778
1750065408337025000,13.95202490234375,0.2297968864440918,0.019484519958496094,0.029109343886375427
1750065408352924700,13.967924560546875,0.2093038558959961,0.032431602478027344,0.12915274500846863
1750065408368915700,13.983915771484375,-0.04767179489135742,0.052654266357421875,0.12307591736316681
1750065408384907000,13.999906982421875,0.0786447525024414,0.11557960510253906,0.005536079406738281
1750065408400867600,14.01586767578125,0.008246898651123047,0.032378196716308594,-0.17113886773586273
1750065408416859000,14.03185888671875,0.29143857955932617,0.08718013763427734,-0.06713591516017914
1750065408432819700,14.04781982421875,0.5432376861572266,0.00534820556640625,0.03369323909282684
1750065408448780300,14.0637802734375,0.5455279350280762,-0.06752967834472656,0.16419951617717743
1750065408464771600,14.079771484375,0.3736886978149414,0.014807701110839844,0.2041357159614563
1750065408480762600,14.0957626953125,0.3110642433166504,0.10398483276367188,0.14341536164283752
1750065408496723500,14.111723388671875,0.23566102981567383,0.0992889404296875,0.04013240337371826
1750065408512684000,14.12768408203125,0.2014942169189453,0.1475358009338379,-0.11637457460165024
1750065408528675300,14.14367529296875,0.1718435287475586,0.17752695083618164,-0.20857852697372437
1750065408544697000,14.159697021484375,-0.11451435089111328,0.17512750625610352,-0.1762986034154892
1750065408560657700,14.17565771484375,-0.7616791725158691,0.24170684814453125,0.009400635957717896
1750065408576587800,14.191587890625,-0.27840662002563477,0.12786579132080078,-0.0773090124130249
1750065408592548600,14.207548583984375,0.06784725189208984,0.04489612579345703,-0.07963826507329941
1750065408608478700,14.223478759765625,0.26426172256469727,0.0029201507568359375,-0.07596292346715927
1750065408624470000,14.239469970703125,0.6291389465332031,0.044040679931640625,-0.11992226541042328
1750065408640461300,14.25546142578125,0.17170000076293945,0.0712733268737793,-0.25270795822143555
1750065408656391400,14.271391357421875,-0.6313438415527344,-0.0702662467956543,0.29600727558135986
1750065408672382500,14.287382568359375,-0.5341591835021973,0.152557373046875,-0.15892179310321808
1750065408688343300,14.30334326171875,0.608184814453125,0.19733381271362305,-0.5390936732292175
1750065408704334600,14.31933447265625,1.5404601097106934,0.26218700408935547,-0.6528960466384888
1750065408720325600,14.33532568359375,1.4821739196777344,0.21298646926879883,-0.340063214302063
1750065408736317000,14.35131689453125,1.0767631530761719,-0.07173538208007812,-0.016931921243667603
1750065408752247000,14.3672470703125,1.1016206741333008,0.0720357894897461,0.06356602907180786
1750065408768238300,14.38323828125,0.19226312637329102,0.1371908187866211,-0.01252835988998413
1750065408784229400,14.3992294921875,-0.5017542839050293,0.042756080627441406,-0.08246241509914398
1750065408800251100,14.415251220703125,-0.7171149253845215,-0.001880645751953125,-0.06970369815826416
1750065408816212000,14.4312119140625,-0.6836986541748047,0.01622295379638672,0.1372087299823761
1750065408832203000,14.447203125,-0.810490608215332,0.008805274963378906,0.22520750761032104
1750065408848224800,14.463224853515625,-1.0314807891845703,0.03323841094970703,0.3433115780353546
1750065408864216000,14.479216064453125,-1.3343391418457031,0.08991146087646484,0.8899335265159607
1750065408880176600,14.4951767578125,-0.0838780403137207,0.17159271240234375,0.2583552896976471
1750065408896137500,14.511137451171875,0.3051033020019531,0.058624267578125,-0.0007558166980743408
1750065408912067600,14.527067626953125,0.5288162231445312,-0.0015974044799804688,-0.12822681665420532
1750065408928059000,14.543058837890625,0.42365026473999023,0.043908119201660156,0.04748260974884033
1750065408944050200,14.55905029296875,-0.21149158477783203,0.036952972412109375,0.013402193784713745
1750065408960010800,14.5750107421875,-1.1480202674865723,0.15197086334228516,-0.09283119440078735
1750065408976002000,14.591001953125,0.16611623764038086,-0.0634317398071289,0.012851804494857788
1750065408991993000,14.6069931640625,1.5220952033996582,-0.011930465698242188,0.13980010151863098
1750065409007984400,14.622984375,1.7958722114562988,0.42920684814453125,-0.14485478401184082
1750065409023914500,14.63891455078125,0.5125408172607422,0.1517181396484375,-0.430488646030426
1750065409039814100,14.654814208984375,-0.7664937973022461,0.15589523315429688,-0.001960158348083496
1750065409063801000,14.678801025390625,-1.3041110038757324,0.26946258544921875,0.1942165493965149
1750065409079700700,14.69470068359375,-0.4493832588195801,0.26369380950927734,-0.2642988860607147
1750065409095722500,14.710722412109375,-0.4024472236633301,0.13476943969726562,-0.12335020303726196
1750065409111683000,14.72668310546875,-0.06659936904907227,0.3047142028808594,0.037968575954437256
1750065409127613200,14.74261328125,-0.667719841003418,0.2856607437133789,0.5746299028396606
1750065409143574000,14.758573974609375,-0.5570926666259766,0.32866668701171875,-0.039719223976135254
1750065409159534600,14.77453466796875,0.4902019500732422,0.2560701370239258,-0.34606868028640747
1750065409175465000,14.79046484375,1.1683688163757324,0.10674667358398438,0.08832705020904541
1750065409191395000,14.80639501953125,0.7823376655578613,0.0010395050048828125,0.13531208038330078
1750065409207386000,14.82238623046875,-0.975151538848877,0.22244548797607422,0.3713439702987671
1750065409223377400,14.83837744140625,-1.5072588920593262,0.1600942611694336,-0.241847962141037
1750065409239338200,14.854338134765625,-0.8726434707641602,0.29451560974121094,-0.14353203773498535
1750065409255329300,14.870329345703125,0.19625568389892578,0.1477985382080078,0.08815836906433105
1750065409271259600,14.886259765625,0.5767664909362793,-0.08245086669921875,0.16053348779678345
1750065409287250700,14.902250732421875,0.17809438705444336,-0.05865621566772461,0.04710274934768677
1750065409303242000,14.918241943359375,-0.2654261589050293,0.14695024490356445,0.0825175940990448
1750065409319263700,14.934263671875,-1.0122261047363281,0.5204834938049316,-0.29873716831207275
1750065409335224300,14.950224365234375,0.8400044441223145,0.27709150314331055,-0.37710994482040405
1750065409351215600,14.966215576171875,1.74224853515625,0.2694854736328125,-0.12298387289047241
1750065409367207000,14.98220703125,0.5329389572143555,0.03946208953857422,0.5080584287643433
1750065409383137000,14.998136962890625,-0.861271858215332,0.23329687118530273,0.18335795402526855
1750065409399097600,15.01409765625,-0.8857240676879883,0.32872486114501953,-0.4514671862125397
1750065409415089000,15.0300888671875,-0.6019339561462402,0.2605252265930176,-0.20007450878620148
1750065409431049500,15.046049560546875,-0.4064617156982422,0.09696149826049805,0.14173802733421326
1750065409447010300,15.06201025390625,-0.26327085494995117,0.11115217208862305,0.0961368978023529
1750065409463032000,15.078031982421875,-0.4474363327026367,0.2054133415222168,0.04720604419708252
1750065409479023000,15.094023193359375,-0.7760982513427734,0.108123779296875,0.11305150389671326
1750065409495044900,15.110044921875,0.14540433883666992,-0.2023324966430664,-0.13749921321868896
1750065409511066600,15.126066650390625,1.739567756652832,0.013397216796875,-0.39091479778289795
1750065409527058000,15.142057861328125,1.4600005149841309,-0.020678043365478516,0.23363593220710754
1750065409543018500,15.1580185546875,0.6122136116027832,-0.09804201126098633,-0.06206163763999939
1750065409558948900,15.173948974609376,0.20042705535888672,0.10041522979736328,-0.2797752320766449
1750065409574970400,15.189970458984375,0.22164487838745117,0.16547775268554688,-0.410022497177124
1750065409590961700,15.205961669921875,-0.1813211441040039,0.011694908142089844,0.11740782856941223
1750065409606953000,15.221952880859375,-0.68096923828125,-0.4067215919494629,0.872412919998169
1750065409622913500,15.23791357421875,-1.2671518325805664,0.21529865264892578,0.1902681291103363
1750065409638935300,15.253935302734375,-0.04107522964477539,0.0581512451171875,-0.21373635530471802
1750065409654926600,15.269926513671875,1.0362801551818848,-0.10157251358032227,-0.2646980285644531
1750065409670887200,15.28588720703125,1.0496277809143066,-0.1664581298828125,0.12008079886436462
1750065409686848000,15.301847900390625,0.7812790870666504,-0.15891408920288086,-0.09270381927490234
1750065409702808600,15.31780859375,0.25421571731567383,-0.0504002571105957,-0.10762390494346619
1750065409718800000,15.3337998046875,0.2662806510925293,0.12155723571777344,-0.38883334398269653
1750065409734821600,15.349821533203125,0.27915239334106445,0.0006914138793945312,-0.1312866508960724
1750065409750782200,15.3657822265625,-0.1051630973815918,-0.05146646499633789,0.14849382638931274
1750065409766773500,15.3817734375,0.09741401672363281,0.034456729888916016,-0.025610297918319702
1750065409782764500,15.3977646484375,0.4734206199645996,0.08386707305908203,0.10895511507987976
1750065409798755800,15.413755859375,0.4898681640625,0.06207275390625,0.01991206407546997
1750065409814686000,15.42968603515625,0.37961816787719727,0.1371135711669922,-0.11328449845314026
1750065409830677200,15.44567724609375,0.8692898750305176,0.32379961013793945,-0.21202991902828217
1750065409846668500,15.46166845703125,0.40003156661987305,0.1967625617980957,0.137830913066864
1750065409862659600,15.47765966796875,-0.41283321380615234,0.060779571533203125,0.24286076426506042
1750065409878651000,15.49365087890625,-0.8893203735351562,0.10568475723266602,-0.07531577348709106
1750065409894581000,15.5095810546875,-0.7607455253601074,0.11028194427490234,-0.19691786170005798
1750065409910572300,15.525572265625,-0.47008275985717773,0.04658985137939453,0.03992733359336853
1750065409926532900,15.541532958984375,-0.1501011848449707,0.0809030532836914,0.07325789332389832
1750065409942554600,15.5575546875,0.09375143051147461,0.09097003936767578,0.05814892053604126
1750065409958515500,15.573515380859375,0.2861900329589844,0.07057571411132812,0.03382885456085205
1750065409974445600,15.589445556640625,0.33667993545532227,0.022675514221191406,0.03572848439216614
1750065409990436900,15.605436767578125,0.29539918899536133,0.049590110778808594,-0.0635419487953186
1750065410006458600,15.621458740234376,0.24808645248413086,0.02630901336669922,-0.1036035418510437
1750065410022449700,15.63744970703125,0.2189807891845703,0.07313346862792969,-0.025973856449127197
1750065410038441000,15.65344091796875,0.23697328567504883,0.09512996673583984,0.049558818340301514
1750065410054432300,15.669432373046876,0.13809442520141602,0.13264989852905273,0.016255855560302734
1750065410070453800,15.685453857421875,0.020493507385253906,0.1248779296875,0.07687345147132874
1750065410086445000,15.701445068359375,-0.11495399475097656,0.12168407440185547,0.024903953075408936
1750065410102436400,15.717436279296875,-0.18793869018554688,0.12717533111572266,0.03610849380493164
1750065410118427400,15.733427490234375,0.04485464096069336,0.09647178649902344,-0.028155744075775146
1750065410134418700,15.749418701171875,0.2382340431213379,0.1023721694946289,-0.10264560580253601
1750065410150410000,15.765409912109375,0.18340492248535156,0.11810111999511719,-0.09278872609138489
1750065410166431700,15.781431640625,0.4157233238220215,0.12289237976074219,-0.019811540842056274
1750065410190388000,15.805387939453125,0.30765247344970703,0.11913585662841797,0.024780333042144775
1750065410206379300,15.821379150390625,0.06804323196411133,0.08415889739990234,0.0608881413936615
1750065410222370300,15.837370361328125,-0.19221925735473633,0.12357139587402344,0.042068809270858765
1750065410238361600,15.853361572265625,-0.21931123733520508,0.12329769134521484,0.043675124645233154
1750065410254322200,15.869322265625,-0.07111310958862305,0.13792705535888672,0.003337293863296509
1750065410270344000,15.885343994140625,-0.10458660125732422,0.1492443084716797,0.022927135229110718
1750065410286304800,15.9013046875,0.008472442626953125,0.13556575775146484,0.008845657110214233
1750065410302295800,15.9172958984375,0.03426933288574219,0.12260627746582031,0.028812646865844727
1750065410318287000,15.933287109375,0.08825874328613281,0.10282230377197266,0.010926544666290283
1750065410334217200,15.94921728515625,0.12046337127685547,0.11194705963134766,0.038504958152770996
1750065410350239000,15.965239013671875,-0.014033317565917969,0.11814689636230469,0.053215205669403076
1750065410366169000,15.981169189453125,-0.1865692138671875,0.12647151947021484,0.02896779775619507
1750065410382160400,15.997160400390625,-0.23095226287841797,0.1306142807006836,0.04339396953582764
1750065410398151700,16.013151611328126,-0.12027120590209961,0.10789775848388672,0.02624189853668213
1750065410414142700,16.029142822265626,0.019240856170654297,0.1082601547241211,0.009324312210083008
1750065410430134000,16.045134033203126,0.011362552642822266,0.09519672393798828,0.010988295078277588
1750065410446125300,16.061125244140626,0.01561117172241211,0.09640789031982422,0.01719200611114502
1750065410462086000,16.0770859375,0.06654691696166992,0.09597110748291016,0.002765476703643799
1750065410478077200,16.0930771484375,0.1764664649963379,0.10811424255371094,-0.007266044616699219
1750065410494099000,16.109098876953126,0.2653617858886719,0.10561275482177734,-0.011248528957366943
1750065410510120700,16.12512060546875,0.0694570541381836,0.1206502914428711,0.05083048343658447
1750065410526081300,16.141081298828126,-0.09871292114257812,0.11788177490234375,-0.01701223850250244
1750065410542103000,16.15710302734375,-0.06723594665527344,0.10405349731445312,-0.014295399188995361
1750065410558063600,16.173063720703126,0.07941484451293945,0.07971382141113281,-0.0263863205909729
1750065410573963300,16.18896337890625,0.20178937911987305,0.10827445983886719,-0.11035022139549255
1750065410589954600,16.20495458984375,0.2182016372680664,0.09751319885253906,0.018467426300048828
1750065410605884700,16.220884765625,0.20062637329101562,0.1525735855102539,0.05762350559234619
1750065410621845500,16.236845458984376,0.1488795280456543,0.12266254425048828,0.025274813175201416
1750065410637867300,16.2528671875,-0.0008912086486816406,0.12450695037841797,0.03490877151489258
1750065410653797400,16.26879736328125,-0.14327716827392578,0.12137985229492188,0.040735602378845215
1750065410669819100,16.284819091796876,-0.17780017852783203,0.0813894271850586,-0.031372129917144775
1750065410685779700,16.30077978515625,-0.16977310180664062,0.07678794860839844,0.04382729530334473
1750065410701771000,16.31677099609375,-0.07867288589477539,0.08845710754394531,0.00896674394607544
1750065410717762300,16.33276220703125,-0.1709880828857422,0.06983375549316406,0.08147537708282471
1750065410733662000,16.348661865234376,-0.03862333297729492,0.09186458587646484,0.1204727292060852
1750065410749653000,16.364653076171876,0.14991140365600586,0.11670494079589844,0.09269273281097412
1750065410765644300,16.380644287109376,0.4293332099914551,0.17502212524414062,-0.29177454113960266
1750065410781635600,16.396635498046876,0.18078899383544922,0.19315052032470703,-0.31741565465927124
1750065410797626600,16.412626708984376,-0.11941242218017578,0.09941482543945312,0.14578083157539368
1750065410813648400,16.4286484375,-0.3341999053955078,0.04201316833496094,0.1271137297153473
1750065410829670100,16.444670166015626,-1.0552949905395508,0.1774730682373047,-0.1481281816959381
1750065410845661400,16.460661376953126,0.07593441009521484,-0.09056663513183594,0.18341165781021118
1750065410869648100,16.484648193359376,1.3630642890930176,0.13381195068359375,0.0549488365650177
1750065410885609000,16.50060888671875,0.9607100486755371,-0.010000228881835938,0.05527830123901367
1750065410901600000,16.51660009765625,0.21953296661376953,0.2115030288696289,-0.1388779878616333
1750065410917621800,16.532621826171876,-0.08983087539672852,0.21454524993896484,-0.10282266139984131
1750065410933582600,16.54858251953125,-0.37230825424194336,0.14965534210205078,-0.0593927800655365
1750065410949543200,16.564543212890626,-0.45681142807006836,0.05488014221191406,-0.1318712830543518
1750065410965534500,16.580534423828126,-0.2911248207092285,-0.03374958038330078,0.04213082790374756
1750065410981525800,16.59652587890625,0.10883665084838867,-0.026119232177734375,0.1360776126384735
1750065410997486300,16.612486328125,0.40901708602905273,0.0021686553955078125,0.24851679801940918
1750065411013508000,16.628508056640626,0.20886564254760742,0.22090530395507812,-0.03349196910858154
1750065411029499400,16.64449951171875,0.19608592987060547,0.00579071044921875,-0.2682417631149292
1750065411045490400,16.660490478515626,0.09750795364379883,0.05510711669921875,0.07859310507774353
1750065411061481700,16.676481689453126,0.0473790168762207,0.11468791961669922,-0.2303158938884735
1750065411077442300,16.6924423828125,-0.3349289894104004,0.07013225555419922,-0.049450576305389404
1750065411093433600,16.70843359375,-0.6023707389831543,0.06392860412597656,-0.19903269410133362
1750065411109394200,16.724394287109376,-0.7827467918395996,0.22843265533447266,-0.4874524772167206
1750065411125355000,16.74035498046875,0.7899994850158691,0.058452606201171875,-0.363819420337677
1750065411141315600,16.756315673828126,1.1753201484680176,0.5996742248535156,-0.6613224744796753
1750065411157307000,16.772306884765626,0.898745059967041,0.09546756744384766,-0.4423200488090515
1750065411173267700,16.788267822265624,0.2907834053039551,-0.035617828369140625,-0.40566617250442505
1750065411189258800,16.8042587890625,-0.1912975311279297,0.03280162811279297,-0.048669785261154175
1750065411205219600,16.820219482421876,-0.19503116607666016,0.10729694366455078,-0.004698619246482849
1750065411221180200,16.83618017578125,-0.1094813346862793,0.1407022476196289,-0.06677571684122086
1750065411237110300,16.8521103515625,-0.021537303924560547,0.09731006622314453,-0.050964102149009705
1750065411253040600,16.86804052734375,0.07993936538696289,0.0008296966552734375,0.02483019232749939
1750065411269031700,16.88403173828125,0.04227399826049805,-0.00025081634521484375,0.10055902600288391
1750065411285023000,16.90002294921875,0.20215225219726562,0.06654071807861328,-0.07583711296319962
1750065411301044700,16.916044677734376,0.33985376358032227,0.04678916931152344,-0.1855246126651764
1750065411317035800,16.932035888671876,0.2181529998779297,0.055622100830078125,-0.034828148782253265
1750065411332996600,16.94799658203125,-0.12081623077392578,0.0958852767944336,0.19469717144966125
1750065411348957200,16.963957275390626,-0.36612844467163086,0.12150859832763672,0.0765535905957222
1750065411364948500,16.979948486328126,-0.7239398956298828,0.14229488372802734,0.06891535222530365
1750065411380939800,16.995939697265626,-0.4871997833251953,0.0109405517578125,0.09575513005256653
1750065411396961500,17.01196142578125,0.27394723892211914,0.03967094421386719,-0.2945970594882965
1750065411412922000,17.027922119140626,1.0254292488098145,-0.11288261413574219,0.48610585927963257
1750065411428944000,17.04394384765625,1.9138989448547363,0.28450822830200195,-0.06228840351104736
1750065411444904400,17.059904541015626,1.5237112045288086,0.11718416213989258,-0.2514091432094574
1750065411460865300,17.075865234375,1.210339069366455,0.08236980438232422,-0.29968106746673584
1750065411476887000,17.091886962890626,0.1581401824951172,-0.014900684356689453,-0.002794012427330017
1750065411492847600,17.10784765625,-0.975426197052002,0.03497934341430664,0.06136251986026764
1750065411508839000,17.1238388671875,-2.1267459392547607,0.24190235137939453,0.04175180941820145
1750065411524738600,17.139738525390626,-1.2928886413574219,0.25034523010253906,0.3637266457080841
1750065411540699100,17.15569921875,-0.39881467819213867,0.1565995216369629,0.05928073823451996
1750065411556660000,17.171659912109376,0.8309755325317383,0.14462566375732422,-0.25352832674980164
1750065411572620500,17.18762060546875,1.0623478889465332,-0.19318866729736328,-0.2958548069000244
1750065411588611800,17.20361181640625,0.9048166275024414,-0.047602176666259766,0.07376381754875183
1750065411604572400,17.219572509765626,0.7110781669616699,0.18514108657836914,0.04265059530735016
1750065411620563700,17.235563720703126,0.2415332794189453,0.15508317947387695,-0.08218129724264145
1750065411644550700,17.259550537109376,0.14427852630615234,0.01675701141357422,-0.05988471210002899
1750065411660541700,17.275541748046876,0.2932710647583008,-0.0035424232482910156,0.006953909993171692
1750065411676563500,17.2915634765625,0.03640460968017578,0.14348936080932617,-0.12202325463294983
1750065411692463000,17.307463134765626,-0.583014965057373,0.17554903030395508,-0.17651808261871338
1750065411708454400,17.323454345703126,-0.9699220657348633,0.12322998046875,0.21791473031044006
1750065411724476200,17.33947607421875,-0.6193513870239258,0.06036186218261719,0.35496824979782104
1750065411740467200,17.35546728515625,-0.01967334747314453,0.05197429656982422,0.32671111822128296
1750065411764393000,17.37939306640625,0.7302432060241699,0.16527175903320312,-0.2412964105606079
1750065411780414700,17.395414794921876,0.9648456573486328,0.04719257354736328,-0.37848055362701416
1750065411796375600,17.41137548828125,0.9967494010925293,0.013200759887695312,-0.4666517376899719
1750065411812305700,17.4273056640625,0.640777587890625,0.0703878402709961,-0.15676234662532806
1750065411828297000,17.443296875,-0.34510278701782227,0.03965616226196289,0.20026913285255432
1750065411844257500,17.459257568359376,-0.6035370826721191,0.1407451629638672,0.37870240211486816
1750065411860218400,17.47521826171875,-0.09251117706298828,0.2357769012451172,-0.02383081614971161
1750065411876179000,17.491178955078126,0.8699302673339844,0.20777034759521484,-0.2196837067604065
1750065411892078600,17.50707861328125,0.8626251220703125,0.05004596710205078,-0.06071428954601288
1750065411908070000,17.52306982421875,-0.48173046112060547,0.02219104766845703,0.406705379486084
1750065411924030500,17.539030517578126,-1.3738784790039062,0.25167226791381836,0.24913325905799866
1750065411940021800,17.555021728515626,-0.4219493865966797,0.3328533172607422,-0.28757643699645996
1750065411955982300,17.570982421875,0.15868616104125977,0.08478164672851562,-0.016038909554481506
1750065411971973600,17.5869736328125,0.5205593109130859,-0.10116100311279297,0.15253961086273193
1750065411987934200,17.602934326171876,0.8280291557312012,0.09771347045898438,-0.21117518842220306
1750065412003864600,17.618864501953126,0.14724159240722656,0.10346317291259766,0.12652969360351562
1750065412019855600,17.634855712890626,-0.3968691825866699,0.10151386260986328,0.1406041830778122
1750065412035816400,17.65081640625,-0.4328427314758301,0.09007453918457031,-0.14893236756324768
1750065412051746600,17.66674658203125,-0.15216493606567383,0.019990921020507812,-0.01492452621459961
1750065412067737900,17.68273779296875,-0.11101818084716797,-0.0065174102783203125,0.2649044394493103
1750065412083729000,17.69872900390625,-0.2060537338256836,0.06667804718017578,0.14303414523601532
1750065412099720200,17.71472021484375,-0.14192819595336914,0.09505367279052734,-0.008475631475448608
1750065412115711500,17.73071142578125,0.2229447364807129,0.07855987548828125,0.0340583473443985
1750065412131733200,17.746733154296876,0.7929782867431641,0.04747200012207031,-0.02867230772972107
1750065412147724300,17.762724365234376,0.9767212867736816,0.029732704162597656,-0.255122572183609
1750065412163715600,17.778715576171876,0.323671817779541,0.02785015106201172,-0.01591309905052185
1750065412179676200,17.79467626953125,-0.49285459518432617,0.21712398529052734,0.12062530219554901
1750065412195667500,17.81066748046875,-0.8640608787536621,0.18057727813720703,0.20310288667678833
1750065412211658800,17.82665869140625,-0.4571418762207031,0.050640106201171875,0.08690032362937927
1750065412227619300,17.842619384765626,0.11168384552001953,-0.05710411071777344,-0.15934407711029053
1750065412243519000,17.85851904296875,0.3869795799255371,0.03648662567138672,-0.05916421115398407
1750065412259510300,17.87451025390625,0.4638786315917969,0.15227794647216797,0.006378337740898132
1750065412275501600,17.89050146484375,0.25847959518432617,0.10178089141845703,0.05158747732639313
1750065412291523300,17.9065234375,0.47356700897216797,0.011895179748535156,-0.05009038746356964
1750065412307514400,17.922514404296876,0.41632843017578125,0.02456378936767578,0.015023276209831238
1750065412323475200,17.93847509765625,0.007822036743164062,0.10052204132080078,-0.09410436451435089
1750065412339435800,17.954435791015626,-0.24202251434326172,0.11447715759277344,-0.13006214797496796
1750065412363392000,17.97839208984375,-0.06436014175415039,0.085357666015625,-0.05171966552734375
1750065412379352800,17.994352783203126,0.417996883392334,0.10633659362792969,-0.0639604777097702
1750065412395374600,18.01037451171875,0.6144390106201172,0.08093070983886719,0.055506736040115356
1750065412411396400,18.026396240234376,0.39916324615478516,0.05930042266845703,0.08217139542102814
1750065412427417900,18.04241796875,0.3421149253845215,0.11793804168701172,-0.16469259560108185
1750065412443409200,18.0584091796875,0.06001710891723633,0.06560611724853516,-0.2376234531402588
1750065412459431000,18.074430908203126,-0.5520839691162109,-0.16979503631591797,0.1949402391910553
1750065412475391500,18.0903916015625,-1.944246530532837,0.33561038970947266,-0.7963285446166992
1750065412491352300,18.106352294921876,0.39154815673828125,0.14423656463623047,0.7463653683662415
1750065412507313000,18.12231298828125,1.7739133834838867,0.042166709899902344,-0.17124946415424347
1750065412523273700,18.138273681640626,1.8336868286132812,0.11254405975341797,-0.4670163691043854
1750065412539234300,18.154234375,-0.1251664161682129,-0.17305469512939453,0.712621808052063
1750065412555256000,18.170256103515626,-1.3395709991455078,0.06290626525878906,-0.10610300302505493
1750065412571217000,18.186216796875,-1.5238375663757324,0.3253917694091797,-0.19712278246879578
1750065412587208000,18.2022080078125,-0.5104770660400391,0.18858718872070312,0.3088732957839966
1750065412603168800,18.218168701171876,0.3262467384338379,-0.022151947021484375,0.06529182195663452
1750065412619159800,18.234159912109376,0.8220205307006836,-0.15513992309570312,-0.14929844439029694
1750065412635090200,18.250090087890626,0.5413680076599121,0.013171195983886719,0.1671304702758789
1750065412651081200,18.266081298828126,-0.2292189598083496,0.027106285095214844,0.22713205218315125
1750065412667072500,18.282072509765626,-0.7604713439941406,0.13727951049804688,-0.13296371698379517
1750065412683033000,18.298033203125,-0.5255641937255859,0.05832481384277344,-0.17013448476791382
1750065412699026400,18.3140263671875,1.1600227355957031,0.16021251678466797,-0.6382896900177002
1750065412715048200,18.330048095703123,1.2428841590881348,0.03950023651123047,0.8580729961395264
1750065412730978300,18.345978271484373,0.8873600959777832,-0.01310873031616211,-0.15476283431053162
1750065412746908400,18.361908447265623,0.1900315284729004,0.15389060974121094,-0.1013181209564209
1750065412762899700,18.377899658203123,-0.30021047592163086,0.1805248260498047,-0.0008648931980133057
1750065412778890800,18.393890869140623,-0.4358372688293457,0.11702919006347656,-0.3147939443588257
1750065412794912500,18.40991259765625,0.25681543350219727,-0.21648550033569336,-0.6652517914772034
1750065412818838300,18.43383837890625,0.08560991287231445,0.038290977478027344,0.5874843597412109
1750065412834768600,18.4497685546875,-0.08498334884643555,-0.0016231536865234375,0.21383044123649597
1750065412850698800,18.46569873046875,-0.18439722061157227,0.05828380584716797,0.09442311525344849
1750065412866690000,18.48168994140625,0.2916998863220215,0.035925865173339844,-0.43085694313049316
1750065412882650600,18.497650634765623,-0.08195304870605469,0.021859169006347656,-0.17186693847179413
1750065412898642000,18.513641845703123,0.7173047065734863,-0.18810176849365234,0.37124505639076233
1750065412914663700,18.52966357421875,0.7829689979553223,-0.016526222229003906,0.07621635496616364
1750065412930624300,18.545624267578123,1.6514105796813965,0.25543642044067383,-0.029533669352531433
1750065412946615600,18.561615478515623,1.3073101043701172,0.24485397338867188,-0.4091013967990875
1750065412962606600,18.577606689453123,0.17278337478637695,0.06751585006713867,0.08647909760475159
1750065412978567400,18.5935673828125,-0.6085629463195801,0.0020503997802734375,-0.01565605401992798
1750065412994589200,18.609589111328123,-1.0197234153747559,0.10596084594726562,0.0009670853614807129
1750065413010549800,18.6255498046875,-0.9263086318969727,0.12018966674804688,0.13845883309841156
1750065413026541000,18.641541015625,-0.39167165756225586,0.07631778717041016,0.2134731411933899
1750065413042501600,18.657501708984373,0.03306007385253906,0.01813650131225586,0.22463080286979675
1750065413058493000,18.673492919921873,-0.13080167770385742,0.07455968856811523,0.22963333129882812
1750065413074484200,18.689484130859373,-0.6880631446838379,0.29198217391967773,-0.3334178328514099
1750065413090506000,18.705506103515624,0.9986495971679688,0.19386625289916992,-0.35588687658309937
1750065413106466600,18.721466552734373,1.1947932243347168,0.07600164413452148,-0.1461554616689682
1750065413122427100,18.73742724609375,0.7077431678771973,0.07669305801391602,0.32313504815101624
1750065413138449000,18.753448974609373,0.004396915435791016,0.03545999526977539,0.13642825186252594
1750065413154409700,18.76940966796875,-1.1882743835449219,0.28876304626464844,0.2827441990375519
1750065413170370300,18.785370361328123,-0.5699286460876465,0.3402581214904785,-0.324499249458313
1750065413186361600,18.801361572265623,0.06436443328857422,0.17782878875732422,-0.36745139956474304
1750065413202383400,18.81738330078125,0.5514044761657715,0.03890275955200195,-0.22945502400398254
1750065413218344000,18.833343994140623,-0.1769847869873047,0.19192743301391602,0.09119176864624023
1750065413234335200,18.849335205078123,-0.2934408187866211,0.11616134643554688,0.37471193075180054
1750065413250295800,18.8652958984375,0.32036399841308594,0.17483186721801758,0.12191805243492126
1750065413266287000,18.881287109375,0.6983423233032227,0.14251947402954102,-0.19273798167705536
1750065413282186800,18.897186767578123,0.616950511932373,0.06528997421264648,-0.1454281061887741
1750065413298178000,18.913177978515623,0.311460018157959,0.10325193405151367,-0.09122589975595474
1750065413314199800,18.92919970703125,-0.2034163475036621,0.12137985229492188,0.05839863419532776
1750065413330160400,18.945160400390623,-0.5158567428588867,0.15787315368652344,0.02308027446269989
1750065413346182100,18.96118212890625,-0.9940676689147949,0.11914396286010742,0.2769366502761841
1750065413362142700,18.977142822265623,-0.31810569763183594,0.0941762924194336,0.15806502103805542
1750065413378103600,18.993103515625,0.29311227798461914,0.11989021301269531,-0.21059545874595642
1750065413394094800,19.0090947265625,0.6327896118164062,0.19353342056274414,-0.29757359623908997
1750065413410025000,19.02502490234375,0.26351213455200195,0.22879362106323242,0.0224611759185791
1750065413425985500,19.040985595703123,-0.38518285751342773,0.06070756912231445,0.19513434171676636
1750065413441946400,19.0569462890625,-0.13663721084594727,-0.09373664855957031,0.33364012837409973
1750065413457937400,19.0729375,-0.5673685073852539,0.2748889923095703,-0.46871039271354675
1750065413473959200,19.088959228515623,0.743474006652832,0.29533958435058594,-0.04111015796661377
1750065413489920000,19.104919921875,0.9309606552124023,-0.31291866302490234,0.3036953806877136
1750065413505911000,19.1209111328125,0.15119409561157227,0.07114028930664062,0.5332658290863037
1750065413521841400,19.13684130859375,-0.8044018745422363,0.11598491668701172,-0.04198189079761505
1750065413537863000,19.15286279296875,-0.9742355346679688,0.09017372131347656,-0.25057268142700195
1750065413553854200,19.168854248046873,-0.098358154296875,0.17223453521728516,-0.1596919745206833
1750065413569845500,19.184845458984373,0.7469735145568848,0.19791316986083984,0.07404869794845581
1750065413585867300,19.2008671875,0.38909006118774414,-0.041237831115722656,0.30501702427864075
1750065413601827800,19.216827880859373,0.2173295021057129,-0.09093952178955078,-0.14817294478416443
1750065413617849600,19.232849609375,0.00013113021850585938,0.06392574310302734,-0.11507197469472885
1750065413633810200,19.24881005859375,-0.17247629165649414,0.19668960571289062,0.03172200918197632
1750065413649740500,19.264740478515623,-0.3267359733581543,0.11217975616455078,0.05883431434631348
1750065413665670700,19.280670654296873,0.27166128158569336,0.1806163787841797,0.02548319101333618
1750065413681631200,19.29663134765625,0.5129561424255371,0.19452571868896484,0.17507393658161163
1750065413697622500,19.31262255859375,0.679203987121582,0.12030792236328125,0.1252814531326294
1750065413713583400,19.328583251953123,0.6025347709655762,0.11286735534667969,-0.18967312574386597
1750065413729544000,19.3445439453125,-0.9282526969909668,0.13449859619140625,-0.8525506258010864
1750065413745504500,19.36050439453125,-0.40802764892578125,0.37213897705078125,-0.6356232762336731
1750065413761495800,19.376495849609373,-0.05975341796875,0.13860607147216797,-0.041658803820610046
1750065413777487000,19.392487060546873,0.6227855682373047,0.05967998504638672,-0.07813319563865662
1750065413793478100,19.40847802734375,0.7109160423278809,0.2272329330444336,0.011372238397598267
1750065413809439000,19.42443896484375,-0.723630428314209,0.02756023406982422,0.32869744300842285
1750065413825369000,19.440369140625,-1.123436450958252,0.00649261474609375,-0.6133908033370972
1750065413841390800,19.456390869140623,-1.3439617156982422,0.18448543548583984,-0.2956089377403259
1750065413857321000,19.472321044921873,-1.0269379615783691,0.21575641632080078,-0.04842369258403778
1750065413873312300,19.488312255859373,-0.443845272064209,0.10651016235351562,-0.014523029327392578
1750065413889272800,19.50427294921875,0.006791591644287109,-0.03782463073730469,-0.009790882468223572
1750065413905264000,19.52026416015625,0.10573863983154297,-0.10145139694213867,0.1371101438999176
1750065413921194200,19.5361943359375,0.2525291442871094,0.05859947204589844,0.17560350894927979
1750065413937185500,19.552185546875,0.42159032821655273,0.06122112274169922,-0.047253772616386414
1750065413953176800,19.5681767578125,0.7422628402709961,-0.07213497161865234,-0.2368457019329071
1750065413969198600,19.584198486328123,1.038095474243164,0.019754886627197266,-0.2719269096851349
1750065413985220000,19.60022021484375,0.7230815887451172,0.08276224136352539,0.04458032548427582
1750065414001211400,19.61621142578125,0.2539339065551758,0.15730524063110352,0.09028743952512741
1750065414017202700,19.63220263671875,-0.09174013137817383,0.21058416366577148,0.037373900413513184
1750065414033193700,19.64819384765625,-0.0980691909790039,0.22839927673339844,-0.03814896568655968
1750065414049124000,19.6641240234375,0.06975173950195312,0.15265417098999023,-0.08479373902082443
1750065414065115100,19.680115234375,0.22482919692993164,0.039160728454589844,-0.09656856954097748
1750065414081076000,19.696075927734373,0.18237018585205078,-0.1763467788696289,0.2179955244064331
1750065414097036500,19.71203662109375,0.08144950866699219,0.31409311294555664,-0.3376116156578064
1750065414113027800,19.72802783203125,-0.35343313217163086,-0.11267471313476562,0.9180673360824585
1750065414129049600,19.744049560546873,0.788151741027832,0.3846549987792969,-0.3953983783721924
1750065414145010200,19.76001025390625,1.0613341331481934,0.16449642181396484,-0.18083660304546356
1750065414160971000,19.775970947265623,1.2471590042114258,0.11865520477294922,-0.16907909512519836
1750065414176962000,19.791962158203123,0.16693639755249023,0.2656135559082031,-0.08091960847377777
1750065414192953300,19.807953369140623,-0.9295125007629395,0.15707635879516602,0.08205361664295197
1750065414208944600,19.823944580078123,-1.2194314002990723,0.23213672637939453,0.168830007314682
1750065414224966400,19.83996630859375,-0.8570499420166016,0.20688629150390625,0.23220035433769226
1750065414240927000,19.855927001953123,-0.5438232421875,-0.06349468231201172,0.0470958948135376
