time,seconds_elapsed,z,y,x
1750065394451836000,0.0668359375,0.2541199326515198,-0.24068090319633484,-0.024434609338641167
1750065394467796700,0.082796630859375,0.2541199326515198,-0.24068090319633484,-0.024434609338641167
1750065394483788000,0.0987880859375,0.2541199326515198,-0.24068090319633484,-0.024434609338641167
1750065394499779000,0.114779052734375,0.2541199326515198,-0.24068090319633484,-0.024434609338641167
1750065394515770400,0.130770263671875,0.2541199326515198,-0.24068090319633484,-0.024434609338641167
1750065394531761700,0.14676171875,0.2541199326515198,-0.24068090319633484,-0.024434609338641167
1750065394547691800,0.16269189453125,0.2541199326515198,-0.24068090319633484,-0.024434609338641167
1750065394563713500,0.178713623046875,0.2541199326515198,-0.24068090319633484,-0.024434609338641167
1750065394579643600,0.1946435546875,-0.05619960278272629,-0.019547687843441963,-0.018936822190880775
1750065394595604200,0.210604248046875,-0.04886921867728233,-0.0403171069920063,0.007941247895359993
1750065394611565000,0.22656494140625,-0.05314527451992035,-0.06719517707824707,0.009773843921720982
1750065394627525600,0.242525634765625,-0.06475171446800232,-0.06352998316287994,0.007941247895359993
1750065394643517000,0.258516845703125,-0.0757472887635231,-0.0024434609804302454,0.02932153269648552
1750065394659447000,0.274447021484375,-0.06841690838336945,0.05314527451992035,0.0708603709936142
1750065394675408000,0.290407958984375,-0.033597588539123535,0.05619960278272629,0.10323622822761536
1750065394691399000,0.30639892578125,-0.01160643994808197,0.04642575979232788,0.1215621829032898
1750065394707359700,0.32235986328125,-0.009773843921720982,0.03848451003432274,0.1313360333442688
1750065394723381500,0.338381591796875,-0.01771509274840355,0.04092797264456749,0.1160643994808197
1750065394739342000,0.354342041015625,-0.024434609338641167,0.03481931984424591,0.09285151958465576
1750065394755363800,0.37036376953125,-0.02932153269648552,0.012217304669320583,0.06352998316287994
1750065394771355100,0.386355224609375,-0.030543262138962746,0.00427605677396059,0.04581489413976669
1750065394787346200,0.40234619140625,-0.028099801391363144,0.004886921960860491,0.03726277872920036
1750065394803398400,0.4183984375,-0.024434609338641167,0.012828170321881771,0.036651913076639175
1750065394819359200,0.434359130859375,-0.02687807008624077,0.00427605677396059,0.02932153269648552
1750065394835319800,0.45031982421875,-0.04214970022439957,-0.02015855349600315,0.025045474991202354
1750065394851280600,0.46628076171875,-0.06230825558304787,-0.036041051149368286,0.02626720629632473
1750065394867241200,0.4822412109375,-0.06719517707824707,-0.04764748737215996,0.028099801391363144
1750065394883263000,0.498262939453125,-0.05253441259264946,-0.059864792972803116,0.02871066704392433
1750065394899223800,0.514223876953125,-0.03481931984424591,-0.07757988572120667,0.03848451003432274
1750065394915214800,0.53021484375,-0.02076941914856434,-0.0757472887635231,0.05192354694008827
1750065394931175700,0.54617578125,-0.013439035043120384,-0.06230825558304787,0.06841690838336945
1750065394947136300,0.56213623046875,-0.005497787147760391,-0.05192354694008827,0.08979719132184982
1750065394963158000,0.578157958984375,0.00733038317412138,-0.03298672288656235,0.09651670604944229
1750065394979057700,0.5940576171875,0.01466076634824276,-0.015271631069481373,0.08918632566928864
1750065394995018500,0.6100185546875,0.018325956538319588,-0.006108652334660292,0.07330382615327835
1750065395011009500,0.626009521484375,0.015882495790719986,-0.0012217304902151227,0.04886921867728233
1750065395027000800,0.642000732421875,0.012828170321881771,-0.00733038317412138,0.009162978269159794
1750065395042992000,0.6579921875,0.006108652334660292,-0.02382374368607998,-0.031154127791523933
1750065395058922200,0.673922119140625,0.0006108652451075613,-0.039095375686883926,-0.05314527451992035
1750065395074882800,0.6898828125,0.01038470957428217,-0.029932396486401558,-0.08124507963657379
1750065395090874000,0.7058740234375,0.01160643994808197,-0.012217304669320583,-0.09346238523721695
1750065395106834700,0.721834716796875,0.003054326167330146,0.018325956538319588,-0.08918632566928864
1750065395122856400,0.7378564453125,-0.009773843921720982,0.05192354694008827,-0.08552113175392151
1750065395138786800,0.753786865234375,-0.018936822190880775,0.04764748737215996,-0.09040805697441101
1750065395154717000,0.769717041015625,-0.025656340643763542,0.02626720629632473,-0.09834930300712585
1750065395170708000,0.7857080078125,-0.03726277872920036,0.014049900695681572,-0.10018189996480942
1750065395186699300,0.80169921875,-0.04337143152952194,0.006108652334660292,-0.09162978827953339
1750065395202721000,0.817720947265625,-0.03237585723400116,0.0006108652451075613,-0.0708603709936142
1750065395218651100,0.833651123046875,-0.015882495790719986,0.01710422709584236,-0.0708603709936142
1750065395234612000,0.849612060546875,0.0006108652451075613,0.016493361443281174,-0.08368854224681854
1750065395250603000,0.86560302734375,0.0006108652451075613,-0.003054326167330146,-0.09773843735456467
1750065395266563800,0.881563720703125,-0.012828170321881771,-0.01710422709584236,-0.10873401165008545
1750065395282585600,0.897585693359375,-0.025656340643763542,-0.012217304669320583,-0.11728613078594208
1750065395298546200,0.913546142578125,-0.03420845419168472,0.009162978269159794,-0.1313360333442688
1750065395314537500,0.929537353515625,-0.04459316283464432,0.039095375686883926,-0.152105450630188
1750065395330498000,0.945498046875,-0.04886921867728233,0.04642575979232788,-0.16982053220272064
1750065395346459000,0.961458984375,-0.039706241339445114,0.05864306539297104,-0.19608774781227112
1750065395362480600,0.977480712890625,-0.025656340643763542,0.09834930300712585,-0.21807889640331268
1750065395378441200,0.993441162109375,-0.019547687843441963,0.1411098688840866,-0.24495697021484375
1750065395394463000,1.009462890625,-0.004886921960860491,-0.016493361443281174,-0.26939156651496887
1750065395410454300,1.025454345703125,-0.004886921960860491,0.01038470957428217,-0.28955012559890747
1750065395426414800,1.041414794921875,-0.0403171069920063,0.036041051149368286,-0.34147366881370544
1750065395442467000,1.057467041015625,-0.056810468435287476,-0.06352998316287994,-0.39584067463874817
1750065395466423300,1.08142333984375,-0.00366519158706069,-0.15027284622192383,-0.3830125033855438
1750065395482445000,1.097445068359375,0.07208210229873657,-0.10018189996480942,-0.31520646810531616
1750065395498375400,1.11337548828125,-0.009773843921720982,0.10506882518529892,-0.22968533635139465
1750065395514336000,1.1293359375,-0.1062905490398407,0.294437050819397,-0.1661553531885147
1750065395530327300,1.145327392578125,-0.1514945775270462,0.7348709106445312,-0.14294247329235077
1750065395546257400,1.16125732421875,-0.3323107063770294,1.3176363706588745,-0.06291911751031876
1750065395562309600,1.1773095703125,-0.5711590051651001,1.9773707389831543,0.09040805697441101
1750065395578270200,1.193270263671875,-0.9327912330627441,2.579684019088745,0.48197266459465027
1750065395594231000,1.20923095703125,-1.004873275756836,2.330451011657715,0.8619308471679688
1750065395610191600,1.225191650390625,-0.7617489695549011,1.5741997957229614,1.102611780166626
1750065395626183000,1.241182861328125,-0.4862487316131592,1.0225883722305298,1.0977247953414917
1750065395642143700,1.257143798828125,-0.33047810196876526,0.3732386529445648,0.931569516658783
1750065395658104300,1.273104248046875,-0.14294247329235077,-0.5143485069274902,0.4899139404296875
1750065395674065000,1.28906494140625,0.08124507963657379,-1.1435397863388062,0.018936822190880775
1750065395690025700,1.305025634765625,0.3787364661693573,-1.4880677461624146,-0.3274237811565399
1750065395706017000,1.32101708984375,0.6957755088806152,-1.4007140398025513,-0.34086281061172485
1750065395722038500,1.33703857421875,0.8478809595108032,-1.0751228332519531,-0.09834930300712585
1750065395738029800,1.35302978515625,0.9828822016716003,-0.5913175344467163,0.2638937830924988
1750065395753960000,1.3689599609375,1.2712105512619019,-0.694553792476654,0.4709770977497101
1750065395769920800,1.384920654296875,1.3237450122833252,-1.064738154411316,0.6933320760726929
1750065395785881300,1.40088134765625,1.1136072874069214,-1.179580807685852,0.7507534027099609
1750065395801903000,1.416903076171875,0.8570439219474792,-0.9071348905563354,0.8772025108337402
1750065395817864000,1.432864013671875,0.5913175344467163,-0.6035348773002625,0.9834930300712585
1750065395833855000,1.44885498046875,0.25961771607398987,-0.3439171314239502,0.8344419002532959
1750065395849846300,1.46484619140625,-0.33597588539123535,0.1612684279680252,0.21074850857257843
1750065395865806800,1.480806884765625,-0.5381723046302795,0.06780604273080826,-0.3695734739303589
1750065395881828600,1.49682861328125,-0.5222898125648499,-0.2480112910270691,-0.6664539575576782
1750065395897789400,1.51278955078125,-0.394618958234787,-0.3439171314239502,-0.8692612648010254
1750065395913719600,1.528719482421875,-0.2480112910270691,-0.25473082065582275,-0.9242390990257263
1750065395929710800,1.5447109375,-0.07819075137376785,-0.14294247329235077,-0.901637077331543
1750065395945702000,1.560701904296875,0.02015855349600315,-0.19608774781227112,-0.8045095205307007
1750065395969688800,1.584688720703125,0.07391469180583954,-0.7953465580940247,-0.4960225820541382
1750065395985649400,1.6006494140625,0.10445795953273773,-0.8662069439888,-0.3591887652873993
1750065396001671200,1.616671142578125,0.2565633952617645,-0.43737950921058655,-0.36651915311813354
1750065396017632000,1.632632080078125,0.4098905920982361,-0.04092797264456749,-0.10567969083786011
1750065396033623000,1.648623046875,0.16737708449363708,0.42149701714515686,0.2528982162475586
1750065396049583900,1.664583984375,-0.2773328125476837,0.5277875661849976,0.45142942667007446
1750065396065575000,1.680574951171875,-0.4813618063926697,0.5943718552589417,0.5473352670669556
1750065396081596700,1.6965966796875,-0.7269296646118164,0.3701843321323395,0.5607742667198181
1750065396097527000,1.712527099609375,-0.8680394887924194,0.11911872029304504,0.3445279896259308
1750065396113518000,1.72851806640625,-0.837496280670166,0.0708603709936142,0.018325956538319588
1750065396129509400,1.74450927734375,-0.5931501388549805,0.2981022298336029,-0.18814650177955627
1750065396145470000,1.760469970703125,-0.14477506279945374,0.3139847218990326,-0.3292563557624817
1750065396161491700,1.77649169921875,-0.014049900695681572,0.2987131178379059,-0.39706242084503174
1750065396177452500,1.79245263671875,-0.02015855349600315,0.3029891550540924,-0.34758231043815613
1750065396193413000,1.8084130859375,0.004886921960860491,0.4202753007411957,-0.19425514340400696
1750065396209343200,1.82434326171875,0.036041051149368286,0.3701843321323395,-0.00733038317412138
1750065396225304000,1.840303955078125,0.05375614017248154,0.35674530267715454,0.12950342893600464
1750065396241264600,1.8562646484375,0.0659734457731247,0.5271766781806946,0.16737708449363708
1750065396257225500,1.8722255859375,0.06902777403593063,0.5448917746543884,0.1062905490398407
1750065396273186000,1.88818603515625,-0.04886921867728233,0.5094616413116455,-0.02932153269648552
1750065396289147000,1.90414697265625,-0.06230825558304787,0.45326200127601624,-0.16859880089759827
1750065396305107500,1.920107421875,-0.06658431142568588,0.2370157092809677,-0.2773328125476837
1750065396321129200,1.936129150390625,-0.09529497474431992,0.11972958594560623,-0.33169981837272644
1750065396337089800,1.95208984375,-0.09224065393209457,-0.04337143152952194,-0.32131510972976685
1750065396353081000,1.9680810546875,-0.07819075137376785,-0.07696902006864548,-0.1875356286764145
1750065396369102800,1.984102783203125,-0.03176499158143997,-0.06108652427792549,-0.06536258012056351
1750065396385002500,2.00000244140625,0.01038470957428217,-0.14966198801994324,-0.019547687843441963
1750065396401024300,2.016024169921875,0.00366519158706069,-0.2675589919090271,-0.006719517521560192
1750065396417015600,2.032015625,0.004886921960860491,-0.4642575979232788,-0.015271631069481373
1750065396432976100,2.04797607421875,0.018936822190880775,-0.4300491213798523,0.08735372871160507
1750065396448937000,2.06393701171875,0.04886921867728233,-0.394618958234787,0.2028072625398636
1750065396464867000,2.0798671875,0.04092797264456749,-0.32009339332580566,0.2376265823841095
1750065396480888800,2.095888916015625,0.028099801391363144,-0.2681698501110077,0.20891591906547546
1750065396496819000,2.11181884765625,0.018325956538319588,-0.2583959996700287,0.16004669666290283
1750065396512749000,2.1277490234375,0.00733038317412138,-0.2382374405860901,0.11667526513338089
1750065396528740400,2.143740234375,0.006719517521560192,-0.19425514340400696,0.08674286305904388
1750065396544701000,2.159700927734375,0.03420845419168472,-0.19975294172763824,0.05497787147760391
1750065396560753200,2.175753173828125,0.012217304669320583,-0.09834930300712585,0.02687807008624077
1750065396576714000,2.1917138671875,0.016493361443281174,-0.10018189996480942,0.009162978269159794
1750065396592705000,2.207705078125,0.005497787147760391,-0.1007927656173706,-0.007941247895359993
1750065396608696300,2.2236962890625,0.005497787147760391,-0.08918632566928864,-0.005497787147760391
1750065396624687600,2.2396875,0.010995574295520782,-0.09834930300712585,-0.039095375686883926
1750065396640739800,2.25573974609375,0.02321287989616394,-0.11301007121801376,0.10567969083786011
1750065396656700400,2.271700439453125,0.01038470957428217,-0.08918632566928864,0.1014036312699318
1750065396672722200,2.28772216796875,0.03726277872920036,-0.12278391420841217,0.11545353382825851
1750065396688683000,2.30368310546875,0.031154127791523933,-0.09407325088977814,0.1111774742603302
1750065396704643600,2.3196435546875,0.012828170321881771,-0.05925392732024193,0.07635815441608429
1750065396720665300,2.335665283203125,-0.00366519158706069,-0.0354301854968071,0.006719517521560192
1750065396736626200,2.351626220703125,0.0006108652451075613,-0.0507018156349659,-0.007941247895359993
1750065396752586800,2.367586669921875,0.00855211354792118,-0.048258353024721146,0.007941247895359993
1750065396768547300,2.38354736328125,0.003054326167330146,-0.05009094998240471,0.033597588539123535
1750065396784508200,2.399508056640625,0.00366519158706069,-0.06108652427792549,0.036041051149368286
1750065396800530000,2.415530029296875,0.01160643994808197,-0.08002334833145142,0.014049900695681572
1750065396816460000,2.4314599609375,0.012828170321881771,-0.06475171446800232,-0.019547687843441963
1750065396832451300,2.447451416015625,0.00427605677396059,-0.07208210229873657,-0.029932396486401558
1750065396848412000,2.463411865234375,0.005497787147760391,-0.08796459436416626,-0.007941247895359993
1750065396864403200,2.4794033203125,0.005497787147760391,-0.07269296050071716,0.0024434609804302454
1750065396880425000,2.495425048828125,0.001832595793530345,-0.06963863968849182,-0.0006108652451075613
1750065396896416000,2.511416015625,0.0024434609804302454,-0.0757472887635231,-0.00427605677396059
1750065396912407300,2.5274072265625,0.004886921960860491,-0.07452555745840073,0.00427605677396059
1750065396928429000,2.543428955078125,0.004886921960860491,-0.05375614017248154,0.015882495790719986
1750065396944420400,2.55942041015625,0.00366519158706069,-0.03787364438176155,0.01466076634824276
1750065396960441900,2.57544189453125,0.0012217304902151227,-0.025045474991202354,0.00427605677396059
1750065396976372200,2.591372314453125,0.003054326167330146,-0.02687807008624077,-0.005497787147760391
1750065396992363300,2.60736328125,-0.0012217304902151227,-0.033597588539123535,-0.00366519158706069
1750065397008385000,2.623385009765625,0.028099801391363144,-0.04153883829712868,0.005497787147760391
1750065397024345900,2.639345947265625,0.025045474991202354,-0.04764748737215996,0.00733038317412138
1750065397040367600,2.65536767578125,0.021991148591041565,-0.051312681287527084,0.02321287989616394
1750065397056297700,2.671297607421875,0.05253441259264946,-0.0555887371301651,0.024434609338641167
1750065397072258300,2.68725830078125,-0.03237585723400116,-0.05192354694008827,0.028099801391363144
1750065397088219100,2.70321923828125,0.036651913076639175,-0.039706241339445114,0.01771509274840355
1750065397104179700,2.7191796875,-0.015271631069481373,-0.036041051149368286,0.01160643994808197
1750065397120171000,2.7351708984375,-0.007941247895359993,-0.0354301854968071,-0.00855211354792118
1750065397136131600,2.751131591796875,0.024434609338641167,-0.033597588539123535,-0.021380282938480377
1750065397152092400,2.767092529296875,0.004886921960860491,-0.036041051149368286,-0.02321287989616394
1750065397168083500,2.78308349609375,-0.005497787147760391,-0.029932396486401558,-0.03726277872920036
1750065397184013800,2.799013916015625,-0.013439035043120384,-0.031154127791523933,-0.04398229718208313
1750065397200035600,2.81503564453125,0.013439035043120384,-0.02871066704392433,-0.02015855349600315
1750065397215996200,2.83099609375,0.006108652334660292,-0.039095375686883926,0.08979719132184982
1750065397232018000,2.847017822265625,0.02015855349600315,0.00733038317412138,0.08674286305904388
1750065397248009200,2.86300927734375,-0.00733038317412138,0.01160643994808197,0.033597588539123535
1750065397263969800,2.8789697265625,0.01466076634824276,-0.001832595793530345,-0.02076941914856434
1750065397287926000,2.902926025390625,0.014049900695681572,-0.022602014243602753,-0.02932153269648552
1750065397303917300,2.918917236328125,0.00855211354792118,-0.015882495790719986,-0.0012217304902151227
1750065397319939000,2.93493896484375,0.009162978269159794,-0.018936822190880775,0.030543262138962746
1750065397335869200,2.950869140625,0.012828170321881771,-0.024434609338641167,0.0403171069920063
1750065397351830000,2.966830078125,0.02076941914856434,-0.04764748737215996,0.033597588539123535
1750065397367790600,2.98279052734375,0.02932153269648552,-0.054367005825042725,0.03298672288656235
1750065397383751200,2.998751220703125,0.00427605677396059,-0.12095131725072861,0.01771509274840355
1750065397399773000,3.01477294921875,0.009773843921720982,-0.1368338167667389,0.03237585723400116
1750065397415703300,3.030703369140625,0.03176499158143997,-0.2724458873271942,0.06352998316287994
1750065397431694300,3.0466943359375,0.0708603709936142,-0.3744603991508484,0.16065755486488342
1750065397447685600,3.062685546875,0.09834930300712585,-0.3390302062034607,0.2822197377681732
1750065397463615700,3.07861572265625,0.10506882518529892,-0.30543261766433716,0.4105014503002167
1750065397479637500,3.094637451171875,0.10812314599752426,-0.26511552929878235,0.4550946056842804
1750065397495598300,3.110598388671875,0.12889257073402405,-0.24678955972194672,0.44776421785354614
1750065397511528400,3.126528564453125,0.11850785464048386,-0.19058994948863983,0.37568211555480957
1750065397527489000,3.142489013671875,0.10751228034496307,-0.20463985204696655,0.2577851414680481
1750065397543449900,3.158449951171875,0.07269296050071716,-0.17776179313659668,0.17409659922122955
1750065397559471600,3.1744716796875,0.048258353024721146,-0.08307767659425735,0.09468411654233932
1750065397575432200,3.19043212890625,0.03787364438176155,-0.03481931984424591,0.05009094998240471
1750065397591454000,3.206453857421875,0.2174680233001709,0.06414084881544113,-0.04703662544488907
1750065397607445200,3.2224453125,0.30115658044815063,-0.07391469180583954,-0.04092797264456749
1750065397623405800,3.23840576171875,0.06230825558304787,-0.1667662113904953,-0.056810468435287476
1750065397639427600,3.254427490234375,-0.0555887371301651,-0.015882495790719986,-0.09834930300712585
1750065397655388200,3.27038818359375,-0.04459316283464432,0.028099801391363144,-0.1270599663257599
1750065397671349000,3.286348876953125,-0.012217304669320583,0.039706241339445114,-0.13072516024112701
1750065397687309600,3.3023095703125,-0.04092797264456749,0.06108652427792549,-0.1062905490398407
1750065397703300900,3.31830078125,-0.031154127791523933,0.12339477986097336,-0.0403171069920063
1750065397719322600,3.334322509765625,-0.019547687843441963,0.11423180252313614,-0.021380282938480377
1750065397735283200,3.350283203125,-0.025045474991202354,0.08368854224681854,-0.024434609338641167
1750065397751244000,3.366244140625,-0.00366519158706069,0.06658431142568588,-0.033597588539123535
1750065397767204600,3.38220458984375,0.00733038317412138,0.08124507963657379,-0.051312681287527084
1750065397783196000,3.39819580078125,-0.006108652334660292,0.09285151958465576,-0.05619960278272629
1750065397799156500,3.414156494140625,-0.02076941914856434,0.0910189226269722,-0.06352998316287994
1750065397815086800,3.4300869140625,-0.01771509274840355,0.0757472887635231,-0.05192354694008827
1750065397831047400,3.44604736328125,-0.003054326167330146,0.09712757170200348,-0.05803219974040985
1750065397847038700,3.462038818359375,-0.0006108652451075613,0.06902777403593063,-0.04886921867728233
1750065397870995000,3.485994873046875,-0.001832595793530345,0.07147123664617538,-0.02015855349600315
1750065397886986200,3.501986328125,-0.01771509274840355,0.09957103431224823,-0.018325956538319588
1750065397902977300,3.517977294921875,-0.005497787147760391,0.0555887371301651,-0.021380282938480377
1750065397918999000,3.5339990234375,0.01771509274840355,0.06108652427792549,-0.018325956538319588
1750065397934929200,3.54992919921875,0.0403171069920063,0.09468411654233932,0.02321287989616394
1750065397950890000,3.565889892578125,0.08918632566928864,0.17592918872833252,0.03176499158143997
1750065397966850600,3.5818505859375,0.054367005825042725,0.14477506279945374,0.015271631069481373
1750065397982811400,3.597811279296875,-0.021380282938480377,0.08491026610136032,-0.09773843735456467
1750065397998833200,3.613833251953125,0.00855211354792118,0.06169738993048668,-0.11484266817569733
1750065398014793700,3.629793701171875,0.006108652334660292,0.04153883829712868,-0.00733038317412138
1750065398030785000,3.645784912109375,0.0403171069920063,0.04337143152952194,0.06902777403593063
1750065398046806800,3.661806884765625,0.02871066704392433,0.01466076634824276,0.07513642311096191
1750065398062797800,3.6777978515625,0.028099801391363144,-0.03787364438176155,-0.019547687843441963
1750065398078850000,3.69385009765625,0.015882495790719986,-0.10201449692249298,-0.09834930300712585
1750065398094811000,3.709810791015625,0.04581489413976669,-0.06780604273080826,-0.1411098688840866
1750065398110832600,3.72583251953125,0.048258353024721146,-0.00427605677396059,-0.1417207419872284
1750065398126793200,3.741793212890625,0.018936822190880775,0.029932396486401558,-0.12767083942890167
1750065398142784500,3.757784423828125,0.01466076634824276,0.036651913076639175,-0.08979719132184982
1750065398158836700,3.773836669921875,0.027488935738801956,0.04703662544488907,-0.030543262138962746
1750065398174797300,3.78979736328125,0.02321287989616394,0.0354301854968071,0.0006108652451075613
1750065398190819000,3.805819091796875,0.012217304669320583,0.019547687843441963,-0.012828170321881771
1750065398206810400,3.821810302734375,0.014049900695681572,0.007941247895359993,-0.033597588539123535
1750065398222771000,3.83777099609375,0.02626720629632473,-0.045204028487205505,-0.03787364438176155
1750065398238792700,3.853792724609375,0.028099801391363144,-0.07391469180583954,-0.021380282938480377
1750065398254753500,3.86975341796875,0.018936822190880775,-0.06902777403593063,0.01160643994808197
1750065398270714000,3.885714111328125,0.00733038317412138,-0.06536258012056351,0.03787364438176155
1750065398286736000,3.90173583984375,0.012828170321881771,-0.06536258012056351,0.04703662544488907
1750065398302727200,3.91772705078125,0.018936822190880775,-0.05375614017248154,0.05314527451992035
1750065398318749000,3.9337490234375,0.01771509274840355,-0.04214970022439957,0.0507018156349659
1750065398334709500,3.94970947265625,0.015882495790719986,-0.045204028487205505,0.03176499158143997
1750065398350700800,3.96570068359375,0.01771509274840355,-0.03176499158143997,0.021380282938480377
1750065398366661400,3.981661376953125,0.015882495790719986,-0.021380282938480377,0.015271631069481373
1750065398382652700,3.997652587890625,0.02076941914856434,0.03420845419168472,0.027488935738801956
1750065398398644000,4.01364404296875,0.05253441259264946,0.07819075137376785,0.00366519158706069
1750065398414574000,4.029573974609375,0.09407325088977814,-0.1014036312699318,-0.07147123664617538
1750065398430504200,4.045504150390625,0.05009094998240471,-0.06658431142568588,-0.05742133408784866
1750065398446434300,4.061434326171875,0.007941247895359993,-0.07269296050071716,0
1750065398462364700,4.07736474609375,0.02015855349600315,-0.07452555745840073,0.05253441259264946
1750065398478386200,4.09338623046875,0.06536258012056351,-0.0959058403968811,0.08918632566928864
1750065398494347000,4.109346923828125,0.04398229718208313,-0.08979719132184982,0.10262536257505417
1750065398510368800,4.12536865234375,-0.02321287989616394,-0.045204028487205505,0.10384709388017654
1750065398534294500,4.14929443359375,-0.11239920556545258,0.12339477986097336,0.10323622822761536
1750065398550285800,4.165285888671875,-0.10018189996480942,0.08979719132184982,0.08307767659425735
1750065398566246400,4.181246337890625,0.005497787147760391,-0.06108652427792549,0.013439035043120384
1750065398582237700,4.19723779296875,0.016493361443281174,-0.05742133408784866,-0.045204028487205505
1750065398598259500,4.213259521484375,-0.014049900695681572,-0.03298672288656235,-0.07819075137376785
1750065398614220000,4.229219970703125,0,-0.01771509274840355,-0.07269296050071716
1750065398630211300,4.24521142578125,-0.001832595793530345,-0.00733038317412138,-0.04642575979232788
1750065398646172000,4.261171875,0.010995574295520782,0.02015855349600315,-0.005497787147760391
1750065398662163200,4.2771630859375,-0.02871066704392433,0.02015855349600315,0.025045474991202354
1750065398678185000,4.29318505859375,0.036651913076639175,0.00366519158706069,0.02076941914856434
1750065398694145500,4.3091455078125,-0.024434609338641167,-0.006719517521560192,0.00366519158706069
1750065398710136800,4.32513671875,-0.00855211354792118,-0.01160643994808197,-0.02015855349600315
1750065398726189000,4.34118896484375,0.02382374368607998,-0.004886921960860491,-0.03298672288656235
1750065398742180400,4.357180419921875,0.02321287989616394,0,-0.036041051149368286
1750065398766197500,4.381197509765625,-0.00733038317412138,0.004886921960860491,-0.00733038317412138
1750065398782158300,4.397158447265625,0.01771509274840355,0.006719517521560192,0.006108652334660292
1750065398798210600,4.41321044921875,-0.01038470957428217,0.007941247895359993,0.00733038317412138
1750065398814171100,4.429171142578125,-0.007941247895359993,-0.004886921960860491,0.0024434609804302454
1750065398830132000,4.445132080078125,-0.00427605677396059,0.009162978269159794,-0.007941247895359993
1750065398846123000,4.461123046875,0.006108652334660292,-0.0006108652451075613,-0.009162978269159794
1750065398862083800,4.477083740234375,-0.00427605677396059,0.01160643994808197,-0.013439035043120384
1750065398878075100,4.4930751953125,-0.001832595793530345,0.019547687843441963,-0.02382374368607998
1750065398894005200,4.509005126953125,0.00366519158706069,0.01710422709584236,-0.03237585723400116
1750065398909996300,4.524996337890625,0.00427605677396059,-0.0006108652451075613,-0.03481931984424591
1750065398925957000,4.54095703125,0.0006108652451075613,-0.0012217304902151227,-0.018936822190880775
1750065398941948400,4.556948486328125,-0.00427605677396059,-0.00427605677396059,-0.009773843921720982
1750065398957939500,4.572939453125,-0.004886921960860491,-0.009162978269159794,-0.006108652334660292
1750065398973869800,4.588869873046875,-0.0024434609804302454,-0.009162978269159794,-0.001832595793530345
1750065398989800000,4.604800048828125,0,-0.0006108652451075613,-0.0006108652451075613
1750065399005760500,4.620760498046875,-0.00366519158706069,0.00366519158706069,-0.00733038317412138
1750065399021751800,4.636751708984375,-0.00366519158706069,0.01038470957428217,-0.019547687843441963
1750065399045677600,4.660677490234375,-0.003054326167330146,0.015271631069481373,-0.025656340643763542
1750065399061607700,4.676607666015625,-0.00427605677396059,0.010995574295520782,-0.02321287989616394
1750065399077599000,4.692598876953125,-0.00366519158706069,0.00427605677396059,-0.012828170321881771
1750065399093529000,4.708529052734375,-0.0012217304902151227,-0.01038470957428217,0.004886921960860491
1750065399109490000,4.724489990234375,-0.00427605677396059,0.001832595793530345,0.025045474991202354
1750065399125481000,4.74048095703125,-0.009162978269159794,0.018936822190880775,0.019547687843441963
1750065399141472300,4.75647216796875,-0.009773843921720982,0.03481931984424591,-0.007941247895359993
1750065399157524500,4.7725244140625,0.0012217304902151227,0.021991148591041565,-0.028099801391363144
1750065399173485000,4.788485107421875,0.016493361443281174,0.00733038317412138,-0.01771509274840355
1750065399189476400,4.804476318359375,0.016493361443281174,0.030543262138962746,0.004886921960860491
1750065399205437200,4.820437255859375,0.006719517521560192,0.04398229718208313,0.018936822190880775
1750065399221397800,4.836397705078125,0.006108652334660292,0.04581489413976669,0.01466076634824276
1750065399237419500,4.85241943359375,-0.01160643994808197,0.0757472887635231,-0.015882495790719986
1750065399253380000,4.868380126953125,-0.02321287989616394,0.0861319974064827,-0.0403171069920063
1750065399269401900,4.88440185546875,-0.025045474991202354,0.05314527451992035,-0.04337143152952194
1750065399285393200,4.90039306640625,-0.016493361443281174,0.060475658625364304,-0.03237585723400116
1750065399301353700,4.916353759765625,0.010995574295520782,0.056810468435287476,-0.007941247895359993
1750065399317375500,4.93237548828125,0.01038470957428217,0.019547687843441963,0.02321287989616394
1750065399333366800,4.94836669921875,-0.039095375686883926,0.17348572611808777,0.00366519158706069
1750065399349358000,4.964358154296875,-0.012828170321881771,0.3078760802745819,0.0024434609804302454
1750065399365410300,4.980410400390625,-0.04703662544488907,0.015271631069481373,-0.05864306539297104
1750065399381401300,4.9964013671875,0.04214970022439957,-0.2590068578720093,0.08246681094169617
1750065399397392600,5.012392578125,0.06902777403593063,-0.47280970215797424,0.2577851414680481
1750065399413322800,5.02832275390625,-0.0555887371301651,-0.6401867866516113,0.2919935882091522
1750065399429253000,5.044253173828125,-0.08552113175392151,-0.6475171446800232,0.3591887652873993
1750065399445213700,5.060213623046875,-0.2015855312347412,-0.9181304574012756,0.2828305959701538
1750065399461205000,5.076205078125,-0.5229006409645081,-1.3854423761367798,0.031154127791523933
1750065399477165600,5.09216552734375,-0.5674937963485718,-0.7825183868408203,0.10323622822761536
1750065399493156900,5.108156982421875,-0.43676865100860596,-0.29077184200286865,0.21563543379306793
1750065399509117400,5.124117431640625,-0.42760565876960754,-0.17776179313659668,0.05375614017248154
1750065399525108700,5.140108642578125,-0.39767327904701233,-0.13500121235847473,-0.23029619455337524
1750065399541100000,5.15610009765625,-0.37262779474258423,-0.14966198801994324,-0.33108896017074585
1750065399557091000,5.172091064453125,-0.3384193480014801,-0.12889257073402405,-0.33169981837272644
1750065399572990700,5.18799072265625,-0.2932153046131134,-0.08674286305904388,-0.2773328125476837
1750065399588982000,5.20398193359375,-0.2871066629886627,-0.05864306539297104,-0.2064724564552307
1750065399604973300,5.219973388671875,-0.31093040108680725,0.09773843735456467,-0.08857546001672745
1750065399620995000,5.2359951171875,-0.3023782968521118,0.26939156651496887,0.04153883829712868
1750065399637016600,5.2520166015625,-0.28588494658470154,0.46792277693748474,0.1417207419872284
1750065399652947000,5.267947021484375,-0.26083946228027344,0.5693264007568359,0.16310101747512817
1750065399668907500,5.283907470703125,-0.2840523421764374,0.5552765130996704,0.1918116807937622
1750065399684868400,5.299868408203125,-0.3481931984424591,0.6969972252845764,0.2376265823841095
1750065399700798500,5.315798583984375,-0.3549126982688904,0.7751879692077637,0.3170390725135803
1750065399716820200,5.3318203125,-0.3891211748123169,0.7055493593215942,0.46364670991897583
1750065399732750300,5.347750244140625,-0.46364670991897583,0.7061602473258972,0.5674937963485718
1750065399748741600,5.36374169921875,-0.5418374538421631,0.7324274182319641,0.608421802520752
1750065399764732700,5.379732666015625,-0.5943718552589417,0.6243042945861816,0.6444628238677979
1750065399780724000,5.395723876953125,-0.6194173693656921,0.5534439086914062,0.675616979598999
1750065399796745700,5.411745849609375,-0.5797111392021179,0.46670106053352356,0.66584312915802
1750065399812675800,5.42767578125,-0.26022860407829285,1.3292428255081177,0.004886921960860491
1750065399828636700,5.44363671875,-0.1362229436635971,0.4190535545349121,-0.13744467496871948
1750065399844597200,5.45959716796875,-0.014049900695681572,-0.4251621961593628,-0.005497787147760391
1750065399860557800,5.475557861328125,0.0403171069920063,-0.2632829248905182,0.02382374368607998
1750065399876549000,5.491549072265625,0.13866640627384186,-0.054367005825042725,-0.13011430203914642
1750065399892479200,5.507479248046875,0.13316862285137177,-0.24129177629947662,-0.30482175946235657
1750065399908409600,5.52340966796875,0.10262536257505417,-0.35552358627319336,-0.3897320330142975
1750065399924370200,5.5393701171875,0.11362093687057495,-0.33169981837272644,-0.35613444447517395
1750065399940361500,5.555361572265625,0.14905111491680145,-0.2687807083129883,-0.2730567753314972
1750065399956352500,5.5713525390625,0.17348572611808777,-0.22357667982578278,-0.19792033731937408
1750065399972283000,5.587282958984375,0.1508837193250656,-0.1765400618314743,-0.17959438264369965
1750065399988213000,5.603212890625,0.1362229436635971,-0.1569923609495163,-0.18875735998153687
1750065400004204300,5.619204345703125,0.11972958594560623,-0.2223549485206604,-0.23151792585849762
1750065400020195300,5.6351953125,0.1258382350206375,-0.34513887763023376,-0.2541199326515198
1750065400036125400,5.65112548828125,0.17898350954055786,-0.42638394236564636,-0.24923302233219147
1750065400052055800,5.667055908203125,0.23457226157188416,-0.4343251883983612,-0.24923302233219147
1750065400068016400,5.683016357421875,0.25961771607398987,-0.4056145250797272,-0.29077184200286865
1750065400084038100,5.6990380859375,0.24678955972194672,-0.3677408695220947,-0.3585779070854187
1750065400099999000,5.7149990234375,0.2217440903186798,-0.3481931984424591,-0.3903428912162781
1750065400116020500,5.7310205078125,0.17959438264369965,-0.33597588539123535,-0.3738495409488678
1750065400132042200,5.747042236328125,0.13072516024112701,-0.33047810196876526,-0.33292156457901
1750065400147972600,5.76297265625,0.09896016865968704,-0.3029891550540924,-0.2840523421764374
1750065400163963600,5.778963623046875,0.06414084881544113,-0.21807889640331268,-0.24373523890972137
1750065400179863300,5.79486328125,0.03420845419168472,-0.18081611394882202,-0.24007004499435425
1750065400195915500,5.81091552734375,0.025045474991202354,-0.1270599663257599,-0.2370157092809677
1750065400211876400,5.82687646484375,-0.004886921960860491,-0.12767083942890167,-0.23273965716362
1750065400227898000,5.842898193359375,-0.025656340643763542,-0.14782938361167908,-0.23090706765651703
1750065400243889200,5.85888916015625,-0.02015855349600315,-0.06414084881544113,-0.20097467303276062
1750065400259880400,5.87488037109375,-0.029932396486401558,-0.03298672288656235,-0.17043140530586243
1750065400275902200,5.890902099609375,-0.03787364438176155,-0.03420845419168472,-0.14844025671482086
1750065400291832300,5.906832275390625,0.05009094998240471,0.06291911751031876,-0.059864792972803116
1750065400307823600,5.92282373046875,0.039706241339445114,-0.030543262138962746,0.04764748737215996
1750065400323845400,5.938845458984375,-0.04398229718208313,-0.12400564551353455,0.1111774742603302
1750065400339806000,5.954805908203125,-0.03176499158143997,-0.0012217304902151227,0.14844025671482086
1750065400355858200,5.970858154296875,-0.03726277872920036,0.06414084881544113,0.15821409225463867
1750065400371819000,5.986819091796875,-0.0659734457731247,-0.0006108652451075613,0.1563815027475357
1750065400387779600,6.002779541015625,-0.07819075137376785,-0.042760565876960754,0.14416420459747314
1750065400403771000,6.01877099609375,-0.06536258012056351,0.07819075137376785,0.13866640627384186
1750065400419731500,6.0347314453125,-0.08002334833145142,0.08002334833145142,0.1313360333442688
1750065400435753200,6.050753173828125,-0.09957103431224823,0.11423180252313614,0.13561208546161652
1750065400451714000,6.066714111328125,-0.12217304855585098,0.2272418737411499,0.1716531366109848
1750065400467674600,6.082674560546875,-0.15271630883216858,0.29016098380088806,0.22296582162380219
1750065400483666000,6.098666015625,-0.18631389737129211,0.41233405470848083,0.29626965522766113
1750065400499596000,6.114595947265625,-0.2174680233001709,0.49724429845809937,0.3842342495918274
1750065400515617800,6.13061767578125,-0.25473082065582275,0.3988949954509735,0.4899139404296875
1750065400531578400,6.146578369140625,-0.3029891550540924,0.2217440903186798,0.59803706407547
1750065400547539200,6.162539306640625,-0.33292156457901,0.06230825558304787,0.618195652961731
1750065400563499800,6.178499755859375,-0.28466320037841797,0.04092797264456749,0.5455026626586914
1750065400579491000,6.194490966796875,-0.1918116807937622,0.21319197118282318,0.3885102868080139
1750065400595482400,6.210482421875,-0.13561208546161652,0.2993239760398865,0.23151792585849762
1750065400611412500,6.22641259765625,-0.03726277872920036,0.35552358627319336,-0.014049900695681572
1750065400627403500,6.242403564453125,0.006719517521560192,0.06108652427792549,-0.1062905490398407
1750065400643364400,6.2583642578125,0.06536258012056351,-0.03726277872920036,-0.19792033731937408
1750065400659355600,6.274355712890625,0.10201449692249298,-0.0659734457731247,-0.2773328125476837
1750065400675377200,6.290377197265625,0.12034045159816742,-0.10934487730264664,-0.3341432809829712
1750065400691307500,6.3063076171875,0.1472185254096985,-0.09040805697441101,-0.37690386176109314
1750065400707268000,6.32226806640625,0.15943582355976105,-0.09162978827953339,-0.3585779070854187
1750065400723259400,6.33825927734375,0.16371189057826996,-0.08918632566928864,-0.28955012559890747
1750065400739220000,6.354219970703125,0.16554448008537292,-0.10873401165008545,-0.21502456068992615
1750065400755241700,6.37024169921875,0.18936823308467865,-0.10995574295520782,-0.1820378452539444
1750065400771171800,6.386171875,0.2370157092809677,-0.11911872029304504,-0.19914206862449646
1750065400787132700,6.402132568359375,0.30054569244384766,-0.11545353382825851,-0.251676470041275
1750065400803093200,6.41809326171875,0.3885102868080139,-0.11362093687057495,-0.3549126982688904
1750065400819054000,6.43405419921875,0.4740314185619354,-0.12095131725072861,-0.4746423065662384
1750065400835075800,6.450075927734375,0.5222898125648499,-0.16798794269561768,-0.5674937963485718
1750065400851006000,6.466005859375,0.5674937963485718,-0.24923302233219147,-0.6316346526145935
1750065400867027700,6.48202783203125,0.5919284224510193,-0.2736676335334778,-0.6206390857696533
1750065400882988300,6.49798828125,0.6872233748435974,-0.2272418737411499,-0.4593706727027893
1750065400898949000,6.51394921875,0.8808676600456238,-0.09468411654233932,-0.19364428520202637
1750065400915001300,6.53000146484375,0.9706648588180542,0.252287358045578,0.06230825558304787
1750065400930901000,6.54590087890625,0.978606104850769,0.5412266254425049,0.22907446324825287
1750065400946831000,6.5618310546875,0.8411614298820496,0.48319441080093384,0.2687807083129883
1750065400962792000,6.5777919921875,0.5681046843528748,0.26083946228027344,0.13316862285137177
1750065400978783000,6.593782958984375,0.22846360504627228,0.04214970022439957,-0.05619960278272629
1750065400994835200,6.609835205078125,-0.02626720629632473,-0.10995574295520782,-0.19547687470912933
1750065401010796000,6.625796142578125,-0.1814269721508026,-0.1918116807937622,-0.25534167885780334
1750065401026787000,6.641787109375,-0.12095131725072861,-0.11972958594560623,-0.21441370248794556
1750065401042748000,6.657747802734375,0.02626720629632473,0.13561208546161652,-0.05314527451992035
1750065401058739200,6.6737392578125,0.20097467303276062,0.39706242084503174,0.06719517707824707
1750065401074791400,6.68979150390625,0.25534167885780334,0.5717698931694031,0.09712757170200348
1750065401098639400,6.713639404296875,-0.07696902006864548,0.3494149148464203,-0.1258382350206375
1750065401114661000,6.7296611328125,-0.09162978827953339,0.2828305959701538,-0.2828305959701538
1750065401130621700,6.74562158203125,0.11362093687057495,0.18814650177955627,-0.2638937830924988
1750065401146643500,6.7616435546875,0.10812314599752426,0.1459967941045761,-0.24556782841682434
1750065401162665200,6.777665283203125,0.1618792861700058,-0.06108652427792549,-0.14477506279945374
1750065401178626000,6.7936259765625,0.12339477986097336,-0.17043140530586243,-0.0555887371301651
1750065401194617000,6.8096171875,0.06963863968849182,-0.26633724570274353,0.02626720629632473
1750065401210578000,6.825577880859375,0.04642575979232788,-0.28466320037841797,0.11423180252313614
1750065401226538500,6.84153857421875,0.015271631069481373,-0.20830504596233368,0.18387043476104736
1750065401242560300,6.857560302734375,-0.054367005825042725,-0.08674286305904388,0.1765400618314743
1750065401258521000,6.87352099609375,-0.08185594528913498,-0.04581489413976669,0.11301007121801376
1750065401274542600,6.88954248046875,-0.08429940044879913,-0.07635815441608429,0.012828170321881771
1750065401290503400,6.90550341796875,-0.07391469180583954,-0.13316862285137177,-0.051312681287527084
1750065401306494700,6.92149462890625,-0.06536258012056351,-0.16371189057826996,-0.06780604273080826
1750065401322455300,6.937455322265625,-0.06352998316287994,-0.13500121235847473,-0.027488935738801956
1750065401338415900,6.953415771484375,-0.0555887371301651,-0.11484266817569733,0.02076941914856434
1750065401354468400,6.96946826171875,-0.051312681287527084,-0.1111774742603302,0.07696902006864548
1750065401370459400,6.98545947265625,-0.030543262138962746,-0.11056660860776901,0.11850785464048386
1750065401386481200,7.001481201171875,-0.02076941914856434,-0.06291911751031876,0.1417207419872284
1750065401402472400,7.017472412109375,-0.022602014243602753,0.03787364438176155,0.11423180252313614
1750065401418463500,7.03346337890625,-0.02871066704392433,0.0910189226269722,0.04459316283464432
1750065401434485200,7.0494853515625,-0.04092797264456749,0.0507018156349659,-0.07757988572120667
1750065401450415600,7.06541552734375,-0.03420845419168472,0.014049900695681572,-0.16065755486488342
1750065401466406700,7.08140673828125,-0.015882495790719986,-0.012828170321881771,-0.1875356286764145
1750065401482367500,7.097367431640625,-0.018936822190880775,-0.00733038317412138,-0.15943582355976105
1750065401498358500,7.113358642578125,-0.018325956538319588,0.08368854224681854,-0.12034045159816742
1750065401514349800,7.129349853515625,-0.022602014243602753,0.10812314599752426,-0.06963863968849182
1750065401530280000,7.145280029296875,-0.0507018156349659,0.07880161702632904,-0.08674286305904388
1750065401546240800,7.16124072265625,-0.02015855349600315,0.08002334833145142,-0.07880161702632904
1750065401562201300,7.177201416015625,-0.01038470957428217,0.07696902006864548,-0.06963863968849182
1750065401578162200,7.193162109375,-0.00733038317412138,0.08307767659425735,-0.07513642311096191
1750065401594153200,7.2091533203125,-0.015882495790719986,0.059864792972803116,-0.0959058403968811
1750065401610114000,7.225114013671875,-0.02321287989616394,0.056810468435287476,-0.11789698898792267
1750065401626074600,7.24107470703125,-0.015882495790719986,0.05192354694008827,-0.1014036312699318
1750065401642035500,7.257035400390625,0.014049900695681572,0.05619960278272629,-0.07880161702632904
1750065401658026500,7.273026611328125,-0.001832595793530345,0.03237585723400116,-0.04764748737215996
1750065401674078700,7.28907861328125,-0.005497787147760391,-0.001832595793530345,-0.01466076634824276
1750065401690039600,7.30503955078125,0.009162978269159794,-0.05192354694008827,0.024434609338641167
1750065401705969700,7.3209697265625,0.025045474991202354,-0.08002334833145142,0.07208210229873657
1750065401721961000,7.3369609375,0.01710422709584236,-0.024434609338641167,0.09162978827953339
1750065401737921500,7.352921630859375,0.007941247895359993,-0.003054326167330146,0.06658431142568588
1750065401753943300,7.368943359375,0.00427605677396059,-0.015882495790719986,-0.01466076634824276
1750065401769873400,7.384873291015625,0.00733038317412138,0.009162978269159794,-0.04398229718208313
1750065401785864700,7.40086474609375,-0.0024434609804302454,0.021991148591041565,-0.05864306539297104
1750065401801825500,7.416825439453125,-0.02321287989616394,-0.01466076634824276,0.02932153269648552
1750065401817847000,7.432846923828125,-0.018325956538319588,-0.006719517521560192,-0.025656340643763542
1750065401833868800,7.448868896484375,0.00733038317412138,-0.04581489413976669,-0.00427605677396059
1750065401849829600,7.46482958984375,0.02076941914856434,-0.012828170321881771,0.0012217304902151227
1750065401865790200,7.480790283203125,-0.007941247895359993,-0.02626720629632473,0.05803219974040985
1750065401881812000,7.49681201171875,0.001832595793530345,-0.00366519158706069,0.10262536257505417
1750065401897803300,7.51280322265625,-0.00366519158706069,-0.012217304669320583,0.08552113175392151
1750065401913825000,7.528824951171875,-0.005497787147760391,-0.08307767659425735,0.03481931984424591
1750065401929785600,7.54478564453125,0.006719517521560192,-0.11178833991289139,0.014049900695681572
1750065401945777000,7.56077685546875,-0.00366519158706069,-0.10873401165008545,0.018325956538319588
1750065401961768000,7.576767822265625,-0.0012217304902151227,-0.11423180252313614,0.031154127791523933
1750065401977728800,7.592728759765625,-0.00427605677396059,-0.10201449692249298,0.04948008432984352
1750065401993781000,7.608781005859375,0.004886921960860491,-0.07147123664617538,0.08002334833145142
1750065402009741600,7.624741455078125,-0.00855211354792118,-0.04642575979232788,0.08491026610136032
1750065402025672000,7.640671875,-0.00855211354792118,-0.02076941914856434,0.04886921867728233
1750065402041663000,7.6566630859375,-0.007941247895359993,0.01038470957428217,-0.012828170321881771
1750065402065680400,7.680680419921875,-0.018936822190880775,0.05497787147760391,-0.07330382615327835
1750065402081671700,7.696671630859375,-0.02382374368607998,0.0555887371301651,-0.08368854224681854
1750065402105688800,7.720688720703125,-0.02321287989616394,0.039706241339445114,-0.06352998316287994
1750065402121680100,7.73668017578125,-0.02626720629632473,0.01710422709584236,-0.039706241339445114
1750065402137641000,7.752640869140625,-0.02626720629632473,0.003054326167330146,-0.025656340643763542
1750065402153662500,7.768662353515625,-0.02076941914856434,-0.0024434609804302454,0
1750065402169623300,7.784623291015625,-0.014049900695681572,-0.005497787147760391,0.02015855349600315
1750065402185583900,7.800583984375,-0.00733038317412138,-0.00855211354792118,0.022602014243602753
1750065402201544700,7.816544677734375,-0.0006108652451075613,-0.006719517521560192,0.019547687843441963
1750065402217505300,7.83250537109375,0.00366519158706069,-0.0012217304902151227,0.02076941914856434
1750065402233527000,7.848527099609375,0.004886921960860491,0.00366519158706069,0.01710422709584236
1750065402249488000,7.86448779296875,-0.0006108652451075613,-0.00427605677396059,0.01771509274840355
1750065402265448400,7.880448486328125,-0.00427605677396059,-0.007941247895359993,0.02321287989616394
1750065402281439700,7.896439697265625,-0.007941247895359993,-0.009162978269159794,0.036651913076639175
1750065402297400300,7.912400390625,-0.00855211354792118,-0.019547687843441963,0.04398229718208313
1750065402313452500,7.92845263671875,-0.00733038317412138,-0.02687807008624077,0.05375614017248154
1750065402329413400,7.944413330078125,-0.018325956538319588,-0.0403171069920063,0.06475171446800232
1750065402345404400,7.960404296875,-0.00733038317412138,-0.022602014243602753,0.07819075137376785
1750065402361395700,7.976395751953125,0.0006108652451075613,-0.027488935738801956,0.0757472887635231
1750065402377356500,7.9923564453125,0.001832595793530345,-0.02076941914856434,0.06108652427792549
1750065402393408800,8.00840869140625,0.006108652334660292,-0.01038470957428217,0.039706241339445114
1750065402409369300,8.024369384765626,0.006108652334660292,0.006719517521560192,0.009162978269159794
1750065402425330200,8.040330078125,0.0006108652451075613,0.03237585723400116,-0.012828170321881771
1750065402441321200,8.0563212890625,0.00733038317412138,0.0507018156349659,-0.033597588539123535
1750065402457282000,8.072281982421876,-0.013439035043120384,0.15882496535778046,0.07024950534105301
1750065402473303800,8.0883037109375,0.01710422709584236,0.06963863968849182,0.06414084881544113
1750065402489234000,8.10423388671875,0.04398229718208313,0.0006108652451075613,0.03787364438176155
1750065402505194500,8.120194580078126,0.013439035043120384,0.02015855349600315,0.09040805697441101
1750065402521155300,8.1361552734375,0.025045474991202354,-0.029932396486401558,0.08307767659425735
1750065402537085400,8.15208544921875,0.02076941914856434,-0.025045474991202354,0.07880161702632904
1750065402553107200,8.168107177734376,0.0012217304902151227,0.025045474991202354,0.09285151958465576
1750065402569037300,8.184037353515626,0.0024434609804302454,0.01160643994808197,0.039706241339445114
1750065402584998100,8.199998046875,-0.0006108652451075613,-0.001832595793530345,0.006719517521560192
1750065402600958700,8.215958740234376,0.0012217304902151227,-0.012828170321881771,-0.003054326167330146
1750065402616919300,8.231919189453125,0.00366519158706069,-0.02076941914856434,0.007941247895359993
1750065402632941000,8.247941162109376,0.004886921960860491,-0.02382374368607998,0.025656340643763542
1750065402648902000,8.26390185546875,0.0006108652451075613,-0.015882495790719986,0.033597588539123535
1750065402664862500,8.279862548828126,-0.00427605677396059,-0.013439035043120384,0.021380282938480377
1750065402680853800,8.295853759765626,-0.009773843921720982,-0.01038470957428217,-0.0006108652451075613
1750065402696814300,8.311814453125,-0.013439035043120384,-0.00855211354792118,-0.03237585723400116
1750065402712805600,8.3278056640625,-0.015271631069481373,-0.019547687843441963,-0.05192354694008827
1750065402728735700,8.34373583984375,-0.006719517521560192,-0.028099801391363144,-0.04886921867728233
1750065402744696600,8.359696533203126,0,-0.029932396486401558,-0.03420845419168472
1750065402760687600,8.3756875,0,-0.03848451003432274,-0.015271631069481373
1750065402776618000,8.391617919921876,0.009162978269159794,-0.054367005825042725,0.006108652334660292
1750065402792639700,8.4076396484375,0.009773843921720982,-0.05619960278272629,0.02871066704392433
1750065402808600300,8.423600341796876,0.009773843921720982,-0.05192354694008827,0.04092797264456749
1750065402824561000,8.439560791015625,0.00855211354792118,-0.031154127791523933,0.03787364438176155
1750065402840521700,8.455521728515626,0.009773843921720982,-0.003054326167330146,0.03481931984424591
1750065402856482300,8.471482421875,0.004886921960860491,-0.016493361443281174,0.004886921960860491
1750065402872473600,8.4874736328125,0.0006108652451075613,-0.013439035043120384,-0.021380282938480377
1750065402888403700,8.50340380859375,-0.00733038317412138,0.004886921960860491,-0.0403171069920063
1750065402904364500,8.519364501953126,-0.012217304669320583,0.01466076634824276,-0.04886921867728233
1750065402920355600,8.53535546875,-0.006108652334660292,0.013439035043120384,-0.03787364438176155
1750065402936316400,8.55131640625,0.004886921960860491,0.010995574295520782,0
1750065402952338200,8.567338134765626,0.015882495790719986,0.010995574295520782,0.03298672288656235
1750065402968298800,8.583298828125,0.025656340643763542,-0.004886921960860491,0.05192354694008827
1750065402984228900,8.599228759765625,0.019547687843441963,0.004886921960860491,0.051312681287527084
1750065403000220200,8.61522021484375,0.01038470957428217,-0.015271631069481373,0.045204028487205505
1750065403024237600,8.639237548828126,-0.013439035043120384,0.031154127791523933,0.14966198801994324
1750065403040167700,8.655167724609376,0.012828170321881771,-0.03298672288656235,0.018936822190880775
1750065403056097800,8.671097900390626,-0.00855211354792118,-0.11362093687057495,-0.021380282938480377
1750065403072119600,8.68711962890625,0.013439035043120384,-0.04092797264456749,0.018325956538319588
1750065403088049700,8.703049560546875,0.009773843921720982,-0.004886921960860491,0.0555887371301651
1750065403104010500,8.719010498046876,-0.014049900695681572,0.012217304669320583,0.08918632566928864
1750065403120001800,8.735001708984376,0,-0.031154127791523933,0.07696902006864548
1750065403143896800,8.758896728515625,-0.012217304669320583,0,-0.09407325088977814
1750065403159888100,8.77488818359375,0.00366519158706069,-0.02076941914856434,-0.1417207419872284
1750065403175849000,8.790848876953126,0.01710422709584236,-0.016493361443281174,-0.1270599663257599
1750065403191901200,8.806901123046876,0.04581489413976669,-0.045204028487205505,-0.05192354694008827
1750065403207831300,8.822831298828126,0.007941247895359993,0.031154127791523933,0.004886921960860491
1750065403223822600,8.838822509765626,-0.012217304669320583,0.05864306539297104,0.04092797264456749
1750065403239844000,8.854843994140625,-0.014049900695681572,0.07269296050071716,0.0403171069920063
1750065403255805000,8.870804931640626,-0.01160643994808197,0.06352998316287994,0.009162978269159794
1750065403271857200,8.886857177734376,-0.012217304669320583,0.07819075137376785,-0.012217304669320583
1750065403287817700,8.902817626953125,-0.013439035043120384,0.07635815441608429,-0.00427605677396059
1750065403303809000,8.91880908203125,-0.00733038317412138,0.04886921867728233,-0.0006108652451075613
1750065403319800300,8.93480029296875,0.00366519158706069,0.03298672288656235,-0.024434609338641167
1750065403335761000,8.950760986328126,0.015882495790719986,0.00427605677396059,-0.021380282938480377
1750065403351782700,8.96678271484375,0.006108652334660292,0.09346238523721695,-0.08185594528913498
1750065403367712800,8.982712646484375,-0.007941247895359993,0.10934487730264664,-0.10201449692249298
1750065403383704000,8.9987041015625,0.02076941914856434,0.11850785464048386,-0.02871066704392433
1750065403399665000,9.014664794921876,0.027488935738801956,0.09957103431224823,0.060475658625364304
1750065403415625500,9.03062548828125,0.04948008432984352,0.039095375686883926,0.06841690838336945
1750065403431647200,9.046647216796876,0.05192354694008827,0.027488935738801956,0.027488935738801956
1750065403447577300,9.062577392578126,0.01710422709584236,0.03420845419168472,-0.051312681287527084
1750065403463507500,9.078507568359376,-0.0012217304902151227,0.0507018156349659,-0.1111774742603302
1750065403479498800,9.094498779296876,-0.0024434609804302454,0.021380282938480377,-0.13011430203914642
1750065403495459300,9.110459228515625,0.015271631069481373,0.0012217304902151227,-0.04948008432984352
1750065403511450600,9.12645068359375,0.021380282938480377,-0.018936822190880775,0.02321287989616394
1750065403527411500,9.142411376953126,0.014049900695681572,-0.004886921960860491,0.05864306539297104
1750065403543402500,9.158402587890626,-0.00366519158706069,0.01160643994808197,0.05253441259264946
1750065403559363300,9.17436328125,0.0006108652451075613,-0.06169738993048668,0.015271631069481373
1750065403575324000,9.190323974609376,-0.001832595793530345,0.09468411654233932,-0.0959058403968811
1750065403591315200,9.206315185546876,-0.024434609338641167,0.11423180252313614,-0.11423180252313614
1750065403615210500,9.23021044921875,0.014049900695681572,0.027488935738801956,-0.06230825558304787
1750065403631232300,9.246232177734376,0.02076941914856434,0,-0.03848451003432274
1750065403647192800,9.26219287109375,0.01160643994808197,0.022602014243602753,-0.01160643994808197
1750065403663214600,9.278214599609376,-0.00366519158706069,0.03481931984424591,0.019547687843441963
1750065403679175200,9.294175048828125,-0.025656340643763542,0.0403171069920063,0.03176499158143997
1750065403695136000,9.310135986328126,-0.039706241339445114,0.051312681287527084,0.05619960278272629
1750065403711157800,9.32615771484375,-0.025045474991202354,-0.03420845419168472,0.012217304669320583
1750065403727118300,9.342118408203126,-0.01466076634824276,-0.08002334833145142,0.03726277872920036
1750065403743109600,9.358109619140626,0.02382374368607998,-0.1215621829032898,0.13072516024112701
1750065403759070200,9.3740703125,0.004886921960860491,0.001832595793530345,0.06230825558304787
1750065403775061500,9.3900615234375,-0.0006108652451075613,-0.03176499158143997,0.05742133408784866
1750065403791083300,9.406083251953126,-0.001832595793530345,-0.01038470957428217,0.03237585723400116
1750065403807013400,9.422013427734376,-0.00427605677396059,-0.009773843921720982,0.02382374368607998
1750065403822974200,9.43797412109375,0.01710422709584236,-0.06169738993048668,0.03298672288656235
1750065403838934800,9.453934814453126,0.01038470957428217,-0.027488935738801956,-0.0006108652451075613
1750065403854895400,9.469895263671875,-0.0024434609804302454,-0.021380282938480377,-0.01710422709584236
1750065403870886700,9.48588671875,0.006108652334660292,-0.01466076634824276,0.012217304669320583
1750065403886786300,9.501786376953126,0.01771509274840355,-0.009162978269159794,0.05375614017248154
1750065403902777600,9.517777587890626,0.02015855349600315,-0.019547687843441963,0.12095131725072861
1750065403918769000,9.533768798828126,0.025656340643763542,-0.06414084881544113,0.182648703455925
1750065403934729500,9.5497294921875,0.04092797264456749,-0.10201449692249298,0.18631389737129211
1750065403950751200,9.565751220703126,0.04581489413976669,-0.11362093687057495,0.11362093687057495
1750065403966681300,9.581681396484376,0.025045474991202354,0.00427605677396059,0.025045474991202354
1750065403982672600,9.597672607421876,0.01038470957428217,-0.001832595793530345,0.00427605677396059
1750065403998663700,9.61366357421875,0.021380282938480377,0.0024434609804302454,0.036041051149368286
1750065404014655000,9.629655029296876,0.019547687843441963,-0.06291911751031876,0.06780604273080826
1750065404030676700,9.6456767578125,0.02382374368607998,-0.07269296050071716,0.06169738993048668
1750065404046637300,9.66163720703125,0.004886921960860491,0.007941247895359993,0.0354301854968071
1750065404062567700,9.677567626953126,-0.015271631069481373,0.04092797264456749,-0.001832595793530345
1750065404078528300,9.6935283203125,-0.025045474991202354,0.018936822190880775,0.07147123664617538
1750065404094458400,9.709458251953125,0.009162978269159794,0.012217304669320583,-0.03176499158143997
1750065404110480100,9.725480224609376,0.012828170321881771,-0.08002334833145142,0.08735372871160507
1750065404126410500,9.741410400390626,0.016493361443281174,-0.05009094998240471,0.25045475363731384
1750065404142401500,9.757401611328126,0.010995574295520782,-0.08185594528913498,0.30054569244384766
1750065404158392800,9.773392822265626,0.015882495790719986,-0.0959058403968811,0.1820378452539444
1750065404174414600,9.78941455078125,0.02015855349600315,-0.1007927656173706,0.06108652427792549
1750065404190436400,9.805436279296876,0.033597588539123535,-0.06475171446800232,-0.009162978269159794
1750065404206366500,9.821366455078126,0.009162978269159794,0.06841690838336945,-0.07208210229873657
1750065404222327000,9.8373271484375,0.010995574295520782,0.0708603709936142,-0.056810468435287476
1750065404238318300,9.853318359375,0.025045474991202354,-0.0006108652451075613,-0.03481931984424591
1750065404254248400,9.86924853515625,0.021380282938480377,0.021991148591041565,-0.01160643994808197
1750065404270270200,9.885270263671876,0.022602014243602753,0.04886921867728233,-0.04764748737215996
1750065404294196000,9.909196044921876,-0.01466076634824276,0.06841690838336945,-0.11667526513338089
1750065404310217700,9.9252177734375,-0.00733038317412138,-0.014049900695681572,-0.09712757170200348
1750065404326147800,9.94114794921875,0.02932153269648552,-0.027488935738801956,0.028099801391363144
1750065404342139100,9.95713916015625,0.022602014243602753,-0.00427605677396059,0.08918632566928864
1750065404358191400,9.97319140625,0.00427605677396059,-0.022602014243602753,0.04581489413976669
1750065404374121500,9.98912158203125,-0.00427605677396059,-0.021380282938480377,-0.0555887371301651
1750065404390173700,10.005173583984375,-0.0006108652451075613,-0.04581489413976669,-0.10995574295520782
1750065404406104000,10.02110400390625,0.016493361443281174,-0.022602014243602753,-0.09529497474431992
1750065404422125800,10.037125732421876,0.01710422709584236,0.013439035043120384,-0.039706241339445114
1750065404438116900,10.053116943359376,0.003054326167330146,0.07941248267889023,-0.028099801391363144
1750065404454077700,10.06907763671875,-0.02687807008624077,0.0910189226269722,-0.04703662544488907
1750065404470130000,10.0851298828125,-0.006108652334660292,0.01160643994808197,-0.2021963894367218
1750065404486060000,10.10106005859375,0.022602014243602753,-0.01710422709584236,-0.2076941877603531
1750065404502051300,10.11705126953125,0.018936822190880775,0.00366519158706069,-0.04153883829712868
1750065404518042400,10.13304248046875,0.007941247895359993,0.012217304669320583,0.08979719132184982
1750065404534033700,10.14903369140625,-0.00427605677396059,-0.007941247895359993,0.09162978827953339
1750065404550055400,10.165055419921876,0.006719517521560192,-0.07147123664617538,0.045204028487205505
1750065404566016000,10.18101611328125,0.048258353024721146,-0.07757988572120667,0.036041051149368286
1750065404581976800,10.196976806640626,0.04398229718208313,-0.027488935738801956,0.05009094998240471
1750065404597937400,10.2129375,0.015882495790719986,0.016493361443281174,0.0403171069920063
1750065404613898200,10.228898193359376,-0.006719517521560192,0.04886921867728233,0.02321287989616394
1750065404629950500,10.244950439453126,-0.021380282938480377,0.01771509274840355,-0.018936822190880775
1750065404645941500,10.26094140625,-0.012828170321881771,-0.05375614017248154,-0.0861319974064827
1750065404661902300,10.27690234375,0.0024434609804302454,-0.029932396486401558,0.024434609338641167
1750065404677893600,10.2928935546875,-0.02626720629632473,-0.04948008432984352,0.1459967941045761
1750065404693854200,10.308854248046876,-0.06719517707824707,-0.04092797264456749,0.18509216606616974
1750065404709876000,10.3248759765625,-0.07696902006864548,-0.05742133408784866,0.16432274878025055
1750065404725806000,10.34080615234375,-0.05619960278272629,-0.18448130786418915,0.04581489413976669
1750065404741797400,10.35679736328125,-0.012828170321881771,-0.003054326167330146,0.06108652427792549
1750065404757758000,10.372758056640626,-0.05253441259264946,0.14416420459747314,0.05375614017248154
1750065404773749200,10.388749267578126,-0.05497787147760391,0.07941248267889023,-0.006108652334660292
1750065404789740500,10.404740478515626,-0.060475658625364304,0.06291911751031876,-0.029932396486401558
1750065404805670700,10.420670654296876,-0.05314527451992035,0.018325956538319588,-0.0403171069920063
1750065404821631200,10.43663134765625,-0.01160643994808197,-0.06963863968849182,-0.02382374368607998
1750065404837622500,10.45262255859375,0.006108652334660292,-0.07635815441608429,0.02321287989616394
1750065404853583000,10.4685830078125,-0.01710422709584236,0.06780604273080826,0.07330382615327835
1750065404869604900,10.48460498046875,-0.042760565876960754,0.4392121136188507,0.00427605677396059
1750065404885535200,10.50053515625,-0.02932153269648552,-0.01038470957428217,-0.15454891324043274
1750065404901495800,10.516495849609376,0.04459316283464432,-0.16065755486488342,-0.10567969083786011
1750065404917456600,10.53245654296875,0.04214970022439957,-0.15577064454555511,0.08979719132184982
1750065404933478100,10.54847802734375,-0.005497787147760391,-0.0012217304902151227,0.2321287989616394
1750065404949500000,10.5645,0.012217304669320583,0.07269296050071716,0.2669481039047241
1750065404965460700,10.580460693359376,0.04764748737215996,-0.02076941914856434,0.17592918872833252
1750065404981451800,10.59645166015625,0.05253441259264946,-0.07269296050071716,0.05742133408784866
1750065404997443000,10.612443115234376,0.05925392732024193,-0.0910189226269722,0.021991148591041565
1750065405013404000,10.62840380859375,0.051312681287527084,-0.027488935738801956,0.019547687843441963
1750065405029456100,10.6444560546875,0.025045474991202354,0.016493361443281174,-0.0006108652451075613
1750065405045416700,10.660416748046876,0.0024434609804302454,0.04703662544488907,-0.04214970022439957
1750065405061377500,10.67637744140625,0.0012217304902151227,0.04214970022439957,-0.08002334833145142
1750065405077368600,10.69236865234375,0.005497787147760391,0.016493361443281174,-0.0910189226269722
1750065405093359900,10.70835986328125,0.00855211354792118,0.024434609338641167,-0.08124507963657379
1750065405109412000,10.724412109375,-0.00427605677396059,0.04092797264456749,-0.08185594528913498
1750065405125372700,10.74037255859375,-0.009773843921720982,0.02687807008624077,-0.09162978827953339
1750065405141364000,10.756364013671876,-0.01160643994808197,0.03176499158143997,-0.10201449692249298
1750065405157385700,10.7723857421875,-0.01466076634824276,0.05375614017248154,-0.09407325088977814
1750065405181342000,10.796342041015626,-0.019547687843441963,0.06475171446800232,-0.02687807008624077
1750065405197302800,10.812302734375,0.00366519158706069,0.0012217304902151227,0.056810468435287476
1750065405213293800,10.8282939453125,0.02076941914856434,-0.021991148591041565,0.12339477986097336
1750065405229315600,10.844315673828126,0.018936822190880775,-0.016493361443281174,0.15515977144241333
1750065405245276400,10.8602763671875,0.014049900695681572,-0.031154127791523933,0.14233160018920898
1750065405261206500,10.87620654296875,0.015882495790719986,-0.028099801391363144,0.10567969083786011
1750065405277197800,10.89219775390625,0.004886921960860491,-0.009773843921720982,0.04214970022439957
1750065405293158400,10.908158447265626,-0.01160643994808197,0.015271631069481373,-0.022602014243602753
1750065405309180200,10.92418017578125,-0.021380282938480377,0.04398229718208313,-0.07880161702632904
1750065405325079800,10.940079833984376,-0.01710422709584236,0.036651913076639175,-0.11911872029304504
1750065405341040400,10.956040283203125,-0.009162978269159794,0.014049900695681572,-0.1258382350206375
1750065405357031700,10.97203173828125,-0.003054326167330146,0.006108652334660292,-0.10751228034496307
1750065405372961800,10.9879619140625,-0.0012217304902151227,0.01038470957428217,-0.08185594528913498
1750065405388983600,11.003983642578126,0,0.0757472887635231,-0.07391469180583954
1750065405404944400,11.0199443359375,-0.013439035043120384,0.1258382350206375,-0.09162978827953339
1750065405420935400,11.035935302734375,0.0024434609804302454,0.03848451003432274,-0.17592918872833252
1750065405436957200,11.051957275390626,0.0012217304902151227,-0.04337143152952194,-0.18570303916931152
1750065405452979000,11.06797900390625,0.0024434609804302454,0.009162978269159794,-0.08735372871160507
1750065405468939800,11.083939697265626,0.015882495790719986,0.08185594528913498,0.08918632566928864
1750065405484870000,11.099869873046876,0.010995574295520782,0.1007927656173706,0.14416420459747314
1750065405500861200,11.115861083984376,0.021991148591041565,-0.0024434609804302454,0.0910189226269722
1750065405516821800,11.13182177734375,0.021991148591041565,-0.019547687843441963,-0.00733038317412138
1750065405532752000,11.147751953125,0.01160643994808197,0.00733038317412138,-0.06108652427792549
1750065405548773600,11.163773681640626,0.006108652334660292,0.033597588539123535,-0.07024950534105301
1750065405564734500,11.179734375,-0.006108652334660292,0.08185594528913498,-0.07024950534105301
1750065405580725500,11.1957255859375,-0.025656340643763542,0.13377949595451355,-0.07880161702632904
1750065405596686300,11.211686279296876,-0.030543262138962746,0.18387043476104736,-0.11911872029304504
1750065405612708000,11.2277080078125,-0.02932153269648552,0.21074850857257843,-0.09834930300712585
1750065405628729600,11.2437294921875,-0.005497787147760391,0.042760565876960754,-0.16798794269561768
1750065405644660000,11.259659912109376,0.025656340643763542,-0.1362229436635971,-0.15577064454555511
1750065405660651000,11.275651123046876,0.054367005825042725,-0.051312681287527084,-0.03237585723400116
1750065405676672800,11.2916728515625,0.014049900695681572,-0.01771509274840355,0.0555887371301651
1750065405692633600,11.307633544921876,0.01160643994808197,0.06841690838336945,0.05925392732024193
1750065405708655400,11.3236552734375,-0.04764748737215996,0.10567969083786011,-0.05925392732024193
1750065405724646400,11.339646484375,-0.03848451003432274,0.07391469180583954,-0.21624629199504852
1750065405740607200,11.355607177734376,-0.04398229718208313,-0.0507018156349659,-0.4050036668777466
1750065405756598300,11.371598388671876,-0.015882495790719986,-0.1569923609495163,-0.4709770977497101
1750065405772559000,11.38755908203125,0.015271631069481373,0.11911872029304504,-0.23945917189121246
1750065405788611300,11.403611328125,0.018936822190880775,0.1466076523065567,-0.05375614017248154
1750065405804572000,11.419572021484376,-0.00855211354792118,0.18631389737129211,0.0012217304902151227
1750065405820532700,11.43553271484375,-0.02015855349600315,0.1111774742603302,-0.059864792972803116
1750065405836493300,11.451493408203126,-0.03420845419168472,0.12522737681865692,-0.13072516024112701
1750065405852454100,11.4674541015625,0.0012217304902151227,-0.23029619455337524,-0.252287358045578
1750065405868445200,11.483445068359375,0.03848451003432274,-0.12400564551353455,-0.1014036312699318
1750065405884406000,11.499406005859376,0.00855211354792118,0.0806342139840126,0.14477506279945374
1750065405900366600,11.51536669921875,-0.01771509274840355,0.10018189996480942,0.15027284622192383
1750065405916327400,11.531327392578126,-0.003054326167330146,0.015882495790719986,0.036041051149368286
1750065405932349200,11.54734912109375,0.03176499158143997,-0.07330382615327835,-0.018325956538319588
1750065405948309800,11.563309814453126,0.033597588539123535,-0.06719517707824707,0.025656340643763542
1750065405964240000,11.579239990234376,0.01710422709584236,-0.025656340643763542,0.08796459436416626
1750065405980170200,11.595170166015626,0.009773843921720982,-0.01771509274840355,0.10690141469240189
1750065405996161300,11.611161376953126,-0.018936822190880775,0.07330382615327835,0.09468411654233932
1750065406012061000,11.62706103515625,-0.02321287989616394,-0.07757988572120667,-0.06291911751031876
1750065406028113200,11.643113037109375,0,-0.06719517707824707,-0.06352998316287994
1750065406044074000,11.659073974609376,0.010995574295520782,-0.056810468435287476,0.036041051149368286
1750065406060034600,11.67503466796875,0.012217304669320583,0.003054326167330146,0.08918632566928864
1750065406076025900,11.69102587890625,-0.007941247895359993,-0.06536258012056351,0.0403171069920063
1750065406091956000,11.7069560546875,0.003054326167330146,-0.09957103431224823,0.00366519158706069
1750065406107977700,11.722977783203126,0.003054326167330146,-0.03848451003432274,0.006719517521560192
1750065406123938600,11.7389384765625,0.009773843921720982,0.012828170321881771,0.006108652334660292
1750065406139899100,11.754899169921876,0.0024434609804302454,0.016493361443281174,-0.02382374368607998
1750065406155890400,11.770890380859376,-0.018325956538319588,0.0910189226269722,-0.018325956538319588
1750065406171851000,11.78685107421875,-0.022602014243602753,-0.04214970022439957,-0.1062905490398407
1750065406187872800,11.802872802734376,0.012217304669320583,-0.18509216606616974,-0.09957103431224823
1750065406203833300,11.818833251953125,0.00427605677396059,-0.006719517521560192,-0.06536258012056351
1750065406219824600,11.83482470703125,-0.018936822190880775,0.054367005825042725,0.02015855349600315
1750065406235785500,11.850785400390626,-0.00427605677396059,0.01038470957428217,0.03481931984424591
1750065406251776500,11.866776611328126,0.025045474991202354,-0.014049900695681572,0.03848451003432274
1750065406267798300,11.88279833984375,0.0403171069920063,-0.04337143152952194,0.07269296050071716
1750065406283728400,11.898728271484375,0.06169738993048668,-0.11362093687057495,0.12828169763088226
1750065406299689200,11.914689208984376,0.0659734457731247,-0.08124507963657379,0.1466076523065567
1750065406315649800,11.93064990234375,0.02871066704392433,-0.018325956538319588,0.10934487730264664
1750065406331641000,11.94664111328125,0.009162978269159794,0.05192354694008827,0.02871066704392433
1750065406347571200,11.9625712890625,-0.02076941914856434,0.17592918872833252,0.056810468435287476
1750065406363501600,11.97850146484375,-0.012217304669320583,0.04214970022439957,-0.1612684279680252
1750065406379492600,11.99449267578125,-0.01038470957428217,-0.02871066704392433,-0.2370157092809677
1750065406395422700,12.010422607421875,0.018936822190880775,0.0507018156349659,-0.13866640627384186
1750065406411383600,12.026383544921876,0.018325956538319588,0.0659734457731247,-0.039706241339445114
1750065406427405300,12.0424052734375,0.01038470957428217,0.08674286305904388,0.00733038317412138
1750065406443335400,12.05833544921875,-0.00427605677396059,-0.19425514340400696,0.09285151958465576
1750065406459326700,12.07432666015625,-0.009162978269159794,0.1014036312699318,-0.0708603709936142
1750065406483344000,12.09834375,-0.029932396486401558,0.07024950534105301,-0.17409659922122955
1750065406499304700,12.1143046875,0.015882495790719986,0.06230825558304787,-0.14905111491680145
1750065406515265300,12.130265380859376,0.022602014243602753,0.04459316283464432,-0.04092797264456749
1750065406531256600,12.146256591796876,0.01160643994808197,0.006719517521560192,0.10323622822761536
1750065406547308800,12.162308837890626,0.012828170321881771,0.0006108652451075613,0.08979719132184982
1750065406563269600,12.17826953125,-0.00733038317412138,0.029932396486401558,0.01160643994808197
1750065406579260700,12.1942607421875,-0.01771509274840355,0.04886921867728233,-0.033597588539123535
1750065406595252000,12.210251953125,-0.012828170321881771,0.00366519158706069,0.0012217304902151227
1750065406611212500,12.226212646484376,-0.00427605677396059,-0.06108652427792549,0.0354301854968071
1750065406627234300,12.242234375,0.02932153269648552,-0.15332718193531036,0.06536258012056351
1750065406643195100,12.258195068359376,0.02382374368607998,-0.1612684279680252,0.012828170321881771
1750065406659217000,12.274216796875,-0.009162978269159794,-0.025656340643763542,-0.08002334833145142
1750065406675208000,12.2902080078125,-0.042760565876960754,0.07941248267889023,-0.06414084881544113
1750065406691168800,12.306168701171876,-0.039095375686883926,0.14355333149433136,0.0012217304902151227
1750065406707190500,12.3221904296875,-0.042760565876960754,-0.02626720629632473,0.17409659922122955
1750065406723151000,12.338151123046876,0.027488935738801956,-0.22479841113090515,0.2718350291252136
1750065406739142400,12.354142333984376,0.024434609338641167,-0.16554448008537292,0.21624629199504852
1750065406755164200,12.3701640625,-0.003054326167330146,-0.11728613078594208,0.1618792861700058
1750065406771155200,12.3861552734375,-0.006108652334660292,-0.13072516024112701,0.15515977144241333
1750065406787177000,12.402177001953126,0.0012217304902151227,-0.15882496535778046,0.21380282938480377
1750065406803137800,12.4181376953125,0.0006108652451075613,-0.21135938167572021,0.29504790902137756
1750065406819068000,12.43406787109375,0.00733038317412138,-0.2974913716316223,0.36163222789764404
1750065406835059000,12.450058837890625,-0.06902777403593063,-0.6065891981124878,0.18081611394882202
1750065406851050200,12.46605029296875,0.003054326167330146,-0.5241223573684692,0.05009094998240471
1750065406867041500,12.48204150390625,0.060475658625364304,-0.029932396486401558,0.006719517521560192
1750065406882941200,12.497941162109376,-0.019547687843441963,0.12339477986097336,-0.11239920556545258
1750065406898853600,12.513853515625,-0.030543262138962746,0.18081611394882202,-0.14538592100143433
1750065406914814200,12.529814208984375,-0.015271631069481373,0.1062905490398407,-0.09712757170200348
1750065406930744300,12.545744384765625,0.009162978269159794,0.06414084881544113,0.00733038317412138
1750065406946766000,12.56176611328125,-0.004886921960860491,0.04764748737215996,0.00366519158706069
1750065406962696200,12.5776962890625,-0.012828170321881771,0.10751228034496307,-0.09529497474431992
1750065406978657000,12.593656982421875,-0.042760565876960754,0.14538592100143433,-0.11056660860776901
1750065406994617600,12.60961767578125,-0.036651913076639175,0.12950342893600464,0.021380282938480377
1750065407010609000,12.62560888671875,-0.009162978269159794,0.02321287989616394,0.14294247329235077
1750065407026569500,12.641569580078125,0.0403171069920063,-0.07147123664617538,0.15393804013729095
1750065407042499800,12.657499755859375,0.07452555745840073,-0.1319468915462494,0.14538592100143433
1750065407058491000,12.673490966796875,0.031154127791523933,0.045204028487205505,-0.027488935738801956
1750065407074482200,12.689482177734375,-0.01771509274840355,0.08246681094169617,-0.13561208546161652
1750065407090473500,12.705473388671875,-0.031154127791523933,0.06902777403593063,-0.16554448008537292
1750065407106525700,12.721525634765625,-0.016493361443281174,0.06536258012056351,-0.1411098688840866
1750065407122455800,12.737455810546875,-0.010995574295520782,0.01038470957428217,-0.07330382615327835
1750065407138416600,12.753416748046876,0.005497787147760391,-0.05009094998240471,-0.04337143152952194
1750065407154407700,12.76940771484375,0.01160643994808197,-0.0659734457731247,0.04092797264456749
1750065407170368500,12.785368408203125,-0.009773843921720982,0.01771509274840355,0.07330382615327835
1750065407186390300,12.801390380859376,-0.036651913076639175,0.03481931984424591,0.030543262138962746
1750065407202350800,12.817350830078125,-0.019547687843441963,-0.004886921960860491,-0.036041051149368286
1750065407218342100,12.833342041015625,0.010995574295520782,-0.028099801391363144,-0.06780604273080826
1750065407234333200,12.849333251953125,0.007941247895359993,0.00427605677396059,-0.04764748737215996
1750065407250294000,12.8652939453125,-0.010995574295520782,0.04459316283464432,-0.05375614017248154
1750065407266346200,12.88134619140625,-0.06352998316287994,0.15454891324043274,-0.04764748737215996
1750065407282276400,12.8972763671875,-0.08307767659425735,0.11362093687057495,-0.13377949595451355
1750065407298298000,12.913298095703125,-0.07757988572120667,0.051312681287527084,-0.14477506279945374
1750065407314289400,12.929289306640625,-0.05253441259264946,-0.015271631069481373,-0.10873401165008545
1750065407330250000,12.94525,-0.033597588539123535,-0.03420845419168472,-0.02015855349600315
1750065407346302200,12.96130224609375,-0.019547687843441963,0.012828170321881771,0.04703662544488907
1750065407362263000,12.977262939453125,-0.009162978269159794,-0.03726277872920036,0.03237585723400116
1750065407378284800,12.993284912109376,0.009162978269159794,-0.08857546001672745,0.01771509274840355
1750065407394245400,13.009245361328125,0.02015855349600315,-0.12522737681865692,0.031154127791523933
1750065407410206000,13.0252060546875,0.025045474991202354,-0.12339477986097336,0.0555887371301651
1750065407426227700,13.041227783203125,0.015882495790719986,-0.042760565876960754,0.1563815027475357
1750065407442158000,13.057157958984375,0.013439035043120384,-0.05375614017248154,0.11972958594560623
1750065407458118700,13.07311865234375,0.02076941914856434,-0.14416420459747314,0.05192354694008827
1750065407474079200,13.089079345703125,0.04337143152952194,-0.11301007121801376,0.02871066704392433
1750065407490040000,13.1050400390625,0.04337143152952194,-0.15577064454555511,0.07880161702632904
1750065407506092300,13.12109228515625,0.04337143152952194,-0.09896016865968704,0.24373523890972137
1750065407522022400,13.1370224609375,0.01466076634824276,0.0403171069920063,0.2480112910270691
1750065407538013700,13.153013671875,0.01038470957428217,0.012217304669320583,0.12461651116609573
1750065407554005000,13.1690048828125,0.009773843921720982,-0.06475171446800232,0.001832595793530345
1750065407569996000,13.18499609375,0.018325956538319588,-0.028099801391363144,-0.07208210229873657
1750065407586017800,13.201017822265625,0.02321287989616394,0.006719517521560192,-0.09529497474431992
1750065407601948000,13.216947998046875,0.010995574295520782,0.06169738993048668,-0.08246681094169617
1750065407625965300,13.24096533203125,-0.009162978269159794,0.12339477986097336,-0.1111774742603302
1750065407641926100,13.256926025390625,-0.0354301854968071,0.11545353382825851,-0.021380282938480377
1750065407657917200,13.272917236328125,0.015271631069481373,-0.03848451003432274,-0.17104226350784302
1750065407673939000,13.28893896484375,0.048258353024721146,-0.11056660860776901,-0.10690141469240189
1750065407689930200,13.30493017578125,0.04642575979232788,0.0012217304902151227,0.09529497474431992
1750065407705921300,13.32092138671875,-0.007941247895359993,0.06780604273080826,0.17837265133857727
1750065407721851600,13.3368515625,-0.02076941914856434,0.09224065393209457,0.11362093687057495
1750065407737781800,13.35278173828125,-0.005497787147760391,0.05314527451992035,0
1750065407753742300,13.368742431640625,-0.02382374368607998,0.11545353382825851,-0.07696902006864548
1750065407769672700,13.384672607421875,-0.039095375686883926,0.16371189057826996,-0.11056660860776901
1750065407785725000,13.400724853515625,-0.02015855349600315,0.2321287989616394,-0.021991148591041565
1750065407801716000,13.416716064453125,-0.01160643994808197,0.2981022298336029,0.10262536257505417
1750065407817676800,13.4326767578125,0,0.2730567753314972,0.1618792861700058
1750065407833668000,13.448668212890626,-0.0006108652451075613,0.23090706765651703,0.14233160018920898
1750065407849628700,13.464628662109375,-0.018325956538319588,0.1918116807937622,0.11545353382825851
1750065407865650400,13.480650390625,-0.01160643994808197,0.1514945775270462,0.13866640627384186
1750065407881580500,13.49658056640625,0.004886921960860491,0.059864792972803116,0.16798794269561768
1750065407897510700,13.5125107421875,0.022602014243602753,0.005497787147760391,0.16493362188339233
1750065407913471500,13.528471435546875,0.024434609338641167,0.01710422709584236,0.12217304855585098
1750065407929462500,13.544462646484375,0.018325956538319588,0.03848451003432274,0.05192354694008827
1750065407945515000,13.560514892578125,0.006719517521560192,0.08735372871160507,-0.04703662544488907
1750065407961506000,13.576506103515625,0.0012217304902151227,0.1160643994808197,-0.11545353382825851
1750065407977467000,13.592466796875,0.007941247895359993,0.1014036312699318,-0.1417207419872284
1750065407993458000,13.6084580078125,0.007941247895359993,0.05375614017248154,-0.08918632566928864
1750065408009418800,13.624418701171875,-0.00427605677396059,-0.003054326167330146,-0.02382374368607998
1750065408025440500,13.6404404296875,-0.02932153269648552,0.001832595793530345,0.004886921960860491
1750065408041401000,13.656401123046875,-0.056810468435287476,0.02932153269648552,0.02382374368607998
1750065408057392400,13.672392333984375,-0.07880161702632904,0.039706241339445114,0.04886921867728233
1750065408073383700,13.6883837890625,-0.0507018156349659,0.03237585723400116,0.09162978827953339
1750065408089313800,13.704313720703125,-0.00427605677396059,0.025656340643763542,0.14538592100143433
1750065408105335600,13.72033544921875,0.01038470957428217,0.054367005825042725,0.17776179313659668
1750065408121296100,13.736296142578125,-0.027488935738801956,0.054367005825042725,0.1612684279680252
1750065408137257000,13.752257080078126,-0.015271631069481373,-0.012828170321881771,0.18020524084568024
1750065408153248000,13.768248046875,0.01466076634824276,0.05742133408784866,0.26450464129447937
1750065408169208800,13.784208740234375,-0.02382374368607998,0.5943718552589417,0.1215621829032898
1750065408185230600,13.800230712890626,-0.003054326167330146,0.025045474991202354,-0.07330382615327835
1750065408201221600,13.8162216796875,0.00366519158706069,-0.0708603709936142,-0.15393804013729095
1750065408217213000,13.832212890625,-0.03420845419168472,-0.2015855312347412,0.039706241339445114
1750065408233173500,13.848173583984375,0.018936822190880775,-0.16065755486488342,0.27122417092323303
1750065408249134300,13.86413427734375,0.09285151958465576,-0.07147123664617538,0.35246923565864563
1750065408265156000,13.880156005859375,0.06658431142568588,-0.13744467496871948,0.17531833052635193
1750065408281116700,13.89611669921875,0.05742133408784866,-0.2217440903186798,-0.024434609338641167
1750065408297108000,13.91210791015625,0.04214970022439957,-0.2028072625398636,-0.19547687470912933
1750065408321094700,13.9360947265625,0.03298672288656235,-0.1466076523065567,-0.2528982162475586
1750065408337055500,13.952055419921875,0.024434609338641167,-0.10567969083786011,-0.22663100063800812
1750065408353016000,13.96801611328125,0.015882495790719986,-0.048258353024721146,-0.1869247704744339
1750065408368946200,13.9839462890625,0.00733038317412138,-0.004886921960860491,-0.16004669666290283
1750065408384968000,13.999968017578125,0.014049900695681572,0.0354301854968071,-0.16004669666290283
1750065408400898300,14.015898193359375,0.006108652334660292,-0.00855211354792118,-0.17959438264369965
1750065408416889300,14.031889404296875,0.02015855349600315,0.0012217304902151227,-0.17959438264369965
1750065408432850200,14.04785009765625,0.016493361443281174,-0.012828170321881771,-0.13927727937698364
1750065408448810800,14.063810791015625,0.012217304669320583,-0.015882495790719986,-0.08796459436416626
1750065408464832500,14.07983251953125,-0.0012217304902151227,0.0024434609804302454,-0.036651913076639175
1750065408480793300,14.09579345703125,-0.00855211354792118,0.031154127791523933,-0.00427605677396059
1750065408496784400,14.111784423828125,-0.014049900695681572,0.04398229718208313,0.016493361443281174
1750065408512714500,14.127714599609375,-0.01038470957428217,0.02932153269648552,0.02687807008624077
1750065408528736300,14.143736328125,0.0024434609804302454,0.014049900695681572,0.033597588539123535
1750065408544758000,14.159758056640625,0.01160643994808197,0.0012217304902151227,0.03237585723400116
1750065408560688000,14.175688232421875,0.025656340643763542,-0.09346238523721695,0.00733038317412138
1750065408576618500,14.191618408203125,0.005497787147760391,0.025045474991202354,-0.08674286305904388
1750065408592579000,14.2075791015625,-0.005497787147760391,0.028099801391363144,-0.10995574295520782
1750065408608509200,14.22350927734375,-0.007941247895359993,0.0806342139840126,-0.09407325088977814
1750065408624531000,14.239531005859375,-0.012217304669320583,0.09896016865968704,-0.04092797264456749
1750065408640491800,14.25549169921875,0.009162978269159794,-0.021380282938480377,0.03176499158143997
1750065408656452400,14.271452392578125,0.010995574295520782,0.06108652427792549,0.039095375686883926
1750065408672413200,14.2874130859375,-0.005497787147760391,0.06414084881544113,-0.07696902006864548
1750065408688373800,14.303373779296875,-0.005497787147760391,-0.07757988572120667,-0.12950342893600464
1750065408704395500,14.3193955078125,0.04337143152952194,-0.10201449692249298,-0.02626720629632473
1750065408720386800,14.33538671875,0.13927727937698364,-0.2064724564552307,0.18387043476104736
1750065408736347400,14.351347412109375,0.14782938361167908,-0.22907446324825287,0.31520646810531616
1750065408752308200,14.36730810546875,0.1569923609495163,-0.2070833146572113,0.4306600093841553
1750065408768268800,14.383268798828125,0.14294247329235077,-0.2687807083129883,0.5100724697113037
1750065408784321000,14.399321044921875,0.14416420459747314,-0.29993483424186707,0.4758640229701996
1750065408800281900,14.41528173828125,0.1270599663257599,-0.31093040108680725,0.37629300355911255
1750065408816273000,14.43127294921875,0.10873401165008545,-0.27611109614372253,0.29138273000717163
1750065408832264200,14.44726416015625,0.08918632566928864,-0.25534167885780334,0.20830504596233368
1750065408848255500,14.46325537109375,0.08002334833145142,-0.19364428520202637,0.10934487730264664
1750065408864277000,14.479277099609375,0.06902777403593063,-0.12522737681865692,0.010995574295520782
1750065408880207400,14.495207275390625,-0.009162978269159794,0.09285151958465576,-0.10384709388017654
1750065408896168000,14.51116796875,-0.01771509274840355,0.07880161702632904,-0.09834930300712585
1750065408912128800,14.527128662109375,-0.02015855349600315,-0.03481931984424591,-0.06841690838336945
1750065408928089300,14.54308935546875,-0.00366519158706069,-0.11178833991289139,0.00366519158706069
1750065408944111000,14.559111083984375,-0.0012217304902151227,-0.05009094998240471,0.029932396486401558
1750065408960041200,14.575041259765625,-0.03481931984424591,0.003054326167330146,0.01771509274840355
1750065408976032500,14.591032470703125,-0.01466076634824276,0.02321287989616394,-0.15454891324043274
1750065408992054300,14.60705419921875,-0.012828170321881771,-0.030543262138962746,-0.12828169763088226
1750065409008014800,14.623014892578125,-0.02687807008624077,-0.07819075137376785,0.09407325088977814
1750065409023975700,14.6389755859375,-0.03481931984424591,-0.2577851414680481,0.15515977144241333
1750065409039875300,14.654875244140625,0.018936822190880775,-0.17837265133857727,0.17776179313659668
1750065409063862000,14.678862060546875,-0.014049900695681572,-0.14905111491680145,0.004886921960860491
1750065409079761700,14.69476171875,-0.021380282938480377,-0.20036379992961884,-0.11545353382825851
1750065409095753000,14.7107529296875,-0.06536258012056351,-0.4239404797554016,-0.27000242471694946
1750065409111713500,14.726713623046875,-0.012217304669320583,-0.21502456068992615,-0.22296582162380219
1750065409127644000,14.742643798828125,0.004886921960860491,0.08002334833145142,0.08124507963657379
1750065409143635000,14.758635009765625,-0.048258353024721146,0.04337143152952194,-0.09162978827953339
1750065409159565300,14.7745654296875,-0.013439035043120384,-0.09712757170200348,-0.22357667982578278
1750065409175495400,14.790495361328125,0.007941247895359993,-0.11484266817569733,-0.14905111491680145
1750065409191456000,14.8064560546875,-0.04153883829712868,-0.05497787147760391,0.05497787147760391
1750065409207416800,14.822416748046875,-0.03848451003432274,0.11056660860776901,0.10995574295520782
1750065409223438600,14.8384384765625,-0.05375614017248154,0.08185594528913498,-0.08307767659425735
1750065409239368700,14.85436865234375,-0.024434609338641167,-0.022602014243602753,-0.25473082065582275
1750065409255360000,14.870360107421876,-0.01038470957428217,-0.02932153269648552,-0.31642818450927734
1750065409271320600,14.886320556640625,0.014049900695681572,0.14966198801994324,-0.18570303916931152
1750065409287281200,14.90228125,-0.01160643994808197,0.17348572611808777,-0.06230825558304787
1750065409303333600,14.918333740234376,-0.019547687843441963,0.17409659922122955,-0.06658431142568588
1750065409319294200,14.934294189453125,-0.04092797264456749,0.2828305959701538,-0.015882495790719986
1750065409335285500,14.950285400390625,-0.04398229718208313,-0.11728613078594208,-0.2541199326515198
1750065409351276500,14.966276611328125,0.009162978269159794,-0.08979719132184982,-0.10384709388017654
1750065409367237400,14.9822373046875,-0.0006108652451075613,0.028099801391363144,0.17043140530586243
1750065409383198000,14.998197998046875,-0.04153883829712868,0.09957103431224823,0.16432274878025055
1750065409399158800,15.01415869140625,-0.04214970022439957,0.02932153269648552,0.022602014243602753
1750065409415119400,15.030119384765625,0.012828170321881771,0.003054326167330146,-0.06108652427792549
1750065409431080200,15.046080078125,0.00427605677396059,0.01771509274840355,-0.10018189996480942
1750065409447071200,15.0620712890625,-0.012828170321881771,0.045204028487205505,-0.12034045159816742
1750065409463093000,15.078093017578125,-0.01038470957428217,0.09407325088977814,-0.13988813757896423
1750065409479084300,15.094084228515625,-0.006719517521560192,0.1875356286764145,-0.16798794269561768
1750065409495106000,15.11010595703125,-0.039095375686883926,0.09040805697441101,-0.3225368559360504
1750065409511097000,15.12609716796875,-0.024434609338641167,-0.14049901068210602,-0.3182607889175415
1750065409527088400,15.14208837890625,0.03481931984424591,0.03420845419168472,-0.06108652427792549
1750065409543079700,15.15807958984375,0.018325956538319588,0.007941247895359993,0.06902777403593063
1750065409559009800,15.174009765625,0.021991148591041565,-0.05925392732024193,0.07269296050071716
1750065409575031600,15.190031494140625,0.05314527451992035,-0.14538592100143433,0.06719517707824707
1750065409591022600,15.206022705078125,0.06291911751031876,-0.0959058403968811,0.08429940044879913
1750065409606983400,15.2219833984375,0.03420845419168472,0.030543262138962746,0.06169738993048668
1750065409623005200,15.238005126953125,-0.03420845419168472,0.11850785464048386,-0.07147123664617538
1750065409638996200,15.253996337890625,-0.033597588539123535,-0.03726277872920036,-0.2773328125476837
1750065409654987500,15.269987548828125,-0.0006108652451075613,-0.015271631069481373,-0.23335053026676178
1750065409670948400,15.2859482421875,0.001832595793530345,0.012828170321881771,-0.1062905490398407
1750065409686878500,15.30187841796875,-0.01466076634824276,0.042760565876960754,-0.025045474991202354
1750065409702900200,15.317900146484375,-0.00733038317412138,0.06169738993048668,0.033597588539123535
1750065409718860800,15.33386083984375,0.003054326167330146,-0.028099801391363144,0.01038470957428217
1750065409734882600,15.349882568359375,0.03481931984424591,-0.031154127791523933,0.019547687843441963
1750065409750843400,15.365843505859376,0.021991148591041565,0.03420845419168472,0.02321287989616394
1750065409766804000,15.381803955078125,-0.009773843921720982,0.02626720629632473,-0.001832595793530345
1750065409782856200,15.397856201171875,-0.006719517521560192,-0.004886921960860491,-0.009162978269159794
1750065409798786300,15.413786376953125,-0.007941247895359993,0.009773843921720982,0.0403171069920063
1750065409814747100,15.4297470703125,0.00427605677396059,0,0.08857546001672745
1750065409830738200,15.44573828125,0.04153883829712868,-0.06841690838336945,0.14416420459747314
1750065409846699000,15.461698974609375,0.07452555745840073,0.013439035043120384,0.26022860407829285
1750065409862720800,15.477720703125,0.045204028487205505,0.08491026610136032,0.28649580478668213
1750065409878681300,15.493681396484375,0.01038470957428217,0.04642575979232788,0.19975294172763824
1750065409894642200,15.50964208984375,0.006108652334660292,0.0012217304902151227,0.07147123664617538
1750065409910633200,15.52563330078125,-0.0012217304902151227,-0.0354301854968071,-0.016493361443281174
1750065409926594000,15.541593994140625,-0.010995574295520782,-0.029932396486401558,-0.059864792972803116
1750065409942615800,15.55761572265625,-0.01466076634824276,-0.001832595793530345,-0.07147123664617538
1750065409958546000,15.5735458984375,-0.012217304669320583,0.012828170321881771,-0.060475658625364304
1750065409974506500,15.589506591796875,-0.010995574295520782,0.015882495790719986,-0.031154127791523933
1750065409990497800,15.605497802734375,-0.007941247895359993,0.00855211354792118,-0.003054326167330146
1750065410006489000,15.621489013671875,0,-0.013439035043120384,0.016493361443281174
1750065410022541300,15.637541259765625,0.00855211354792118,-0.033597588539123535,0.031154127791523933
1750065410038471400,15.653471435546875,0.006108652334660292,-0.036651913076639175,0.04764748737215996
1750065410054462700,15.669462646484375,0.007941247895359993,-0.042760565876960754,0.06352998316287994
1750065410070515000,15.685514892578125,0.00733038317412138,-0.03420845419168472,0.0659734457731247
1750065410086475500,15.7014755859375,0.0012217304902151227,-0.03848451003432274,0.05253441259264946
1750065410102527700,15.71752783203125,-0.0006108652451075613,-0.027488935738801956,0.024434609338641167
1750065410118488600,15.733488525390625,-0.007941247895359993,-0.015271631069481373,0.007941247895359993
1750065410134480000,15.74947998046875,-0.005497787147760391,-0.02626720629632473,0.03176499158143997
1750065410150471000,15.765470947265625,0.009162978269159794,-0.05619960278272629,0.05742133408784866
1750065410166462200,15.781462158203125,0.01160643994808197,-0.06719517707824707,0.07880161702632904
1750065410190449000,15.805448974609375,0.02382374368607998,-0.07513642311096191,0.14294247329235077
1750065410206409700,15.82140966796875,0.02321287989616394,-0.08002334833145142,0.16310101747512817
1750065410222462000,15.8374619140625,0.019547687843441963,-0.0659734457731247,0.1508837193250656
1750065410238422500,15.853422607421875,0.014049900695681572,-0.059864792972803116,0.11239920556545258
1750065410254383400,15.86938330078125,0.005497787147760391,-0.0659734457731247,0.08979719132184982
1750065410270374400,15.88537451171875,0.01038470957428217,-0.0659734457731247,0.0757472887635231
1750065410286335200,15.901335205078125,0.013439035043120384,-0.05253441259264946,0.06536258012056351
1750065410302357000,15.91735693359375,0.018325956538319588,-0.04581489413976669,0.06352998316287994
1750065410318317600,15.933317626953125,0.01710422709584236,-0.04153883829712868,0.06108652427792549
1750065410334278400,15.9492783203125,0.014049900695681572,-0.05864306539297104,0.06536258012056351
1750065410350269400,15.96526953125,0.01038470957428217,-0.05253441259264946,0.07024950534105301
1750065410366199800,15.98119970703125,0.00427605677396059,-0.02932153269648552,0.05925392732024193
1750065410382252000,15.997251953125,0,-0.004886921960860491,0.033597588539123535
1750065410398212600,16.013212646484376,0,0.001832595793530345,0.012217304669320583
1750065410414204000,16.029203857421876,0.0024434609804302454,0,0.0024434609804302454
1750065410430195200,16.0451953125,0.0024434609804302454,-0.005497787147760391,0.00855211354792118
1750065410446155800,16.06115576171875,0.00366519158706069,0.00366519158706069,0.003054326167330146
1750065410462177500,16.077177490234376,-0.0006108652451075613,0,-0.0024434609804302454
1750065410478138000,16.09313818359375,0.00366519158706069,-0.009162978269159794,0
1750065410494129400,16.10912939453125,0.004886921960860491,-0.025045474991202354,0.016493361443281174
1750065410510181600,16.125181640625,0.00366519158706069,-0.01038470957428217,0.03237585723400116
1750065410526142500,16.141142578125,-0.0012217304902151227,0,0.024434609338641167
1750065410542164000,16.1571640625,0.00427605677396059,0.003054326167330146,0.006108652334660292
1750065410558094300,16.17309423828125,-0.001832595793530345,-0.0006108652451075613,0.0006108652451075613
1750065410574024400,16.1890244140625,0.006108652334660292,-0.02076941914856434,0.01160643994808197
1750065410589985000,16.204985107421876,0.014049900695681572,-0.02382374368607998,0.028099801391363144
1750065410605915400,16.220915283203126,0.01038470957428217,-0.033597588539123535,0.042760565876960754
1750065410621937000,16.23693701171875,0.00855211354792118,-0.018325956538319588,0.06352998316287994
1750065410637897700,16.252897705078126,0.00855211354792118,-0.00427605677396059,0.06658431142568588
1750065410653858300,16.2688583984375,0.00733038317412138,0.00366519158706069,0.05253441259264946
1750065410669849600,16.284849609375,0.006108652334660292,0.014049900695681572,0.027488935738801956
1750065410685810400,16.300810546875,-0.004886921960860491,0.02626720629632473,-0.00366519158706069
1750065410701832000,16.31683203125,-0.010995574295520782,0.04764748737215996,-0.021380282938480377
1750065410717792800,16.332792724609376,-0.00427605677396059,0.10201449692249298,-0.02382374368607998
1750065410733723000,16.348722900390626,-0.00366519158706069,0.2070833146572113,-0.028099801391363144
1750065410749714200,16.364714111328126,0.0006108652451075613,0.2541199326515198,-0.016493361443281174
1750065410765674800,16.3806748046875,-0.007941247895359993,0.16493362188339233,0.00427605677396059
1750065410781727000,16.39672705078125,0.0354301854968071,0.09346238523721695,0.03481931984424591
1750065410797687800,16.412687744140626,0.04092797264456749,0.10445795953273773,0.03176499158143997
1750065410813678800,16.428678955078126,0.010995574295520782,0.12828169763088226,-0.003054326167330146
1750065410829700600,16.44470068359375,-0.004886921960860491,0.192422553896904,-0.04153883829712868
1750065410845722400,16.460722412109376,-0.01710422709584236,0.03176499158143997,-0.17348572611808777
1750065410869678600,16.4846787109375,-0.031154127791523933,0.03237585723400116,-0.08368854224681854
1750065410885670000,16.500669921875,-0.024434609338641167,0.07208210229873657,0.060475658625364304
1750065410901691600,16.516691650390626,-0.018325956538319588,0.09712757170200348,0.13805554807186127
1750065410917652500,16.532652587890624,0.003054326167330146,0.06169738993048668,0.12339477986097336
1750065410933643500,16.5486435546875,0.004886921960860491,0.07696902006864548,0.08735372871160507
1750065410949604400,16.564604248046876,-0.0012217304902151227,0.08307767659425735,0.028099801391363144
1750065410965565000,16.58056494140625,-0.0024434609804302454,0.10018189996480942,-0.01771509274840355
1750065410981617200,16.5966171875,-0.009162978269159794,0.12034045159816742,-0.048258353024721146
1750065410997547300,16.61254736328125,-0.05925392732024193,0.11911872029304504,-0.03848451003432274
1750065411013569000,16.628569091796876,-0.06658431142568588,0.18325957655906677,-0.00733038317412138
1750065411029560300,16.644560302734376,-0.07330382615327835,0.21074850857257843,-0.01466076634824276
1750065411045521000,16.66052099609375,-0.08491026610136032,0.14355333149433136,-0.02382374368607998
1750065411061542700,16.676542724609376,-0.09468411654233932,0.17104226350784302,-0.04398229718208313
1750065411077503500,16.69250341796875,-0.06108652427792549,0.2076941877603531,-0.05742133408784866
1750065411093464000,16.708464111328126,-0.08918632566928864,0.27122417092323303,-0.10873401165008545
1750065411109425000,16.7244248046875,-0.10201449692249298,0.39095374941825867,-0.23640485107898712
1750065411125385500,16.740385498046876,-0.11972958594560623,-0.04459316283464432,-0.2938261926174164
1750065411141407200,16.7564072265625,-0.07941248267889023,-0.08002334833145142,-0.2064724564552307
1750065411157337300,16.77233740234375,-0.04337143152952194,0.004886921960860491,-0.04581489413976669
1750065411173298200,16.788298095703126,-0.00733038317412138,-0.033597588539123535,0.025045474991202354
1750065411189289200,16.804289306640626,-0.001832595793530345,-0.09651670604944229,-0.01038470957428217
1750065411205280500,16.820280517578126,-0.012828170321881771,-0.09040805697441101,-0.07513642311096191
1750065411221241300,16.836241455078124,-0.009773843921720982,-0.06719517707824707,-0.09834930300712585
1750065411237141000,16.85214111328125,-0.0006108652451075613,-0.06169738993048668,-0.10201449692249298
1750065411253101600,16.8681015625,0.009162978269159794,-0.018325956538319588,-0.08979719132184982
1750065411269092900,16.8840927734375,0.01038470957428217,0.003054326167330146,-0.08124507963657379
1750065411285053400,16.900053466796876,0.009162978269159794,-0.0024434609804302454,-0.07941248267889023
1750065411301105700,16.916105712890626,0.01771509274840355,-0.018325956538319588,-0.06536258012056351
1750065411317066500,16.93206640625,0.02382374368607998,-0.030543262138962746,-0.04886921867728233
1750065411333057500,16.9480576171875,0.02321287989616394,0.02015855349600315,-0.04153883829712868
1750065411349018400,16.964018310546876,0.007941247895359993,0.07330382615327835,-0.07941248267889023
1750065411364979000,16.97997900390625,0.015271631069481373,0.12461651116609573,-0.14844025671482086
1750065411381031200,16.99603125,-0.01038470957428217,0.16004669666290283,-0.2370157092809677
1750065411396992000,17.011991943359376,-0.07819075137376785,0.06230825558304787,-0.08918632566928864
1750065411412983000,17.027983154296876,0.018325956538319588,0.04764748737215996,-0.3549126982688904
1750065411428974300,17.043974365234376,-0.036041051149368286,-0.09285151958465576,-0.18875735998153687
1750065411444965600,17.059965576171876,-0.0012217304902151227,0.006108652334660292,0.02382374368607998
1750065411460956700,17.075956787109376,-0.01466076634824276,-0.06902777403593063,0.17837265133857727
1750065411476917500,17.09191748046875,0.02382374368607998,-0.0861319974064827,0.29626965522766113
1750065411492878000,17.107878173828126,0.016493361443281174,-0.05803219974040985,0.24495697021484375
1750065411508869400,17.123869384765626,0.036041051149368286,-0.30054569244384766,0.06841690838336945
1750065411524769000,17.13976904296875,0.00855211354792118,-0.03481931984424591,-0.18631389737129211
1750065411540760300,17.15576025390625,-0.02321287989616394,-0.0012217304902151227,-0.3017674386501312
1750065411556690400,17.1716904296875,-0.03481931984424591,0.12278391420841217,-0.2736676335334778
1750065411572681700,17.187681640625,0.02932153269648552,-0.02932153269648552,-0.10751228034496307
1750065411588642300,17.203642333984376,0.030543262138962746,0.021991148591041565,0.01466076634824276
1750065411604633600,17.219633544921876,0.021991148591041565,0.029932396486401558,0.09468411654233932
1750065411620655400,17.2356552734375,0.02687807008624077,0.006719517521560192,0.12950342893600464
1750065411644581000,17.2595810546875,0.02871066704392433,0.00366519158706069,0.12522737681865692
1750065411660633300,17.27563330078125,0.03787364438176155,0.021380282938480377,0.1472185254096985
1750065411676594000,17.291593994140626,0.03420845419168472,-0.00427605677396059,0.18081611394882202
1750065411692524300,17.307524169921876,0.04764748737215996,-0.09834930300712585,0.16249015927314758
1750065411708515300,17.323515380859376,0.04153883829712868,-0.12767083942890167,0.06169738993048668
1750065411724506600,17.339506591796876,0.00733038317412138,-0.10384709388017654,-0.04398229718208313
1750065411740528400,17.3555283203125,0,-0.09834930300712585,-0.03787364438176155
1750065411764454100,17.3794541015625,-0.03481931984424591,0.14538592100143433,-0.1417207419872284
1750065411780476000,17.395475830078126,-0.00733038317412138,0.08674286305904388,-0.05742133408784866
1750065411796406000,17.411406005859376,0.02626720629632473,-0.0507018156349659,0.031154127791523933
1750065411812336000,17.427336181640626,0.06169738993048668,-0.06841690838336945,0.1160643994808197
1750065411828327400,17.443327392578126,0.06108652427792549,-0.03481931984424591,0.16310101747512817
1750065411844318700,17.459318603515626,0.007941247895359993,0.005497787147760391,0.08185594528913498
1750065411860279300,17.475279296875,-0.013439035043120384,0.003054326167330146,0.021380282938480377
1750065411876209400,17.49120947265625,0.00733038317412138,-0.10690141469240189,0.04214970022439957
1750065411892139800,17.507139892578124,0.03420845419168472,-0.1258382350206375,0.15027284622192383
1750065411908130800,17.523130859375,0.04459316283464432,-0.059864792972803116,0.23090706765651703
1750065411924061000,17.53906103515625,0.0006108652451075613,-0.04092797264456749,0.09529497474431992
1750065411940082700,17.555082763671876,-0.005497787147760391,-0.12767083942890167,-0.05314527451992035
1750065411956013000,17.571012939453126,0.04764748737215996,-0.021991148591041565,-0.048258353024721146
1750065411972004000,17.587004150390626,0.029932396486401558,-0.013439035043120384,0.006719517521560192
1750065411987965000,17.60296484375,0.028099801391363144,-0.028099801391363144,0.09407325088977814
1750065412003895000,17.61889501953125,0.05375614017248154,0.005497787147760391,0.16004669666290283
1750065412019916800,17.634916748046876,0.03237585723400116,0.019547687843441963,0.1264491081237793
1750065412035847000,17.650846923828126,0.022602014243602753,-0.012828170321881771,0.04153883829712868
1750065412051807700,17.666807861328124,0.03176499158143997,-0.036651913076639175,-0.01038470957428217
1750065412067798800,17.682798828125,0.02076941914856434,-0.013439035043120384,-0.031154127791523933
1750065412083759600,17.698759521484376,-0.00366519158706069,0.02626720629632473,-0.0555887371301651
1750065412099811800,17.714811767578126,-0.00855211354792118,0.025045474991202354,-0.08735372871160507
1750065412115772400,17.7307724609375,-0.01160643994808197,0.006719517521560192,-0.11423180252313614
1750065412131794200,17.746794189453126,-0.012828170321881771,0,-0.07757988572120667
1750065412147785500,17.762785400390626,-0.005497787147760391,-0.0354301854968071,0.033597588539123535
1750065412163746000,17.77874609375,0.009162978269159794,-0.06780604273080826,0.09712757170200348
1750065412179767800,17.794767822265626,0.004886921960860491,-0.0806342139840126,0.054367005825042725
1750065412195728600,17.810728759765624,-0.009162978269159794,-0.01771509274840355,-0.04764748737215996
1750065412211689200,17.826689208984376,-0.01710422709584236,0.004886921960860491,-0.12095131725072861
1750065412227649800,17.84264990234375,-0.013439035043120384,0.03787364438176155,-0.12767083942890167
1750065412243549700,17.8585498046875,-0.00855211354792118,-0.001832595793530345,-0.09957103431224823
1750065412259602000,17.874601806640626,-0.01160643994808197,0,-0.060475658625364304
1750065412275562500,17.8905625,-0.01038470957428217,0.018325956538319588,-0.029932396486401558
1750065412291584300,17.906584228515626,-0.009162978269159794,0.02932153269648552,-0.014049900695681572
1750065412307575600,17.922575439453126,0,0.004886921960860491,0.03298672288656235
1750065412323505700,17.938505615234376,-0.0012217304902151227,0.018325956538319588,0.045204028487205505
1750065412339527400,17.95452734375,0.010995574295520782,0.028099801391363144,0.025045474991202354
1750065412355457500,17.97045751953125,0.014049900695681572,0.025656340643763542,-0.021991148591041565
1750065412371448800,17.98644873046875,0.01160643994808197,-0.0006108652451075613,-0.051312681287527084
1750065412387409400,18.002409423828126,0.02015855349600315,-0.004886921960860491,-0.01466076634824276
1750065412403431200,18.01843115234375,0.018325956538319588,0.0006108652451075613,0.04948008432984352
1750065412419483400,18.0344833984375,0.018936822190880775,0.00855211354792118,0.09040805697441101
1750065412435474700,18.050474609375,0.036041051149368286,-0.02871066704392433,0.1258382350206375
1750065412451465700,18.0664658203125,0.05253441259264946,0.0006108652451075613,0.13072516024112701
1750065412467426600,18.082426513671876,-0.00366519158706069,0.08674286305904388,0.20952677726745605
1750065412483417900,18.09841796875,0.07330382615327835,-0.04214970022439957,-0.17104226350784302
1750065412499409000,18.114408935546876,0.004886921960860491,-0.010995574295520782,-0.19058994948863983
1750065412515339000,18.130339111328126,-0.003054326167330146,-0.03176499158143997,0.03420845419168472
1750065412531330300,18.146330322265626,0.08002334833145142,-0.045204028487205505,0.2638937830924988
1750065412547291100,18.162291015625,-0.0024434609804302454,0.03176499158143997,0.2376265823841095
1750065412563282200,18.1782822265625,-0.009162978269159794,-0.13011430203914642,0.01160643994808197
1750065412579273500,18.1942734375,-0.018325956538319588,-0.2632829248905182,-0.22113321721553802
1750065412595234000,18.210234130859376,-0.06902777403593063,-0.31581732630729675,-0.342695415019989
1750065412611195000,18.22619482421875,-0.05314527451992035,-0.08796459436416626,-0.24617868661880493
1750065412627155500,18.242155517578126,-0.015882495790719986,0.004886921960860491,-0.07819075137376785
1750065412643146800,18.258146728515626,-0.005497787147760391,0.08552113175392151,0.02932153269648552
1750065412659138000,18.274137939453126,-0.027488935738801956,0.11728613078594208,0.014049900695681572
1750065412675098600,18.2900986328125,-0.02932153269648552,0.28466320037841797,-0.05742133408784866
1750065412699117800,18.314117919921873,-0.025045474991202354,-0.20891591906547546,-0.23579397797584534
1750065412715078700,18.33007861328125,0.04092797264456749,-0.02871066704392433,-0.06475171446800232
1750065412731008800,18.3460087890625,-0.04459316283464432,0.09407325088977814,0.10995574295520782
1750065412746969600,18.361969482421873,-0.00366519158706069,0.05803219974040985,0.1716531366109848
1750065412762930200,18.37793017578125,-0.006108652334660292,0.039095375686883926,0.14049901068210602
1750065412778982400,18.393982421875,0.012828170321881771,0.02687807008624077,0.07880161702632904
1750065412794943200,18.409943115234373,0.04398229718208313,-0.11972958594560623,0.04398229718208313
1750065412818899500,18.4338994140625,0.028099801391363144,0.05192354694008827,-0.07757988572120667
1750065412834799000,18.449799072265623,-0.027488935738801956,0.08429940044879913,-0.07696902006864548
1750065412850759700,18.465759765625,-0.036651913076639175,0.21930062770843506,-0.12095131725072861
1750065412866751000,18.4817509765625,-0.02932153269648552,0.14294247329235077,-0.11850785464048386
1750065412882681000,18.49768115234375,0.022602014243602753,0.03176499158143997,-0.10934487730264664
1750065412898733300,18.5137333984375,-0.00733038317412138,0.1716531366109848,-0.016493361443281174
1750065412914694100,18.529694091796873,0.02687807008624077,-0.00733038317412138,-0.18020524084568024
1750065412930685200,18.545685302734373,0.00427605677396059,-0.08491026610136032,-0.054367005825042725
1750065412946676500,18.561676513671873,0.0006108652451075613,-0.028099801391363144,0.13255776464939117
1750065412962637300,18.57763720703125,0.039095375686883926,-0.01160643994808197,0.23396138846874237
1750065412978658800,18.593658935546873,0.024434609338641167,0.022602014243602753,0.2070833146572113
1750065412994619600,18.60961962890625,0.012217304669320583,-0.06841690838336945,0.08002334833145142
1750065413010611000,18.62561083984375,0.01038470957428217,-0.04948008432984352,-0.07024950534105301
1750065413026602000,18.64160205078125,-0.01038470957428217,0.00427605677396059,-0.13866640627384186
1750065413042532400,18.657532470703124,-0.02015855349600315,0.03298672288656235,-0.14538592100143433
1750065413058584600,18.67358447265625,-0.02015855349600315,0.09773843735456467,-0.12034045159816742
1750065413074545200,18.689545166015623,-0.07696902006864548,0.12889257073402405,0
1750065413090536400,18.705536376953123,-0.024434609338641167,-0.016493361443281174,-0.1459967941045761
1750065413106497000,18.7214970703125,0.02015855349600315,-0.03848451003432274,-0.03481931984424591
1750065413122488300,18.73748828125,0.016493361443281174,-0.00427605677396059,0.08552113175392151
1750065413138510000,18.753510009765623,0.00366519158706069,-0.08124507963657379,0.20586158335208893
1750065413154440200,18.769440185546873,-0.006108652334660292,0.0507018156349659,0.08368854224681854
1750065413170431500,18.785431396484373,-0.04337143152952194,0.05803219974040985,-0.0708603709936142
1750065413186422500,18.801422607421873,-0.0006108652451075613,0.04398229718208313,-0.09712757170200348
1750065413202413800,18.817413818359373,0.02321287989616394,-0.03481931984424591,-0.02382374368607998
1750065413218435600,18.833435546875,0.039706241339445114,-0.0959058403968811,0.024434609338641167
1750065413234396200,18.849396240234373,0.01771509274840355,0.016493361443281174,-0.03420845419168472
1750065413250326500,18.865326416015623,-0.006719517521560192,0.06658431142568588,-0.042760565876960754
1750065413266317600,18.881317626953123,0.013439035043120384,0.045204028487205505,0.01710422709584236
1750065413282217200,18.89721728515625,0.03481931984424591,0.024434609338641167,0.11056660860776901
1750065413298269400,18.91326953125,0.042760565876960754,-0.025045474991202354,0.17837265133857727
1750065413314230300,18.929230224609373,0.039095375686883926,-0.07452555745840073,0.18631389737129211
1750065413330221300,18.94522119140625,0.03298672288656235,-0.1319468915462494,0.1618792861700058
1750065413346212600,18.961212646484373,0.02321287989616394,-0.08918632566928864,0.05009094998240471
1750065413362204000,18.977203857421873,-0.01466076634824276,0.04948008432984352,-0.05314527451992035
1750065413378164500,18.99316455078125,-0.012828170321881771,0.0507018156349659,-0.048258353024721146
1750065413394125300,19.009125244140623,0.025045474991202354,-0.01771509274840355,0.025045474991202354
1750065413410055400,19.025055419921873,0.04214970022439957,-0.07941248267889023,0.09896016865968704
1750065413426046700,19.041046630859373,0.04153883829712868,-0.02076941914856434,0.10751228034496307
1750065413441976800,19.056976806640623,0.001832595793530345,0.04886921867728233,0.05619960278272629
1750065413458029000,19.073029052734373,-0.02076941914856434,-0.03481931984424591,0.03848451003432274
1750065413473989600,19.08898974609375,0.00427605677396059,-0.07880161702632904,-0.07330382615327835
1750065413489981000,19.10498095703125,0.013439035043120384,0.018325956538319588,0.060475658625364304
1750065413505972200,19.12097216796875,0.00855211354792118,0.08124507963657379,0.18081611394882202
1750065413521902300,19.13690234375,-0.025656340643763542,0.19120082259178162,0.15515977144241333
1750065413537924000,19.152924072265623,-0.006719517521560192,0.10934487730264664,0.042760565876960754
1750065413553915400,19.168915283203123,-0.00427605677396059,0.022602014243602753,-0.08674286305904388
1750065413569906400,19.184906494140623,0.03298672288656235,-0.028099801391363144,-0.0403171069920063
1750065413585897700,19.200897705078123,0.015882495790719986,0.11178833991289139,0.06719517707824707
1750065413601889000,19.216888916015623,-0.009773843921720982,0.1313360333442688,0.10445795953273773
1750065413617910500,19.23291064453125,0,0.16798794269561768,0.12278391420841217
1750065413633841000,19.2488408203125,0.004886921960860491,0.13072516024112701,0.12461651116609573
1750065413649771000,19.26477099609375,-0.013439035043120384,0.060475658625364304,0.06719517707824707
1750065413665701000,19.280701171875,-0.02871066704392433,-0.04214970022439957,0.027488935738801956
1750065413681692400,19.2966923828125,-0.03726277872920036,-0.10751228034496307,0.07269296050071716
1750065413697683700,19.31268359375,-0.04886921867728233,-0.07757988572120667,0.152105450630188
1750065413713613800,19.32861376953125,-0.04703662544488907,-0.0910189226269722,0.25045475363731384
1750065413729574400,19.344574462890623,-0.00366519158706069,0.45631635189056396,0.12034045159816742
1750065413745565700,19.360565673828123,-0.0006108652451075613,-0.18875735998153687,0.06230825558304787
1750065413761526300,19.3765263671875,0.04214970022439957,-0.06536258012056351,-0.00427605677396059
1750065413777548000,19.392548095703123,0.02871066704392433,-0.1918116807937622,0.012217304669320583
1750065413793539300,19.408539306640623,0.02932153269648552,-0.1814269721508026,0.1014036312699318
1750065413809469400,19.424469482421873,0.01038470957428217,0.12889257073402405,0.1472185254096985
1750065413825430300,19.44043017578125,0.0006108652451075613,0.10812314599752426,0.039706241339445114
1750065413841421300,19.45642138671875,0.04948008432984352,0.02932153269648552,-0.1459967941045761
1750065413857382100,19.472382080078123,0.04948008432984352,0.033597588539123535,-0.31031954288482666
1750065413873342700,19.4883427734375,0.048258353024721146,0.042760565876960754,-0.3830125033855438
1750065413889303600,19.504303466796873,0.04581489413976669,0.10812314599752426,-0.40194934606552124
1750065413905294600,19.520294677734373,0.04092797264456749,0.1618792861700058,-0.3793473243713379
1750065413921225000,19.536224853515623,0.016493361443281174,0.23518311977386475,-0.3585779070854187
1750065413937277200,19.552277099609373,-0.00855211354792118,0.19547687470912933,-0.31520646810531616
1750065413953237800,19.56823779296875,-0.025045474991202354,0.10751228034496307,-0.26450464129447937
