time,seconds_elapsed,z,y,x
1749996398270634500,0.158634521484375,-0.03675159439444542,0.01078579481691122,0.15659375488758087
1749996398280577500,0.16857763671875,-0.08042740821838379,-0.03075948730111122,0.16724638640880585
1749996398290457300,0.178457275390625,-0.11664637178182602,-0.12876373529434204,0.17150744795799255
1749996398300337400,0.18833740234375,-0.14327795803546906,-0.13409006595611572,0.19494324922561646
1749996398310217500,0.198217529296875,-0.14860427379608154,-0.08402267098426819,0.19387798011302948
1749996398320118500,0.208118408203125,-0.11558110266923904,-0.09361004084348679,0.16298533976078033
1749996398330045000,0.218044921875,-0.08681898564100266,-0.11811110377311707,0.15872427821159363
1749996398340003800,0.22800390625,-0.08788424730300903,-0.09147951751947403,0.17789903283119202
1749996398349943600,0.237943603515625,-0.11451584100723267,-0.0978710949420929,0.20559588074684143
1749996398359889700,0.2478896484375,-0.16138744354248047,-0.13622058928012848,0.23861905932426453
1749996398369832000,0.25783203125,-0.21771325170993805,-0.16604797542095184,0.26525065302848816
1749996398380005600,0.268005615234375,-0.2581932842731476,-0.19481009244918823,0.2812296152114868
1749996398390043000,0.27804296875,-0.2677806615829468,-0.20972378551959991,0.2822948694229126
1749996398399923000,0.2879228515625,-0.24967116117477417,-0.22250694036483765,0.2716422379016876
1749996398409803000,0.297802978515625,-0.20812588930130005,-0.23835274577140808,0.2545980215072632
1749996398419683000,0.30768310546875,-0.163384810090065,-0.22783325612545013,0.245010644197464
1749996398429563000,0.31756298828125,-0.12836426496505737,-0.20226693153381348,0.24607589840888977
1749996398439433700,0.327433837890625,-0.10173267871141434,-0.18096165359020233,0.26525065302848816
1749996398449373700,0.337373779296875,-0.07723161578178406,-0.1628521829843521,0.2918822467327118
1749996398459549700,0.3475498046875,-0.046338967978954315,-0.1543300747871399,0.309991717338562
1749996398469586400,0.35758642578125,-0.01225053146481514,-0.17883113026618958,0.29933908581733704
1749996398479438000,0.36743798828125,0.011185267940163612,-0.21931114792823792,0.25566327571868896
1749996398489399800,0.37739990234375,0.022903168573975563,-0.261788547039032,0.19068218767642975
1749996398499279600,0.387279541015625,0.026098959147930145,-0.2894853949546814,0.12783163785934448
1749996398509159700,0.39715966796875,0.026098959147930145,-0.29268118739128113,0.08309056609869003
1749996398518978600,0.406978515625,0.026098959147930145,-0.27350643277168274,0.07243792712688446
1749996398528903700,0.416903564453125,0.029294749721884727,-0.22570273280143738,0.09374319761991501
1749996398538863600,0.426863525390625,0.030360013246536255,-0.16924376785755157,0.13209268450737
1749996398548803000,0.436802978515625,0.029294749721884727,-0.10106688737869263,0.16405059397220612
1749996398558749400,0.44674951171875,0.018642114475369453,-0.03608580678701401,0.18216007947921753
1749996398568691700,0.456691650390625,-0.002663159044459462,0.0043942127376794815,0.18748639523983002
1749996398578865400,0.466865478515625,-0.02396843209862709,0.03635212033987045,0.18002955615520477
1749996398588902700,0.476902587890625,-0.037816859781742096,0.0576573945581913,0.17576849460601807
1749996398598782700,0.48678271484375,-0.046338967978954315,0.08215846121311188,0.18642114102840424
1749996398608662800,0.496662841796875,-0.04953476041555405,0.0949416235089302,0.20133483409881592
1749996398618542600,0.50654248046875,-0.058056868612766266,0.10559425503015518,0.21518325805664062
1749996398628422700,0.516422607421875,-0.0708400309085846,0.11092057824134827,0.22796641290187836
1749996398638295800,0.5262958984375,-0.0846884623169899,0.11944268643856049,0.23329274356365204
1749996398648192000,0.53619189453125,-0.09534109383821487,0.12050794810056686,0.22903168201446533
1749996398658371800,0.546371826171875,-0.10066741704940796,0.1237037405371666,0.2205095738172531
1749996398668341800,0.556341796875,-0.0985368862748146,0.12476900219917297,0.20559588074684143
1749996398678298600,0.566298583984375,-0.08575372397899628,0.10879004746675491,0.18429060280323029
1749996398688230400,0.57623046875,-0.06764423847198486,0.08961530029773712,0.16192007064819336
1749996398698110500,0.5861103515625,-0.04527370631694794,0.07470161467790604,0.14700637757778168
1749996398707990500,0.595990478515625,-0.02396843209862709,0.07044056057929993,0.14487585425376892
1749996398717838600,0.605838623046875,0.011185267940163612,0.06511423736810684,0.1416800618171692
1749996398727756000,0.615756103515625,0.04101264849305153,0.07683213800191879,0.13422322273254395
1749996398737724200,0.62572412109375,0.017576850950717926,0.10559425503015518,0.13422322273254395
1749996398747646700,0.635646728515625,-0.0037284228019416332,0.11198583990335464,0.1310274302959442
1749996398757610000,0.64560986328125,0.0015978955198079348,0.12263847887516022,0.12996216118335724
1749996398767536600,0.65553662109375,0.021837905049324036,0.14500901103019714,0.1416800618171692
1749996398777727700,0.665727783203125,0.04846949502825737,0.15033532679080963,0.15765902400016785
1749996398787681300,0.675681396484375,0.0708400309085846,0.13861742615699768,0.16085481643676758
1749996398797561300,0.685561279296875,0.08149266988039017,0.13542163372039795,0.14381058514118195
1749996398807441200,0.695441162109375,0.08788424730300903,0.13435637950897217,0.11078742146492004
1749996398817267500,0.705267333984375,0.09534109383821487,0.12903006374835968,0.08415582776069641
1749996398827199000,0.715198974609375,0.1038632020354271,0.1418132185935974,0.08628635853528976
1749996398837153500,0.725153564453125,0.1081242561340332,0.1567269116640091,0.11185268312692642
1749996398847087000,0.735087158203125,0.11132004857063293,0.1514005959033966,0.14381058514118195
1749996398857039400,0.745039306640625,0.11238531768321991,0.13435637950897217,0.15659375488758087
1749996398866974700,0.754974609375,0.11345057934522629,0.11518163233995438,0.1459411233663559
1749996398876925200,0.76492529296875,0.11451584100723267,0.10665952414274216,0.1267663687467575
1749996398886862000,0.774862060546875,0.11345057934522629,0.10239847004413605,0.11824426054954529
1749996398897043200,0.785043212890625,0.10492847114801407,0.0949416235089302,0.12144005298614502
1749996398907005000,0.7950048828125,0.09108003973960876,0.09281109273433685,0.13315795361995697
1749996398916885000,0.804885009765625,0.07829687744379044,0.09920267760753632,0.14381058514118195
1749996398926765000,0.81476513671875,0.07403582334518433,0.10985531657934189,0.1459411233663559
1749996398936583200,0.824583251953125,0.07936213910579681,0.11731215566396713,0.13528847694396973
1749996398946519600,0.83451953125,0.09108003973960876,0.13648690283298492,0.11930952966213226
1749996398956469000,0.844468994140625,0.0985368862748146,0.15033532679080963,0.1129179447889328
1749996398966406700,0.85440673828125,0.09321057051420212,0.14927007257938385,0.12144005298614502
1749996398976277800,0.86427783203125,0.08042740821838379,0.13861742615699768,0.13954953849315643
1749996398986208800,0.874208740234375,0.06657897680997849,0.11198583990335464,0.14807164669036865
1749996398996388900,0.884388916015625,0.061252661049366,0.07896266877651215,0.1416800618171692
1749996399006438100,0.894438232421875,0.06657897680997849,0.06191844865679741,0.11611373722553253
1749996399016318000,0.90431787109375,0.06764423847198486,0.06404897570610046,0.08309056609869003
1749996399026198000,0.914197998046875,0.062317922711372375,0.07044056057929993,0.05113265663385391
1749996399036012500,0.924012451171875,0.04740423336625099,0.06831002980470657,0.02450106292963028
1749996399045951200,0.933951171875,0.0282294861972332,0.06191844865679741,0.013848427683115005
1749996399055898600,0.943898681640625,0.010120004415512085,0.051265813410282135,0.019174745306372643
1749996399065838000,0.953838134765625,0.0015978955198079348,0.039547912776470184,0.038349490612745285
1749996399076017000,0.964016845703125,-0.0005326318205334246,0.020373167470097542,0.06924213469028473
1749996399085980700,0.973980712890625,0.0037284228019416332,0.009720530360937119,0.10013478249311447
1749996399095903000,0.983903076171875,0.010120004415512085,0.006524739786982536,0.122505322098732
1749996399105862700,0.993862548828125,0.015446322970092297,-0.0019973693415522575,0.12996216118335724
1749996399115742500,1.003742431640625,0.020772641524672508,-0.004127896390855312,0.12144005298614502
1749996399125622500,1.01362255859375,0.025033695623278618,0.007590003311634064,0.10759162902832031
1749996399135442700,1.023442626953125,0.02396843209862709,0.026764748618006706,0.10120004415512085
1749996399145377800,1.033377685546875,0.021837905049324036,0.039547912776470184,0.10759162902832031
1749996399155328500,1.04332861328125,0.027164222672581673,0.031025802716612816,0.12037479132413864
1749996399165265400,1.053265380859375,0.03675159439444542,-0.0062584239058196545,0.1406148076057434
1749996399175446500,1.063446533203125,0.04846949502825737,-0.04034686088562012,0.16405059397220612
1749996399185408300,1.073408203125,0.07297056168317795,-0.07337003201246262,0.18109482526779175
1749996399195332600,1.08333251953125,0.10492847114801407,-0.09361004084348679,0.17683376371860504
1749996399205290500,1.09329052734375,0.13901691138744354,-0.04354264959692955,0.14807164669036865
1749996399215170600,1.103170654296875,0.16245271265506744,0.02569948509335518,0.11504847556352615
1749996399225050600,1.113050537109375,0.17097482085227966,0.0033289489801973104,0.08309056609869003
1749996399234872600,1.12287255859375,0.1645832359790802,-0.03928159549832344,0.07563371956348419
1749996399244806700,1.132806640625,0.15286533534526825,-0.07656582444906235,0.10120004415512085
1749996399254758400,1.14275830078125,0.1592569202184677,-0.11917637288570404,0.13315795361995697
1749996399264694300,1.1526943359375,0.19014956057071686,-0.1351553201675415,0.15126743912696838
1749996399274876400,1.16287646484375,0.23382537066936493,-0.10000162571668625,0.1416800618171692
1749996399284837400,1.17283740234375,0.28069695830345154,-0.04780370742082596,0.10120004415512085
1749996399294762200,1.18276220703125,0.3062632977962494,0.012916321866214275,0.05113265663385391
1749996399304719600,1.1927197265625,0.3105243444442749,0.09281109273433685,0.008522109128534794
1749996399314599700,1.202599609375,0.2956106662750244,0.1332911103963852,-0.01904158666729927
1749996399324479700,1.212479736328125,0.2625874876976013,0.12476900219917297,-0.022237379103899002
1749996399334302200,1.22230224609375,0.22317273914813995,0.04593949392437935,0.019174745306372643
1749996399344236000,1.232236083984375,0.18908429145812988,-0.08295740932226181,0.08096003532409668
1749996399354226700,1.242226806640625,0.1688442826271057,-0.2246374636888504,0.1267663687467575
1749996399364166100,1.252166259765625,0.1507348120212555,-0.3257043659687042,0.1267663687467575
1749996399374306000,1.26230615234375,0.14221268892288208,-0.38003280758857727,0.07776424288749695
1749996399384266000,1.272265869140625,0.1411474347114563,-0.38535910844802856,0
1749996399394192100,1.282192138671875,0.15393058955669403,-0.3363569974899292,-0.074435293674469
1749996399404148500,1.2921484375,0.21571588516235352,-0.18309219181537628,-0.11385004967451096
1749996399414028500,1.302028564453125,0.34567806124687195,-0.010519478470087051,-0.11065425723791122
1749996399423908600,1.31190869140625,0.49894285202026367,0.08428898453712463,-0.09041424840688705
1749996399433770800,1.321770751953125,0.606534481048584,0.0906805694103241,-0.0648479238152504
1749996399443707000,1.331706787109375,0.6118608117103577,0.05020054802298546,-0.041412122547626495
1749996399453656600,1.341656494140625,0.5340965390205383,-0.0318247526884079,-0.03502054139971733
1749996399463594000,1.351593994140625,0.4137217700481415,-0.1351553201675415,-0.05419528856873512
1749996399473736000,1.36173583984375,0.29454538226127625,-0.2012016773223877,-0.09893636405467987
1749996399483694000,1.371694091796875,0.2167811542749405,-0.18841850757598877,-0.1447426974773407
1749996399493622000,1.3816220703125,0.20612850785255432,-0.09467530250549316,-0.17563533782958984
1749996399503577000,1.3915771484375,0.24128220975399017,-0.05099949613213539,-0.18948377668857574
1749996399513457200,1.40145703125,0.28495803475379944,0.006524739786982536,-0.15752586722373962
1749996399523337200,1.411337158203125,0.32650330662727356,0.06831002980470657,-0.09041424840688705
1749996399533394000,1.421393798828125,0.3446127772331238,0.03848264738917351,-0.06058686971664429
1749996399543348700,1.4313486328125,0.31158962845802307,-0.009454214945435524,-0.05419528856873512
1749996399553228800,1.441228759765625,0.23702116310596466,-0.04780370742082596,-0.06697845458984375
1749996399563108900,1.45110888671875,0.16564849019050598,-0.07976161688566208,-0.08189214020967484
1749996399573165800,1.461165771484375,0.11132004857063293,-0.14261217415332794,-0.08189214020967484
1749996399583120600,1.47112060546875,0.0708400309085846,-0.1916143000125885,-0.07337003201246262
1749996399593051600,1.4810517578125,0.06338318437337875,-0.15965639054775238,-0.057391077280044556
1749996399603004200,1.491004150390625,0.07297056168317795,-0.16498270630836487,-0.04460791498422623
1749996399612884200,1.50088427734375,0.05273054912686348,-0.196940615773201,-0.04247738793492317
1749996399622764300,1.510764404296875,0.00798947736620903,-0.18841850757598877,-0.029694223776459694
1749996399632630300,1.52063037109375,-0.04527370631694794,-0.1873532384634018,-0.021172115579247475
1749996399642563800,1.530563720703125,-0.08575372397899628,-0.19907113909721375,-0.017976323142647743
1749996399652516000,1.54051611328125,-0.12090742588043213,-0.21291956305503845,-0.017976323142647743
1749996399662451700,1.55045166015625,-0.15393058955669403,-0.21185430884361267,-0.020106852054595947
1749996399672595500,1.560595458984375,-0.19853851199150085,-0.20226693153381348,-0.03075948730111122
1749996399682552000,1.570552001953125,-0.24221432209014893,-0.1255679577589035,-0.04354264959692955
1749996399692481500,1.5804814453125,-0.22303956747055054,0.06191844865679741,-0.037151068449020386
1749996399702435300,1.590435302734375,-0.19427745044231415,0.10559425503015518,-0.03502054139971733
1749996399712315400,1.6003154296875,-0.21132168173789978,-0.05952160432934761,-0.07337003201246262
1749996399722195500,1.610195556640625,-0.2528669536113739,-0.10745847225189209,-0.09574057161808014
1749996399732060000,1.620059814453125,-0.34447962045669556,-0.18309219181537628,-0.05419528856873512
1749996399741994500,1.629994384765625,-0.4542017877101898,-0.2553969621658325,-0.008388951420783997
1749996399752139300,1.64013916015625,-0.5628587007522583,-0.3470096290111542,0.05539371073246002
1749996399762095000,1.65009521484375,-0.6832334399223328,-0.448209673166275,0.1033305749297142
1749996399781978600,1.669978515625,-0.8524772524833679,-0.4311654567718506,0.07563371956348419
1749996399791911200,1.6799111328125,-0.7821698188781738,-0.3278348743915558,0.04367581009864807
1749996399801862400,1.6898623046875,-0.6022734045982361,-0.20865851640701294,0.030892645940184593
1749996399811742500,1.699742431640625,-0.3700459599494934,-0.07123950868844986,0.03515370190143585
1749996399821622500,1.70962255859375,-0.1676458716392517,0.08961530029773712,0.04048001766204834
1749996399831489500,1.719489501953125,-0.04953476041555405,0.21638168394565582,0.04048001766204834
1749996399841422600,1.729422607421875,-0.03675159439444542,0.16418376564979553,0.04367581009864807
1749996399851569000,1.73956884765625,-0.12090742588043213,0.0022636852227151394,0.06924213469028473
1749996399861523500,1.7495234375,-0.219843789935112,-0.1490037590265274,0.09587372839450836
1749996399871455000,1.759455078125,-0.2805638015270233,-0.270310640335083,0.12037479132413864
1749996399881407200,1.7694072265625,-0.3274354040622711,-0.318247526884079,0.13528847694396973
1749996399891263500,1.779263427734375,-0.3455449044704437,-0.23835274577140808,0.12463584542274475
1749996399901206000,1.7892060546875,-0.2720417082309723,-0.07017423957586288,0.1310274302959442
1749996399911033600,1.79903369140625,-0.1592569202184677,0.09707214683294296,0.11717899888753891
1749996399920964600,1.808964599609375,-0.062317922711372375,0.27603644132614136,0.05965476483106613
1749996399930919400,1.81891943359375,0.002663159044459462,0.36964648962020874,-0.016911059617996216
1749996399940852700,1.828852783203125,0.004793686326593161,0.33662331104278564,-0.11385004967451096
1749996399950998500,1.83899853515625,-0.03568633273243904,0.2728406488895416,-0.20013640820980072
1749996399960953600,1.84895361328125,-0.0751010850071907,0.22596904635429382,-0.2384859025478363
1749996399970884600,1.858884521484375,-0.08575372397899628,0.22383852303028107,-0.24700801074504852
1749996399980837000,1.868837158203125,-0.0708400309085846,0.2408827394247055,-0.24061642587184906
1749996399990717200,1.87871728515625,-0.06338318437337875,0.24301326274871826,-0.23529011011123657
1749996400000597200,1.88859716796875,-0.08042740821838379,0.22383852303028107,-0.24913853406906128
1749996400010463000,1.898462890625,-0.10918952524662018,0.18868482112884521,-0.2768353819847107
1749996400020396800,1.908396728515625,-0.1368863731622696,0.17270587384700775,-0.29174908995628357
1749996400030348800,1.918348876953125,-0.1454084813594818,0.17164060473442078,-0.28322696685791016
1749996400040284400,1.928284423828125,-0.1592569202184677,0.18122798204421997,-0.26085641980171204
1749996400050428200,1.93842822265625,-0.1687111258506775,0.16951008141040802,-0.23635536432266235
1749996400060385000,1.948385009765625,-0.163384810090065,0.14820480346679688,-0.21291956305503845
1749996400070314200,1.958314208984375,-0.11877689510583878,0.1375521719455719,-0.16178691387176514
1749996400080268300,1.968268310546875,-0.0942758321762085,0.06617950648069382,-0.10958899557590485
1749996400090148000,1.978148193359375,-0.14966954290866852,0.03315633162856102,-0.10745847225189209
1749996400100028200,1.988028076171875,-0.22197431325912476,0.0672447681427002,-0.12237215787172318
1749996400109892600,1.997892578125,-0.2528669536113739,0.09813741594552994,-0.14687322080135345
1749996400119827200,2.0078271484375,-0.22197431325912476,0.1002679392695427,-0.1681784987449646
1749996400129778400,2.0177783203125,-0.15712638199329376,0.07683213800191879,-0.1681784987449646
1749996400139714800,2.02771484375,-0.11345057934522629,0.06617950648069382,-0.14687322080135345
1749996400149857800,2.03785791015625,-0.12410321086645126,0.05020054802298546,-0.12237215787172318
1749996400159815200,2.047815185546875,-0.19001640379428864,0.043808966875076294,-0.10426267981529236
1749996400169744000,2.057743896484375,-0.2518016993999481,0.03741738572716713,-0.08508793264627457
1749996400179698200,2.0676982421875,-0.28908592462539673,0.013981585390865803,-0.0882837250828743
1749996400189578200,2.077578125,-0.294412225484848,0.016112113371491432,-0.10958899557590485
1749996400199458300,2.087458251953125,-0.25606274604797363,0.05339634045958519,-0.12876373529434204
1749996400209322200,2.097322265625,-0.16138744354248047,0.13009531795978546,-0.13728585839271545
1749996400219257000,2.107257080078125,-0.08362319320440292,0.10772478580474854,-0.15539532899856567
1749996400229208000,2.1172080078125,-0.10599373281002045,0.016112113371491432,-0.186287984251976
1749996400239144700,2.127144775390625,-0.23688800632953644,-0.07123950868844986,-0.1820269227027893
1749996400249287400,2.137287353515625,-0.38282912969589233,-0.1628521829843521,-0.15752586722373962
1749996400259244800,2.147244873046875,-0.4499407410621643,-0.24900537729263306,-0.10852373391389847
1749996400269173500,2.157173583984375,-0.42543965578079224,-0.2575274705886841,-0.05099949613213539
1749996400279128000,2.167128173828125,-0.3380880355834961,-0.18522271513938904,-0.03075948730111122
1749996400289008000,2.177008056640625,-0.22197431325912476,-0.08295740932226181,-0.04460791498422623
1749996400298888200,2.18688818359375,-0.12090742588043213,-0.009454214945435524,-0.0882837250828743
1749996400308752100,2.196752197265625,-0.08255793154239655,0.02996053919196129,-0.1394163817167282
1749996400318687000,2.20668701171875,-0.1177116334438324,0.08322372287511826,-0.17030902206897736
1749996400328638000,2.216637939453125,-0.14860427379608154,0.11731215566396713,-0.16178691387176514
1749996400338574300,2.22657421875,-0.15712638199329376,0.12157320976257324,-0.10532794147729874
1749996400348717300,2.23671728515625,-0.14753901958465576,0.14500901103019714,-0.024367906153202057
1749996400358674700,2.2466748046875,-0.10173267871141434,0.2078595608472824,0.02769685536623001
1749996400368603100,2.25660302734375,-0.01438105944544077,0.28562381863594055,0.013848427683115005
1749996400378557700,2.2665576171875,0.0708400309085846,0.36005911231040955,-0.05099949613213539
1749996400388437800,2.276437744140625,0.12516847252845764,0.433562308549881,-0.13835111260414124
1749996400398317800,2.28631787109375,0.15606112778186798,0.45912861824035645,-0.22783325612545013
1749996400408181800,2.296181640625,0.1411474347114563,0.39840859174728394,-0.29707539081573486
1749996400418116600,2.30611669921875,0.046338967978954315,0.29095011949539185,-0.3098585605621338
1749996400427996700,2.31599658203125,-0.07723161578178406,0.19614167511463165,-0.28429222106933594
1749996400437876700,2.325876708984375,-0.16445007920265198,0.11198583990335464,-0.26511749625205994
1749996400447953200,2.335953125,-0.19321219623088837,0.03848264738917351,-0.27044379711151123
1749996400457895200,2.345895263671875,-0.16977639496326447,-0.022237379103899002,-0.308793306350708
1749996400467839000,2.3558388671875,-0.11877689510583878,-0.06697845458984375,-0.3577954173088074
1749996400477781200,2.36578125,-0.08042740821838379,-0.08295740932226181,-0.39721018075942993
1749996400487661300,2.375661376953125,-0.059122130274772644,-0.0552605502307415,-0.4355596601963043
1749996400497541400,2.385541259765625,-0.05699160322546959,-0.0456731803715229,-0.46219125390052795
1749996400507417900,2.39541796875,-0.06657897680997849,-0.03928159549832344,-0.45793020725250244
1749996400517345000,2.405344970703125,-0.0985368862748146,-0.04354264959692955,-0.4121238589286804
1749996400527303400,2.415303466796875,-0.16977639496326447,-0.0882837250828743,-0.3269027769565582
1749996400537234000,2.42523388671875,-0.25606274604797363,-0.11704584211111069,-0.23209431767463684
1749996400547382300,2.43538232421875,-0.294412225484848,-0.11065425723791122,-0.18096165359020233
1749996400557334800,2.445334716796875,-0.2709764242172241,-0.08508793264627457,-0.17670060694217682
1749996400567268400,2.455268310546875,-0.21451745927333832,-0.0552605502307415,-0.18096165359020233
1749996400577218800,2.46521875,-0.16977639496326447,-0.03821633383631706,-0.17883113026618958
1749996400587099000,2.475098876953125,-0.15712638199329376,-0.03395527973771095,-0.17457008361816406
1749996400596978700,2.484978759765625,-0.1603221744298935,-0.03395527973771095,-0.17030902206897736
1749996400616779500,2.504779541015625,-0.16138744354248047,-0.05206476151943207,-0.13409006595611572
1749996400626732800,2.51473291015625,-0.16658060252666473,-0.05099949613213539,-0.10000162571668625
1749996400636667400,2.52466748046875,-0.16138744354248047,-0.04460791498422623,-0.08189214020967484
1749996400646811600,2.534811767578125,-0.1358211189508438,-0.028628960251808167,-0.08508793264627457
1749996400656767500,2.544767578125,-0.09747162461280823,0.0011984215816482902,-0.10958899557590485
1749996400666697700,2.55469775390625,-0.06338318437337875,0.03741738572716713,-0.13835111260414124
1749996400676651000,2.564651123046875,-0.03994738683104515,0.059787921607494354,-0.1543300747871399
1749996400686531000,2.574531005859375,-0.026098959147930145,0.06511423736810684,-0.15219953656196594
1749996400706459600,2.594459716796875,-0.0005326318205334246,0.059787921607494354,-0.10106688737869263
1749996400716413700,2.60441357421875,0.009054740890860558,0.0342215932905674,-0.06058686971664429
1749996400726347800,2.61434765625,0.002663159044459462,0.0043942127376794815,-0.029694223776459694
1749996400736227600,2.6242275390625,0.0015978955198079348,-0.011584741994738579,-0.01904158666729927
1749996400746065700,2.634065673828125,0.022903168573975563,-0.008388951420783997,-0.037151068449020386
1749996400756185000,2.64418505859375,0.05699160322546959,0.0033289489801973104,-0.06591318547725677
1749996400766125800,2.654125732421875,0.08362319320440292,0.018242640420794487,-0.07656582444906235
1749996400776005600,2.664005615234375,0.10492847114801407,0.031025802716612816,-0.05952160432934761
1749996400785885700,2.6738857421875,0.12410321086645126,0.047004759311676025,-0.0318247526884079
1749996400795956700,2.683956787109375,0.1368863731622696,0.05659212917089462,-0.0062584239058196545
1749996400805902300,2.69390234375,0.1411474347114563,0.05659212917089462,0.014913691207766533
1749996400815842600,2.703842529296875,0.14221268892288208,0.04593949392437935,0.019174745306372643
1749996400825788000,2.713787841796875,0.1411474347114563,0.02463422156870365,0.0074568456038832664
1749996400835667700,2.723667724609375,0.14327795803546906,0.0043942127376794815,-0.016911059617996216
1749996400845503500,2.73350341796875,0.14221268892288208,-0.012650005519390106,-0.0456731803715229
1749996400865561900,2.753561767578125,0.12942953407764435,-0.007323687430471182,-0.07763108611106873
1749996400895386000,2.78338623046875,0.12836426496505737,0.12263847887516022,-0.017976323142647743
1749996400915272200,2.803272216796875,0.1272990107536316,0.1748363971710205,0.025566328316926956
1749996400925217500,2.813217529296875,0.1177116334438324,0.180162712931633,0.045806337147951126
1749996400935097600,2.82309765625,0.09534109383821487,0.20040272176265717,0.04900212585926056
1749996400944933400,2.832933349609375,0.06657897680997849,0.23023010790348053,0.02769685536623001
1749996400954851000,2.84285107421875,0.03994738683104515,0.28455856442451477,-0.017976323142647743
1749996400964779300,2.852779296875,0.020772641524672508,0.4143875539302826,-0.07337003201246262
1749996400974659800,2.862659912109375,-0.0005326318205334246,0.6679202914237976,-0.11065425723791122
1749996401024654000,2.912654052734375,0.059122130274772644,2.769152879714966,0.40693071484565735
1749996401034534000,2.922533935546875,0.13901691138744354,3.0289440155029297,0.4751075804233551
1749996401044414000,2.9324140625,0.22210747003555298,3.2089736461639404,0.5028044581413269
1749996401054280200,2.9422802734375,0.297741174697876,3.395394802093506,0.5399554967880249
1749996401064214000,2.952214111328125,0.30306750535964966,3.5806174278259277,0.5452818274497986
1749996401074089000,2.9620888671875,0.07723161578178406,3.7553205490112305,0.4175833463668823
1749996401084017000,2.972016845703125,-0.2677806615829468,4.400737285614014,0.38242965936660767
1749996401094196700,2.98219677734375,-0.47124600410461426,4.941758155822754,0.5241097211837769
1749996401114053600,3.0020537109375,-0.4041343927383423,4.716987609863281,0.9969536066055298
1749996401124001000,3.0120009765625,-0.36791542172431946,4.1834235191345215,1.3323785066604614
1749996401133823700,3.02182373046875,-0.42437440156936646,3.753190040588379,1.3195953369140625
1749996401143758800,3.0317587890625,-0.4360923171043396,4.073834419250488,0.8648608922958374
1749996401153709600,3.04170947265625,-0.4275701940059662,4.33895206451416,0.3344927728176117
1749996401163646200,3.051646240234375,-0.28802067041397095,4.144008636474609,0.08309056609869003
1749996401173788400,3.061788330078125,-0.2251701056957245,3.781952142715454,-0.024367906153202057
1749996401183746000,3.07174609375,-0.5159870982170105,3.5370748043060303,-0.16178691387176514
1749996401193674500,3.081674560546875,-1.0271804332733154,2.9694223403930664,-0.28322696685791016
1749996401203629000,3.091629150390625,-1.4393043518066406,2.769152879714966,-0.28748801350593567
1749996401213509000,3.101509033203125,-1.7684707641601562,3.285672426223755,-0.33116382360458374
1749996401253325300,3.1413251953125,-2.0208051204681396,0.5560676455497742,-0.2672480046749115
1749996401263276000,3.151276123046875,-2.0367841720581055,0.791490912437439,-0.655936062335968
1749996401283155700,3.17115576171875,-2.157158851623535,1.2355726957321167,-1.3546159267425537
1749996401302873000,3.190873046875,-2.3999059200286865,2.082190990447998,-1.5154707431793213
1749996401312836400,3.20083642578125,-2.495779514312744,2.5220117568969727,-1.4025527238845825
1749996401332722000,3.220721923828125,-2.1592893600463867,2.3868563175201416,-1.2672642469406128
1749996401362540300,3.250540283203125,-0.8119972348213196,1.057673692703247,-0.34394699335098267
1749996401372648000,3.26064794921875,-0.5213133692741394,0.6274402737617493,-0.032890014350414276
1749996401382598100,3.27059814453125,-0.41159123182296753,0.7350319027900696,0.07456845790147781
1749996401392478200,3.280478271484375,-0.3796333372592926,1.055543065071106,0.10972215235233307
1749996401402358000,3.29035791015625,-0.3647196292877197,1.6583491563796997,0.24714116752147675
1749996401412226600,3.3002265625,-0.23688800632953644,2.1248013973236084,0.6070671081542969
1749996401422158800,3.310158935546875,-0.022903168573975563,2.605102300643921,1.1044120788574219
1749996401432151000,3.320151123046875,0.14966954290866852,3.1088387966156006,1.6401065587997437
1749996401442089200,3.330089111328125,0.32224225997924805,3.4827463626861572,2.191779851913452
1749996401451998200,3.339998291015625,0.5436839461326599,3.6413373947143555,2.7125606536865234
1749996401461933600,3.34993359375,0.7183871865272522,3.838411331176758,3.1482534408569336
1749996401471884000,3.359884033203125,0.8376966714859009,3.8661081790924072,3.485808849334717
1749996401481821000,3.369821044921875,0.9270457029342651,3.599792242050171,3.753190040588379
1749996401491808500,3.37980859375,1.0250499248504639,3.2292134761810303,3.943739175796509
1749996401501750500,3.38975048828125,1.1262500286102295,2.936399221420288,4.012981414794922
1749996401511655700,3.39965576171875,1.1944268941879272,2.8639612197875977,3.9554569721221924
1749996401521594000,3.409593994140625,1.2061448097229004,2.7350645065307617,3.8212337493896484
1749996401531731200,3.419731201171875,1.1294457912445068,2.379399538040161,3.658381700515747
1749996401561560800,3.449560791015625,0.8675240874290466,1.227050542831421,2.794585943222046
1749996401571441000,3.45944091796875,0.8653935790061951,1.3708611726760864,2.3196115493774414
1749996401591432000,3.479431884765625,0.6725808382034302,1.4697974920272827,1.3132038116455078
1749996401601379800,3.4893798828125,0.5404881238937378,1.1503515243530273,0.8819051384925842
1749996401621265000,3.509264892578125,0.3307643532752991,0.24194800853729248,0.18961693346500397
1749996401631203800,3.519203857421875,0.2167811542749405,0.01504684891551733,-0.0691089779138565
1749996401651244800,3.539244873046875,0.0708400309085846,-0.1490037590265274,-0.40147122740745544
1749996401671085800,3.5590859375,0.19547587633132935,-0.1820269227027893,-0.505867063999176
1749996401680918000,3.56891796875,0.2625874876976013,-0.2287653684616089,-0.5090628862380981
1749996401690861800,3.57886181640625,0.28921908140182495,-0.2884201407432556,-0.5026713013648987
1749996401700804000,3.58880419921875,0.2775011658668518,-0.33848753571510315,-0.4888228476047516
1749996401710747600,3.59874755859375,0.24234747886657715,-0.3075948655605316,-0.46645233035087585
1749996401720690200,3.608690185546875,0.20293273031711578,-0.19054903090000153,-0.43449440598487854
1749996401730788600,3.61878857421875,0.17523586750030518,-0.05632581561803818,-0.3897533416748047
1749996401740746800,3.628746826171875,0.14966954290866852,0.0810931921005249,-0.3418164849281311
1749996401750626800,3.638626708984375,0.0985368862748146,0.21105535328388214,-0.2992059290409088
1749996401760459500,3.64845947265625,0.03675159439444542,0.33236226439476013,-0.2565953731536865
1749996401770405600,3.658405517578125,0.0037284228019416332,0.4516717791557312,-0.21611535549163818
1749996401780346000,3.66834619140625,0.033555805683135986,0.5571328997612,-0.17883113026618958
1749996401790291500,3.67829150390625,0.11238531768321991,0.6050697565078735,-0.13302479684352875
1749996401800232400,3.688232421875,0.19867166876792908,0.5858950018882751,-0.048868969082832336
1749996401810100200,3.698100341796875,0.287088543176651,0.5273054838180542,0.09161267429590225
1749996401820033800,3.70803369140625,0.38815543055534363,0.4751075804233551,0.2545980215072632
1749996401830063400,3.7180634765625,0.5000081062316895,0.4761728346347809,0.37923386693000793
1749996401840006400,3.72800634765625,0.5799028873443604,0.49215179681777954,0.42930126190185547
1749996401849949200,3.73794921875,0.6044039726257324,0.44528019428253174,0.40160438418388367
1749996401859892500,3.747892578125,0.6129260659217834,0.3707117438316345,0.2865559160709381
1749996401869835300,3.757835205078125,0.6267744898796082,0.3472759425640106,0.0798947736620903
1749996401879778300,3.7677783203125,0.6225134134292603,0.3344927728176117,-0.19267955422401428
1749996401889721000,3.77772119140625,0.5905555486679077,0.2877543270587921,-0.4888228476047516
1749996401899664100,3.7876640625,0.5554018020629883,0.18761955201625824,-0.7667235136032104
1749996401909607000,3.79760693359375,0.5522060394287109,0.03635212033987045,-1.0181257724761963
1749996401919550200,3.80755029296875,0.5958818197250366,-0.06804371625185013,-1.2331758737564087
1749996401929493000,3.817492919921875,0.6704503297805786,-0.053130023181438446,-1.4014874696731567
1749996401939436000,3.82743603515625,0.7535408735275269,-0.012650005519390106,-1.5431675910949707
1749996401949533700,3.83753369140625,0.8099998235702515,-0.014780532568693161,-1.692171335220337
1749996401959492600,3.84749267578125,0.8185219764709473,-0.029694223776459694,-1.8562219142913818
1749996401969372400,3.857372314453125,0.803608238697052,-0.0691089779138565,-2.0319902896881104
1749996401979205000,3.867205078125,0.7876293063163757,-0.12237215787172318,-2.189516305923462
1749996401989151000,3.87715087890625,0.8025429844856262,-0.07337003201246262,-2.3194785118103027
1749996401999091700,3.887091796875,0.8217177391052246,0.02569948509335518,-2.441983699798584
1749996402009036800,3.897036865234375,0.8558061718940735,0.10133320093154907,-2.576206922531128
1749996402018978000,3.90697802734375,0.9376983046531677,0.20679430663585663,-2.7347981929779053
1749996402028857900,3.91685791015625,1.0399636030197144,0.4410191476345062,-2.9329371452331543
1749996402038738000,3.926738037109375,1.188035249710083,0.7499455809593201,-3.1886003017425537
1749996402048577000,3.936576904296875,1.3755216598510742,1.045955777168274,-3.5378737449645996
1749996402058499600,3.94649951171875,1.4181321859359741,1.3994901180267334,-3.939344882965088
1749996402068501200,3.956501220703125,1.0602036714553833,1.0811094045639038,-4.152397632598877
1749996402078431700,3.966431640625,0.3723096549510956,0.6679202914237976,-4.175833702087402
1749996402088541400,3.97654150390625,-0.3039996027946472,0.9980188608169556,-4.267446041107178
1749996402098490000,3.986489990234375,-0.8950877785682678,1.3793832063674927,-4.301534652709961
1749996402108370200,3.9963701171875,-1.2901674509048462,1.421860694885254,-4.072503089904785
1749996402118250000,4.00625,-1.3519526720046997,1.2739222049713135,-3.4846105575561523
1749996402128120300,4.016120361328125,-1.0719215869903564,1.0885663032531738,-2.610295295715332
1749996402138051600,4.026051513671875,-0.6001428961753845,0.8287751078605652,-1.6102792024612427
1749996402148044500,4.03604443359375,-0.11345057934522629,0.5922865867614746,-0.6751108169555664
1749996402157982200,4.045982177734375,0.1933453530073166,0.6924213767051697,-0.2054627239704132
1749996402167930400,4.055930419921875,0.297741174697876,0.8138614296913147,-0.308793306350708
1749996402177869000,4.065869140625,0.3488738536834717,0.3994738757610321,-0.7656582593917847
1749996402187970800,4.075970703125,0.34567806124687195,-0.42796966433525085,-1.4504896402359009
1749996402197926100,4.085926025390625,0.28069695830345154,-1.0137314796447754,-2.288585662841797
1749996402207806000,4.095805908203125,0.24660852551460266,-1.324655294418335,-2.974482297897339
1749996402217686000,4.10568603515625,0.27537065744400024,-1.5558176040649414,-3.313103199005127
1749996402227510500,4.115510498046875,0.20825904607772827,-1.758217692375183,-3.3194947242736816
1749996402237451800,4.12545166015625,0.021837905049324036,-1.993507742881775,-2.98406982421875
1749996402247435000,4.13543505859375,-0.3221091032028198,-2.282194137573242,-2.591120719909668
1749996402257380400,4.14538037109375,-0.5681849718093872,-2.5110926628112793,-2.382328987121582
1749996402267514400,4.155514404296875,-0.47657233476638794,-2.3461101055145264,-2.177798271179199
1749996402287400400,4.175400390625,-0.37324175238609314,-2.1085562705993652,-1.830655574798584
1749996402297360600,4.185360595703125,-0.4371575713157654,-2.1959078311920166,-1.6144070625305176
1749996402307240700,4.19524072265625,-0.6406229138374329,-2.3141520023345947,-1.3397021293640137
1749996402317120800,4.205120849609375,-0.9600688815116882,-2.3205437660217285,-0.8892288208007812
1749996402327172600,4.215172607421875,-1.5777885913848877,-2.25769305229187,-0.3332943618297577
1749996402337130800,4.225130859375,-2.610827922821045,-2.326935291290283,0.188551664352417
1749996402347010800,4.2350107421875,-3.8462674617767334,-2.6527726650238037,0.5230444669723511
1749996402356891000,4.244890869140625,-4.729104995727539,-2.829606533050537,0.4623244106769562
1749996402366751500,4.25475146484375,-4.609795093536377,-2.419480085372925,0.006391582079231739
1749996402376689000,4.26468896484375,-3.411639928817749,-1.896568775177002,-0.47177863121032715
1749996402386830600,4.27483056640625,-1.8780597448349,-1.835981845855713,-0.8221172094345093
1749996402396788500,4.28478857421875,-0.9313067197799683,-1.9668761491775513,-1.137302041053772
1749996402406668500,4.29466845703125,-0.9941573143005371,-1.6804534196853638,-1.2385021448135376
1749996402416548600,4.304548583984375,-1.5980286598205566,-1.1181273460388184,-0.9073383212089539
1749996402426370800,4.314370849609375,-2.2487714290618896,-0.5099949836730957,-0.5090628862380981
1749996402436304400,4.324304443359375,-2.8366639614105225,-0.23196116089820862,-0.33862069249153137
1749996402446295300,4.33429541015625,-3.0943245887756348,-0.0648479238152504,-0.22144168615341187
1749996402456234500,4.344234375,-2.8929896354675293,-0.022237379103899002,0.04793686419725418
1749996402466219800,4.3542197265625,-2.567152261734009,-0.32996541261672974,0.25140222907066345
1749996402476163600,4.36416357421875,-2.2594242095947266,-0.6857634782791138,0.2396843135356903
1749996402486260500,4.374260498046875,-2.038914680480957,0.048070020973682404,0.5655218362808228
1749996402496219600,4.3842197265625,-1.7578182220458984,0.19507640600204468,1.0831067562103271
1749996402506099700,4.394099609375,-1.5458307266235352,0.15033532679080963,0.9703220129013062
1749996402515979800,4.403979736328125,-1.3636705875396729,0.2589922249317169,0.7807050943374634
1749996402526032400,4.414032470703125,-1.332777976989746,0.2174469381570816,0.6145239472389221
1749996402535990300,4.423990234375,-1.4243906736373901,0.19188061356544495,0.4506065249443054
1749996402545870000,4.4338701171875,-1.328516960144043,0.21425114572048187,0.3536675274372101
1749996402555750100,4.443750244140625,-0.9504814743995667,0.24940484762191772,0.21944430470466614
1749996402565611500,4.453611572265625,-0.7544729709625244,0.2888196110725403,0.0564589723944664
1749996402575548400,4.46354833984375,-0.8301066756248474,0.8819051384925842,0.1555284857749939
1749996402585690400,4.4736904296875,-0.9579383134841919,1.2227895259857178,0.31212225556373596
1749996402595648300,4.483648193359375,-1.3274517059326172,0.5336970686912537,0.1502021700143814
1749996402605528300,4.4935283203125,-2.147571563720703,-0.7262434959411621,-0.39081859588623047
1749996402615408400,4.503408447265625,-2.2636852264404297,1.100284218788147,0.4175833463668823
1749996402625462500,4.513462646484375,-0.923849880695343,1.5827155113220215,1.1970900297164917
1749996402645299200,4.53329931640625,0.7396924495697021,2.5188159942626953,0.5347623229026794
1749996402655179300,4.54317919921875,0.7311703562736511,0.874448299407959,0.48682549595832825
1749996402665041400,4.55304150390625,0.6576671600341797,-0.5110602378845215,0.18748639523983002
1749996402674977800,4.562977783203125,0.6044039726257324,-1.2640684843063354,-0.23315958678722382
1749996402685120500,4.57312060546875,0.5990776419639587,-1.6996281147003174,-0.3237069845199585
1749996402695078000,4.583077880859375,0.5990776419639587,-1.5760575532913208,-0.1777658760547638
1749996402704958000,4.5929580078125,0.4275701940059662,-1.0669946670532227,0.09480846673250198
1749996402714837800,4.602837646484375,0.010120004415512085,-0.5643234252929688,0.3813643753528595
1749996402724892700,4.612892578125,-0.42970073223114014,-0.13835111260414124,0.5889576077461243
1749996402734849000,4.62284912109375,-0.7704519033432007,0.026764748618006706,0.7263766527175903
1749996402744729000,4.63272900390625,-1.1187931299209595,-0.21824589371681213,0.6518082022666931
1749996402754609200,4.642609130859375,-1.1102709770202637,-0.39068543910980225,0.4559328258037567
1749996402764471600,4.652471435546875,-0.8173235058784485,-0.8965525031089783,0.26631590723991394
1749996402774408000,4.662407958984375,-0.5894902944564819,-1.9530277252197266,0.10013478249311447
1749996402784550700,4.672550537109375,-0.32104381918907166,-2.7838001251220703,-0.2107890397310257
1749996402794507800,4.6825078125,-0.04420844092965126,-3.1575746536254883,-0.5558013319969177
1749996402804387800,4.692387939453125,0.017576850950717926,-2.9690229892730713,-0.6495444774627686
1749996402814221300,4.70222119140625,-0.09534109383821487,-2.333326816558838,-0.44301652908325195
1749996402824322800,4.71232275390625,-0.3412838280200958,-1.4247901439666748,-0.11278478801250458
1749996402834278100,4.722278076171875,-0.615056574344635,-0.38962018489837646,0.17257271707057953
1749996402844158200,4.732158203125,-0.8428898453712463,0.24727432429790497,0.3110569715499878
1749996402854038300,4.742038330078125,-0.9334372878074646,0.3536675274372101,0.2950780391693115
1749996402863902000,4.75190185546875,-1.0218541622161865,0.17270587384700775,0.1555284857749939
1749996402873837300,4.76183740234375,-1.2880369424819946,0.08961530029773712,0.12463584542274475
1749996402883980800,4.771980712890625,-1.3008201122283936,0.12263847887516022,0.3110569715499878
1749996402893937400,4.7819375,-1.0804436206817627,0.24194800853729248,0.5569997429847717
1749996402903817500,4.7918173828125,-0.9121319651603699,0.17164060473442078,0.5964145064353943
1749996402913651000,4.80165087890625,-0.743820309638977,0.2323606312274933,0.43036651611328125
1749996402923753000,4.8117529296875,-0.8450203537940979,0.39734333753585815,0.21837905049324036
1749996402933708000,4.8217080078125,-0.9898962378501892,0.6072002649307251,0.01597895473241806
1749996402943588000,4.831588134765625,-0.9483509659767151,0.7360971570014954,-0.40147122740745544
1749996402953468200,4.84146826171875,-0.8620645999908447,0.8138614296913147,-0.9914941191673279
1749996402963332000,4.85133203125,-0.781104564666748,0.9085367321968079,-1.3098747730255127
1749996402973267500,4.861267333984375,-0.7289066314697266,0.9713872671127319,-1.308809518814087
1749996402983411000,4.871410888671875,-0.8918919563293457,0.9777788519859314,-1.1863042116165161
1749996402993367600,4.881367431640625,-1.0932267904281616,0.784034013748169,-1.1096051931381226
1749996403003247600,4.89124755859375,-1.061268925666809,0.9330378174781799,-1.04475736618042
1749996403013127700,4.901127685546875,-1.0431593656539917,0.8032087683677673,-1.0797778367996216
1749996403023183000,4.91118310546875,-1.1241194009780884,-0.2841590642929077,-1.417466402053833
1749996403033139000,4.921138916015625,-1.392432689666748,-1.064864158630371,-1.659148097038269
1749996403043019000,4.93101904296875,-1.9377145767211914,-1.8029587268829346,-1.7773923873901367
1749996403052899000,4.940899169921875,-2.6086974143981934,-2.5558338165283203,-1.8700703382492065
1749996403062762200,4.95076220703125,-3.0996508598327637,-2.3290657997131348,-1.8125461339950562
1749996403072698000,4.960697998046875,-3.1901981830596924,-1.5590133666992188,-1.8658093214035034
1749996403082841300,4.97084130859375,-2.945187568664551,-0.8603335618972778,-2.227865695953369
1749996403092798200,4.980798095703125,-2.472343683242798,-0.33955278992652893,-2.505899667739868
1749996403102678300,4.99067822265625,-1.7674055099487305,0.17164060473442078,-2.184190034866333
1749996403112558000,5.00055810546875,-0.9781783223152161,0.35047173500061035,-1.5239927768707275
1749996403132569600,5.020569580078125,-0.7001445293426514,-0.6069339513778687,-1.1799126863479614
1749996403142449700,5.03044970703125,-0.7416898012161255,-0.32890015840530396,-0.8743151426315308
1749996403152329500,5.04032958984375,-0.6416881680488586,-0.1490037590265274,-0.42490702867507935
1749996403162192400,5.0501923828125,-0.5074649453163147,-0.07337003201246262,0.05219791829586029
1749996403172128500,5.06012841796875,-0.42011335492134094,0.048070020973682404,0.37497279047966003
1749996403182271500,5.070271484375,-0.39241650700569153,0.17696692049503326,0.4804339110851288
1749996403192228600,5.080228515625,-0.36152383685112,0.24727432429790497,0.44847598671913147
1749996403202157800,5.09015771484375,-0.2954775094985962,0.246209055185318,0.42930126190185547
1749996403212112000,5.10011181640625,-0.21451745927333832,0.16844481229782104,0.42930126190185547
1749996403222044000,5.1100439453125,-0.18149429559707642,0.09600688517093658,0.5177181363105774
1749996403231996000,5.119995849609375,-0.2901511788368225,0.09281109273433685,0.6976145505905151
1749996403241876000,5.1298759765625,-0.44887545704841614,0.3376885652542114,0.8563387989997864
1749996403251756000,5.139756103515625,-0.5916208028793335,0.7691203355789185,0.8616651296615601
1749996403261623000,5.149623046875,-0.6566019058227539,1.227050542831421,0.7285071611404419
1749996403271556400,5.159556396484375,-0.5926860570907593,1.4719280004501343,0.5336970686912537
1749996403291657000,5.179656982421875,-0.30719539523124695,1.5496922731399536,0.2812296152114868
1749996403301537000,5.189537109375,-0.1081242561340332,1.3847095966339111,0.3163833022117615
1749996403311416800,5.199416748046875,0.15712638199329376,0.9969536066055298,0.5081307291984558
1749996403321474000,5.20947412109375,0.4126565158367157,0.7531414031982422,0.6347639560699463
1749996403331429000,5.21942919921875,0.6075997352600098,0.47830337285995483,0.7178545594215393
1749996403341309000,5.229308837890625,0.6139913201332092,0.43462756276130676,0.7721830010414124
1749996403351189000,5.23918896484375,0.4403533637523651,0.6455497741699219,0.6379597783088684
1749996403361053200,5.24905322265625,0.2732401192188263,1.498559594154358,0.23755379021167755
1749996403370988500,5.258988525390625,0.23595589399337769,2.4273364543914795,-0.02330264262855053
1749996403381055000,5.269054931640625,0.08894951641559601,2.9726181030273438,-0.04354264959692955
1749996403391003400,5.27900341796875,0.030360013246536255,3.15144944190979,-0.07017423957586288
1749996403400825300,5.288825439453125,0.17310534417629242,3.05131459236145,-0.12876373529434204
1749996403410761200,5.29876123046875,0.44781020283699036,2.752108573913574,-0.21824589371681213
1749996403420904400,5.308904541015625,0.7546061277389526,2.2345235347747803,-0.3663175404071808
1749996403430861300,5.318861328125,0.8909598588943481,1.2036147117614746,-0.07017423957586288
1749996403440741400,5.328741455078125,0.6800376772880554,-0.10852373391389847,0.9362335801124573
1749996403450621200,5.33862109375,0.7663240432739258,-0.7921566963195801,1.6061512231826782
1749996403460483600,5.348483642578125,1.3915005922317505,-0.007323687430471182,1.0374336242675781
1749996403470420000,5.358419921875,2.1805946826934814,0.006524739786982536,0.5091960430145264
1749996403480369400,5.368369384765625,2.157158851623535,-1.5366427898406982,0.5580649971961975
1749996403490307300,5.378307373046875,1.5575486421585083,-2.5451810359954834,0.6976145505905151
1749996403500255500,5.38825537109375,1.2455594539642334,-3.2917978763580322,0.8478167057037354
1749996403510194400,5.3981943359375,1.061268925666809,-4.126698017120361,1.0182589292526245
1749996403520334600,5.40833447265625,0.6757766008377075,-4.862662315368652,1.2855068445205688
1749996403530294000,5.4182939453125,0.547944962978363,-5.189565181732178,1.6390413045883179
1749996403540221000,5.428220947265625,0.6502103209495544,-4.827508449554443,1.8574203252792358
1749996403550177000,5.438177001953125,0.7620629668235779,-3.972368001937866,1.777525544166565
1749996403560056800,5.448056884765625,0.9345025420188904,-2.5888569355010986,1.4207954406738281
1749996403569937000,5.45793701171875,1.109205722808838,-1.0840388536453247,0.958604097366333
1749996403579800000,5.467800048828125,1.2530163526535034,-0.0062584239058196545,0.572978675365448
1749996403589736700,5.47773681640625,1.3584774732589722,0.5091960430145264,0.2119874656200409
1749996403599879000,5.48787890625,1.3499553203582764,0.8159919381141663,-0.3748396337032318
1749996403609836800,5.4978369140625,1.2636690139770508,0.8404930233955383,-0.9254477620124817
1749996403619765200,5.50776513671875,1.2189279794692993,0.4154528081417084,-0.9733846783638
1749996403629720000,5.517719970703125,1.1614036560058594,-0.27244117856025696,-0.6921550631523132
1749996403639651600,5.527651611328125,0.9419593811035156,-0.7305045127868652,-0.48136600852012634
1749996403649603800,5.537603759765625,0.7620629668235779,-0.7219824194908142,-0.4749744236469269
1749996403659484000,5.54748388671875,0.6661892533302307,-0.821984052658081,-0.4589954614639282
1749996403669364000,5.557364013671875,0.49468180537223816,-0.8187882900238037,-0.44408178329467773
1749996403679423500,5.567423583984375,0.2732401192188263,-0.47484126687049866,-0.49947547912597656
1749996403689376800,5.577376708984375,0.038882121443748474,0.08428898453712463,-0.6356960535049438
1749996403699256800,5.5872568359375,-0.154995858669281,0.5028044581413269,-0.8370308876037598
1749996403709137000,5.597136962890625,-0.34447962045669556,0.5997434258460999,-1.090430498123169
1749996403719195600,5.607195556640625,-0.38282912969589233,0.4612591564655304,-1.3567464351654053
1749996403729149400,5.6171494140625,-0.15180006623268127,0.20572903752326965,-1.6165375709533691
1749996403739029500,5.627029541015625,0.1464737504720688,0.05659212917089462,-1.8423734903335571
1749996403748909600,5.63690966796875,0.34035173058509827,0.03635212033987045,-1.8764618635177612
1749996403758967800,5.6469677734375,0.5671197175979614,-0.0786963477730751,-1.7188029289245605
1749996403768922000,5.656922119140625,0.7886945605278015,-0.12343742698431015,-1.4164011478424072
1749996403778802200,5.66680224609375,0.8749809265136719,-0.12237215787172318,-1.187369465827942
1749996403788682000,5.676681884765625,0.8142609000205994,-0.23515695333480835,-0.9819067716598511
1749996403798547000,5.686546875,0.5905555486679077,-0.38962018489837646,-0.7912245988845825
1749996403808481800,5.696481689453125,0.2253032624721527,-0.5430181622505188,-0.6772413849830627
1749996403818626000,5.7066259765625,-0.23688800632953644,-0.6857634782791138,-0.6420876383781433
1749996403828582100,5.71658203125,-0.6811029314994812,-1.0382325649261475,-0.7006771564483643
1749996403838512400,5.726512451171875,-0.823715090751648,-1.0243841409683228,-0.7965508699417114
1749996403848465700,5.736465576171875,-0.37324175238609314,-0.23089589178562164,-0.827443540096283
1749996403858398500,5.7463984375,-0.1603221744298935,0.1759016513824463,-0.9233172535896301
1749996403868350000,5.756349853515625,-0.4691154658794403,-0.6601971387863159,-1.12771475315094
1749996403878230000,5.76622998046875,-0.6949513554573059,-1.3299816846847534,-1.1085399389266968
1749996403888109800,5.77610986328125,-0.6800376772880554,-1.4375733137130737,-0.8455530405044556
1749996403897977600,5.7859775390625,-0.47550705075263977,-1.2012178897857666,-0.5207807421684265
1749996403907910700,5.79591064453125,-0.07403582334518433,-0.5749760270118713,-0.15752586722373962
1749996403918056700,5.806056640625,0.3424822688102722,0.1045289933681488,0.14487585425376892
1749996403928011300,5.81601123046875,0.38709017634391785,0.23662169277668,0.1832253485918045
1749996403937891300,5.825891357421875,0.10279794037342072,0.0342215932905674,0.025566328316926956
1749996403947771400,5.835771484375,-0.10705899447202682,-0.02756369672715664,-0.009454214945435524
1749996403957828900,5.845828857421875,-0.19853851199150085,0.05233107507228851,0.13954953849315643
1749996403967783400,5.855783447265625,-0.4893554747104645,0.10346373170614243,0.35153698921203613
1749996403977663500,5.86566357421875,-1.1315762996673584,-0.020106852054595947,0.43036651611328125
1749996403987543600,5.87554345703125,-1.7514265775680542,-0.03395527973771095,0.301469624042511
1749996403997601000,5.88560107421875,-2.0612852573394775,-0.11811110377311707,0.10972215235233307
1749996404007555800,5.895555908203125,-2.0271966457366943,-0.5739107728004456,-0.14261217415332794
1749996404017487400,5.9054873046875,-1.7109465599060059,-1.107474684715271,-0.514389157295227
1749996404027439600,5.915439697265625,-1.4488917589187622,-1.1894999742507935,-0.7464835047721863
1749996404037319700,5.925319580078125,-1.3391695022583008,-0.7996135354042053,-0.6197171211242676
1749996404047199700,5.93519970703125,-1.2667316198349,-0.9221188426017761,-0.1490037590265274
1749996404057259500,5.945259521484375,-1.2029489278793335,-1.5227943658828735,0.377103328704834
1749996404067212800,5.955212890625,-1.2390347719192505,-1.6335817575454712,0.6550039649009705
1749996404077145600,5.9651455078125,-1.4350433349609375,-1.5611438751220703,0.6912229657173157
1749996404087096800,5.975096923828125,-1.618268609046936,-1.768870234489441,0.5964145064353943
1749996404096977000,5.984976806640625,-1.6704665422439575,-1.9743330478668213,0.5060002207756042
1749996404106857000,5.99485693359375,-1.5447654724121094,-1.721998691558838,0.4463454782962799
1749996404116917800,6.004917724609375,-1.3338432312011719,-1.4450300931930542,0.39308229088783264
1749996404126870300,6.014870361328125,-1.4414348602294922,-1.6559523344039917,0.34940648078918457
1749996404136750300,6.024750244140625,-1.8887124061584473,-1.6825839281082153,0.3952127993106842
1749996404146630100,6.034630126953125,-2.3935141563415527,-1.7251944541931152,0.4836297035217285
1749996404156690000,6.04468994140625,-2.9260129928588867,-1.612276554107666,0.52837073802948
1749996404166643200,6.054643310546875,-3.4776864051818848,-1.3171985149383545,0.44421494007110596
1749996404176523300,6.064523193359375,-3.763176918029785,-1.733716607093811,0.4697812795639038
1749996404186403300,6.0744033203125,-3.575690507888794,-2.1671457290649414,0.8392946124076843
1749996404196269000,6.08426904296875,-3.1795456409454346,-2.8370633125305176,1.2066774368286133
1749996404206203400,6.094203369140625,-2.725876569747925,-4.46225643157959,1.2343742847442627
1749996404216348200,6.10434814453125,-2.5437164306640625,-7.23859977722168,0.564456582069397
1749996404226303700,6.1143037109375,-1.7194687128067017,-5.946834087371826,0.8701872229576111
1749996404236234500,6.124234375,-1.283775806427002,-1.830655574798584,1.2439615726470947
1749996404246187500,6.1341875,-0.9632646441459656,-0.6996119022369385,0.5102612972259521
1749996404256120600,6.14412060546875,-0.24008379876613617,-0.5696497559547424,0.19920429587364197
1749996404266071600,6.154071533203125,0.04527370631694794,-0.81346195936203,-0.08508793264627457
1749996404275951600,6.16395166015625,0.05273054912686348,-0.3544664680957794,-0.5696497559547424
1749996404285831700,6.173831787109375,0.1464737504720688,0.5997434258460999,-1.0468878746032715
1749996404295699700,6.18369970703125,0.1454084813594818,1.4740585088729858,-1.2949610948562622
1749996404305632500,6.193632568359375,0.04846949502825737,1.4516880512237549,-1.4803169965744019
1749996404315778600,6.203778564453125,-0.002663159044459462,1.5688669681549072,-1.600691795349121
1749996404325733000,6.213733154296875,0.013315795920789242,1.5784543752670288,-1.4409022331237793
1749996404335613200,6.22361328125,0.34674331545829773,1.2749874591827393,-1.0607362985610962
1749996404345493200,6.2334931640625,0.849414587020874,0.874448299407959,-0.6644582152366638
1749996404355551000,6.243551025390625,1.2828437089920044,0.6583329439163208,-0.4462123215198517
1749996404365505500,6.253505615234375,1.546895980834961,0.9649956822395325,-0.39081859588623047
1749996404375385300,6.26338525390625,1.7418391704559326,1.087501049041748,-0.5962813496589661
1749996404385265400,6.273265380859375,1.7429044246673584,0.9181240797042847,-0.8977509140968323
1749996404395130000,6.283130126953125,1.7365128993988037,0.39308229088783264,-1.316266417503357
1749996404405065200,6.293065185546875,1.782319188117981,-0.3640538454055786,-1.684714436531067
1749996404415209000,6.303208984375,1.6779234409332275,-1.0616683959960938,-1.7816534042358398
1749996404425165300,6.313165283203125,1.4223933219909668,-1.6974976062774658,-1.679388165473938
1749996404435045400,6.32304541015625,1.086835265159607,-1.604819655418396,-1.542102336883545
1749996404444925400,6.332925537109375,0.6235787272453308,-1.1958916187286377,-1.3652684688568115
1749996404454981400,6.3429814453125,0.276435911655426,-1.3054805994033813,-1.0787125825881958
1749996404464938000,6.35293798828125,0.2998717129230499,-1.5600786209106445,-0.6953508257865906
1749996404474818000,6.362818115234375,0.5010733604431152,-1.4428995847702026,-0.4227765202522278
1749996404484697900,6.37269775390625,0.6246439814567566,-1.0755168199539185,-0.3045322299003601
1749996404494560500,6.382560546875,0.5788376331329346,-0.5834981799125671,-0.16178691387176514
1749996404504497000,6.392496826171875,0.4467449486255646,-0.12876373529434204,-0.032890014350414276
1749996404514639600,6.4026396484375,0.1976063996553421,-0.26818013191223145,0.0894821435213089
1749996404524597000,6.412596923828125,-0.0005326318205334246,-1.0297104120254517,0.19068218767642975
1749996404534476800,6.422476806640625,-0.219843789935112,-1.7049545049667358,0.07776424288749695
1749996404544356900,6.43235693359375,-0.6289049983024597,-2.0627498626708984,-0.032890014350414276
1749996404554411800,6.442411865234375,-0.8418245911598206,-2.814692974090576,0.017044218257069588
1749996404564368100,6.4523681640625,-0.8673909306526184,-3.699660539627075,0.09161267429590225
1749996404574248200,6.462248291015625,-0.6789724230766296,-4.506997108459473,0.009587372653186321
1749996404584128300,6.472128173828125,-0.3668501675128937,-4.5283026695251465,-0.08295740932226181
1749996404593991000,6.481990966796875,-0.06870950758457184,-3.5952646732330322,-0.02649843320250511
1749996404603927300,6.49192724609375,0.19121482968330383,-2.0723371505737305,-0.10000162571668625
1749996404614070000,6.502070068359375,0.47657233476638794,-0.8784430027008057,-0.23955115675926208
1749996404624027100,6.512027099609375,0.8281093239784241,-0.40453386306762695,0.029827382415533066
1749996404633907200,6.5219072265625,1.1464899778366089,-0.24900537729263306,0.30466538667678833
1749996404643787300,6.531787353515625,1.0463552474975586,0.320644348859787,0.4367581009864807
1749996404653842200,6.54184228515625,0.7471492886543274,1.2110716104507446,0.8563387989997864
1749996404663798500,6.551798583984375,0.4414186179637909,0.754206657409668,0.9032104015350342
1749996404673678600,6.5616787109375,0.12090742588043213,0.4559328258037567,0.648612380027771
1749996404683558700,6.57155859375,0.0037284228019416332,0.23662169277668,0.4037349224090576
1749996404693421600,6.581421630859375,0.058056868612766266,-0.6271739602088928,0.2631201148033142
1749996404703357700,6.591357666015625,0.11238531768321991,-0.9295756816864014,0.35473278164863586
1749996404713500700,6.601500732421875,0.10173267871141434,-0.42264336347579956,0.5399554967880249
1749996404723457800,6.611457763671875,0.18482324481010437,0.46338969469070435,0.6241113543510437
1749996404733337900,6.621337890625,0.3584612011909485,1.3474253416061401,0.6347639560699463
1749996404743217700,6.6312177734375,0.5575323700904846,1.8959029912948608,0.5506081581115723
1749996404753272800,6.64127294921875,0.6960166096687317,2.0214710235595703,0.4175833463668823
1749996404763229200,6.651229248046875,0.6640587449073792,1.6924376487731934,0.24074958264827728
1749996404773109200,6.661109130859375,0.5415533781051636,1.0864357948303223,0.04048001766204834
1749996404782989000,6.670989013671875,0.3712443709373474,0.4644549489021301,-0.05419528856873512
1749996404792852000,6.68085205078125,0.25193485617637634,-0.03075948730111122,-0.07656582444906235
1749996404802788000,6.6907880859375,0.25193485617637634,-0.27776750922203064,-0.12982900440692902
1749996404812931000,6.70093115234375,0.267913818359375,-0.44181808829307556,-0.2012016773223877
1749996404822888200,6.71088818359375,0.24234747886657715,-0.714525580406189,-0.2821617126464844
1749996404832768300,6.720768310546875,0.12836426496505737,-0.8699209094047546,-0.43769019842147827
1749996404842648300,6.7306484375,0.04420844092965126,-0.6431529521942139,-0.5824328660964966
1749996404852703200,6.740703125,0.005858949851244688,-0.4727107286453247,-0.6580666303634644
1749996404862659600,6.75065966796875,-0.1910816729068756,-0.9082704186439514,-0.5739107728004456
1749996404872589600,6.760589599609375,-0.38815543055534363,-1.8242639303207397,-0.5675191879272461
1749996404882543000,6.770543212890625,-0.15712638199329376,-2.7294716835021973,-1.0170605182647705
1749996404892423200,6.780423095703125,0.4978775978088379,-2.7688865661621094,-1.4355759620666504
1749996404902303200,6.79030322265625,0.7908250689506531,-1.0094704627990723,-1.2310452461242676
1749996404912361700,6.80036181640625,-0.1315600574016571,0.8552735447883606,-0.9467530846595764
1749996404922315800,6.810315673828125,-1.029310941696167,0.9926925301551819,-0.8934898972511292
1749996404932195800,6.82019580078125,-1.7949692010879517,-0.739026665687561,-0.6836329698562622
1749996404942076000,6.830075927734375,-2.5330638885498047,-2.1170783042907715,-0.5016059875488281
1749996404952134000,6.8401337890625,-2.7770092487335205,-1.8720676898956299,-0.7337003350257874
1749996404962088200,6.850088134765625,-2.606566905975342,-1.866741418838501,-1.0330394506454468
1749996404971968300,6.85996826171875,-2.337055206298828,-2.6985790729522705,-0.9307740926742554
1749996404981848000,6.86984814453125,-2.1049609184265137,-2.642120122909546,-0.6495444774627686
1749996404991713000,6.879713134765625,-1.8461018800735474,-1.6538218259811401,-0.617586612701416
1749996405001647900,6.88964794921875,-1.5831149816513062,-0.280963271856308,-0.8040077090263367
1749996405011560400,6.899560546875,-1.2656663656234741,0.9990841150283813,-1.0394309759140015
1749996405021493000,6.909492919921875,-0.7885614037513733,1.9564898014068604,-1.4366412162780762
1749996405031485000,6.91948486328125,-0.06764423847198486,2.2473068237304688,-1.8860492706298828
1749996405041423600,6.929423583984375,0.7918903827667236,1.9927088022232056,-2.168210983276367
1749996405051564000,6.93956396484375,1.4426332712173462,1.2664653062820435,-2.1214725971221924
1749996405061523200,6.949523193359375,1.526655912399292,-0.3086601495742798,-1.4654033184051514
1749996405071403300,6.9594033203125,1.1848394870758057,-1.967941403388977,-0.3460775315761566
1749996405081283300,6.969283447265625,0.8632630109786987,-2.875412940979004,0.7050713896751404
1749996405091143400,6.979143310546875,0.6661892533302307,-2.326935291290283,1.3611406087875366
1749996405101081300,6.989081298828125,0.4510059952735901,-1.1404979228973389,1.6337149143218994
1749996405111029200,6.999029296875,-0.005858949851244688,0.10239847004413605,1.6443675756454468
1749996405120968200,7.00896826171875,-0.5266396999359131,1.577389121055603,1.5124080181121826
1749996405130915300,7.018915283203125,-1.0548772811889648,3.1876683235168457,1.4474269151687622
1749996405140855000,7.02885498046875,-1.648095965385437,4.383693218231201,1.4048163890838623
1749996405150994700,7.03899462890625,-2.0314576625823975,5.297422885894775,1.2045468091964722
1749996405160954600,7.04895458984375,-1.6736623048782349,5.726591110229492,0.8510124683380127
1749996405170834700,7.058834716796875,-1.0335720777511597,5.097286701202393,0.40160438418388367
1749996405180714500,7.068714599609375,-0.5585976243019104,4.319777011871338,-0.1117195263504982
1749996405190573800,7.07857373046875,-0.3093259334564209,4.303798198699951,-0.6719150543212891
1749996405200512300,7.08851220703125,-0.13901691138744354,4.556265830993652,-1.4504896402359009
1749996405210460000,7.0984599609375,0.221042200922966,3.4827463626861572,-1.8636786937713623
1749996405220399000,7.108399169921875,0.9398288726806641,1.4942985773086548,-1.37059485912323
1749996405230345700,7.118345703125,1.6672707796096802,0.022503694519400597,-0.8157256245613098
1749996405240286000,7.128285888671875,2.083655595779419,-1.219327449798584,-0.07337003201246262
1749996405250425000,7.138425048828125,2.197638988494873,-1.5558176040649414,0.564456582069397
1749996405260385300,7.14838525390625,1.9005634784698486,-0.8166577219963074,0.88297039270401
1749996405270265300,7.158265380859375,1.2444941997528076,0.2653838098049164,0.941559910774231
1749996405280145400,7.1681455078125,0.4914860129356384,0.7201182246208191,0.8307724595069885
1749996405290004200,7.178004150390625,-0.10918952524662018,0.38775596022605896,0.5846965909004211
1749996405299943000,7.18794287109375,-0.5213133692741394,-0.49827706813812256,0.3344927728176117
1749996405309851600,7.1978515625,-0.8897614479064941,-1.4695311784744263,0.12037479132413864
1749996405319787300,7.207787353515625,-1.1869699954986572,-2.1010994911193848,-0.08295740932226181
1749996405329776000,7.217776123046875,-1.4829801321029663,-2.5739433765411377,-0.34501224756240845
1749996405339717000,7.227717041015625,-1.8663419485092163,-3.203380823135376,-0.7251782417297363
1749996405349855500,7.23785546875,-2.2295968532562256,-4.038281440734863,-1.3130706548690796
1749996405359816400,7.24781640625,-2.28605580329895,-4.654935836791992,-1.9606177806854248
1749996405369696500,7.257696533203125,-1.1922963857650757,-2.971153497695923,-2.0010976791381836
1749996405379576600,7.26757666015625,0.982439398765564,1.8863155841827393,-0.35886070132255554
1749996405389434600,7.2774345703125,1.230645775794983,4.166379451751709,1.384576439857483
1749996405399373800,7.287373779296875,0.020772641524672508,3.170624017715454,1.7690033912658691
1749996405409320700,7.29732080078125,-0.8418245911598206,1.8234649896621704,1.3366395235061646
1749996405419260700,7.3072607421875,-1.217862606048584,0.8510124683380127,0.46338969469070435
1749996405429206800,7.317206787109375,-1.3903021812438965,0.2824280261993408,-0.27470487356185913
1749996405439147300,7.327147216796875,-1.4946980476379395,-0.3459443747997284,-0.5314334034919739
1749996405449286000,7.337285888671875,-1.4563485383987427,-1.1053441762924194,-0.5282375812530518
1749996405459246600,7.34724658203125,-1.1560773849487305,-1.4418343305587769,-0.4600607454776764
1749996405469126700,7.357126708984375,-0.6779071688652039,-1.6825839281082153,-0.3514038324356079
1749996405479006500,7.36700634765625,-0.3519364893436432,-2.084055185317993,-0.2342248409986496
1749996405488865000,7.376864990234375,-0.32104381918907166,-2.646381139755249,-0.12343742698431015
1749996405498804000,7.386803955078125,-0.04846949502825737,-3.2055115699768066,-0.2246374636888504
1749996405508944100,7.396944091796875,0.3296990990638733,-3.4653027057647705,-0.4270375669002533
1749996405518903600,7.406903564453125,0.4733765423297882,-3.468498468399048,-0.6580666303634644
1749996405538663400,7.426663330078125,0.10279794037342072,-2.720949649810791,-0.8785761594772339
1749996405548716300,7.43671630859375,0.08149266988039017,-1.9359835386276245,-0.5824328660964966
1749996405558674200,7.446674072265625,0.13795164227485657,-0.8795083165168762,-0.08082687854766846
1749996405568554200,7.45655419921875,0.10173267871141434,0.16418376564979553,0.44847598671913147
1749996405578434000,7.46643408203125,0.029294749721884727,1.1322420835494995,0.8307724595069885
1749996405588295400,7.47629541015625,0.03675159439444542,1.8884460926055908,1.012932538986206
1749996405598232600,7.486232666015625,0.10066741704940796,2.339984655380249,1.0480862855911255
1749996405608181500,7.496181396484375,0.06338318437337875,2.605102300643921,0.9926925301551819
1749996405618119700,7.50611962890625,-0.18362481892108917,2.728672742843628,0.928776741027832
1749996405628067600,7.516067626953125,-0.5351617932319641,2.674344301223755,0.8307724595069885
1749996405638006800,7.5260068359375,-0.7629950642585754,2.5039021968841553,0.6209155321121216
1749996405648146700,7.536146728515625,-0.7363634705543518,2.4284017086029053,0.4708465337753296
1749996405658106400,7.5461064453125,-0.6789724230766296,2.6413211822509766,0.41225701570510864
1749996405667986200,7.555986083984375,-0.5958818197250366,2.8245465755462646,0.26631590723991394
1749996405677866200,7.5658662109375,-0.33915331959724426,2.8394601345062256,0.04793686419725418
1749996405687918800,7.5759189453125,0.21784640848636627,2.6072328090667725,-0.28429222106933594
1749996405697876700,7.585876708984375,0.6054692268371582,2.2686121463775635,-0.5685844421386719
1749996405707756800,7.5957568359375,0.8941556811332703,1.7222650051116943,-0.790159285068512
1749996405717636900,7.605636962890625,1.1677953004837036,0.9905620217323303,-0.9712541103363037
1749996405727498000,7.615498046875,1.3957617282867432,0.07363634556531906,-1.0819083452224731
1749996405737435100,7.62543505859375,1.5873759984970093,-0.9380977749824524,-1.07764732837677
1749996405747577000,7.6355771484375,1.6587486267089844,-1.8381123542785645,-0.9265130758285522
1749996405757535200,7.64553515625,1.4680664539337158,-2.2001688480377197,-0.6452834606170654
1749996405767415000,7.6554150390625,1.0516815185546875,-1.8125461339950562,-0.2715090811252594
1749996405777295000,7.665295166015625,0.45633232593536377,-1.2693947553634644,-0.014780532568693161
1749996405787349200,7.675349365234375,-0.1411474347114563,-0.9721862077713013,0.006391582079231739
1749996405797306000,7.68530615234375,-0.4030691385269165,-0.9114661812782288,-0.0786963477730751
1749996405807186200,7.695186279296875,-0.36258912086486816,-0.9689904451370239,-0.1639174371957779
1749996405817066000,7.70506591796875,-0.18469008803367615,-0.9380977749824524,-0.2107890397310257
1749996405826928400,7.714928466796875,0.015446322970092297,-0.655936062335968,-0.1585911214351654
1749996405836864800,7.72486474609375,0.12942953407764435,-0.2287653684616089,0.006391582079231739
1749996405847007500,7.735007568359375,0.1368863731622696,0.2589922249317169,0.2258358895778656
1749996405856964900,7.74496484375,0.09640636295080185,0.6775076985359192,0.40266966819763184
1749996405866844700,7.7548447265625,0.11132004857063293,0.8277098536491394,0.47297704219818115
1749996405876724700,7.764724853515625,0.1272990107536316,0.6934866309165955,0.4239749312400818
1749996405886779600,7.774779541015625,0.0037284228019416332,0.5944170951843262,0.28868645429611206
1749996405896736000,7.784736083984375,-0.0708400309085846,0.36432015895843506,0.1310274302959442
1749996405906616000,7.794615966796875,-0.002663159044459462,0.5667202472686768,-0.29281434416770935
1749996405916496100,7.80449609375,0.26152223348617554,0.8127961754798889,-0.5440834164619446
1749996405926358800,7.81435888671875,0.407330185174942,-0.06058686971664429,-0.24168169498443604
1749996405936295000,7.824294921875,0.19228008389472961,-0.6346307992935181,-0.057391077280044556
1749996405946437600,7.834437744140625,-0.01225053146481514,-0.517451822757721,0.12889690697193146
1749996405956395000,7.84439501953125,-0.08575372397899628,-0.19800588488578796,0.3653854429721832
1749996405966274800,7.85427490234375,-0.09108003973960876,0.043808966875076294,0.4431496858596802
1749996405976155000,7.86415478515625,0.026098959147930145,0.15459638833999634,0.3291664719581604
1749996405986209800,7.874209716796875,0.211454838514328,0.10665952414274216,0.050067391246557236
1749996405996166100,7.884166259765625,0.1826927214860916,-0.2980075180530548,-0.007323687430471182
1749996406006046200,7.894046142578125,-0.03568633273243904,-0.6101297736167908,0.08522108942270279
1749996406015926300,7.90392626953125,-0.1729721873998642,-0.3874896466732025,0.042610544711351395
1749996406025789000,7.913788818359375,-0.0516652874648571,-0.15219953656196594,0.13315795361995697
1749996406035725000,7.92372509765625,-0.0005326318205334246,-0.28628960251808167,0.3376885652542114
1749996406045868000,7.933867919921875,-0.05592634156346321,-0.7846998572349548,0.4793686270713806
1749996406055825200,7.9438251953125,-0.2347574681043625,-1.064864158630371,0.4644549489021301
1749996406065705200,7.953705322265625,-0.2773680090904236,-0.7315698266029358,0.2737727463245392
1749996406075585300,7.963585205078125,0.009054740890860558,-0.0786963477730751,0.02450106292963028
1749996406085640200,7.97364013671875,0.26045694947242737,0.4942823350429535,-0.09361004084348679
1749996406095596300,7.98359619140625,0.30732855200767517,1.0938925743103027,-0.021172115579247475
1749996406105476400,7.993476318359375,0.26045694947242737,1.025715708732605,0.1310274302959442
1749996406115356400,8.0033564453125,0.12836426496505737,0.3069290816783905,0.18961693346500397
1749996406125219000,8.013218994140624,-0.025033695623278618,-0.2287653684616089,0.28442537784576416
1749996406135156000,8.023156005859375,-0.07297056168317795,-0.10532794147729874,0.4474107325077057
1749996406145298200,8.033298095703126,0.00798947736620903,0.2685796022415161,0.5336970686912537
1749996406155256000,8.043256103515626,0.18056218326091766,0.3344927728176117,0.4410191476345062
1749996406165136000,8.053135986328124,0.3902859687805176,0.10879004746675491,0.22370536625385284
1749996406175016000,8.063015869140624,0.48083338141441345,-0.2107890397310257,0.05219791829586029
1749996406185070300,8.0730703125,0.40200385451316833,-0.5014728307723999,-0.032890014350414276
1749996406195027000,8.08302685546875,0.21784640848636627,-0.7560708522796631,-0.11065425723791122
1749996406204956400,8.092956298828126,0.09001477807760239,-0.9114661812782288,-0.1543300747871399
1749996406214910500,8.102910400390625,0.05592634156346321,-0.8656598925590515,-0.11704584211111069
1749996406224790500,8.11279052734375,0.0708400309085846,-0.6793718934059143,-0.02756369672715664
1749996406234670600,8.122670654296876,0.13262532651424408,-0.4343612492084503,0.0703074038028717
1749996406244728600,8.132728515625,0.21038956940174103,-0.1735048145055771,0.12357058376073837
1749996406254683000,8.142682861328124,0.1976063996553421,0.01078579481691122,0.09161267429590225
1749996406264562700,8.152562744140624,0.09214530140161514,0.09387636184692383,0.006391582079231739
1749996406274442800,8.16244287109375,0.08788424730300903,0.433562308549881,-0.017976323142647743
1749996406284500700,8.172500732421875,0.19654114544391632,1.0246504545211792,0.07776424288749695
1749996406294455000,8.182455078125,0.30413275957107544,1.5113427639007568,0.19068218767642975
1749996406304335000,8.192335205078125,0.33715593814849854,1.7723324298858643,0.30253487825393677
1749996406314215200,8.202215087890625,0.2998717129230499,1.753157615661621,0.44847598671913147
1749996406324272600,8.212272705078124,0.29880645871162415,1.6913723945617676,0.5049349665641785
1749996406334227200,8.222227294921876,0.32650330662727356,1.6349133253097534,0.44528019428253174
1749996406344159000,8.232158935546876,0.3669833242893219,1.455949068069458,0.320644348859787
1749996406354111200,8.242111328125,0.417982816696167,1.1088062524795532,0.14913691580295563
1749996406363991000,8.251990966796875,0.4776375889778137,0.6562023758888245,-0.01584579609334469
1749996406373871000,8.26187109375,0.4893554747104645,0.18335850536823273,-0.09147951751947403
1749996406383931000,8.271930908203124,0.42863544821739197,-0.22357220947742462,-0.11917637288570404
1749996406393884200,8.28188427734375,0.3616569936275482,-0.6356960535049438,-0.17030902206897736
1749996406403764000,8.291763916015626,0.2913496196269989,-0.9700556993484497,-0.2576606571674347
1749996406413644000,8.30164404296875,0.21891167759895325,-0.9743167757987976,-0.3514038324356079
1749996406423703000,8.311703125,0.12090742588043213,-0.9285104274749756,-0.3695133328437805
1749996406433656800,8.32165673828125,-0.021837905049324036,-0.8443545699119568,-0.34394699335098267
1749996406443589000,8.331589111328125,-0.15180006623268127,-0.6591318845748901,-0.3045322299003601
1749996406453540600,8.34154052734375,-0.1772332340478897,-0.3502054214477539,-0.22250694036483765
1749996406463420700,8.351420654296875,-0.14434322714805603,-0.04460791498422623,-0.0786963477730751
1749996406473300700,8.36130078125,-0.1454084813594818,0.1940111368894577,0.07776424288749695
1749996406483361000,8.371361083984375,-0.18362481892108917,0.3195790946483612,0.19600850343704224
1749996406493313800,8.381313720703124,-0.19853851199150085,0.42610546946525574,0.2620548605918884
1749996406503193900,8.39119384765625,-0.2336922138929367,0.6902908682823181,0.26418536901474
1749996406513074000,8.401073974609375,-0.2773680090904236,1.0214546918869019,0.245010644197464
1749996406522940200,8.410940185546876,-0.25073641538619995,1.2483558654785156,0.24394537508487701
1749996406532874000,8.4208740234375,-0.21451745927333832,1.234507441520691,0.2577938139438629
1749996406543019000,8.43101904296875,-0.27417221665382385,1.0161283016204834,0.25246748328208923
1749996406552974300,8.440974365234375,-0.3977428078651428,0.7893603444099426,0.20346535742282867
1749996406562854400,8.4508544921875,-0.474441796541214,0.6210486888885498,0.1416800618171692
1749996406572734200,8.460734130859375,-0.4936165511608124,0.4388886094093323,0.08202529698610306
1749996406582791200,8.470791259765624,-0.47657233476638794,0.14500901103019714,0.014913691207766533
1749996406592746200,8.480746337890626,-0.4137217700481415,-0.196940615773201,-0.08082687854766846
1749996406602626300,8.490626220703126,-0.23582273721694946,-0.469514936208725,-0.16711322963237762
1749996406612506400,8.50050634765625,-0.01651158556342125,-0.5462139248847961,-0.21931114792823792
1749996406622386200,8.51038623046875,0.054861076176166534,-0.3683148920536041,-0.21185430884361267
1749996406632220700,8.520220703125,-0.006924213841557503,-0.18309219181537628,-0.13195952773094177
1749996406642410200,8.53041015625,-0.03142527863383293,-0.2203764170408249,-0.03395527973771095
1749996406652364800,8.54036474609375,-0.04846949502825737,-0.3043990731239319,0.012783164158463478
1749996406662244600,8.55024462890625,-0.07190529257059097,-0.35340121388435364,0.017044218257069588
1749996406672078600,8.56007861328125,-0.08255793154239655,-0.4269044101238251,-0.009454214945435524
1749996406682221000,8.570220947265625,-0.09001477807760239,-0.5376918315887451,-0.05845634266734123
1749996406692178700,8.5801787109375,-0.07723161578178406,-0.6506097912788391,-0.11491531878709793
1749996406702058500,8.59005859375,0.022903168573975563,-0.977512538433075,-0.1585911214351654
1749996406711938600,8.5999384765625,0.22210747003555298,-1.223588466644287,-0.21291956305503845
1749996406721800200,8.60980029296875,0.474441796541214,-1.0755168199539185,-0.26937854290008545
1749996406731737000,8.619737060546875,0.6949513554573059,-0.7475487589836121,-0.2661827504634857
1749996406741647600,8.629647705078124,0.870719850063324,-0.4013380706310272,-0.2203764170408249
1749996406751581700,8.639581787109375,1.0761826038360596,-0.15326480567455292,-0.1724395453929901
1749996406761571800,8.64957177734375,1.2466248273849487,0.018242640420794487,-0.12237215787172318
1749996406771511800,8.65951171875,1.2903006076812744,0.14820480346679688,-0.06804371625185013
1749996406781651000,8.66965087890625,1.2263847589492798,0.20253324508666992,-0.024367906153202057
1749996406791611100,8.679611083984375,1.08363938331604,0.1567269116640091,0.0074568456038832664
1749996406801491200,8.6894912109375,0.8909598588943481,0.07257108390331268,0.019174745306372643
1749996406811371300,8.699371337890625,0.6459492444992065,0.01717737689614296,0.012783164158463478
1749996406821229600,8.7092294921875,0.3934817612171173,-0.102132149040699,-0.004127896390855312
1749996406831176400,8.719176513671876,0.23702116310596466,-0.3491401672363281,-0.03928159549832344
1749996406841115600,8.72911572265625,0.07723161578178406,-0.6197171211242676,-0.0978710949420929
1749996406851061800,8.739061767578125,-0.12090742588043213,-0.8731167316436768,-0.14793848991394043
1749996406861001500,8.74900146484375,-0.2667153775691986,-0.9966872930526733,-0.18096165359020233
1749996406870947000,8.758947021484374,-0.36258912086486816,-0.8560724854469299,-0.20972378551959991
1749996406881080800,8.769080810546875,-0.3945470154285431,-0.593085527420044,-0.17137429118156433
1749996406891045600,8.779045654296874,-0.35939332842826843,-0.2852243483066559,-0.09680583328008652
1749996406900925400,8.788925537109375,-0.3146522343158722,-0.02756369672715664,0.019174745306372643
1749996406910805500,8.798805419921875,-0.26032379269599915,0.20572903752326965,0.13528847694396973
1749996406920660000,8.808659912109375,-0.17829850316047668,0.3898864984512329,0.19387798011302948
1749996406930601500,8.8186015625,-0.07723161578178406,0.4367581009864807,0.1928127259016037
1749996406940546000,8.828546142578125,-0.28269433975219727,-0.04247738793492317,-0.020106852054595947
1749996406950487800,8.83848779296875,-0.45313653349876404,-0.38535910844802856,-0.15965639054775238
1749996406960431900,8.848431884765626,-0.4552670419216156,-0.513190746307373,-0.1777658760547638
1749996406970374000,8.858373779296874,-0.3988080620765686,-0.7804387807846069,-0.28322696685791016
1749996406980511000,8.868510986328126,-0.23156169056892395,-0.9444893598556519,-0.3514038324356079
1749996406990473000,8.878472900390625,-0.03142527863383293,-0.7868303656578064,-0.28748801350593567
1749996407000353000,8.88835302734375,0.18162745237350464,-0.23622220754623413,-0.09041424840688705
1749996407010232800,8.89823291015625,0.22956430912017822,0.21851220726966858,0.02876211889088154
1749996407020090000,8.908090087890624,0.10173267871141434,0.40586546063423157,0.050067391246557236
1749996407030029600,8.918029541015626,-0.046338967978954315,0.3185138404369354,0.030892645940184593
1749996407039976000,8.927975830078125,-0.08149266988039017,-0.004127896390855312,-0.05952160432934761
1749996407049916400,8.93791650390625,-0.01438105944544077,-0.2894853949546814,-0.12982900440692902
1749996407059785000,8.947784912109375,0.08042740821838379,-0.41944757103919983,-0.15219953656196594
1749996407069718000,8.957718017578125,0.12942953407764435,-0.4301002025604248,-0.14687322080135345
1749996407079898000,8.967898193359375,0.13262532651424408,-0.38109806180000305,-0.1255679577589035
1749996407089903600,8.977903564453126,0.13049480319023132,-0.2884201407432556,-0.05632581561803818
1749996407099783700,8.98778369140625,0.17523586750030518,-0.19481009244918823,0.05752423778176308
1749996407109663700,8.997663818359374,0.22743378579616547,-0.1585911214351654,0.13528847694396973
1749996407119713000,9.007713134765625,0.20506325364112854,0.0022636852227151394,0.18535587191581726
1749996407129673000,9.0176728515625,0.12623374164104462,0.25686168670654297,0.2354232668876648
1749996407139553000,9.027552978515626,0.03994738683104515,0.4197138845920563,0.2631201148033142
1749996407149433000,9.03743310546875,0.002663159044459462,-0.1255679577589035,-0.09254477918148041
1749996407159292200,9.047292236328126,0.025033695623278618,-0.6793718934059143,-0.37377437949180603
1749996407169230600,9.057230712890625,0.054861076176166534,-0.8081356287002563,-0.37377437949180603
1749996407179371300,9.067371337890625,0.0751010850071907,-0.8390282988548279,-0.3045322299003601
1749996407189330200,9.077330078125,0.053795814514160156,-0.8006787896156311,-0.21931114792823792
1749996407199257300,9.08725732421875,-0.015446322970092297,-0.6676539778709412,-0.12237215787172318
1749996407209213200,9.097213134765624,-0.13475584983825684,-0.3086601495742798,0.05326318368315697
1749996407219093000,9.107093017578125,-0.17829850316047668,0.34940648078918457,0.3483411967754364
1749996407228973000,9.11697314453125,-0.1592569202184677,0.6593981981277466,0.5006738901138306
1749996407238836200,9.126836181640625,-0.18042902648448944,0.37497279047966003,0.3611243665218353
1749996407248772000,9.136772216796874,-0.27949854731559753,-0.06378266215324402,0.07776424288749695
1749996407258683600,9.14668359375,-0.4169175624847412,-0.4546012580394745,-0.21718062460422516
1749996407268617000,9.156616943359374,-0.45739758014678955,-0.8368977308273315,-0.4845618009567261
1749996407278801200,9.16680126953125,-0.3988080620765686,-1.0968220233917236,-0.6314350366592407
1749996407288760000,9.176760009765625,-0.32530489563941956,-1.2086747884750366,-0.6516750454902649
1749996407298640000,9.186639892578125,-0.2571280002593994,-1.1490199565887451,-0.5261070728302002
1749996407308520000,9.19652001953125,-0.2539322078227997,-1.0627336502075195,-0.2949448823928833
1749996407318573000,9.206572998046875,-0.2486059069633484,-1.0701904296875,-0.22676800191402435
1749996407328530400,9.216530517578125,-0.13475584983825684,-0.8571377396583557,-0.20226693153381348
1749996407338410500,9.226410400390625,0.09640636295080185,-0.12769848108291626,0.061785291880369186
1749996407348290600,9.23629052734375,0.3573959469795227,1.3984248638153076,0.8190546035766602
1749996407358345200,9.24634521484375,0.4691154658794403,2.8298728466033936,1.5038859844207764
1749996407368301600,9.256301513671875,0.41585230827331543,3.4230916500091553,1.5880417823791504
1749996407378181600,9.266181640625,0.16351796686649323,3.081141948699951,1.1097383499145508
1749996407388061400,9.2760615234375,-0.8322372436523438,-0.04993423447012901,-0.5218459963798523
1749996407397924000,9.285924072265624,-1.4606095552444458,-2.4343936443328857,-1.4931001663208008
1749996407407860200,9.295860107421875,-1.308276891708374,-1.709215521812439,-0.8157256245613098
1749996407417810000,9.305809814453125,-0.9206541180610657,-0.3874896466732025,0.10013478249311447
1749996407427747600,9.31574755859375,-0.4190480709075928,0.13648690283298492,0.4644549489021301
1749996407437889000,9.325888916015625,0.11984215676784515,-0.011584741994738579,0.3898864984512329
1749996407447847200,9.33584716796875,0.43396177887916565,-0.41838228702545166,0.10972215235233307
1749996407457727200,9.345727294921875,0.547944962978363,-1.107474684715271,-0.38655754923820496
1749996407467607300,9.355607177734376,0.49468180537223816,-1.1586073637008667,-0.6665887236595154
1749996407477468000,9.365468017578126,0.40946072340011597,0.05339634045958519,-0.308793306350708
1749996407487405300,9.3754052734375,0.3158506751060486,1.7712671756744385,0.6709829568862915
1749996407497276700,9.385276611328125,0.221042200922966,3.006573438644409,1.6422370672225952
1749996407507207400,9.39520751953125,0.17949692904949188,3.300586223602295,1.9948393106460571
1749996407517387500,9.405387451171874,0.16564849019050598,2.902310848236084,1.5560839176177979
1749996407527393500,9.4153935546875,0.050600022077560425,2.0598204135894775,0.7146587371826172
1749996407537273600,9.425273681640626,-0.1772332340478897,0.6998782157897949,-0.0978710949420929
1749996407547153700,9.435153564453126,-0.4169175624847412,-0.7187866568565369,-0.7134603261947632
1749996407557011700,9.44501171875,-0.5948165655136108,-1.629320740699768,-1.0936262607574463
1749996407566950700,9.45495068359375,-0.6597976684570312,-1.853958249092102,-1.0298435688018799
1749996407576897500,9.4648974609375,-0.5735113024711609,-1.5654048919677734,-0.6665887236595154
1749996407586837500,9.47483740234375,-0.3561975359916687,-1.015861988067627,-0.2480732649564743
1749996407596783600,9.48478369140625,-0.14327795803546906,-0.40559911727905273,0.1597895473241806
1749996407606724000,9.49472412109375,-0.013315795920789242,0.10346373170614243,0.519848644733429
1749996407616669400,9.50466943359375,-0.06657897680997849,-0.3512706756591797,0.29401275515556335
1749996407626610400,9.5146103515625,-0.22303956747055054,-1.520663857460022,-0.4227765202522278
1749996407636555500,9.524555419921874,-0.08149266988039017,-2.000964641571045,-0.739026665687561
1749996407646496800,9.534496826171875,0.33715593814849854,-2.1479709148406982,-0.8828372359275818
1749996407656441300,9.54444140625,0.7098650336265564,-1.9487667083740234,-0.8082687854766846
1749996407666383000,9.554383056640624,1.0346373319625854,-1.1586073637008667,-0.47284388542175293
1749996407676520400,9.5645205078125,1.2668647766113281,0.5006738901138306,-0.13728585839271545
1749996407686482000,9.57448193359375,1.2402331829071045,2.4113574028015137,0.11930952966213226
1749996407696362000,9.584362060546875,0.7130608558654785,3.425222158432007,0.3952127993106842
1749996407706242000,9.594241943359375,-0.24541011452674866,3.776625871658325,0.6155892014503479
1749996407716099300,9.604099365234376,-1.638508677482605,4.092875957489014,0.5591302514076233
1749996407726038800,9.614038818359376,-3.0847373008728027,4.291015148162842,0.3238401412963867
1749996407735985400,9.6239853515625,-3.822831630706787,4.383693218231201,0.3611243665218353
1749996407745925600,9.633925537109375,-4.214715480804443,4.660528659820557,0.5463470816612244
1749996407756064500,9.644064453125,-4.324437618255615,5.005673885345459,0.6571345329284668
1749996407766024700,9.654024658203125,-4.220041751861572,4.951345443725586,0.9564735889434814
1749996407775904800,9.66390478515625,-4.384092330932617,4.371974945068359,1.2066774368286133
1749996407785784800,9.673784912109374,-4.817521572113037,3.374089479446411,1.1427615880966187
1749996407795643400,9.683643310546875,-5.115662097930908,2.2270667552948,0.9649956822395325
1749996407805582000,9.69358203125,-5.266929626464844,1.631717562675476,0.8765788078308105
1749996407815529200,9.703529296875,-5.028310775756836,1.5763238668441772,0.5761744976043701
1749996407825468700,9.71346875,-4.545879364013672,1.7819197177886963,0.054328445345163345
1749996407835415000,9.7234150390625,-4.6119256019592285,1.7744629383087158,-0.19267955422401428
1749996407845355300,9.733355224609374,-4.7610626220703125,1.3548822402954102,-0.23315958678722382
1749996407855301000,9.743301025390625,-4.759997367858887,0.7691203355789185,-0.3290333151817322
1749996407865241900,9.753241943359376,-4.4480085372924805,0.18335850536823273,-0.27896592020988464
1749996407875187000,9.76318701171875,-3.9420080184936523,-0.6239781975746155,-0.10106688737869263
1749996407885128200,9.773128173828125,-3.13800048828125,0.011851058341562748,-0.020106852054595947
1749996407895073000,9.783072998046874,-2.0719377994537354,0.6348971128463745,0.050067391246557236
1749996407905014500,9.7930146484375,-1.399889588356018,0.6849645376205444,0.28975170850753784
1749996407914958800,9.802958740234375,-0.8812393546104431,0.5805686712265015,0.45380231738090515
1749996407924900600,9.812900634765626,-0.47231125831604004,0.845819354057312,0.37497279047966003
1749996407934729200,9.822729248046874,0.44781020283699036,1.2877706289291382,0.2865559160709381
1749996407944659700,9.83265966796875,1.9218688011169434,-1.4514217376708984,0.677374541759491
1749996407954730500,9.84273046875,3.1561098098754883,-7.6955976486206055,1.4751238822937012
1749996407964675300,9.85267529296875,3.9495980739593506,-7.0395283699035645,2.6253421306610107
1749996407974616600,9.862616455078125,4.845218658447266,-4.167178153991699,2.963963031768799
1749996407984561000,9.872560791015625,6.3223395347595215,-6.819018840789795,1.869138240814209
1749996407994695700,9.88269580078125,7.713307857513428,-9.096019744873047,1.4303827285766602
1749996408004659500,9.892659423828125,7.437404632568359,-7.712641716003418,1.1523489952087402
1749996408014539300,9.902539306640625,6.315948009490967,-4.703938007354736,-0.3812312185764313
1749996408024419300,9.91241943359375,4.651473522186279,-0.07550056278705597,-2.4547669887542725
1749996408034274600,9.922274658203126,2.803640842437744,2.8383948802948,-2.983004570007324
1749996408044215300,9.93221533203125,0.33715593814849854,0.9575388431549072,-1.2331758737564087
1749996408054160600,9.94216064453125,-2.1507673263549805,-1.6644744873046875,0.8637956380844116
1749996408064102000,9.952101806640625,-3.3340089321136475,-2.5004401206970215,1.1917636394500732
1749996408074239500,9.962239501953125,-3.659846305847168,-3.258774518966675,1.213068962097168
1749996408084200700,9.97220068359375,-3.4201619625091553,-3.8317532539367676,1.1938942670822144
1749996408094080800,9.982080810546876,-2.6790049076080322,-4.022302150726318,0.8254461884498596
1749996408103960800,9.9919609375,-1.9132134914398193,-3.7433364391326904,0.35153698921203613
1749996408113818400,10.001818359375,-1.5255906581878662,-3.407911539077759,-0.06378266215324402
1749996408123757800,10.0117578125,-1.3295822143554688,-3.477020502090454,-0.2672480046749115
1749996408133704400,10.021704345703125,-1.2656663656234741,-3.8466670513153076,-0.33542490005493164
1749996408143644400,10.03164453125,-1.504285454750061,-3.6708984375,-0.440885990858078
1749996408153590300,10.04159033203125,-1.546895980834961,-3.019090414047241,-0.4259723126888275
1749996408163530800,10.05153076171875,-1.3658010959625244,-1.9029603004455566,0.013848427683115005
1749996408173476000,10.06147607421875,-1.0452899932861328,-0.9157272577285767,0.7061366438865662
1749996408183417000,10.0714169921875,-0.3604585826396942,-0.4162517786026001,0.9937578439712524
1749996408193555200,10.08155517578125,0.343547523021698,0.20892482995986938,0.8488819599151611
1749996408203516400,10.091516357421876,0.8898946046829224,2.1386499404907227,0.8052061796188354
1749996408213396200,10.101396240234376,1.3435637950897217,4.6903557777404785,1.0363683700561523
1749996408223276300,10.1112763671875,1.8771276473999023,7.517964839935303,1.2088079452514648
1749996408233134000,10.121134033203125,2.2732725143432617,9.14954948425293,0.6986798048019409
1749996408243073300,10.1310732421875,1.8536919355392456,8.085617065429688,0.07243792712688446
1749996408253020000,10.14102001953125,1.4989590644836426,6.731001377105713,0.2865559160709381
1749996408262959900,10.1509599609375,1.1528816223144531,4.981172561645508,0.6581997871398926
1749996408272905700,10.16090576171875,0.9249151349067688,3.7851481437683105,0.5474123358726501
1749996408282846500,10.170846435546874,0.7801724672317505,3.2888684272766113,0.35047173500061035
1749996408292791800,10.180791748046875,0.6086649894714355,3.090729236602783,0.2311622053384781
1749996408302732800,10.19073291015625,0.4265049397945404,2.6168200969696045,-0.09467530250549316
1749996408312677600,10.200677734375,0.276435911655426,1.9543592929840088,-0.6207823753356934
1749996408322619100,10.210619140625,0.24660852551460266,1.3463600873947144,-1.2033483982086182
1749996408332563700,10.220563720703124,0.3520696461200714,0.565654993057251,-1.6953670978546143
1749996408342505500,10.23050537109375,0.585229218006134,-0.4673844277858734,-1.9361166954040527
1749996408352449500,10.240449462890625,0.9174582958221436,-1.4173332452774048,-1.7944365739822388
1749996408362391600,10.2503916015625,1.1603384017944336,-1.8125461339950562,-1.3556811809539795
1749996408372220000,10.260219970703124,1.3084100484848022,-1.7283902168273926,-0.7539403438568115
1749996408382150400,10.270150390625,1.363803744316101,-1.296026349067688,-0.14154690504074097
1749996408392221200,10.28022119140625,1.496828556060791,-0.3320959508419037,0.27590328454971313
1749996408402166000,10.290166015625,1.631051778793335,0.4601939022541046,0.48256441950798035
1749996408412107300,10.300107177734375,1.296692132949829,0.9106672406196594,0.4932170510292053
1749996408422051600,10.310051513671874,0.5074649453163147,0.9703220129013062,0.17257271707057953
1749996408431993000,10.3199931640625,-0.18149429559707642,0.17377112805843353,-0.2725743353366852
1749996408441937200,10.329937255859376,-0.530900776386261,-1.2949610948562622,-0.655936062335968
1749996408451879000,10.33987890625,-0.6225134134292603,-2.8274760246276855,-1.1511504650115967
1749996408461823000,10.349822998046875,-0.49574705958366394,-3.8232312202453613,-1.4227927923202515
1749996408471765000,10.359764892578125,-0.19427745044231415,-4.075565338134766,-1.3173316717147827
1749996408481708800,10.369708740234374,0.14434322714805603,-3.456780433654785,-0.9627320170402527
1749996408491650800,10.37965087890625,0.4403533637523651,-2.2704763412475586,-0.5175849795341492
1749996408501594400,10.389594482421876,0.6171871423721313,-0.8187882900238037,-0.10106688737869263
1749996408511537000,10.399536865234374,0.6725808382034302,0.5379581451416016,0.2066611498594284
1749996408521480200,10.409480224609375,0.6416881680488586,1.355947494506836,0.3909517526626587
1749996408531422700,10.419422607421875,0.5948165655136108,1.560344934463501,0.46871599555015564
1749996408541366000,10.429365966796874,0.539422869682312,1.4207954406738281,0.44954127073287964
1749996408551308800,10.439308837890625,0.4467449486255646,1.0363683700561523,0.30466538667678833
1749996408561252000,10.449252197265626,0.3446127772331238,0.4953475892543793,0.09587372839450836
1749996408571194600,10.459194580078124,0.25619590282440186,0.07470161467790604,-0.061652131378650665
1749996408581138000,10.469137939453125,0.19014956057071686,-0.1490037590265274,-0.1394163817167282
1749996408591080700,10.479080810546876,0.17523586750030518,-0.24900537729263306,-0.15752586722373962
1749996408601023700,10.489023681640624,0.18695376813411713,-0.23089589178562164,-0.13409006595611572
1749996408610966500,10.498966552734375,0.1837579756975174,-0.16072164475917816,-0.08615319430828094
1749996408620909600,10.50890966796875,0.1592569202184677,-0.1117195263504982,-0.04034686088562012
1749996408630852400,10.518852294921874,0.11664637178182602,-0.10532794147729874,-0.010519478470087051
1749996408640795600,10.528795654296875,0.04740423336625099,-0.11598058044910431,0.005326318088918924
1749996408650738400,10.538738525390626,-0.029294749721884727,-0.09467530250549316,0.017044218257069588
1749996408660681500,10.548681396484374,-0.07829687744379044,-0.010519478470087051,0.038349490612745285
1749996408670624300,10.558624267578125,-0.0751010850071907,0.09281109273433685,0.07243792712688446
1749996408680567300,10.5685673828125,-0.029294749721884727,0.16737954318523407,0.10439583659172058
1749996408690510300,10.57851025390625,0.005858949851244688,0.1982721984386444,0.11504847556352615
1749996408700453000,10.588453125,0.015446322970092297,0.20466378331184387,0.10652636736631393
1749996408710396200,10.598396240234376,0.005858949851244688,0.2227732539176941,0.09161267429590225
1749996408720339200,10.608339111328124,-0.005858949851244688,0.25686168670654297,0.07563371956348419
1749996408730282000,10.618281982421875,-0.017576850950717926,0.2834932804107666,0.066046342253685
1749996408740225000,10.62822509765625,-0.01651158556342125,0.31318750977516174,0.05219791829586029
1749996408750168000,10.63816796875,-0.020772641524672508,0.4101265072822571,0.029827382415533066
1749996408760111000,10.648111083984375,-0.022903168573975563,0.5422192215919495,0.04474107176065445
1749996408770054000,10.658053955078126,0.020772641524672508,0.7925561666488647,0.12037479132413864
1749996408779997000,10.667996826171875,0.12090742588043213,1.0289114713668823,0.245010644197464
1749996408789939700,10.677939697265625,0.18908429145812988,1.025715708732605,0.32277488708496094
1749996408799882800,10.6878828125,0.1784316599369049,0.7978824377059937,0.30786117911338806
1749996408809710000,10.6977099609375,0.12942953407764435,0.5166528820991516,0.2162485122680664
1749996408819641600,10.7076416015625,0.11025478690862656,0.2888196110725403,0.09161267429590225
1749996408829711400,10.71771142578125,0.14327795803546906,0.13542163372039795,-0.005193160381168127
1749996408839656700,10.72765673828125,0.21891167759895325,0.0576573945581913,-0.0552605502307415
1749996408849597400,10.737597412109375,0.29028433561325073,0.13861742615699768,-0.12876373529434204
1749996408859542300,10.747542236328124,0.3531349003314972,0.35153698921203613,-0.27470487356185913
1749996408869483300,10.757483154296875,0.45739758014678955,-0.07656582444906235,-0.27896592020988464
1749996408879427800,10.767427734375,0.44781020283699036,-0.41412124037742615,-0.2480732649564743
1749996408889369300,10.777369384765626,0.4595280885696411,-0.4972118139266968,-0.03502054139971733
1749996408899313400,10.7873134765625,0.4222438633441925,-0.5408875942230225,0.21944430470466614
1749996408909255200,10.797255126953125,0.43822282552719116,-0.03928159549832344,0.26951169967651367
1749996408919199200,10.80719921875,0.41159123182296753,0.7584677338600159,0.2577938139438629
1749996408929141200,10.817141357421875,0.3296990990638733,1.1386337280273438,0.2727074921131134
1749996408939085000,10.8270849609375,0.2487390637397766,0.950082004070282,0.24074958264827728
1749996408949027000,10.837027099609376,0.1976063996553421,0.45806336402893066,0.046871598809957504
1749996408958970600,10.846970703125,0.18695376813411713,-0.15006901323795319,-0.3364901542663574
1749996408968913000,10.856912841796875,0.15606112778186798,-0.42796966433525085,-0.44940808415412903
1749996408978856400,10.8668564453125,0.08575372397899628,-0.22144168615341187,-0.45686495304107666
1749996408988799000,10.876799072265625,0.03568633273243904,0.4516717791557312,-0.39721018075942993
1749996408998742300,10.8867421875,0.03568633273243904,0.9937578439712524,-0.11811110377311707
1749996409008684800,10.896684814453126,0.08681898564100266,0.8245140314102173,0.19494324922561646
1749996409018628000,10.906628173828125,0.21784640848636627,0.4644549489021301,0.43143177032470703
1749996409028570600,10.916570556640625,0.3806985914707184,0.32277488708496094,0.555934488773346
1749996409038514000,10.926513916015624,0.5415533781051636,0.42184439301490784,0.5793702602386475
1749996409048456700,10.936456787109375,0.6896250247955322,0.5773729085922241,0.47191178798675537
1749996409058399700,10.946399658203125,0.795086145401001,0.6061350107192993,0.24607589840888977
1749996409068342500,10.956342529296874,0.8376966714859009,0.5507413148880005,0.03621896356344223
1749996409078285600,10.96628564453125,0.8163914084434509,0.6018739342689514,-0.04780370742082596
1749996409088228400,10.976228271484375,0.6470144987106323,0.5645897388458252,-0.04460791498422623
1749996409098171400,10.98617138671875,0.39135122299194336,0.45486757159233093,-0.009454214945435524
1749996409108114400,10.996114501953125,0.22956430912017822,0.37923386693000793,0.02769685536623001
1749996409118057500,11.006057373046875,0.1699095517396927,0.31744855642318726,0.09693899005651474
1749996409128000300,11.016000244140624,0.16245271265506744,0.3334275186061859,0.15872427821159363
1749996409137943300,11.025943359375,0.20932430028915405,0.44421494007110596,0.16724638640880585
1749996409147886000,11.035885986328125,0.28495803475379944,0.4474107325077057,0.10972215235233307
1749996409157829000,11.0458291015625,0.3669833242893219,0.2707101106643677,-0.008388951420783997
1749996409167772200,11.055772216796875,0.4083954393863678,0.018242640420794487,-0.12769848108291626
1749996409177715000,11.06571484375,0.4137217700481415,-0.23196116089820862,-0.18415744602680206
1749996409187658000,11.075657958984374,0.43502703309059143,-0.38962018489837646,-0.19267955422401428
1749996409197601000,11.08560107421875,0.4542017877101898,-0.3779022693634033,-0.17670060694217682
1749996409207543800,11.095543701171875,0.5639239549636841,-0.24794010818004608,-0.11491531878709793
1749996409217486800,11.10548681640625,0.6672545075416565,-0.05632581561803818,-0.06378266215324402
1749996409227429600,11.1154296875,0.7056040167808533,0.1045289933681488,-0.0456731803715229
1749996409237372700,11.12537255859375,0.6917555928230286,0.23768694698810577,-0.010519478470087051
1749996409247200000,11.135199951171876,0.5830987095832825,0.19507640600204468,0.05113265663385391
1749996409257131500,11.145131591796876,0.40519964694976807,-0.09893636405467987,0.08415582776069641
1749996409267201300,11.155201171875,0.21891167759895325,-0.3821633458137512,0.025566328316926956
1749996409277147000,11.16514697265625,0.037816859781742096,-0.4311654567718506,-0.06697845458984375
1749996409287087400,11.17508740234375,-0.0282294861972332,-0.40986019372940063,-0.10000162571668625
1749996409297032200,11.1850322265625,0.03994738683104515,-0.23835274577140808,-0.10639320313930511
1749996409306973200,11.19497314453125,0.17736639082431793,-0.02756369672715664,-0.07976161688566208
1749996409316917800,11.204917724609375,0.41159123182296753,-0.05206476151943207,-0.008388951420783997
1749996409326859300,11.214859375,0.6693850159645081,0.1237037405371666,0.02024000883102417
1749996409336803300,11.22480322265625,0.7237134575843811,0.45912861824035645,0.023435799404978752
1749996409346745000,11.2347451171875,0.6534060835838318,0.5347623229026794,0.041545283049345016
1749996409356689000,11.24468896484375,0.5458144545555115,0.6348971128463745,0.030892645940184593
1749996409366631000,11.254630859375,0.45739758014678955,0.7680550813674927,0.06072002649307251
1749996409376574700,11.26457470703125,0.43822282552719116,0.8776440620422363,0.12570111453533173
1749996409386517000,11.27451708984375,0.47124600410461426,1.109871506690979,0.20559588074684143
1749996409396460500,11.28446044921875,0.47124600410461426,1.3452948331832886,0.2812296152114868
1749996409406402800,11.29440283203125,0.36059173941612244,1.3899027109146118,0.3249054253101349
1749996409416346400,11.304346435546876,0.3094590902328491,1.1450252532958984,0.32277488708496094
1749996409426288600,11.31428857421875,0.39561229944229126,0.9149283170700073,0.23861905932426453
1749996409436232200,11.324232177734375,0.4936165511608124,0.695617139339447,0.122505322098732
1749996409446174500,11.334174560546876,0.5937513113021851,0.602939248085022,0.025566328316926956
1749996409456118000,11.344117919921874,0.7652587890625,0.4559328258037567,-0.01904158666729927
1749996409466060500,11.354060546875,0.9643298983573914,0.1982721984386444,-0.07230477035045624
1749996409476003600,11.364003662109376,1.1198583841323853,-0.011584741994738579,-0.10852373391389847
1749996409485946400,11.3739462890625,1.178447961807251,-0.11491531878709793,-0.011584741994738579
1749996409495889400,11.383889404296875,0.7002776861190796,-0.13409006595611572,0.16192007064819336
1749996409506025500,11.394025390625,-0.24114905297756195,-0.9956220388412476,-0.04780370742082596
1749996409515988200,11.40398828125,0.3062632977962494,-2.2417142391204834,-0.9105340838432312
1749996409525868300,11.413868408203125,0.9069388508796692,-2.16501522064209,-1.219327449798584
1749996409535748400,11.423748291015626,1.016527771949768,-1.73904287815094,-0.873249888420105
1749996409545604400,11.433604248046874,0.7769766449928284,-1.0488852262496948,-0.3002711832523346
1749996409555544600,11.443544677734375,0.4222438633441925,-0.6037381887435913,0.054328445345163345
1749996409565490200,11.453490234375,0.14327795803546906,-0.5611276030540466,0.05539371073246002
1749996409575431000,11.463430908203126,-0.05592634156346321,-0.43862229585647583,-0.0648479238152504
1749996409585376000,11.4733759765625,-0.18362481892108917,-0.07976161688566208,-0.04993423447012901
1749996409595317200,11.483317138671875,-0.15393058955669403,0.32597067952156067,0.066046342253685
1749996409605261800,11.49326171875,0.050600022077560425,0.6540718674659729,0.13848426938056946
1749996409615203300,11.503203369140625,0.050600022077560425,0.7797729969024658,0.16724638640880585
1749996409625147600,11.513147705078126,0.04420844092965126,0.7616634964942932,0.15339796245098114
1749996409635089400,11.52308935546875,0.22423799335956573,0.7510108947753906,0.09480846673250198
1749996409645033500,11.533033447265625,0.38282912969589233,0.716922402381897,0.07456845790147781
1749996409654975500,11.5429755859375,0.4265049397945404,0.6476802825927734,0.08096003532409668
1749996409664919600,11.55291943359375,0.37337490916252136,0.5731118321418762,0.08628635853528976
1749996409674861800,11.56286181640625,0.32650330662727356,0.45486757159233093,0.06285055726766586
1749996409684690000,11.57268994140625,0.22317273914813995,0.23342590034008026,0.011717899702489376
1749996409694620700,11.58262060546875,-0.03568633273243904,-0.01584579609334469,-0.03502054139971733
1749996409704691000,11.59269091796875,-0.33063119649887085,-0.25965800881385803,-0.0552605502307415
1749996409714636000,11.602635986328124,-0.5138565301895142,-0.5313002467155457,-0.06804371625185013
1749996409724577000,11.612576904296875,-0.6075997352600098,-0.8017440438270569,-0.06804371625185013
1749996409734521300,11.622521240234375,-0.660862922668457,-1.1085399389266968,-0.06804371625185013
1749996409744462800,11.632462890625,-0.9089362025260925,-1.592036485671997,-0.14687322080135345
1749996409754407200,11.6424072265625,-1.4393043518066406,-1.9615498781204224,-0.3322291076183319
1749996409764349000,11.652348876953125,-1.4201295375823975,-1.4982932806015015,-0.28748801350593567
1749996409774292700,11.662292724609374,-0.8056056499481201,-0.8550072312355042,-0.012650005519390106
1749996409784234800,11.67223486328125,-0.3008038103580475,-0.13622058928012848,0.2119874656200409
1749996409794178300,11.68217822265625,-0.03675159439444542,0.34088435769081116,0.3302317261695862
1749996409804120600,11.69212060546875,0.04953476041555405,0.35153698921203613,0.31212225556373596
1749996409814064000,11.702064208984375,0.04953476041555405,0.2557964324951172,0.19600850343704224
1749996409824006400,11.71200634765625,-0.015446322970092297,0.16844481229782104,0.04367581009864807
1749996409833950000,11.721949951171876,-0.0708400309085846,0.08535424619913101,-0.04247738793492317
1749996409843892200,11.731892333984375,-0.09747162461280823,0.02569948509335518,-0.04993423447012901
1749996409853835800,11.741835693359375,-0.1272990107536316,-0.01584579609334469,-0.028628960251808167
1749996409863778300,11.7517783203125,-0.1368863731622696,-0.03502054139971733,0.013848427683115005
1749996409873721600,11.7617216796875,-0.11664637178182602,-0.07017423957586288,0.050067391246557236
1749996409883664100,11.7716640625,-0.07616634666919708,-0.10639320313930511,0.05219791829586029
1749996409893607200,11.781607177734376,-0.03249054029583931,-0.10000162571668625,0.04048001766204834
1749996409903550000,11.791550048828125,0.006924213841557503,-0.07123950868844986,0.006391582079231739
1749996409913493200,11.8014931640625,0.033555805683135986,-0.021172115579247475,-0.04247738793492317
1749996409923435800,11.811435791015626,0.03675159439444542,0.019307903945446014,-0.074435293674469
1749996409933379000,11.821379150390625,0.020772641524672508,0.02889527566730976,-0.07337003201246262
1749996409943321600,11.831321533203125,0.01225053146481514,-0.04247738793492317,-0.09147951751947403
1749996409953265000,11.841264892578126,-0.005858949851244688,-0.06697845458984375,-0.0978710949420929
1749996409963207700,11.851207763671875,-0.0282294861972332,-0.05845634266734123,-0.08508793264627457
1749996409973150700,11.861150634765625,-0.046338967978954315,-0.0648479238152504,-0.08295740932226181
1749996409983093500,11.871093505859376,-0.053795814514160156,-0.08189214020967484,-0.08615319430828094
1749996409993036500,11.88103662109375,-0.04740423336625099,-0.102132149040699,-0.0786963477730751
1749996410002979300,11.890979248046875,-0.0282294861972332,-0.12769848108291626,-0.0691089779138565
1749996410012922400,11.90092236328125,-0.00798947736620903,-0.1213068962097168,-0.04460791498422623
1749996410022865200,11.910865234375,-0.0015978955198079348,-0.10106688737869263,-0.022237379103899002
1749996410032808200,11.92080810546875,-0.0015978955198079348,-0.09467530250549316,-0.017976323142647743
1749996410042751000,11.9307509765625,-0.004793686326593161,-0.07550056278705597,-0.017976323142647743
1749996410052694000,11.940694091796875,-0.013315795920789242,-0.04354264959692955,-0.021172115579247475
1749996410062637000,11.950636962890625,-0.01970737800002098,-0.02756369672715664,-0.028628960251808167
1749996410072579800,11.960579833984376,-0.026098959147930145,-0.02649843320250511,-0.03395527973771095
1749996410082523000,11.97052294921875,-0.03249054029583931,-0.0318247526884079,-0.03502054139971733
1749996410092465700,11.980465576171875,-0.04101264849305153,-0.04247738793492317,-0.0318247526884079
1749996410102408700,11.99040869140625,-0.046338967978954315,-0.05952160432934761,-0.03075948730111122
1749996410112351700,12.000351806640625,-0.054861076176166534,-0.07763108611106873,-0.025433169677853584
1749996410122487800,12.01048779296875,-0.06338318437337875,-0.09680583328008652,-0.017976323142647743
1749996410132450300,12.0204501953125,-0.0708400309085846,-0.10532794147729874,-0.014780532568693161
1749996410142330400,12.030330322265625,-0.07829687744379044,-0.1117195263504982,-0.01584579609334469
1749996410152210400,12.04021044921875,-0.0846884623169899,-0.12450268864631653,-0.020106852054595947
1749996410162066400,12.05006640625,-0.08788424730300903,-0.14154690504074097,-0.03395527973771095
1749996410172006700,12.060006591796874,-0.08681898564100266,-0.15326480567455292,-0.05099949613213539
1749996410181952300,12.0699521484375,-0.08362319320440292,-0.15965639054775238,-0.06591318547725677
1749996410191893000,12.07989306640625,-0.07936213910579681,-0.16178691387176514,-0.08082687854766846
1749996410202031400,12.09003125,-0.07829687744379044,-0.1735048145055771,-0.09147951751947403
1749996410211992000,12.099991943359376,-0.08255793154239655,-0.20013640820980072,-0.09574057161808014
1749996410221872000,12.1098720703125,-0.08362319320440292,-0.22250694036483765,-0.09680583328008652
1749996410231752000,12.119751953125,-0.07723161578178406,-0.23089589178562164,-0.09893636405467987
1749996410241610000,12.12960986328125,-0.0655137151479721,-0.2107890397310257,-0.10319741815328598
1749996410251549000,12.139548828125,-0.03994738683104515,-0.17030902206897736,-0.10852373391389847
1749996410261495800,12.149495849609375,-0.01438105944544077,-0.15006901323795319,-0.11491531878709793
1749996410271435500,12.159435546875,0.00798947736620903,-0.15539532899856567,-0.11811110377311707
1749996410281381600,12.169381591796874,0.01970737800002098,-0.16178691387176514,-0.11704584211111069
1749996410291322000,12.179322021484374,0.027164222672581673,-0.15539532899856567,-0.11278478801250458
1749996410301267500,12.189267333984375,0.027164222672581673,-0.13409006595611572,-0.11065425723791122
1749996410311208400,12.19920849609375,0.025033695623278618,-0.10106688737869263,-0.10852373391389847
1749996410321153300,12.2091533203125,0.02396843209862709,-0.05419528856873512,-0.10426267981529236
1749996410331094500,12.219094482421875,0.026098959147930145,-0.003062632866203785,-0.09467530250549316
1749996410341039000,12.2290390625,0.033555805683135986,0.04167843982577324,-0.07763108611106873
1749996410350980900,12.23898095703125,0.037816859781742096,0.06191844865679741,-0.06591318547725677
1749996410360925000,12.248925048828125,0.034621067345142365,0.04593949392437935,-0.06058686971664429
1749996410370867000,12.258866943359376,0.020772641524672508,-0.0019973693415522575,-0.06271740049123764
1749996410381004000,12.269004150390625,-0.0015978955198079348,-0.05845634266734123,-0.0691089779138565
1749996410390965800,12.2789658203125,-0.017576850950717926,-0.07656582444906235,-0.07337003201246262
1749996410400890000,12.28889013671875,-0.022903168573975563,-0.057391077280044556,-0.07656582444906235
1749996410410848000,12.298847900390625,-0.020772641524672508,-0.037151068449020386,-0.07123950868844986
1749996410420728000,12.30872802734375,-0.01651158556342125,-0.025433169677853584,-0.061652131378650665
1749996410430608100,12.318608154296875,-0.00798947736620903,-0.028628960251808167,-0.04993423447012901
1749996410440468700,12.32846875,0.0015978955198079348,-0.053130023181438446,-0.03821633383631706
1749996410450406000,12.338406005859374,0.00798947736620903,-0.06697845458984375,-0.02756369672715664
1749996410460354600,12.3483544921875,0.011185267940163612,-0.0552605502307415,-0.020106852054595947
1749996410470293000,12.35829296875,0.018642114475369453,-0.03502054139971733,-0.017976323142647743
1749996410480433400,12.368433349609376,0.03249054029583931,-0.014780532568693161,-0.01904158666729927
1749996410490392300,12.378392333984374,0.04953476041555405,0.009720530360937119,-0.017976323142647743
1749996410500272400,12.3882724609375,0.0708400309085846,0.03635212033987045,-0.017976323142647743
1749996410510152400,12.39815234375,0.09321057051420212,0.06511423736810684,-0.020106852054595947
1749996410520012000,12.408011962890624,0.11558110266923904,0.09387636184692383,-0.025433169677853584
1749996410529950000,12.417949951171876,0.1368863731622696,0.12157320976257324,-0.029694223776459694
1749996410539897900,12.42789794921875,0.15180006623268127,0.13861742615699768,-0.03608580678701401
1749996410549836800,12.4378369140625,0.15606112778186798,0.14394375681877136,-0.0456731803715229
1749996410559976700,12.447976806640625,0.14966954290866852,0.13968269526958466,-0.05099949613213539
1749996410569936100,12.45793603515625,0.12623374164104462,0.13542163372039795,-0.04673844203352928
1749996410579816200,12.467816162109376,0.09108003973960876,0.13542163372039795,-0.029694223776459694
1749996410589696000,12.477696044921874,0.05273054912686348,0.13435637950897217,-0.003062632866203785
1749996410599555600,12.4875556640625,0.011185267940163612,0.12583427131175995,0.025566328316926956
1749996410609493500,12.497493408203125,-0.034621067345142365,0.11198583990335464,0.05219791829586029
1749996410619441400,12.50744140625,-0.07403582334518433,0.09813741594552994,0.07350318878889084
1749996410629380400,12.51738037109375,-0.10173267871141434,0.07896266877651215,0.08415582776069641
1749996410639520300,12.527520263671875,-0.11664637178182602,0.05446160212159157,0.08522108942270279
1749996410649479700,12.537479736328125,-0.12410321086645126,0.02143843099474907,0.08096003532409668
1749996410659359500,12.547359375,-0.13475584983825684,-0.029694223776459694,0.08309056609869003
1749996410669239600,12.557239501953125,-0.14221268892288208,-0.08082687854766846,0.08735162019729614
1749996410679099000,12.567098876953125,-0.14753901958465576,-0.10532794147729874,0.08841688185930252
1749996410689037000,12.577037109375,-0.15393058955669403,-0.0882837250828743,0.09161267429590225
1749996410698984700,12.586984619140624,-0.16551533341407776,-0.028628960251808167,0.1033305749297142
1749996410708923600,12.596923583984376,-0.17510271072387695,0.04593949392437935,0.12570111453533173
1749996410719063600,12.6070634765625,-0.17403744161128998,0.11944268643856049,0.1406148076057434
1749996410729023000,12.61702294921875,-0.1592569202184677,0.1897500902414322,0.1406148076057434
1749996410738903000,12.626903076171875,-0.1315600574016571,0.2451438009738922,0.12889690697193146
1749996410748783000,12.636783203125,-0.10066741704940796,0.2653838098049164,0.10652636736631393
1749996410758642200,12.64664208984375,-0.08042740821838379,0.23555642366409302,0.0703074038028717
1749996410768580400,12.656580322265626,-0.0751010850071907,0.16737954318523407,0.022370535880327225
1749996410778721300,12.66672119140625,-0.08042740821838379,0.08961530029773712,-0.016911059617996216
1749996410788680000,12.676679931640624,-0.09108003973960876,0.027830012142658234,-0.03928159549832344
1749996410798607000,12.686607177734375,-0.11238531768321991,-0.012650005519390106,-0.03928159549832344
1749996410808562700,12.696562744140625,-0.1411474347114563,-0.048868969082832336,-0.02649843320250511
1749996410818442800,12.70644287109375,-0.16445007920265198,-0.10319741815328598,-0.008388951420783997
1749996410828322800,12.71632275390625,-0.16138744354248047,-0.17989639937877655,-0.005193160381168127
1749996410838185700,12.726185791015626,-0.13369058072566986,-0.24367906153202057,-0.021172115579247475
1749996410848121300,12.736121337890625,-0.09321057051420212,-0.26391905546188354,-0.04993423447012901
