time,seconds_elapsed,z,y,x
1747979698989082400,0.076082275390625,9.54197883605957,3.5150563716888428,-1.3070793151855469
1747979699007356000,0.09435595703125,9.370293617248535,3.326023578643799,-0.7663014531135559
1747979699025619200,0.112619140625,9.113663673400879,2.894717216491699,-1.6701902151107788
1747979699043883500,0.130883544921875,8.563314437866211,4.3310089111328125,-2.5710878372192383
1747979699062151700,0.149151611328125,5.762515068054199,4.149752616882324,-3.363710403442383
1747979699080411400,0.167411376953125,4.574478626251221,1.566102385520935,-2.9868409633636475
1747979699098678300,0.18567822265625,5.571089267730713,0.27038896083831787,-1.2454642057418823
1747979699116942600,0.203942626953125,6.7351975440979,2.1415762901306152,-0.7094719409942627
1747979699135213000,0.222213134765625,6.521637916564941,0.8506484627723694,-0.2566302418708801
1747979699153478700,0.240478759765625,6.694519519805908,1.2819547653198242,-0.36191442608833313
1747979699171743700,0.25874365234375,7.390830993652344,4.344169616699219,-7.34177827835083
1747979699190009900,0.277009765625,7.576872825622559,5.455037593841553,-7.283154010772705
1747979699208275700,0.295275634765625,6.760322093963623,3.3672995567321777,-0.44027936458587646
1747979699226541300,0.313541259765625,7.751548767089844,4.393222332000732,-0.6945167779922485
1747979699244807400,0.331807373046875,8.807381629943848,5.00578498840332,0.39481574296951294
1747979699263072500,0.350072509765625,7.2676005363464355,4.8191447257995605,1.4787644147872925
1747979699281338400,0.36833837890625,6.8967132568359375,3.861417531967163,1.8083757162094116
1747979699299603700,0.386603759765625,7.314260482788086,3.184846878051758,1.7012969255447388
1747979699317868500,0.40486865234375,6.829713821411133,5.2043890953063965,-2.183450698852539
1747979699336136200,0.42313623046875,5.230710506439209,4.35254430770874,-0.7082754969596863
1747979699354396000,0.44139599609375,6.68435001373291,3.525225877761841,1.358525037765503
1747979699372661500,0.45966162109375,9.308079719543457,2.8241288661956787,1.7724833488464355
1747979699390931000,0.477930908203125,8.819944381713867,2.1332013607025146,2.279761791229248
1747979699409198800,0.49619873046875,7.331010341644287,3.5611183643341064,4.140779495239258
1747979699427463700,0.514463623046875,5.730212211608887,3.074777126312256,4.153341770172119
1747979699445729000,0.53272900390625,4.793421745300293,1.568495273590088,4.1383867263793945
1747979699463995000,0.550994873046875,5.565705299377441,0.4301098585128784,5.522036552429199
1747979699482260500,0.569260498046875,6.942176818847656,0.4570291340351105,6.256034851074219
1747979699500526000,0.587526123046875,5.828317642211914,-0.729810893535614,5.630311489105225
1747979699518787600,0.60578759765625,6.124429702758789,-0.7597211599349976,5.595615863800049
1747979699537057500,0.6240576171875,6.208178520202637,-1.6055840253829956,6.235097408294678
1747979699555321900,0.64232177734375,6.551548480987549,-1.526620864868164,5.780461311340332
1747979699573589500,0.660589599609375,5.315655708312988,-1.1312068700790405,5.377270698547363
1747979699591853300,0.678853271484375,3.4540395736694336,-1.1940184831619263,5.620141983032227
1747979699610120700,0.69712060546875,4.0935211181640625,-2.251646041870117,5.392824172973633
1747979699628381000,0.715380859375,3.4677982330322266,-2.011167526245117,4.901697158813477
1747979699646638000,0.73363818359375,1.1718848943710327,-2.1092731952667236,5.169693470001221
1747979699664918300,0.751918212890625,0.372682124376297,-2.3084757328033447,8.298907279968262
1747979699683181600,0.770181640625,2.2893331050872803,-0.23629122972488403,9.842277526855469
1747979699701451800,0.78845166015625,1.2197413444519043,1.4165509939193726,9.072386741638184
1747979699719702300,0.806702392578125,-0.7148557901382446,-1.1431710720062256,10.62233829498291
1747979699737979400,0.8249794921875,-0.45104706287384033,-0.9876375198364258,10.895119667053223
1747979699756245000,0.843244873046875,-0.0933200865983963,0.5066801905632019,10.317253112792969
1747979699774510800,0.8615107421875,-0.4995017349720001,-0.9535398483276367,12.3009033203125
1747979699792776700,0.879776611328125,-0.8189435601234436,-1.4350954294204712,15.213566780090332
1747979699811039000,0.8980390625,-0.17288143932819366,-0.28893333673477173,14.104493141174316
1747979699829307100,0.91630712890625,-2.08713960647583,-2.6638097763061523,15.75015640258789
1747979699847573500,0.934573486328125,-2.6291139125823975,-3.245863914489746,15.822539329528809
1747979699865840000,0.952840087890625,-3.3445677757263184,-3.0239295959472656,15.580265998840332
1747979699884099600,0.971099609375,-5.300102233886719,-3.9320058822631836,14.086546897888184
1747979699902370600,0.98937060546875,-4.623531341552734,-4.700101852416992,14.619547843933105
1747979699920636700,1.00763671875,-4.697110652923584,-4.622933387756348,15.791433334350586
1747979699938897200,1.025897216796875,-3.686741590499878,-5.801398277282715,14.970096588134766
1747979699966301400,1.053301513671875,-2.183450698852539,-7.703692436218262,15.839289665222168
1747979699984567300,1.0715673828125,-2.602792739868164,-8.71346378326416,15.900904655456543
1747979700002830000,1.089830078125,-1.5212370157241821,-9.427123069763184,14.34317684173584
1747979700021099300,1.108099365234375,0.9451649188995361,-10.470992088317871,11.542976379394531
1747979700039362800,1.12636279296875,2.3401806354522705,-10.767702102661133,10.515857696533203
1747979700057629400,1.14462939453125,3.641875982284546,-9.747760772705078,10.25623607635498
1747979700075893500,1.1628935546875,2.4634108543395996,-9.139386177062988,9.509077072143555
1747979700094159600,1.18115966796875,0.4061816334724426,-9.439684867858887,6.428318023681641
1747979700112422100,1.199422119140625,3.620938777923584,-8.362317085266113,7.4847493171691895
1747979700130692000,1.217692138671875,3.3098719120025635,-6.749554634094238,8.382058143615723
1747979700148946700,1.23594677734375,1.0217353105545044,-4.990829944610596,8.791230201721191
1747979700176356400,1.2633564453125,1.2741780281066895,-1.674975872039795,10.895119667053223
1747979700194620700,1.28162060546875,-0.851844847202301,-2.3461625576019287,7.411767959594727
1747979700212886500,1.299886474609375,-0.5240281820297241,-2.239083766937256,4.9435715675354
1747979700231152400,1.31815234375,0.6263213157653809,-0.8991031050682068,8.195417404174805
1747979700249413000,1.3364130859375,0.698704183101654,-1.4620146751403809,3.8368911743164062
1747979700267683600,1.35468359375,0.7890332937240601,-0.6921239495277405,4.478765964508057
1747979700285949400,1.372949462890625,1.2047861814498901,-0.6514459848403931,4.415954113006592
1747979700304213800,1.3912138671875,1.5290136337280273,-1.1240284442901611,3.2476584911346436
1747979700322478800,1.409478759765625,2.751147747039795,-1.0157532691955566,3.0490541458129883
1747979700359012000,1.44601220703125,3.404986619949341,-0.36251261830329895,5.678766250610352
1747979700377277400,1.46427734375,0.19680966436862946,-3.958326816558838,3.820141315460205
1747979700395543300,1.482543212890625,2.740380048751831,-4.5684967041015625,4.330410957336426
1747979700413805800,1.500805908203125,-0.9798609018325806,-4.188037872314453,8.729615211486816
1747979700432078000,1.519078125,-0.6035895347595215,-1.4189438819885254,11.750554084777832
1747979700450340400,1.53734033203125,-0.4001995921134949,-2.6362924575805664,10.949556350708008
1747979700468601300,1.555601318359375,0.9050851464271545,-4.490131855010986,10.910673141479492
1747979700486865700,1.57386572265625,1.567897081375122,-6.374479293823242,11.609975814819336
1747979700505138000,1.592137939453125,1.0761719942092896,-7.607979774475098,9.858428955078125
1747979700523398100,1.610398193359375,2.568096876144409,-7.114459991455078,13.720444679260254
1747979700541668400,1.62866845703125,3.4444682598114014,-5.017749309539795,15.323636054992676
1747979700559934000,1.646933837890625,3.0412776470184326,-5.325226783752441,14.888740539550781
1747979700578198300,1.6651982421875,4.115654945373535,-7.003791809082031,11.933006286621094
1747979700596467000,1.683467041015625,4.496711730957031,-7.130013465881348,10.019346237182617
1747979700614731000,1.70173095703125,2.1756739616394043,-5.770291805267334,9.30867862701416
1747979700632996900,1.719996826171875,0.11066804826259613,-4.8059844970703125,8.812766075134277
1747979700651262500,1.738262451171875,1.007378339767456,-4.30169677734375,9.413962364196777
1747979700669528000,1.756528076171875,2.1164517402648926,-4.530211448669434,8.497511863708496
1747979700687794000,1.7747939453125,0.02273181453347206,-4.849055290222168,6.115456581115723
1747979700706059000,1.79305908203125,-1.7473586797714233,-3.486940860748291,6.417550563812256
1747979700724323800,1.81132373046875,1.9046868085861206,-4.510470867156982,7.977072715759277
1747979700742587100,1.829587158203125,1.2490534782409668,-4.3178486824035645,6.9930243492126465
1747979700760855300,1.847855224609375,1.2903295755386353,-3.814159393310547,7.371688365936279
1747979700779123000,1.866123046875,6.2638115882873535,-4.493122577667236,8.020143508911133
1747979700797389800,1.884389892578125,-2.5010979175567627,-1.5361921787261963,5.441278457641602
1747979700815653600,1.902653564453125,-0.397208571434021,-2.0925233364105225,5.770890235900879
1747979700833919200,1.920919189453125,1.1114661693572998,-3.6155550479888916,4.402195453643799
1747979700852184600,1.9391845703125,1.2903295755386353,-4.091726779937744,4.080958843231201
1747979700870451700,1.95745166015625,0.7058826684951782,-5.490331649780273,3.745365619659424
1747979700888711400,1.97571142578125,1.1515458822250366,-5.430510997772217,4.136591911315918
1747979700906982000,1.99398193359375,0.5563312768936157,-4.23948335647583,4.722833633422852
1747979700925246200,2.01224609375,1.7186448574066162,-4.05403995513916,7.21735143661499
1747979700943514400,2.030514404296875,-0.34995031356811523,-2.627917528152466,8.290532112121582
1747979700961778700,2.04877880859375,-1.1078768968582153,-1.7784653902053833,9.120841979980469
1747979700980044500,2.06704443359375,-0.14715859293937683,-1.5020943880081177,10.989038467407227
1747979700998305000,2.085304931640625,-0.6191428303718567,-2.193620204925537,10.448858261108398
1747979701016574700,2.10357470703125,-1.404586911201477,-1.6767704486846924,10.590034484863281
1747979701034841300,2.12184130859375,-1.7982062101364136,-0.8183453679084778,13.987842559814453
1747979701053104000,2.140104248046875,-0.2566302418708801,-0.3074777126312256,14.931811332702637
1747979701071373300,2.158373291015625,-1.0857433080673218,-1.5906288623809814,15.706487655639648
1747979701089638400,2.176638427734375,-2.978466033935547,-2.0476579666137695,13.720444679260254
1747979701107904000,2.194904052734375,-2.650649309158325,-3.2763724327087402,11.21216869354248
1747979701126169900,2.213169921875,-2.3437697887420654,-1.5906288623809814,12.715459823608398
1747979701144431000,2.23143115234375,-3.4510483741760254,-2.0751755237579346,11.746366500854492
1747979701162701000,2.249701171875,-0.6161518096923828,-0.9296116232872009,11.56989574432373
1747979701180966700,2.267966552734375,6.897311210632324,-0.6263213157653809,14.590834617614746
1747979701199232000,2.28623193359375,7.974081516265869,-2.417947292327881,14.56630802154541
1747979701217498000,2.304498046875,4.927420139312744,-2.3712873458862305,12.244073867797852
1747979701235764000,2.322763916015625,3.809971809387207,-3.3403804302215576,9.987641334533691
1747979701254024000,2.34102392578125,1.7312071323394775,1.6534404754638672,12.629916191101074
1747979701272295000,2.359294921875,0.8973084688186646,-0.8811569213867188,7.965108394622803
1747979701290562300,2.377562255859375,-2.83669114112854,-3.634697675704956,4.382454872131348
1747979701308821000,2.395821044921875,-3.3343982696533203,-4.855037212371826,0.3690928816795349
1747979701327093200,2.41409326171875,0.6855437159538269,-5.011168956756592,2.38265323638916
1747979701345357800,2.43235791015625,7.979465484619141,-5.68474817276001,7.024130821228027
1747979701363628000,2.4506279296875,4.168895244598389,-2.0279171466827393,6.478567123413086
1747979701381889500,2.4688896484375,1.9579271078109741,-3.8422749042510986,5.408975601196289
1747979701400154400,2.487154296875,-0.05623133108019829,-3.714258909225464,5.270191669464111
1747979701418416000,2.505416015625,-0.36311084032058716,-5.416752338409424,7.482954502105713
1747979701436686300,2.523686279296875,-2.2570300102233887,-7.203592777252197,7.073183536529541
1747979701454952200,2.5419521484375,-1.2628121376037598,-7.950751304626465,4.874777793884277
1747979701473217800,2.5602177734375,0.8877372145652771,-6.716054916381836,5.7134623527526855
1747979701491483400,2.5784833984375,3.043670415878296,-5.7517476081848145,7.130611419677734
1747979701509744000,2.596744140625,-2.726621389389038,-6.651448726654053,5.429912567138672
1747979701528013300,2.615013427734375,-1.9172492027282715,-7.6151580810546875,4.264608383178711
1747979701546281000,2.633281005859375,-3.0867412090301514,-11.144571304321289,2.2677977085113525
1747979701564545800,2.6515458984375,-3.542573928833008,-16.449459075927734,0.36729827523231506
1747979701582812000,2.66981201171875,1.459621787071228,-17.437097549438477,1.521835207939148
1747979701601077200,2.6880771484375,4.055236339569092,-16.5397891998291,6.917052268981934
1747979701619342600,2.706342529296875,0.3074777126312256,-12.604193687438965,13.765310287475586
1747979701637611500,2.724611572265625,0.19740787148475647,-10.932208061218262,13.117453575134277
1747979701655873500,2.74287353515625,-2.1924238204956055,-11.583654403686523,7.291528701782227
1747979701674130700,2.761130615234375,-7.322037220001221,-13.348361015319824,1.7383856773376465
1747979701692405800,2.77940576171875,-11.885747909545898,-16.19402503967285,-4.932804107666016
1747979701710659300,2.797659423828125,-3.7878382205963135,-13.430315017700195,4.3752760887146
1747979701728933000,2.81593310546875,1.9100706577301025,-14.692529678344727,3.4809587001800537
1747979701747202600,2.83420263671875,2.925823926925659,-13.1635160446167,2.6967110633850098
1747979701765468400,2.852468505859375,-0.672383189201355,-10.344172477722168,2.4741785526275635
1747979701783732700,2.870732666015625,-1.9411773681640625,-11.463415145874023,2.7427730560302734
1747979701802001200,2.889001220703125,-0.09571290761232376,-12.375679016113281,1.4177473783493042
1747979701820265200,2.90726513671875,0.7489534616470337,-11.786446571350098,0.3595215976238251
1747979701838531300,2.92553125,1.428515076637268,-10.307083129882812,0.7094719409942627
1747979701856792000,2.9437919921875,1.9645073413848877,-10.475777626037598,1.540379524230957
1747979701875062800,2.962062744140625,1.8472590446472168,-10.954939842224121,1.2143574953079224
1747979701893317400,2.9803173828125,1.2263215780258179,-10.938788414001465,-0.8979067206382751
1747979701911594200,2.99859423828125,-0.3768695592880249,-8.617751121520996,-0.4989035129547119
1747979701929858300,3.0168583984375,-3.8261234760284424,-5.995815277099609,3.9361932277679443
1747979701948126500,3.03512646484375,-7.967501163482666,-6.057430744171143,3.1274192333221436
1747979701966387700,3.0533876953125,-2.8564319610595703,-7.0408806800842285,3.9086756706237793
1747979701984656600,3.07165673828125,-0.544965386390686,-7.413562774658203,3.008974552154541
1747979702002922200,3.089922119140625,1.8083757162094116,-5.5968122482299805,0.06939185410737991
1747979702021187800,3.108187744140625,1.043868899345398,-4.890929698944092,-1.3004990816116333
1747979702039454000,3.126453857421875,-1.72941255569458,-3.404388427734375,0.3433700501918793
1747979702057719600,3.144719482421875,-2.837289333343506,-1.4793626070022583,0.9128618240356445
1747979702075985200,3.162985107421875,2.4574289321899414,-0.9104689955711365,1.9208383560180664
1747979702094250500,3.18125048828125,2.3820550441741943,-4.687539577484131,0.7058826684951782
1747979702112512000,3.199511962890625,0.7178468108177185,-6.337390899658203,0.41994038224220276
1747979702130782500,3.217782470703125,-2.2229323387145996,-6.399604320526123,0.45523449778556824
1747979702149047600,3.236047607421875,-3.4241292476654053,-5.781059741973877,0.30568310618400574
1747979702167313700,3.254313720703125,-4.6540398597717285,-6.364310264587402,-0.08015955984592438
1747979702185567500,3.2725673828125,-7.613363265991211,-8.065009117126465,0.8949156403541565
1747979702203845400,3.290845458984375,-12.760324478149414,-14.800804138183594,9.098708152770996
1747979702222112000,3.309112060546875,-13.710275650024414,-16.74258041381836,12.206984519958496
1747979702240377000,3.327377197265625,-9.880562782287598,-13.618151664733887,7.82692289352417
1747979702258637300,3.34563720703125,-10.40219783782959,-12.226725578308105,1.5649060010910034
1747979702276908000,3.363907958984375,-5.237290382385254,-16.07318878173828,-3.885345697402954
1747979702295173400,3.38217333984375,-2.6177480220794678,-21.859630584716797,0.8835497498512268
1747979702313435600,3.400435546875,-1.9752750396728516,-18.17049789428711,3.4845480918884277
1747979702331705000,3.418705078125,1.568495273590088,-5.673980712890625,5.283352375030518
1747979702349970700,3.436970703125,8.191828727722168,-2.448455810546875,1.083350419998169
1747979702368231700,3.455231689453125,3.3816566467285156,-3.855435371398926,2.015354871749878
1747979702386500900,3.4735009765625,5.574678421020508,-6.359524250030518,2.8725836277008057
1747979702404769000,3.49176904296875,7.132406234741211,-14.78405475616455,3.5030922889709473
1747979702423033300,3.510033447265625,-6.340381622314453,-14.133805274963379,7.751548767089844
1747979702441299200,3.52829931640625,-2.9246275424957275,-9.117850303649902,1.0839486122131348
1747979702459564500,3.546564453125,0.17766708135604858,-6.3152570724487305,1.8897316455841064
1747979702477829400,3.564829345703125,-0.029312077909708023,-7.0755767822265625,-1.2005987167358398
1747979702496096300,3.58309619140625,0.1459621787071228,-8.534002304077148,0.5138586759567261
1747979702514362000,3.601362060546875,-1.5200406312942505,-9.76989459991455,2.3090739250183105
1747979702532628700,3.619628662109375,-2.616551637649536,-8.912666320800781,5.354538917541504
1747979702550893300,3.637893310546875,-2.0243279933929443,-7.637889862060547,5.326423168182373
1747979702569159200,3.6561591796875,-0.844068169593811,-7.725826263427734,2.076371908187866
1747979702587420200,3.674420166015625,-1.6145570278167725,-6.814758777618408,1.97407865524292
1747979702605690600,3.692690673828125,-1.6289139986038208,-6.315855503082275,2.9168508052825928
1747979702623951400,3.710951416015625,-0.8512466549873352,-7.573283672332764,2.837289333343506
1747979702642220500,3.729220458984375,0.23270200192928314,-8.315058708190918,2.3647069931030273
1747979702660489000,3.747489013671875,1.5756736993789673,-8.145766258239746,2.4819552898406982
1747979702678749200,3.765749267578125,1.5547364950180054,-7.841279983520508,3.3003005981445312
1747979702697019000,3.784018798828125,-0.13579268753528595,-8.598608016967773,2.3748764991760254
1747979702715284200,3.8022841796875,-0.9284151792526245,-9.026325225830078,2.988037347793579
1747979702733550300,3.82055029296875,-0.9056833982467651,-9.343972206115723,4.948357105255127
1747979702751816400,3.83881640625,-0.7998009920120239,-10.955538749694824,3.93679141998291
1747979702770080800,3.857080810546875,-1.4171491861343384,-12.178271293640137,3.4965121746063232
1747979702788347400,3.875347412109375,-1.6648063659667969,-10.945966720581055,5.517251014709473
1747979702806602000,3.89360205078125,-2.03629207611084,-8.344968795776367,7.3292155265808105
1747979702843142700,3.930142578125,-3.4642090797424316,-11.45384407043457,8.303692817687988
1747979702861405200,3.9484052734375,-2.0751755237579346,-15.122638702392578,8.328817367553711
1747979702879671000,3.966671142578125,-2.4406790733337402,-15.150754928588867,5.3216376304626465
1747979702897940000,3.98493994140625,-3.377469062805176,-14.853446960449219,2.712862730026245
1747979702916208600,4.003208740234375,0.25423741340637207,-17.517255783081055,0.7878368496894836
1747979702934473200,4.02147314453125,3.404986619949341,-19.71685791015625,2.38983154296875
1747979702952738800,4.03973876953125,2.069791555404663,-15.814165115356445,4.220340728759766
1747979702971004200,4.058004150390625,0.048454657196998596,-11.733205795288086,4.488935470581055
1747979702989270300,4.076270263671875,-0.6287141442298889,-11.617154121398926,2.9072794914245605
1747979703007535600,4.09453564453125,-1.4769697189331055,-9.712467193603516,4.2556352615356445
1747979703025801700,4.1128017578125,-1.7868403196334839,-8.129016876220703,3.8572301864624023
1747979703044066000,4.131066162109375,-0.8446664214134216,-7.335795879364014,3.1579277515411377
1747979703062334200,4.149334228515625,-0.0364905446767807,-6.537191390991211,2.5351955890655518
1747979703080598500,4.1675986328125,-0.5162515044212341,-5.508875846862793,1.7629120349884033
1747979703098863000,4.185863037109375,-0.3403790295124054,-4.859822750091553,0.49651068449020386
1747979703117131000,4.204131103515625,0.5934200286865234,-4.97348165512085,-0.07058826833963394
1747979703135391200,4.22239111328125,1.2795618772506714,-4.454837322235107,-1.2717852592468262
1747979703153660400,4.240660400390625,1.4727823734283447,-3.4205398559570312,-2.0165512561798096
1747979703171928300,4.25892822265625,0.5533402562141418,-2.661417007446289,-2.4059832096099854
1747979703190193200,4.277193115234375,-0.054436713457107544,-3.1238300800323486,-2.276172637939453
1747979703208454700,4.29545458984375,-0.031106693670153618,-3.845266103744507,-1.3968101739883423
1747979703226719500,4.313719482421875,-0.7974081635475159,-4.801198482513428,-0.8033902049064636
1747979703244988700,4.33198876953125,-1.5493526458740234,-5.742774486541748,-0.3152543902397156
1747979703263256800,4.3502568359375,-2.3395824432373047,-6.537191390991211,-0.17587246000766754
1747979703281521400,4.368521484375,-3.9631125926971436,-8.087141990661621,0.2793620526790619
1747979703299786800,4.386786865234375,-11.540583610534668,-10.26341438293457,3.239283561706543
1747979703327185400,4.414185302734375,-17.562122344970703,-15.55215072631836,10.591231346130371
1747979703345453600,4.43245361328125,-13.266407012939453,-19.375282287597656,14.349757194519043
1747979703363716600,4.450716552734375,-8.291728973388672,-14.355141639709473,12.251252174377441
1747979703381984300,4.468984375,-5.55314302444458,-9.031110763549805,7.216753005981445
1747979703400248300,4.487248291015625,-1.923829436302185,-9.887741088867188,-0.4450650215148926
1747979703418515700,4.505515625,0.5431707501411438,-11.501102447509766,-1.9543378353118896
1747979703436775000,4.52377490234375,2.9617161750793457,-15.017952919006348,-0.9361918568611145
1747979703455045600,4.542045654296875,0.28115665912628174,-11.860623359680176,-1.1700903177261353
1747979703473312300,4.560312255859375,0.30628129839897156,-8.074580192565918,-0.9684949517250061
1747979703491578400,4.578578369140625,2.9760732650756836,-8.25822925567627,-0.2189432680606842
1747979703509841000,4.5968408203125,3.8189449310302734,-8.522636413574219,1.1132607460021973
1747979703528110800,4.61511083984375,3.2829527854919434,-8.994022369384766,3.1417760848999023
1747979703546374400,4.63337451171875,2.723630428314209,-10.359127044677734,4.934598445892334
1747979703564641300,4.651641357421875,2.4741785526275635,-11.302497863769531,6.08614444732666
1747979703582905000,4.669905029296875,1.9567307233810425,-10.75813102722168,6.202794551849365
1747979703601172500,4.68817236328125,-1.6761722564697266,-9.064610481262207,5.624927997589111
1747979703619432400,4.706432373046875,-6.1710896492004395,-7.319644451141357,3.733999729156494
1747979703637704200,4.7247041015625,-6.4115681648254395,-6.49770975112915,1.7982062101364136
1747979703655968300,4.74296826171875,-1.9848463535308838,-7.179066181182861,1.472184181213379
1747979703674236700,4.761236572265625,0.2715853750705719,-7.859225749969482,1.7485551834106445
1747979703692486100,4.779486083984375,1.2161520719528198,-8.21994400024414,2.042274236679077
1747979703719898000,4.806898193359375,0.997208833694458,-7.116852760314941,2.6039891242980957
1747979703738159000,4.8251591796875,0.8620143532752991,-6.180660724639893,2.3952155113220215
1747979703756424700,4.8434248046875,0.706480860710144,-5.699703693389893,2.4634108543395996
1747979703774696400,4.861696533203125,-0.5712863802909851,-6.914061069488525,3.0765717029571533
1747979703792947000,4.879947021484375,-2.341975212097168,-9.181260108947754,3.0005996227264404
1747979703811229400,4.8982294921875,-2.1720848083496094,-10.773683547973633,2.888136863708496
1747979703829475300,4.916475341796875,-1.3070793151855469,-11.751749992370605,2.8893332481384277
1747979703847758000,4.934758056640625,-1.181456208229065,-11.628520011901855,3.253042459487915
1747979703866023700,4.953023681640625,-1.1407781839370728,-11.661420822143555,4.256831645965576
1747979703884289800,4.971289794921875,-0.5431707501411438,-11.368898391723633,6.006583213806152
1747979703902555100,4.98955517578125,0.4217349886894226,-10.361519813537598,6.637091636657715
1747979703920821500,5.007821533203125,1.0761719942092896,-9.262018203735352,6.976872444152832
1747979703939086300,5.02608642578125,-0.6011967062950134,-9.857831001281738,7.10429048538208
1747979703957352400,5.0443525390625,-5.936593055725098,-12.488141059875488,6.299105644226074
1747979703975618000,5.0626181640625,-6.258427619934082,-13.250255584716797,8.651848793029785
1747979703993877800,5.080877685546875,-1.0271191596984863,-11.764910697937012,7.752745151519775
1747979704012149200,5.099149169921875,1.083350419998169,-10.72582721710205,6.285944938659668
1747979704030411800,5.117411865234375,-1.4991034269332886,-11.940184593200684,4.515854358673096
1747979704048677400,5.135677490234375,-0.44327038526535034,-13.427324295043945,3.511467218399048
1747979704066947000,5.153947021484375,1.430309772491455,-14.258232116699219,3.7836508750915527
1747979704085212200,5.172212158203125,1.8891334533691406,-16.094125747680664,3.053241729736328
1747979704103478300,5.190478271484375,0.8051848411560059,-15.866209030151367,2.7020950317382812
1747979704121744100,5.208744140625,-2.41375994682312,-13.428520202636719,2.1433708667755127
1747979704140009500,5.227009521484375,-2.362314224243164,-10.740184783935547,1.2095718383789062
1747979704158275300,5.245275390625,-0.8243274092674255,-8.191828727722168,1.2388839721679688
1747979704176541000,5.263541015625,0.5629115104675293,-6.540182590484619,1.6923238039016724
1747979704194806800,5.281806884765625,0.9780662655830383,-5.487340450286865,1.8939191102981567
1747979704213072400,5.300072265625,1.0875378847122192,-4.675575256347656,2.2821545600891113
1747979704231337700,5.318337646484375,0.8997012972831726,-4.280161380767822,3.0005996227264404
1747979704249598700,5.3365986328125,0.7381857633590698,-4.687539577484131,3.813561201095581
1747979704267868200,5.3548681640625,0.09810572862625122,-5.050052165985107,4.1970109939575195
1747979704286136300,5.37313623046875,0.9696913957595825,-4.940580368041992,3.3200414180755615
1747979704304396300,5.391396240234375,1.404586911201477,-4.278964996337891,0.6508477330207825
1747979704322666800,5.409666748046875,1.210170030593872,-3.2237303256988525,-0.4612165689468384
1747979704340932400,5.427932373046875,0.9571290612220764,-2.757728099822998,-1.196411371231079
1747979704359198000,5.446197998046875,0.605384111404419,-3.1453654766082764,-1.8418751955032349
1747979704377463800,5.4644638671875,-0.11605189740657806,-4.068994998931885,-2.6117658615112305
1747979704395729700,5.482729736328125,-2.53399920463562,-5.663212776184082,-2.8002007007598877
1747979704413995500,5.50099560546875,-7.143173694610596,-8.138587951660156,0.21954147517681122
1747979704432260900,5.5192607421875,-20.347368240356445,-13.967503547668457,7.371089935302734
1747979704450526500,5.5375263671875,-19.328025817871094,-20.822940826416016,17.14936065673828
1747979704468798700,5.555798828125,-10.229316711425781,-20.8564395904541,16.914264678955078
1747979704487058200,5.57405810546875,-9.771689414978027,-11.573485374450684,13.626526832580566
1747979704505323800,5.59232373046875,-4.931009292602539,-8.156534194946289,4.518845558166504
1747979704523588400,5.61058837890625,-1.033101201057434,-7.379465103149414,-1.2801600694656372
1747979704541853200,5.628853271484375,1.2502498626708984,-7.629515171051025,-3.9493536949157715
1747979704560124400,5.64712451171875,3.0789644718170166,-11.210373878479004,-4.049253940582275
1747979704578390300,5.665390380859375,-6.428318023681641,-14.729020118713379,-6.788437843322754
1747979704596647400,5.6836474609375,-0.07657032459974289,-14.723037719726562,-0.29312077164649963
1747979704614916900,5.701916748046875,3.879363775253296,-12.08495044708252,2.2510478496551514
1747979704633185000,5.72018505859375,3.699902057647705,-10.051650047302246,1.7425731420516968
1747979704651449000,5.738448974609375,3.348755359649658,-8.719446182250977,2.347957134246826
1747979704669714400,5.75671435546875,3.1202406883239746,-8.385048866271973,4.032504558563232
1747979704687981000,5.77498095703125,2.9802606105804443,-8.882157325744629,6.0023956298828125
1747979704706249200,5.793249267578125,2.0985054969787598,-9.34277629852295,7.165905475616455
1747979704724512300,5.81151220703125,1.622931957244873,-8.723034858703613,7.004988193511963
1747979704742777900,5.82977783203125,-0.3170489966869354,-8.182855606079102,5.546562671661377
1747979704761043700,5.848043701171875,-2.801995277404785,-7.639684677124023,3.630510091781616
1747979704779309300,5.866309326171875,-4.692325115203857,-7.4225358963012695,1.6163517236709595
1747979704797571600,5.884571533203125,-3.3445677757263184,-7.496115207672119,0.3409772217273712
1747979704815839500,5.902839599609375,-1.4111671447753906,-7.88494873046875,0.8961120843887329
1747979704834106600,5.921106689453125,0.15732808411121368,-7.583453178405762,1.557727575302124
1747979704852373500,5.93937353515625,0.9104689955711365,-6.447460651397705,1.2610175609588623
1747979704870625800,5.957625732421875,1.0683952569961548,-4.932804107666016,0.8662018179893494
1747979704888903700,5.975903564453125,-1.0701899528503418,-4.799404144287109,0.7465606927871704
1747979704907158500,5.994158447265625,-2.5597219467163086,-5.248058319091797,1.4715858697891235
1747979704925430500,6.012430419921875,-1.1180464029312134,-6.275177478790283,3.0352954864501953
1747979704943700500,6.030700439453125,0.6514459848403931,-7.081558704376221,3.637688636779785
1747979704961966300,6.04896630859375,1.2735798358917236,-7.8113694190979,3.4396824836730957
1747979704980232000,6.06723193359375,1.7030915021896362,-9.418747901916504,3.957728624343872
1747979704998497300,6.085497314453125,1.7306089401245117,-11.484950065612793,4.83469820022583
1747979705016763100,6.10376318359375,2.0470597743988037,-13.381860733032227,4.72582483291626
1747979705035029000,6.122029052734375,2.0297117233276367,-14.469398498535156,5.164309501647949
1747979705053294600,6.140294677734375,2.214557409286499,-13.581063270568848,6.906284332275391
1747979705071560400,6.158560546875,-3.088535785675049,-14.167902946472168,8.141578674316406
1747979705089825000,6.176824951171875,-9.56471061706543,-15.894922256469727,7.961519241333008
1747979705108088000,6.195088134765625,-4.309473514556885,-15.757335662841797,11.063814163208008
1747979705126356200,6.213356201171875,0.706480860710144,-14.944972038269043,11.054242134094238
1747979705144624400,6.231624267578125,1.866999864578247,-13.218550682067871,6.778268337249756
1747979705162888700,6.249888671875,1.800000786781311,-13.071990013122559,4.607379913330078
1747979705181154800,6.26815478515625,1.1288141012191772,-14.631512641906738,4.046861171722412
1747979705199415600,6.28641552734375,0.19202402234077454,-16.11924934387207,4.003790378570557
1747979705217686000,6.30468603515625,-0.8225327730178833,-17.592031478881836,3.434896945953369
1747979705235952000,6.3229521484375,0.3361915946006775,-16.15334701538086,2.688336133956909
1747979705254216400,6.341216552734375,0.9038887619972229,-13.168899536132812,1.6773686408996582
1747979705272479500,6.3594794921875,1.2442678213119507,-10.73420238494873,0.1782652884721756
1747979705290748200,6.377748046875,1.4739787578582764,-7.509873867034912,-0.8171489238739014
1747979705309015800,6.396015869140625,1.846660852432251,-4.323830604553223,0.018544375896453857
1747979705327280400,6.4142802734375,2.541177749633789,-2.0231316089630127,0.9002995491027832
1747979705345546200,6.432546142578125,4.281956195831299,-0.9092726111412048,2.3569302558898926
1747979705363807500,6.450807373046875,3.620938777923584,-0.8488538265228271,3.214757204055786
1747979705382066200,6.469066162109375,2.1194427013397217,-1.5020943880081177,3.207578659057617
1747979705400342800,6.4873427734375,0.8153542876243591,-1.9992033243179321,3.6544384956359863
1747979705418604300,6.505604248046875,-3.8703906536102295,-3.2542388439178467,4.657629489898682
1747979705436873700,6.523873779296875,-2.9252257347106934,-6.138786315917969,1.6863417625427246
1747979705455141400,6.542141357421875,-3.0317063331604004,-8.419146537780762,0.9655039310455322
1747979705473401300,6.5604013671875,-2.193620204925537,-9.435498237609863,-0.14715859293937683
1747979705491671800,6.578671875,-2.933002471923828,-8.069195747375488,-2.066202402114868
1747979705509937400,6.5969375,-9.143573760986328,-4.837090969085693,0.5778666734695435
1747979705528203000,6.615203125,-11.676974296569824,-3.9116668701171875,3.482753276824951
1747979705546457000,6.63345703125,-14.294124603271484,-5.460421085357666,7.307680130004883
1747979705564734500,6.651734375,-12.54975700378418,-7.4362945556640625,14.80977725982666
1747979705583000000,6.67,-6.55992317199707,-2.5698914527893066,19.68216323852539
1747979705601265700,6.688265625,4.451846599578857,-0.9828519225120544,-0.3026920557022095
1747979705619527000,6.70652685546875,6.720242500305176,-5.527420520782471,-4.058825492858887
1747979705637796000,6.724796142578125,-18.277576446533203,-15.112469673156738,-11.861820220947266
1747979705656064300,6.743064208984375,6.925426959991455,-8.94377326965332,-4.336990833282471
1747979705674328800,6.761328857421875,5.829514026641846,-4.984249591827393,-0.23030917346477509
1747979705692579600,6.77957958984375,4.395017147064209,-7.039684295654297,-1.7413766384124756
1747979705710861800,6.79786181640625,6.014957904815674,-12.948760032653809,-4.957330226898193
1747979705729124400,6.816124267578125,-6.598806858062744,-23.212173461914062,-6.206982135772705
1747979705747390200,6.83439013671875,-1.7724833488464355,-22.657638549804688,0.3595215976238251
1747979705765657300,6.8526572265625,0.3840480446815491,-17.89651870727539,3.613760471343994
1747979705783923200,6.870923095703125,2.0853450298309326,-17.75653839111328,5.9676995277404785
1747979705802188500,6.8891884765625,1.7126628160476685,-23.252851486206055,12.269198417663574
1747979705820454700,6.90745458984375,-2.444866418838501,-27.179473876953125,14.970096588134766
1747979705838716400,6.92571630859375,-4.7712883949279785,-22.35793685913086,21.759132385253906
1747979705856985900,6.94398583984375,-11.095519065856934,-17.397615432739258,20.19721794128418
1747979705875251500,6.96225146484375,-19.535003662109375,-12.717253684997559,7.596015453338623
1747979705893515800,6.980515869140625,-10.989636421203613,-9.373284339904785,2.60339093208313
1747979705911784200,6.9987841796875,-2.215155601501465,-8.085946083068848,0.5389832854270935
1747979705930048500,7.017048583984375,-1.8454644680023193,-4.572085857391357,1.5427724123001099
1747979705948297700,7.035297607421875,-1.6534404754638672,-1.5936198234558105,2.9527430534362793
1747979705966575000,7.0535751953125,-0.7579265832901001,-0.9649057388305664,4.749752998352051
1747979705984842200,7.07184228515625,-6.193821430206299,-0.8099704384803772,7.100701332092285
1747979706003112400,7.090112548828125,-1.1988041400909424,-2.066202402114868,2.0374884605407715
1747979706021377000,7.108376953125,-0.6215356588363647,-1.0821540355682373,0.3684946894645691
1747979706039643000,7.126642822265625,-0.97926265001297,-0.0975075215101242,-0.9493523836135864
1747979706057908200,7.144908203125,-1.1904292106628418,0.07896314561367035,-1.6707884073257446
1747979706076174300,7.16317431640625,-1.103689432144165,0.21655045449733734,-1.4416756629943848
1747979706094435800,7.181435791015625,0.8464609980583191,-0.48574298620224,0.5000999569892883
1747979706112705800,7.199705810546875,-0.8602197170257568,-2.0919251441955566,1.9698911905288696
1747979706130971000,7.217970947265625,-4.95912504196167,-8.387441635131836,8.689535140991211
1747979706149237000,7.236237060546875,-9.138788223266602,-55.11567687988281,18.733407974243164
1747979706167502300,7.25450244140625,5.241477966308594,-69.46005249023438,46.932823181152344
1747979706185768400,7.2727685546875,-23.089542388916016,-37.71806335449219,43.3477783203125
1747979706204032800,7.29103271484375,-3.6646077632904053,-17.88515281677246,18.300308227539062
1747979706222301000,7.309301025390625,6.9104719161987305,-10.414162635803223,10.697711944580078
1747979706240565200,7.327565185546875,7.544569969177246,-5.7888360023498535,3.294916868209839
1747979706258830000,7.345830078125,7.600203037261963,-1.882553219795227,-3.3858439922332764
1747979706277098000,7.364097900390625,5.322235584259033,-1.8586249351501465,-5.581258773803711
1747979706295362600,7.382362548828125,3.7543387413024902,-1.3848460912704468,-3.573082447052002
1747979706313628400,7.40062841796875,6.441478729248047,-0.8129615187644958,-2.669193744659424
1747979706331894000,7.41889404296875,16.612171173095703,1.1635099649429321,-1.2299108505249023
1747979706350159600,7.43715966796875,29.123044967651367,5.617749214172363,-8.71226692199707
1747979706368420600,7.455420654296875,13.445270538330078,10.16291618347168,-8.298309326171875
1747979706386691000,7.473691162109375,3.635295867919922,6.928418159484863,-5.014758110046387
1747979706404956700,7.491956787109375,-10.691131591796875,0.6119644045829773,-4.43330192565918
1747979706423222300,7.51022216796875,-14.730813980102539,-1.521835207939148,-7.033702373504639
1747979706441488400,7.52848828125,-10.006186485290527,-4.626522541046143,-4.829314231872559
1747979706459754000,7.54675390625,-8.992227554321289,-8.990432739257812,-1.1072787046432495
1747979706478014700,7.5650146484375,-14.834901809692383,-15.888341903686523,-1.2239288091659546
1747979706496284200,7.5832841796875,-27.099912643432617,-35.84807205200195,-0.4743770956993103
1747979706514552300,7.60155224609375,11.620144844055176,-37.322052001953125,-6.118447303771973
1747979706532818000,7.61981787109375,6.788437843322754,-19.006189346313477,2.555534601211548
1747979706551081200,7.638081298828125,14.116456985473633,-7.246065139770508,0.9828519225120544
1747979706569348000,7.65634814453125,16.27298927307129,-2.5944180488586426,-4.711467742919922
1747979706587613400,7.674613525390625,6.357131481170654,-5.101497650146484,-1.054038405418396
1747979706605881000,7.692881103515625,3.8697924613952637,-11.311470985412598,1.0564311742782593
1747979706624142600,7.711142578125,10.50209903717041,-26.378477096557617,10.069596290588379
1747979706642407000,7.729406982421875,16.66242027282715,-37.502708435058594,24.082563400268555
1747979706660676400,7.74767626953125,31.78864860534668,-38.52324676513672,26.659034729003906
1747979706678942200,7.765942138671875,-2.630908489227295,-46.322654724121094,44.61058807373047
1747979706697207800,7.784207763671875,-73.02595520019531,-26.92045021057129,24.41277313232422
1747979706715473700,7.8024736328125,5.541179180145264,-10.4219388961792,10.925628662109375
1747979706733734700,7.820734619140625,6.393621921539307,-8.902496337890625,7.7455668449401855
1747979706752003800,7.83900390625,1.3405789136886597,-5.282754421234131,6.8865437507629395
1747979706770268400,7.857268310546875,-0.2841476798057556,-2.046461582183838,3.2883365154266357
1747979706788540000,7.875539794921875,-0.03888336941599846,-0.15314064919948578,0.8799605369567871
1747979706806803500,7.893803466796875,-13.012767791748047,5.170889854431152,-1.0977073907852173
1747979706825066800,7.912066650390625,-0.30568310618400574,1.8083757162094116,-1.832902193069458
1747979706843333400,7.93033349609375,3.2315070629119873,0.6897311210632324,-1.9621145725250244
1747979706861599200,7.94859912109375,2.482553482055664,0.7692924737930298,-1.9411773681640625
1747979706879864000,7.966864013671875,1.3854442834854126,0.7034898400306702,-1.5272190570831299
1747979706898131000,7.985130859375,0.17347964644432068,-0.363709032535553,0.3433700501918793
1747979706918670300,8.00567041015625,-3.5647075176239014,-2.782254457473755,2.2085752487182617
1747979706952927500,8.039927490234374,-35.671600341796875,-29.688947677612305,29.9228458404541
1747979706971193300,8.058193359375,2.076970100402832,-76.5888671875,48.8428955078125
1747979706989454300,8.076454345703125,-31.39981460571289,-57.15496063232422,64.62117004394531
1747979707007723500,8.0947236328125,-7.302894592285156,-22.90230369567871,20.07099723815918
1747979707025991400,8.112991455078125,9.20159912109375,-8.391629219055176,11.14038372039795
1747979707044256300,8.13125634765625,9.069396018981934,2.4472594261169434,5.947958946228027
1747979707062521300,8.149521240234375,9.44746208190918,8.783453941345215,-1.5625132322311401
1747979707080787500,8.167787353515624,6.436692714691162,3.6472599506378174,-4.001996040344238
1747979707099053000,8.186052978515624,5.491528034210205,-0.9272187948226929,-2.4711875915527344
1747979707117319200,8.204319091796876,12.815360069274902,-0.9678967595100403,5.188836097717285
1747979707135584300,8.222584228515625,18.046070098876953,0.24227328598499298,4.576273441314697
1747979707153849000,8.24084912109375,24.58745002746582,7.554739475250244,-6.288936138153076
1747979707172117000,8.259116943359375,15.833905220031738,-0.8584251403808594,-14.703895568847656
1747979707190384400,8.27738427734375,1.3537393808364868,-2.2887349128723145,-11.054242134094238
1747979707208642600,8.295642578125,-23.049463272094727,-1.6959130764007568,-5.91087007522583
1747979707226913000,8.3139130859375,-15.165709495544434,-0.2793620526790619,-5.4765729904174805
1747979707245178400,8.332178466796876,-8.682954788208008,-1.8472590446472168,-1.3704891204833984
1747979707263450600,8.35045068359375,-8.226524353027344,-6.062216281890869,0.6981059908866882
1747979707290837200,8.377837158203125,-5.009374141693115,-19.91187286376953,-2.20737886428833
1747979707309106700,8.396106689453125,-7.199405193328857,-21.41037940979004,0.5593222975730896
1747979707327378000,8.4143779296875,-0.02392822690308094,-34.54518127441406,-6.835696220397949
1747979707345637400,8.432637451171875,2.0787646770477295,-36.88835144042969,1.2873386144638062
1747979707363908900,8.450908935546876,5.076373100280762,-19.338193893432617,5.662614822387695
1747979707382171600,8.469171630859375,10.406984329223633,-8.535198211669922,1.1611171960830688
1747979707400432400,8.487432373046875,18.60898208618164,-12.048460006713867,6.647859573364258
1747979707418699000,8.505698974609375,14.848660469055176,-25.239492416381836,11.042278289794922
1747979707436968700,8.52396875,13.305888175964355,-28.19642448425293,20.855243682861328
1747979707455234300,8.542234375,19.22991943359375,-31.49971580505371,36.76871109008789
1747979707473498400,8.560498291015625,-0.0568295381963253,-44.24867630004883,36.137603759765625
1747979707491767300,8.578767333984375,-108.14302062988281,-33.37568664550781,25.24547576904297
1747979707510031400,8.59703125,-0.054436713457107544,-11.435897827148438,10.515857696533203
1747979707528297000,8.615296875,9.490532875061035,-7.218547821044922,2.9012975692749023
1747979707546557400,8.633557373046875,4.0797624588012695,-4.72163724899292,5.709274768829346
1747979707564828700,8.65182861328125,0.4001995921134949,-1.1132607460021973,4.240081787109375
1747979707583095600,8.670095458984376,-0.5006981492042542,0.6472585201263428,2.211566209793091
1747979707601357300,8.688357421875,1.5056836605072021,3.4444682598114014,0.16450655460357666
1747979707619625500,8.70662548828125,-16.09352684020996,5.563312530517578,5.127220630645752
1747979707637891600,8.7248916015625,-0.6753742098808289,2.310270309448242,0.28235307335853577
1747979707656157000,8.743156982421874,2.046461582183838,1.551147222518921,-0.20757736265659332
1747979707674418000,8.76141796875,1.4626128673553467,1.5014961957931519,-0.5126622319221497
1747979707692676400,8.77967626953125,0.7172485589981079,1.2203395366668701,-0.38703906536102295
1747979707710954200,8.797954345703126,0.43130627274513245,0.623330295085907,0.7603194117546082
1747979707729219800,8.8162197265625,-0.7256234884262085,-1.2993026971817017,1.277169108390808
1747979707747485200,8.834485107421875,-1.4165509939193726,-3.541377544403076,5.06799840927124
1747979707765750800,8.852750732421875,-14.59621810913086,-30.358339309692383,32.133216857910156
1747979707784016000,8.871015869140624,-15.819548606872559,-99.8249740600586,35.1224479675293
1747979707802279000,8.88927880859375,-12.238689422607422,-59.489158630371094,41.56631851196289
1747979707820546800,8.907546875,-7.345367431640625,-24.463621139526367,22.7617244720459
1747979707838815200,8.925815185546876,1.856830358505249,-12.866207122802734,7.89332389831543
1747979707857078800,8.944078857421875,5.972485542297363,-7.067201614379883,6.534200668334961
1747979707875345200,8.96234521484375,-1.2203395366668701,-2.0033907890319824,4.883152961730957
1747979707893606100,8.980606201171875,3.9595232009887695,-0.8997012972831726,-0.5455635786056519
1747979707911878400,8.99887841796875,6.783053874969482,-0.12023933976888657,-1.0480563640594482
1747979707930140700,9.017140625,11.030314445495605,-2.1122641563415527,-2.241476535797119
1747979707948403000,9.03540283203125,29.642885208129883,-3.239283561706543,0.9254241585731506
1747979707966674000,9.053673828125,33.988250732421875,1.9645073413848877,-0.9942178130149841
1747979707984939000,9.07193896484375,21.564716339111328,7.194021224975586,-6.129813194274902
1747979708003205400,9.090205322265625,16.062419891357422,12.589836120605469,-2.379662036895752
1747979708021470700,9.108470703125,-1.4315061569213867,-5.624927997589111,-1.2287144660949707
1747979708039735300,9.1267353515625,-30.558738708496094,-7.371089935302734,-8.150551795959473
1747979708058003000,9.1450029296875,-21.781267166137695,-7.75753116607666,-13.813765525817871
1747979708076268000,9.16326806640625,-12.703495025634766,-11.896515846252441,-6.512664794921875
1747979708094533400,9.181533447265625,-3.912863254547119,-13.63729476928711,-3.205185890197754
1747979708112799500,9.199799560546875,-10.02173900604248,-19.672592163085938,1.2329018115997314
1747979708131064800,9.21806494140625,-1.210768222808838,-11.556137084960938,4.835894584655762
1747979708149331000,9.2363310546875,16.088741302490234,-14.233705520629883,-8.353343963623047
1747979708167596300,9.25459619140625,8.069794654846191,-23.610578536987305,-8.057231903076172
1747979708185861000,9.272861083984376,9.273384094238281,-37.7509651184082,-2.8809585571289062
1747979708204127200,9.291127197265626,6.891927242279053,-22.339990615844727,5.19541597366333
1747979708222390500,9.309390625,10.684551239013672,-16.226926803588867,11.513664245605469
1747979708240659000,9.327658935546875,15.986448287963867,-29.85405158996582,18.72383689880371
1747979708258924800,9.3459248046875,15.991233825683594,-30.12324333190918,32.148170471191406
1747979708277190100,9.364190185546875,11.10628604888916,-35.02254867553711,50.28815841674805
1747979708295456000,9.3824560546875,-117.67363739013672,-31.962726593017578,44.63391876220703
1747979708313721600,9.4007216796875,-12.705887794494629,-11.893525123596191,20.385652542114258
1747979708331986400,9.418986328125,5.72123908996582,-9.005388259887695,4.685744762420654
1747979708350254000,9.437254150390626,3.9152560234069824,-5.442475318908691,5.8953166007995605
1747979708368519400,9.45551953125,0.7597211599349976,-2.297708034515381,4.797011375427246
1747979708386785000,9.473784912109375,0.2799602448940277,0.41575294733047485,1.5020943880081177
1747979708405045200,9.492045166015625,-13.481163024902344,6.185446739196777,0.8847461938858032
1747979708423311400,9.510311279296875,-5.078765869140625,3.528815269470215,1.4943177700042725
1747979708441586200,9.528586181640625,1.4949159622192383,0.8889335989952087,-0.1788634955883026
1747979708459846100,9.54684619140625,1.9142581224441528,0.9577272534370422,-0.4618147611618042
1747979708478114600,9.565114501953126,1.399801254272461,1.1647064685821533,-0.49351966381073
1747979708496378600,9.583378662109375,0.9720842242240906,1.2143574953079224,0.19621145725250244
1747979708514644700,9.601644775390625,0.4815555512905121,0.8464609980583191,1.2484551668167114
1747979708532910000,9.61991015625,0.049651071429252625,-0.7190431952476501,1.0701899528503418
1747979708551175700,9.63817578125,-1.3956137895584106,-3.3553354740142822,7.325626373291016
1747979708569437200,9.656437255859375,-24.58804702758789,-23.666810989379883,38.54478454589844
1747979708587707400,9.674707275390626,-12.32363510131836,-69.44988250732422,42.60002136230469
1747979708605973000,9.692972900390625,-1.6295121908187866,-60.032928466796875,63.246490478515625
1747979708624238800,9.71123876953125,-15.160923957824707,-25.082763671875,21.500707626342773
1747979708642492200,9.7294921875,1.8472590446472168,-16.143177032470703,9.156135559082031
1747979708660765400,9.747765380859375,3.5330026149749756,-8.684749603271484,7.187440872192383
1747979708679029000,9.766029052734375,4.716253280639648,-0.6227321028709412,-0.08255238085985184
1747979708697302300,9.78430224609375,7.744370460510254,1.908276081085205,-1.439282774925232
1747979708715566600,9.802566650390625,7.301100254058838,0.28534409403800964,-2.4783661365509033
1747979708733831700,9.820831787109375,8.715258598327637,-3.1375887393951416,-4.194019794464111
1747979708752099300,9.839099365234375,14.209178924560547,-2.410768747329712,1.6923238039016724
1747979708770364000,9.857364013671875,18.232112884521484,-0.867398202419281,0.5760720372200012
1747979708788624400,9.875624267578125,22.556541442871094,6.534798622131348,-3.617349624633789
1747979708806895900,9.893895751953124,17.155941009521484,12.268599510192871,-7.437490940093994
1747979708825161000,9.912160888671876,0.8470591902732849,0.06340979784727097,-3.7322051525115967
1747979708843422200,9.930422119140625,-17.181663513183594,-4.8915276527404785,-4.474578380584717
1747979708861692000,9.94869189453125,-21.709482192993164,-5.108676433563232,-6.8895344734191895
1747979708879958500,9.96695849609375,-12.699906349182129,-6.801000118255615,-0.13938191533088684
1747979708898223400,9.985223388671875,-5.79780912399292,-9.756135940551758,-1.5840486288070679
1747979708916484600,10.003484619140625,-13.087543487548828,-17.696718215942383,-0.4265206456184387
1747979708934753300,10.021753173828126,-4.66361141204834,-20.851057052612305,3.744767427444458
1747979708953022200,10.040022216796874,7.057032108306885,-20.836101531982422,-7.137789726257324
1747979708971286500,10.05828662109375,0.47676992416381836,-37.436309814453125,-8.127222061157227
1747979708989552400,10.076552490234375,1.2598211765289307,-34.618160247802734,2.35872483253479
1747979709007818500,10.094818603515625,11.730215072631836,-12.474981307983398,0.02392822690308094
1747979709026082800,10.113082763671875,20.595623016357422,-10.795219421386719,4.889732837677002
1747979709044349200,10.13134912109375,21.41337013244629,-25.083959579467773,14.653047561645508
1747979709062615000,10.149614990234374,20.533409118652344,-28.70848846435547,36.26322555541992
1747979709080881200,10.167881103515626,18.398412704467773,-30.874589920043945,44.835514068603516
1747979709099145200,10.186145263671875,-36.91766357421875,-40.699520111083984,39.43730545043945
1747979709117407200,10.2044072265625,-42.65385818481445,-24.205196380615234,24.106491088867188
1747979709135677700,10.222677734375,3.7489547729492188,-11.464611053466797,8.163712501525879
1747979709153943300,10.240943359375,5.680561065673828,-7.417151927947998,6.591628074645996
1747979709172204500,10.25920458984375,1.191625714302063,-2.6937201023101807,6.182455539703369
1747979709190473500,10.277473388671876,-3.215355396270752,1.2065808773040771,1.9076778888702393
1747979709208757500,10.295757568359376,-8.34317398071289,4.969294548034668,1.5128620862960815
1747979709227005700,10.314005615234375,-5.8582282066345215,6.150152206420898,2.513660192489624
1747979709245272000,10.33227197265625,-0.9517452120780945,3.4809587001800537,2.2743778228759766
1747979709263532500,10.350532470703126,2.2091734409332275,2.2396819591522217,0.7591229677200317
1747979709281803300,10.36880322265625,1.3088740110397339,1.9441684484481812,0.24406790733337402
1747979709300067800,10.38706787109375,0.6317051649093628,1.9573289155960083,0.47976094484329224
1747979709318335000,10.4053349609375,0.2626122832298279,1.521835207939148,0.5132604837417603
1747979709336600300,10.423600341796876,-0.5341976284980774,0.08195417374372482,1.0869396924972534
1747979709354865000,10.441864990234375,-2.846860647201538,-2.410170555114746,2.179263114929199
1747979709373132300,10.46013232421875,-9.712467193603516,-8.485547065734863,15.03171157836914
1747979709391393000,10.47839306640625,-17.697914123535156,-28.583463668823242,37.2508659362793
1747979709409662700,10.496662841796875,-8.34018325805664,-76.24191284179688,44.44668197631836
1747979709427928800,10.5149287109375,-17.082958221435547,-60.31707763671875,71.2092056274414
1747979709446193000,10.53319287109375,-13.028321266174316,-23.47478675842285,16.859230041503906
1747979709464461300,10.55146142578125,3.583850145339966,-10.546365737915039,9.332606315612793
1747979709482726000,10.569725830078125,2.2127628326416016,-2.4370899200439453,5.6069817543029785
1747979709500988400,10.587988525390625,4.583451747894287,4.527220249176025,-0.29012975096702576
1747979709519259600,10.606259765625,5.154139995574951,2.7086751461029053,-1.872383713722229
1747979709537523000,10.62452294921875,6.252445697784424,-0.04666004329919815,-1.3094722032546997
1747979709555788300,10.642788330078124,15.501303672790527,-4.241278171539307,0.18484555184841156
1747979709574052900,10.661052978515626,31.645078659057617,-1.6378871202468872,12.287144660949707
1747979709592304400,10.679304443359374,24.786651611328125,1.0546365976333618,1.430309772491455
1747979709610585600,10.697585693359375,16.444074630737305,5.353342533111572,-2.65842604637146
1747979709628849400,10.715849365234375,11.411371231079102,7.328019142150879,-6.0263237953186035
1747979709647117600,10.73411767578125,1.140179991722107,-4.707878589630127,-4.935196876525879
1747979709665385500,10.752385498046875,-18.390037536621094,-10.326824188232422,-9.372088432312012
1747979709683648500,10.7706484375,-25.22573471069336,-10.571490287780762,-12.3278226852417
1747979709701912000,10.788912109375,-19.828723907470703,-9.682557106018066,3.899104595184326
1747979709720177400,10.807177490234375,-8.356932640075684,-13.23410415649414,1.9698911905288696
1747979709738440400,10.8254404296875,-2.892324447631836,-16.016956329345703,-1.800000786781311
1747979709756704500,10.84370458984375,0.9696913957595825,-18.652650833129883,-1.3818551301956177
1747979709774972000,10.861971923828126,3.662813186645508,-15.592828750610352,-4.167100429534912
1747979709793242000,10.8802421875,-5.8683977127075195,-28.63251495361328,-9.033503532409668
1747979709811507700,10.8985078125,0.11545369029045105,-30.628129959106445,0.5306084156036377
1747979709829773600,10.916773681640626,11.055438995361328,-27.54737091064453,4.164707660675049
1747979709848039400,10.935039306640626,17.58425521850586,-12.712468147277832,8.428119659423828
1747979709866304500,10.953304443359375,21.712472915649414,-16.547565460205078,17.582460403442383
1747979709884570000,10.971570068359375,18.29432487487793,-30.731618881225586,24.451656341552734
1747979709902835200,10.989835205078125,14.681163787841797,-28.981868743896484,42.47858428955078
1747979709921103000,11.00810302734375,13.3770751953125,-28.40878677368164,35.73381423950195
1747979709939367700,11.02636767578125,-131.756591796875,-46.05585479736328,36.80580139160156
1747979709957633300,11.04463330078125,-9.500701904296875,-18.67717742919922,22.09532356262207
1747979709975899000,11.06289892578125,5.605785369873047,-9.183652877807617,8.220541954040527
1747979709994164000,11.0811640625,3.8733816146850586,-3.806980848312378,9.379864692687988
1747979710012426800,11.0994267578125,1.0354939699172974,-0.882951557636261,5.86002254486084
1747979710030690800,11.11769091796875,0.9272187948226929,2.132004976272583,1.7994025945663452
1747979710048960500,11.13596044921875,-16.506887435913086,9.079565048217773,2.4598217010498047
1747979710067228400,11.154228515625,-2.259422779083252,6.806982040405273,0.97148597240448
1747979710085493000,11.172492919921876,2.695514678955078,3.814159393310547,-0.11964113265275955
1747979710103758600,11.190758544921875,2.3599212169647217,2.5088746547698975,-0.5180460810661316
1747979710122025000,11.20902490234375,1.700698733329773,1.5427724123001099,-0.9337990283966064
1747979710140287500,11.22728759765625,0.6747759580612183,0.5312066078186035,-1.0097711086273193
1747979710158558700,11.245558837890625,-2.9970104694366455,-1.170688509941101,-0.4253242313861847
1747979710176821200,11.2638212890625,-4.685744762420654,-3.6221351623535156,1.9854445457458496
1747979710195087400,11.28208740234375,-2.366501569747925,-4.291527271270752,6.379265308380127
1747979710213353000,11.30035302734375,-23.298315048217773,-23.89472770690918,40.9669189453125
1747979710231618600,11.31861865234375,-19.563119888305664,-80.71649169921875,53.59025573730469
1747979710249884000,11.3368837890625,-16.234106063842773,-60.22914123535156,65.05725860595703
1747979710268149800,11.355149658203125,-11.288739204406738,-20.481365203857422,16.472190856933594
1747979710286410500,11.373410400390625,5.613562107086182,-10.480563163757324,7.716254711151123
1747979710304680000,11.391679931640626,8.177471160888672,-6.725626468658447,7.419544696807861
1747979710322947800,11.40994775390625,6.058627128601074,-0.10887342691421509,5.0566325187683105
1747979710341213000,11.428212890625,5.251647472381592,1.0265209674835205,-2.2911276817321777
1747979710359478500,11.446478515625,3.6544384956359863,-1.9166508913040161,-4.400999069213867
1747979710377744000,11.464743896484375,3.170490026473999,-3.0490541458129883,-3.4546377658843994
1747979710396009200,11.48300927734375,8.601000785827637,-3.6329028606414795,2.204986095428467
1747979710414275600,11.501275634765625,19.266408920288086,-2.3952155113220215,4.163511276245117
1747979710432540700,11.519540771484374,22.72762680053711,1.3286148309707642,-1.3818551301956177
1747979710450806800,11.537806884765626,20.68116569519043,4.275375843048096,-9.241081237792969
1747979710469072000,11.55607177734375,8.034500122070312,3.5096726417541504,-8.147561073303223
1747979710487323600,11.57432373046875,-0.31764721870422363,-0.5706881880760193,-0.8464609980583191
1747979710505603800,11.592603759765625,-13.555938720703125,-5.501697540283203,-2.6081767082214355
1747979710523868400,11.610868408203125,-22.504497528076172,-6.066403388977051,-0.8584251403808594
1747979710542128000,11.629128173828125,-12.376874923706055,-7.950751304626465,2.933600664138794
1747979710560396800,11.647396728515625,-5.542375564575195,-14.093725204467773,0.6143572330474854
1747979710578662000,11.665661865234375,-12.439088821411133,-16.98006820678711,5.623133182525635
1747979710596933000,11.68393310546875,2.7930221557617188,-14.92822265625,-3.6047873497009277
1747979710615197400,11.702197509765625,7.992625713348389,-29.16372299194336,-18.438493728637695
1747979710633459000,11.720458984375,1.2652050256729126,-38.91148376464844,-5.663212776184082
1747979710651729000,11.73872900390625,4.417748928070068,-30.813573837280273,3.012563705444336
1747979710669994800,11.756994873046875,4.360321044921875,-12.381062507629395,4.105485439300537
1747979710688260000,11.775260009765624,16.78864097595215,-11.486146926879883,12.66461181640625
1747979710706526500,11.7935263671875,27.539594650268555,-29.26422119140625,36.27579116821289
1747979710724791800,11.811791748046875,17.300107955932617,-38.88037872314453,30.994829177856445
1747979710743057400,11.830057373046875,9.4390869140625,-32.64767074584961,42.50909423828125
1747979710761323000,11.848322998046875,-43.266422271728516,-36.555152893066406,40.734214782714844
1747979710779588900,11.8665888671875,-34.496726989746094,-22.09233283996582,23.828325271606445
1747979710797852000,11.884851806640626,1.688734531402588,-7.9585280418396,7.341179847717285
1747979710816120000,11.9031201171875,2.562713146209717,-4.865206718444824,8.24267578125
1747979710834374700,11.921374755859375,1.9166508913040161,-1.6319050788879395,8.152944564819336
1747979710852651500,11.939651611328125,-4.735395908355713,3.370290756225586,1.5170495510101318
1747979710870916600,11.95791650390625,-5.026721954345703,6.355337142944336,2.4735803604125977
1747979710889182700,11.9761826171875,-0.31106695532798767,5.5106706619262695,1.5439687967300415
1747979710907451400,11.994451416015625,0.31824541091918945,5.103890895843506,1.719243049621582
1747979710925714400,12.01271435546875,0.6502495408058167,4.693521499633789,1.5553346872329712
1747979710943979500,12.0309794921875,1.3088740110397339,3.7543387413024902,1.0737791061401367
1747979710962245400,12.049245361328126,1.337587833404541,2.8043880462646484,0.6849454641342163
1747979710980510700,12.0675107421875,0.7244270443916321,2.004587173461914,1.2305090427398682
1747979710998772000,12.08577197265625,-0.12442677468061447,0.6885347366333008,1.6995022296905518
1747979711017042200,12.104042236328125,-0.349352091550827,-1.2873386144638062,0.836291491985321
1747979711035308000,12.12230810546875,-0.1621137410402298,-2.77866530418396,3.583850145339966
1747979711053573000,12.140572998046874,-16.603796005249023,-21.649063110351562,25.138994216918945
1747979711071838500,12.15883837890625,3.617947816848755,-103.1868896484375,52.522457122802734
1747979711090106400,12.1771064453125,-11.59681510925293,-53.017173767089844,52.68935775756836
1747979711108371200,12.19537109375,-14.764911651611328,-19.016359329223633,15.91286849975586
1747979711126636300,12.21363623046875,-0.9038887619972229,-10.86700439453125,9.719645500183105
1747979711144897800,12.231897705078126,1.4434702396392822,-4.029513359069824,6.002993583679199
1747979711163168000,12.25016796875,3.837489366531372,0.13698910176753998,0.537188708782196
1747979711181429800,12.2684296875,4.934598445892334,-0.5395814776420593,-2.445464849472046
1747979711199698400,12.286698486328126,6.605985164642334,-1.4261223077774048,-2.723032236099243
1747979711217965300,12.30496533203125,11.480164527893066,-4.039084434509277,-4.30169677734375
1747979711236230400,12.32323046875,10.507482528686523,-2.252842426300049,-2.9383862018585205
1747979711254496300,12.341496337890625,20.71526336669922,3.2853455543518066,-3.641875982284546
1747979711272761300,12.35976123046875,21.693330764770508,8.03210735321045,-11.150553703308105
1747979711291027700,12.37802783203125,9.127422332763672,13.088141441345215,-2.6841487884521484
1747979711309292300,12.396292236328126,0.794417142868042,0.3116651475429535,-2.406581401824951
1747979711327559700,12.4145595703125,-3.820141315460205,-3.978067636489868,-8.113463401794434
1747979711345823000,12.432822998046875,-12.877573013305664,-4.354339122772217,-11.638091087341309
1747979711364090000,12.451090087890625,-12.241082191467285,-5.959922790527344,-4.974678039550781
1747979711382356700,12.469356689453125,-6.74656343460083,-6.102894306182861,-1.0504491329193115
1747979711400616400,12.487616455078125,-3.90987229347229,-9.637093544006348,-2.6877379417419434
1747979711418885600,12.5058857421875,-15.170495986938477,-18.6317138671875,0.5377869009971619
1747979711437154300,12.524154296875,7.9627156257629395,-26.445476531982422,-17.654844284057617
1747979711455413800,12.542413818359375,-7.276573657989502,-45.284767150878906,-7.274778842926025
1747979711473684200,12.560684326171875,5.721837043762207,-35.17987823486328,4.4380879402160645
1747979711491949600,12.578949462890625,9.7938232421875,-9.984052658081055,4.460221290588379
1747979711510216000,12.5972158203125,15.052050590515137,-7.926225185394287,9.507282257080078
1747979711528481300,12.615481201171875,27.181867599487305,-27.04607391357422,21.931415557861328
1747979711565012200,12.65201220703125,19.2388916015625,-32.12723159790039,35.687156677246094
1747979711583279600,12.670279541015624,-26.88276481628418,-42.72983169555664,46.37110900878906
1747979711601542400,12.68854248046875,-57.53900909423828,-24.162124633789062,25.827529907226562
1747979711619807500,12.706807373046875,3.888935089111328,-10.813763618469238,9.441479682922363
1747979711638077000,12.725076904296875,7.17069149017334,-6.416952133178711,7.354938507080078
1747979711656333000,12.7433330078125,1.7186448574066162,-2.547757863998413,8.520243644714355
1747979711674608400,12.7616083984375,0.4863412082195282,0.924227774143219,4.78803825378418
1747979711692873000,12.779873046875,-4.46560525894165,4.594817638397217,2.489133834838867
1747979711711138600,12.798138671875,-9.005986213684082,5.8372907638549805,2.2187447547912598
1747979711729398800,12.816398681640624,0.4414757788181305,3.297907829284668,0.5156532526016235
1747979711747669000,12.8346689453125,2.3060827255249023,2.228914260864258,-0.4462614357471466
1747979711765934800,12.852934814453125,2.1469600200653076,1.1940184831619263,-1.5188441276550293
1747979711784199000,12.871198974609374,1.5146567821502686,0.7926225066184998,-1.6612170934677124
1747979711802467600,12.889467529296875,0.745364248752594,0.21236300468444824,-0.9385846853256226
1747979711823019500,12.91001953125,-0.4175475537776947,-1.4488540887832642,0.5300102233886719
1747979711841282300,12.9282822265625,-6.257829189300537,-3.66520619392395,3.200998544692993
1747979711859547100,12.946547119140625,-19.805992126464844,-15.144174575805664,21.117856979370117
1747979711877813200,12.964813232421875,-28.56611442565918,-46.012184143066406,40.39802551269531
1747979711896079600,12.98307958984375,9.590433120727539,-71.14818572998047,61.30830383300781
1747979711914344400,13.001344482421874,-21.156740188598633,-29.971899032592773,46.248477935791016
1747979711932605200,13.019605224609375,1.069591760635376,-15.130415916442871,19.51047706604004
1747979711950875100,13.037875244140626,4.444069862365723,-7.311867713928223,9.956535339355469
1747979711969138400,13.056138427734375,8.665008544921875,-1.7030915021896362,0.3595215976238251
1747979711987407000,13.074406982421875,12.527024269104004,0.7339983582496643,-1.3537393808364868
1747979712005672700,13.092672607421875,12.240484237670898,0.24825534224510193,0.9511470198631287
1747979712023938600,13.1109384765625,12.951750755310059,0.623330295085907,2.472982168197632
1747979712042205200,13.129205078125,18.982860565185547,-0.8087740540504456,2.727219581604004
1747979712060469800,13.1474697265625,19.915462493896484,-1.3938192129135132,-2.38265323638916
1747979712078735400,13.1657353515625,18.284753799438477,-1.4093725681304932,-10.448260307312012
1747979712097000700,13.184000732421875,-5.85284423828125,-2.9904301166534424,-17.441883087158203
1747979712115267000,13.20226708984375,-16.363916397094727,-0.46719861030578613,-8.96829891204834
1747979712133533400,13.220533447265625,-13.821541786193848,-1.412961721420288,-10.545767784118652
1747979712151797000,13.238796875,-9.978070259094238,-2.186441659927368,-6.595815658569336
1747979712170064100,13.257064208984374,-5.977869033813477,-4.599603176116943,-1.2394821643829346
1747979712188325600,13.27532568359375,-4.454837322235107,-8.571688652038574,-1.5272190570831299
1747979712206594300,13.29359423828125,-14.388042449951172,-19.202402114868164,2.703291416168213
1747979712224861400,13.311861328125,-2.730808734893799,-30.662826538085938,-8.37547779083252
1747979712243121400,13.330121337890626,8.38265609741211,-63.83452606201172,-2.0931215286254883
1747979712261393400,13.348393310546875,1.2837493419647217,-29.936006546020508,8.719446182250977
1747979712279657700,13.36665771484375,8.447860717773438,-7.351947784423828,3.0340991020202637
1747979712297922800,13.3849228515625,19.038494110107422,-7.301100254058838,6.536593437194824
1747979712316189000,13.40318896484375,22.416561126708984,-21.611974716186523,16.612171173095703
1747979712334455800,13.421455810546876,15.30030632019043,-32.01237869262695,28.345975875854492
1747979712352720100,13.43972021484375,18.275182723999023,-39.27280044555664,42.723846435546875
1747979712370985700,13.45798583984375,-45.07180404663086,-40.16472625732422,38.9413948059082
1747979712389251600,13.47625146484375,-52.93461990356445,-25.115066528320312,24.520450592041016
1747979712407517000,13.494516845703124,3.4582269191741943,-9.88415241241455,10.088140487670898
1747979712425784300,13.512784423828125,6.706483840942383,-8.286943435668945,5.628517150878906
1747979712444043300,13.531043212890625,2.410768747329712,-2.9461629390716553,5.6590256690979
1747979712462314200,13.549314208984375,-0.9266205430030823,1.0354939699172974,3.036491870880127
1747979712480581000,13.5675810546875,-3.6323046684265137,1.8287147283554077,0.14356936514377594
1747979712498846000,13.585845947265625,-10.27059268951416,5.498108386993408,0.09092725813388824
1747979712517107200,13.604107177734376,-4.956732273101807,3.4504501819610596,-0.026919255033135414
1747979712535372000,13.6223720703125,2.668595552444458,1.9357935190200806,-1.2783654928207397
1747979712553643800,13.640643798828124,2.132004976272583,1.114457130432129,-0.7746763229370117
1747979712581041000,13.668041015625,0.13459627330303192,1.2065808773040771,0.4941178858280182
1747979712599306500,13.686306396484374,-0.39481574296951294,0.9541380405426025,0.9690931439399719
1747979712617571800,13.70457177734375,-0.47976094484329224,-0.020937198773026466,1.6402798891067505
1747979712635838700,13.722838623046876,-1.4434702396392822,-2.6973092555999756,4.7126641273498535
1747979712654107600,13.741107666015624,-10.483553886413574,-16.81436538696289,26.948566436767578
1747979712672368600,13.75936865234375,-7.46919584274292,-50.756553649902344,28.968708038330078
1747979712690623500,13.77762353515625,14.572888374328613,-82.23233795166016,28.051658630371094
1747979712708900600,13.795900634765625,-16.229320526123047,-32.79124069213867,35.92224884033203
1747979712727170000,13.814170166015625,-13.463814735412598,-17.099708557128906,19.463817596435547
1747979712745427000,13.832427001953125,-2.035095691680908,-10.444072723388672,13.815559387207031
1747979712763697200,13.850697265625,0.33499518036842346,-4.805386066436768,5.660222053527832
1747979712781963500,13.868963623046875,6.177670001983643,-1.8909281492233276,-1.3004990816116333
1747979712800229400,13.8872294921875,7.360920429229736,-1.6157535314559937,-2.441277265548706
1747979712818494500,13.905494384765625,12.689138412475586,-2.3365912437438965,-1.9645073413848877
1747979712836747300,13.923747314453125,23.352153778076172,-5.018945693969727,-3.1962127685546875
1747979712855014000,13.942013916015625,24.245275497436523,1.3866406679153442,2.503490686416626
1747979712873293000,13.96029296875,24.643680572509766,6.607181549072266,-2.490330219268799
1747979712891556400,13.978556396484375,11.011770248413086,9.635298728942871,-1.0007981061935425
1747979712909823700,13.99682373046875,3.497110366821289,3.8763725757598877,-1.4033905267715454
1747979712928088800,14.0150888671875,2.6458635330200195,-3.7435710430145264,-4.526023864746094
1747979712946348000,14.03334814453125,-3.8943188190460205,-8.787641525268555,-10.217950820922852
1747979712964621300,14.051621337890625,-30.788448333740234,-12.519845962524414,-18.018552780151367
1747979712982884900,14.069884765625,-17.800806045532227,-13.94955825805664,-5.5106706619262695
1747979713001147000,14.08814697265625,-6.574878215789795,-17.651254653930664,-2.4293131828308105
1747979713019416000,14.106416015625,-10.475179672241211,-22.847867965698242,-0.6610172390937805
1747979713037683000,14.124682861328125,-8.960522651672363,-46.132423400878906,-9.927821159362793
1747979713055948300,14.1429482421875,-7.058228492736816,-44.34797668457031,2.3300111293792725
1747979713074214000,14.1612138671875,6.940980434417725,-20.209779739379883,8.954540252685547
1747979713092479200,14.179479248046874,36.58625793457031,-5.605785369873047,11.171490669250488
1747979713110744600,14.19774462890625,22.101903915405273,-5.342574596405029,4.744369029998779
1747979713129010700,14.2160107421875,12.439088821411133,-15.165111541748047,4.361517429351807
1747979713147276000,14.234276123046875,12.635299682617188,-22.176679611206055,25.147369384765625
1747979713165541600,14.252541748046875,7.176074981689453,-28.941190719604492,35.48855209350586
1747979713183807500,14.270807373046875,14.697315216064453,-34.00081253051758,31.77189826965332
1747979713202061300,14.289061279296876,-56.569915771484375,-43.601417541503906,42.567718505859375
1747979713220339200,14.307339111328124,-27.72144889831543,-24.6741886138916,23.543581008911133
1747979713238592500,14.325592529296875,2.825923442840576,-10.794022560119629,9.44746208190918
1747979713256870400,14.343870361328126,2.6111676692962646,-5.990431308746338,8.25822925567627
1747979713275123200,14.362123291015624,0.48035913705825806,-1.4297115802764893,5.42871618270874
1747979713293402000,14.380402099609375,1.765903115272522,2.575275421142578,1.3130614757537842
1747979713311667000,14.3986669921875,-14.450854301452637,8.37846851348877,3.029911756515503
1747979713355047400,14.44204736328125,1.7772690057754517,4.208376884460449,0.5808576941490173
1747979713373312500,14.4603125,1.2675977945327759,2.4813570976257324,-0.017946170642971992
1747979713391578400,14.478578369140624,1.2239288091659546,1.4452649354934692,-0.6747759580612183
1747979713409842700,14.4968427734375,0.9475577473640442,0.6963114142417908,-0.97148597240448
1747979713430394400,14.517394287109376,0.6269195079803467,-0.7597211599349976,0.8536394834518433
1747979713448659700,14.53565966796875,-0.6526423692703247,-1.5966109037399292,0.9308080077171326
1747979713476058000,14.56305810546875,-24.910480499267578,-17.652450561523438,26.194229125976562
1747979713494323500,14.581323486328126,-21.00718879699707,-82.99146270751953,41.32284927368164
1747979713512588800,14.5995888671875,4.381258487701416,-70.66364288330078,61.47340774536133
1747979713530855200,14.617855224609375,-20.012969970703125,-26.842683792114258,30.317062377929688
1747979713549116400,14.636116455078126,-1.2400803565979004,-15.251253128051758,11.575279235839844
1747979713567386400,14.654386474609375,6.894320011138916,-10.447063446044922,6.034100532531738
1747979713585649400,14.6726494140625,5.580660820007324,-5.462215900421143,-1.1276177167892456
1747979713603920000,14.690919921875,6.558726787567139,-2.1846470832824707,-4.489533424377441
1747979713622183200,14.70918310546875,6.0777692794799805,-1.067797064781189,-3.1519455909729004
1747979713640449000,14.727448974609375,8.538787841796875,-2.7014968395233154,-3.671786308288574
1747979713658714600,14.745714599609375,16.890336990356445,-2.142174482345581,0.5186443328857422
1747979713676980200,14.763980224609375,26.593233108520508,1.8113667964935303,-2.6632115840911865
1747979713695236000,14.782236083984374,24.356542587280273,9.406784057617188,-9.985847473144531
1747979713713511400,14.800511474609374,11.868998527526855,16.24188232421875,-7.004390239715576
1747979713731776800,14.81877685546875,-8.782257080078125,0.03529413416981697,-5.624329566955566
1747979713750043600,14.837043701171876,-16.124034881591797,-2.77866530418396,-6.526423931121826
1747979713768308500,14.85530859375,-14.360525131225586,-3.99900484085083,-9.078369140625
1747979713786573600,14.873573486328125,-9.608379364013672,-4.6785664558410645,-2.550748825073242
1747979713804840400,14.89184033203125,-5.14576530456543,-6.49770975112915,0.5479564070701599
1747979713823105800,14.910105712890624,-1.1204391717910767,-9.80518913269043,-2.5561327934265137
1747979713841371100,14.92837109375,-1.2251251935958862,-12.477972030639648,-3.972683906555176
1747979713859624400,14.94662451171875,-1.074377417564392,-17.728422164916992,0.372682124376297
1747979713877890800,14.964890869140625,5.589633464813232,-23.950359344482422,-6.392425537109375
1747979713896157000,14.983156982421875,9.722636222839355,-63.69454574584961,-7.874779224395752
1747979713914434000,15.00143408203125,0.607776939868927,-47.5567512512207,3.5874392986297607
1747979713932699100,15.01969921875,1.2346965074539185,-15.151352882385254,4.4243292808532715
1747979713950964700,15.03796484375,10.686944007873535,-10.269994735717773,9.952945709228516
1747979713969230600,15.056230712890626,21.838096618652344,-20.593828201293945,20.78944206237793
1747979713987496200,15.07449609375,31.952556610107422,-25.926233291625977,35.8438835144043
1747979714005762000,15.092761962890625,-7.655237674713135,-32.63869857788086,55.97709655761719
1747979714024027400,15.11102734375,-59.67460250854492,-21.746570587158203,25.185056686401367
1747979714042293200,15.129293212890625,-7.782057285308838,-11.041081428527832,13.442877769470215
1747979714060557600,15.1475576171875,2.7571299076080322,-9.558130264282227,1.3028919696807861
1747979714078825500,15.165825439453124,4.012165546417236,-5.68175745010376,4.624728202819824
1747979714097090300,15.18409033203125,2.1678972244262695,-2.32761812210083,3.4025938510894775
1747979714115350800,15.202350830078124,1.649253010749817,1.3680963516235352,1.439282774925232
1747979714133620700,15.220620849609375,0.048454657196998596,4.266402721405029,2.4598217010498047
1747979714151887400,15.238887451171875,-2.775076150894165,8.158926963806152,3.8847475051879883
1747979714170148900,15.25714892578125,-0.35114672780036926,7.380661487579346,3.955335855484009
1747979714188418300,15.275418212890624,0.08973085135221481,6.774679183959961,4.323830604553223
1747979714206684200,15.29368408203125,0.7160521745681763,5.6207404136657715,4.417748928070068
1747979714224949800,15.31194970703125,-0.3397808074951172,3.3822548389434814,4.103092670440674
1747979714243215400,15.33021533203125,-1.3130614757537842,1.3046865463256836,3.0580272674560547
1747979714261481000,15.34848095703125,-0.12622138857841492,0.2021935135126114,3.207578659057617
1747979714279746300,15.366746337890625,0.29312077164649963,-1.49611234664917,3.411566972732544
1747979714298011600,15.38501171875,0.5700899958610535,-5.550750255584717,8.003992080688477
1747979714316265700,15.403265625,-5.7032928466796875,-36.62274932861328,25.819154739379883
1747979714334542800,15.42154296875,11.391032218933105,-91.31130981445312,48.11607360839844
1747979714352806000,15.439805908203125,-15.244672775268555,-37.101314544677734,37.56671905517578
1747979714371070000,15.458070068359374,-28.1431827545166,-17.60698699951172,18.68914031982422
1747979714389339400,15.47633935546875,-11.69432258605957,-15.634702682495117,10.52662467956543
1747979714407606500,15.4946064453125,-0.9984052777290344,-12.686745643615723,3.920041799545288
1747979714425871600,15.51287158203125,7.614559650421143,-7.87059211730957,0.9864411354064941
1747979714444126200,15.531126220703126,12.6347017288208,-4.914259433746338,-1.3938192129135132
1747979714462402600,15.549402587890626,13.188041687011719,-4.330410957336426,-3.6747772693634033
1747979714480668700,15.567668701171876,15.458232879638672,-4.063611030578613,-4.770689964294434
1747979714498934000,15.58593408203125,16.727025985717773,1.8873388767242432,-4.474578380584717
1747979714517200000,15.604199951171875,16.304096221923828,7.843074321746826,-7.871190071105957
1747979714535465200,15.62246533203125,2.534597396850586,10.384251594543457,0.2356930375099182
1747979714553731300,15.6407314453125,2.270190477371216,0.8470591902732849,-4.3417768478393555
1747979714581124900,15.668124755859376,2.750549554824829,-2.50289249420166,-7.82273530960083
1747979714599395600,15.6863955078125,-4.298107624053955,-5.143372058868408,-12.906885147094727
1747979714617661400,15.704661376953124,-16.561323165893555,-7.595417499542236,-8.01236629486084
1747979714635926500,15.722926513671876,-5.785246849060059,-9.856036186218262,-4.776073932647705
1747979714654192400,15.7411923828125,-4.756333351135254,-13.264612197875977,-5.377869129180908
1747979714672454000,15.759453857421875,6.486942291259766,-18.870397567749023,-11.83609676361084
1747979714690722600,15.77772265625,-8.754141807556152,-36.7998161315918,-17.522640228271484
1747979714708989400,15.795989501953125,5.888736724853516,-33.0795783996582,-2.3324038982391357
1747979714727254800,15.8142548828125,7.34177827835083,-20.554346084594727,0.34636107087135315
1747979714745521400,15.832521484375,9.769296646118164,-10.130613327026367,0.745364248752594
1747979714763786000,15.850785888671876,21.88056755065918,-18.023338317871094,14.742778778076172
1747979714782051600,15.869051513671875,17.90788459777832,-35.36831283569336,24.534807205200195
1747979714800317400,15.8873173828125,16.587644577026367,-37.63251876831055,29.912675857543945
1747979714818583300,15.905583251953125,10.412367820739746,-34.01218032836914,37.37828063964844
1747979714836849000,15.923848876953125,-91.11151123046875,-36.427734375,36.68556213378906
1747979714855109400,15.942109375,-32.470603942871094,-23.023738861083984,18.764514923095703
1747979714873379800,15.9603798828125,6.415157318115234,-14.83071517944336,4.415954113006592
1747979714891630300,15.97863037109375,6.672386169433594,-9.399007797241211,2.3431715965270996
1747979714919045400,16.00604541015625,0.9720842242240906,-0.397208571434021,4.075575351715088
1747979714962420200,16.049420166015626,-10.883753776550293,6.887141704559326,3.630510091781616
1747979714980689200,16.067689208984376,0.5892325639724731,3.0454649925231934,0.768694281578064
1747979714998954500,16.08595458984375,1.5337992906570435,1.9196419715881348,0.33918261528015137
1747979715017220400,16.104220458984376,1.6456637382507324,2.1756739616394043,0.8799605369567871
1747979715035486500,16.122486572265625,0.6711867451667786,1.866999864578247,0.9960124492645264
1747979715053751600,16.14075146484375,-0.15732808411121368,1.3722838163375854,0.8297112584114075
1747979715072017400,16.159017333984377,-0.3158525824546814,0.8458628058433533,1.2502498626708984
1747979715090283300,16.177283203125,-0.35473597049713135,-0.6406782865524292,1.3154542446136475
1747979715108548600,16.195548583984376,-0.15912270545959473,-1.953141450881958,1.5906288623809814
1747979715126815000,16.21381494140625,0.13579268753528595,-6.9236321449279785,10.52662467956543
1747979715145061000,16.23206103515625,-15.005989074707031,-40.83531188964844,43.0050048828125
1747979715163345700,16.250345703125,17.05185317993164,-82.57571411132812,65.13442993164062
1747979715181610200,16.2686103515625,-66.02276611328125,-41.598026275634766,37.84967041015625
1747979715199879400,16.28687939453125,-19.363916397094727,-20.350955963134766,9.894919395446777
1747979715218140400,16.305140380859374,0.4456632137298584,-15.534204483032227,7.156334400177002
1747979715236403500,16.323403564453123,11.380264282226562,-10.314262390136719,5.408377170562744
1747979715254669300,16.34166943359375,10.569695472717285,-3.4337005615234375,0.8141579031944275
1747979715272938200,16.359938232421875,7.925626754760742,-0.7525427341461182,-1.3142578601837158
1747979715291206000,16.378205810546874,7.573283672332764,-0.4097708761692047,-3.1830523014068604
1747979715309470700,16.396470703125,9.449854850769043,-1.2029916048049927,-3.7812578678131104
1747979715327736600,16.414736572265625,9.014361381530762,0.5288137793540955,-3.0652058124542236
1747979715346002000,16.433001953125,13.527822494506836,6.26141881942749,-0.10648060590028763
1747979715364267300,16.451267333984376,22.852054595947266,18.054445266723633,-1.3106685876846313
1747979715382533400,16.469533447265626,8.197212219238281,11.416156768798828,-1.685145378112793
1747979715400799000,16.487799072265624,-0.29371899366378784,-1.4273186922073364,-3.3822548389434814
1747979715419064300,16.506064208984377,-8.688937187194824,-4.79102897644043,-8.514859199523926
1747979715437329200,16.5243291015625,-15.550355911254883,-5.840879917144775,-7.387241840362549
1747979715455597000,16.54259716796875,-8.862417221069336,-6.055635929107666,-1.6390835046768188
1747979715473860900,16.56086083984375,-7.162914752960205,-9.201001167297363,3.150151014328003
1747979715492128000,16.5791279296875,-25.610979080200195,-17.760128021240234,12.188440322875977
1747979715510388700,16.597388671875,-0.3128615617752075,-23.086551666259766,-8.941978454589844
1747979715528653800,16.61565380859375,9.113663673400879,-55.79523849487305,-9.343972206115723
1747979715546924000,16.633924072265625,3.039483070373535,-40.4925422668457,3.589832067489624
1747979715565189400,16.652189453125,7.8388872146606445,-16.41356658935547,0.3188436031341553
1747979715601720800,16.688720947265626,15.562918663024902,-13.468600273132324,6.896114826202393
1747979715619987000,16.706987060546876,17.605791091918945,-29.93122100830078,22.843080520629883
1747979715638252000,16.725251953125,17.42752456665039,-36.15555191040039,37.373497009277344
1747979715656517600,16.743517578125,7.670791149139404,-37.67858123779297,43.844886779785156
1747979715674783500,16.761783447265625,-66.76932525634766,-28.941190719604492,43.39802551269531
1747979715693049300,16.78004931640625,-34.32384490966797,-10.930414199829102,21.902103424072266
1747979715711314400,16.798314453125,2.0518453121185303,-5.453242778778076,5.3353962898254395
1747979715729580300,16.816580322265626,6.241677761077881,-4.88853645324707,5.704489231109619
1747979715747844900,16.834844970703124,2.145763635635376,-0.5742774605751038,6.389434814453125
1747979715766108200,16.853108154296876,1.1353943347930908,2.5920250415802,2.1439690589904785
1747979715784376300,16.871376220703127,1.9286150932312012,5.323431968688965,0.15672987699508667
1747979715802644200,16.889644287109373,-2.748156785964966,5.303092956542969,0.778863787651062
1747979715820908500,16.907908447265626,-8.301300048828125,5.614160060882568,-0.07896314561367035
1747979715839174700,16.926174560546876,-0.25304099917411804,2.963510751724243,0.17228323221206665
1747979715857435400,16.944435302734377,0.6699903607368469,1.272383451461792,-0.4205385744571686
1747979715875705600,16.96270556640625,0.2267199456691742,0.5000999569892883,-0.6879364848136902
1747979715921369900,17.008369873046874,0.020937198773026466,-0.8805587291717529,1.194616675376892
1747979715939635200,17.02663525390625,-1.358525037765503,-3.972683906555176,7.817351341247559
1747979715957900800,17.04490087890625,-17.781064987182617,-28.527830123901367,43.8466796875
1747979715976166100,17.063166259765627,-6.270391941070557,-67.78447723388672,28.690542221069336
1747979715994427100,17.08142724609375,21.576082229614258,-61.83293151855469,36.25664520263672
1747979716012699000,17.099698974609375,-17.58425521850586,-25.015165328979492,29.483762741088867
1747979716030963500,17.11796337890625,-18.40858268737793,-15.39781379699707,17.107484817504883
1747979716049228500,17.136228515625,-5.327619552612305,-10.77129077911377,6.501298904418945
1747979716067489800,17.15448974609375,1.3010972738265991,-6.062814235687256,3.8530426025390625
1747979716085760300,17.17276025390625,3.4133615493774414,-1.8658034801483154,0.05742774158716202
1747979716104024600,17.191024658203126,5.011168956756592,-1.1240284442901611,-1.7150555849075317
1747979716122292500,17.20929248046875,5.24626350402832,-2.18045973777771,-3.218944549560547
1747979716149689300,17.236689453125,7.633702278137207,-4.343571186065674,-3.504288673400879
1747979716167956000,17.2549560546875,11.13021469116211,-1.7132610082626343,-1.0929217338562012
1747979716186208500,17.27320849609375,21.73759651184082,2.994617462158203,-4.854438781738281
1747979716204487000,17.29148681640625,14.004592895507812,5.163711071014404,-6.072983741760254
1747979716222739700,17.30973974609375,5.574678421020508,6.046064376831055,-3.260220766067505
1747979716241018400,17.328018310546874,3.8769710063934326,3.122035264968872,-5.523232936859131
1747979716259283000,17.346282958984375,0.24526432156562805,-0.36670008301734924,-5.295316696166992
1747979716277545000,17.364544921875,-14.322239875793457,-5.051248550415039,-2.4388844966888428
1747979716295812900,17.382812744140626,-23.853450775146484,-10.96869945526123,5.757131099700928
1747979716314080800,17.401080810546876,-18.0364990234375,-10.791629791259766,6.346961975097656
1747979716332347000,17.419346923828126,7.599604606628418,-11.477173805236816,-11.185847282409668
1747979716350612500,17.437612548828124,10.323833465576172,-29.757143020629883,-15.235101699829102
1747979716368878300,17.45587841796875,3.7537405490875244,-45.69274139404297,-5.912664890289307
1747979716387141400,17.474141357421875,4.369892120361328,-28.03131866455078,9.779465675354004
1747979716405403400,17.4924033203125,3.081955671310425,-10.98724365234375,6.09033203125
1747979716423675000,17.5106748046875,8.338987350463867,-14.464015007019043,9.761520385742188
1747979716441936100,17.52893603515625,18.708881378173828,-29.19004249572754,23.69731903076172
1747979716460209000,17.547208984375,13.6504545211792,-36.62992858886719,20.98146629333496
1747979716478471000,17.565470947265624,14.445469856262207,-25.822744369506836,29.460432052612305
1747979716496737300,17.5837373046875,-6.391827583312988,-25.9848575592041,30.10828971862793
1747979716515001900,17.602001953125,-83.61360168457031,-14.1918306350708,23.751157760620117
1747979716533268000,17.62026806640625,0.4097708761692047,-3.0484559535980225,10.804192543029785
1747979716551532300,17.6385322265625,6.573681831359863,-0.7722834944725037,3.8638103008270264
1747979716569801200,17.65680126953125,3.047259569168091,1.3483555316925049,3.2333016395568848
1747979716588061400,17.6750615234375,1.4063814878463745,6.245266914367676,5.391627788543701
1747979716606333700,17.693333740234376,-19.5816650390625,14.656637191772461,12.07777214050293
1747979716624591000,17.711591064453124,-2.38265323638916,6.215356826782227,4.12761926651001
1747979716642861000,17.729861083984375,0.841675341129303,0.39900317788124084,2.65842604637146
1747979716661128000,17.7481279296875,-4.377070903778076,-3.895515203475952,-0.17288143932819366
1747979716679389200,17.76638916015625,-7.83111047744751,-11.370095252990723,1.0630114078521729
1747979716697649000,17.78464892578125,-8.6033935546875,-20.666210174560547,13.950156211853027
1747979716715925000,17.802925048828126,-6.6592254638671875,-32.277381896972656,21.208784103393555
1747979716734188800,17.821188720703127,-9.081958770751953,-55.447086334228516,22.75035858154297
1747979716752456000,17.8394560546875,-1.1419745683670044,-45.16871643066406,59.18168258666992
1747979716770720800,17.857720703125,-4.261018753051758,-28.739595413208008,33.070003509521484
1747979716788987400,17.8759873046875,3.1244282722473145,-14.194822311401367,14.526825904846191
1747979716807252000,17.894251953125,2.6189444065093994,-7.341179847717285,5.928816318511963
1747979716825518300,17.912518310546876,8.030312538146973,-3.864408493041992,-0.28115665912628174
1747979716843783200,17.930783203125,10.85743236541748,-3.008974552154541,-1.3812568187713623
1747979716862049800,17.9490498046875,11.212766647338867,-5.5483574867248535,-3.867997884750366
1747979716880314400,17.967314453125,20.44009017944336,-1.9405791759490967,3.2004003524780273
1747979716898576600,17.98557666015625,22.09173583984375,1.6360924243927002,-0.519242525100708
1747979716916844800,18.0038447265625,20.148164749145508,8.925228118896484,-6.568896293640137
1747979716935113500,18.022113525390626,13.422538757324219,10.034899711608887,-17.151153564453125
1747979716953376800,18.040376708984375,-8.567501068115234,0.5024927258491516,-13.969897270202637
1747979716971640300,18.058640380859377,-24.257240295410156,-2.2773690223693848,-12.456436157226562
1747979716989911000,18.0769111328125,-22.83350944519043,-3.257229804992676,-10.701300621032715
1747979717008171800,18.095171875,-16.606786727905273,-5.618945598602295,-0.8560323119163513
1747979717026437600,18.113437744140626,-13.639687538146973,-10.149755477905273,1.5894324779510498
1747979717044705800,18.131705810546876,-1.3806586265563965,-15.749558448791504,-4.701298236846924
1747979717062971000,18.149970947265626,7.086344242095947,-37.87898254394531,-13.924432754516602
1747979717081237200,18.1682373046875,12.388240814208984,-64.77131652832031,-2.8929226398468018
1747979717099501300,18.186501220703125,24.50728988647461,-39.668212890625,13.01396369934082
1747979717117768200,18.204768310546875,17.97368812561035,-13.342378616333008,6.4941205978393555
1747979717136028700,18.223028564453124,5.4795637130737305,-23.629722595214844,5.488536834716797
1747979717154298400,18.24129833984375,11.919845581054688,-33.570106506347656,15.422340393066406
1747979717172565200,18.259565185546876,13.609777450561523,-31.17369270324707,37.523048400878906
1747979717190829300,18.277829345703125,12.89372444152832,-28.27419090270996,33.19562911987305
1747979717209097000,18.296096923828124,-28.23052215576172,-26.384458541870117,40.80659866333008
1747979717227362000,18.314362060546873,-53.21936798095703,-15.055042266845703,30.087352752685547
1747979717245627000,18.332626953125,3.914059638977051,-3.205185890197754,16.68335723876953
1747979717263893800,18.350893798828125,3.4737801551818848,-2.888735055923462,8.439485549926758
1747979717282157300,18.3691572265625,5.414957523345947,-1.2544373273849487,7.055237770080566
1747979717300410600,18.38741064453125,6.8141608238220215,4.18983268737793,2.5118656158447266
1747979717318683600,18.40568359375,-0.5694918036460876,6.714260101318359,2.956930637359619
1747979717336956700,18.423956787109375,-14.83370590209961,8.089534759521484,4.668995380401611
1747979717355220500,18.442220458984377,-4.046263217926025,4.692325115203857,1.9334007501602173
1747979717373486800,18.46048681640625,0.7962117195129395,2.816950559616089,1.6671991348266602
1747979717391746600,18.47874658203125,0.9463613629341125,2.3264217376708984,1.5032907724380493
1747979717410016800,18.497016845703126,-0.22552353143692017,1.3010972738265991,0.27038896083831787
1747979717428284000,18.515283935546876,-2.2307088375091553,-0.09152546525001526,-1.2765709161758423
1747979717446537700,18.533537841796875,-2.0267207622528076,-1.9830517768859863,-0.7872386574745178
1747979717464814800,18.55181494140625,0.20099709928035736,-2.885744094848633,1.9232312440872192
1747979717483079200,18.5700791015625,0.01734796352684498,-9.033503532409668,8.543573379516602
1747979717501345500,18.588345458984374,-15.229119300842285,-34.22633743286133,22.248464584350586
1747979717519612000,18.60661181640625,-10.73838996887207,-64.81139373779297,22.535005569458008
1747979717537878500,18.62487841796875,-9.559925079345703,-70.98308563232422,1.933998942375183
1747979717556141300,18.643141357421875,-10.932208061218262,-24.555145263671875,24.003002166748047
1747979717574403300,18.6614033203125,0.3774677813053131,-15.90569019317627,25.478178024291992
1747979717592669200,18.679669189453126,-2.252842426300049,-16.8341064453125,25.17189598083496
1747979717610939000,18.69793896484375,1.4500504732131958,-11.689537048339844,11.133803367614746
1747979717629205200,18.716205322265626,4.326223373413086,-4.743771076202393,1.1318050622940063
1747979717647465700,18.7344658203125,7.3262248039245605,-2.4705893993377686,-3.290729284286499
1747979717665735700,18.752735595703125,7.909475326538086,-1.7078771591186523,-2.420340061187744
1747979717684003600,18.771003662109376,7.754539966583252,-1.3746765851974487,-1.7976080179214478
1747979717702267100,18.78926708984375,11.58963680267334,-0.6323033571243286,-0.633499801158905
1747979717720532700,18.80753271484375,16.28196144104004,4.5200419425964355,2.4293131828308105
1747979717738795800,18.825795654296876,17.178672790527344,13.341780662536621,1.4835500717163086
1747979717757063700,18.844063720703126,13.50030517578125,18.006587982177734,-4.881956577301025
1747979717775330300,18.862330322265624,0.9337990283966064,0.7381857633590698,-2.83669114112854
1747979717793595100,18.88059521484375,-16.692928314208984,-4.64805793762207,-7.94716215133667
1747979717811861000,18.898861083984375,-15.987046241760254,-6.726822853088379,-6.8518476486206055
1747979717830127400,18.91712744140625,-13.316058158874512,-9.045467376708984,-0.5479564070701599
1747979717848388400,18.935388427734374,-16.059429168701172,-13.366905212402344,4.985445976257324
1747979717866657800,18.95365771484375,-5.61116886138916,-13.04088306427002,5.517848968505859
1747979717884924400,18.97192431640625,6.705885410308838,-7.389036178588867,-3.1334011554718018
1747979717903184400,18.990184326171875,8.591429710388184,-16.179668426513672,-10.075577735900879
1747979717921454000,19.0084541015625,9.818349838256836,-28.112674713134766,-8.14397144317627
1747979717939721500,19.026721435546875,3.4103705883026123,-34.58884811401367,-4.423132419586182
1747979717957986800,19.04498681640625,3.6909289360046387,-23.204397201538086,3.6610186100006104
1747979717976251100,19.063251220703126,4.160520553588867,-18.29372787475586,5.996413707733154
1747979717994512600,19.0815126953125,9.418149948120117,-23.627927780151367,9.300901412963867
1747979718012782800,19.099782958984374,10.512866020202637,-33.01795959472656,13.192827224731445
1747979718031049200,19.11804931640625,15.306288719177246,-27.05145835876465,20.876779556274414
1747979718049313500,19.1363134765625,8.732605934143066,-25.88495635986328,31.974092483520508
1747979718067580400,19.154580322265623,-34.59064483642578,-18.098114013671875,51.727439880371094
1747979718085844500,19.172844482421876,-29.388050079345703,-6.966104984283447,26.718257904052734
1747979718104111600,19.191111572265626,-4.671986103057861,-2.2067806720733643,12.299108505249023
1747979718122377500,19.20937744140625,3.0717861652374268,-5.1050872802734375,7.734200954437256
1747979718140642600,19.227642578125,5.436492919921875,-4.709074974060059,5.883352756500244
1747979718158902800,19.24590283203125,2.6057839393615723,-1.8370895385742188,3.4163525104522705
1747979718177173000,19.264173095703125,0.6113662123680115,0.08075776696205139,0.8554341197013855
1747979718195433000,19.282432861328125,-0.3577269911766052,0.916451096534729,-0.2991028428077698
1747979718206811600,19.293811767578124,0.18125630915164948,1.1653046607971191,-1.00259268283844
1747979718225118700,19.31211865234375,-4.2346978187561035,2.4837498664855957,-0.8027920126914978
1747979718243387400,19.330387451171877,-5.824130535125732,3.3672995567321777,-0.06640082597732544
1747979718261653000,19.348653076171875,-0.2907279431819916,1.7820546627044678,0.07896314561367035
1747979718279918600,19.366918701171876,0.016749758273363113,0.8859425783157349,-0.18783657252788544
1747979718298184000,19.385183837890626,-0.841675341129303,0.6305087804794312,-0.21595224738121033
1747979718316447500,19.403447509765623,0.26560330390930176,-0.13100704550743103,1.0498509407043457
1747979718334715400,19.42171533203125,0.5096712112426758,-1.194616675376892,1.1808580160140991
1747979718352981200,19.439981201171875,-2.885744094848633,-2.053640127182007,2.9653055667877197
1747979718371246000,19.45824609375,-20.130218505859375,-34.91786193847656,25.800012588500977
1747979718389513000,19.476512939453126,8.825926780700684,-90.79146575927734,37.270606994628906
1747979718407777800,19.49477783203125,-19.011573791503906,-47.23790740966797,43.006202697753906
1747979718426043600,19.513043701171874,-5.266602516174316,-21.460628509521484,15.915860176086426
1747979718444308700,19.531308837890624,1.6175481081008911,-10.347761154174805,10.674382209777832
1747979718462574300,19.54957421875,0.4145565330982208,-4.195814609527588,5.610570907592773
1747979718480836000,19.567836181640626,1.4949159622192383,-1.8251254558563232,0.7292127013206482
1747979718499104800,19.586104736328124,4.179663181304932,-2.300100803375244,-2.6350958347320557
1747979718517372400,19.604372314453126,4.83051061630249,-3.1621150970458984,-3.7956149578094482
1747979718535637500,19.622637451171876,6.501298904418945,-3.2745778560638428,-4.584050178527832
1747979718553902800,19.64090283203125,9.361320495605469,-4.494917392730713,-5.61116886138916
1747979718572169000,19.6591689453125,13.975878715515137,-3.624528169631958,-6.463014125823975
1747979718599566300,19.68656640625,18.70110511779785,4.3447675704956055,-12.902697563171387
1747979718617834000,19.704833984375,5.048855781555176,8.370692253112793,-2.142772674560547
1747979718636100900,19.723100830078124,-0.7322037220001221,4.626522541046143,1.4775680303573608
1747979718654363600,19.74136376953125,-5.299503803253174,-2.7379872798919678,-1.8640087842941284
1747979718672629200,19.759629150390627,-15.78545093536377,-5.032105922698975,-3.9397823810577393
1747979718690883800,19.7778837890625,-18.16511344909668,-7.9280195236206055,0.14895321428775787
1747979718709156400,19.79615625,-23.209781646728516,-17.89412498474121,4.079164505004883
1747979718727426300,19.81442626953125,14.397613525390625,-18.119050979614258,-14.736198425292969
1747979718745691600,19.832691650390625,18.810577392578125,-30.48336410522461,-13.273585319519043
1747979718763958500,19.85095849609375,2.764906644821167,-32.420352935791016,-8.483154296875
1747979718782218000,19.869218017578124,1.425524115562439,-24.659832000732422,2.1816561222076416
1747979718800488400,19.887488525390626,3.384049415588379,-19.27538299560547,4.7850470542907715
1747979718818754300,19.90575439453125,8.259425163269043,-23.679372787475586,4.30169677734375
1747979718837021400,19.924021484375,11.089536666870117,-30.26561737060547,17.62433433532715
1747979718855284700,19.94228466796875,7.920841217041016,-35.68655776977539,15.774682998657227
1747979718873550000,19.960550048828125,15.89432430267334,-29.62733268737793,18.273387908935547
1747979718891816700,19.978816650390623,1.1527422666549683,-30.201608657836914,46.770111083984375
1747979718910084600,19.997084716796873,-75.04609680175781,-15.29193115234375,39.64727783203125
1747979718928347100,20.01534716796875,-12.65863037109375,-4.077968120574951,19.826929092407227
1747979718946613500,20.033613525390624,4.6372904777526855,-5.206183910369873,9.44746208190918
1747979718964878800,20.05187890625,3.9182469844818115,-5.015356063842773,7.060023307800293
1747979718983141400,20.070141357421875,1.181456208229065,-1.6426727771759033,4.553541660308838
1747979719001410300,20.088410400390625,0.1495514214038849,0.9014959335327148,1.7258232831954956
1747979719019675600,20.106675537109375,1.4219348430633545,2.1439690589904785,0.48873403668403625
1747979719037936600,20.1249365234375,1.4321043491363525,3.544966697692871,0.39601215720176697
1747979719056207600,20.14320751953125,0.49651068449020386,2.648256540298462,0.2835494875907898
1747979719074473200,20.16147314453125,0.381655216217041,1.542174220085144,-0.11665010452270508
1747979719092737800,20.17973779296875,0.46360939741134644,0.851844847202301,-0.8428717851638794
1747979719111004000,20.19800390625,0.18544375896453857,0.519242525100708,-1.3710874319076538
1747979719129262000,20.216261962890623,-0.8799605369567871,0.16689938306808472,-1.6271194219589233
1747979719147535600,20.23453564453125,0.3613162338733673,-0.43489551544189453,0.46719861030578613
1747979719165802200,20.25280224609375,-0.9284151792526245,-1.5439687967300415,1.4901303052902222
1747979719184066300,20.27106640625,-1.6689938306808472,-2.200200319290161,2.108675003051758
1747979719202332700,20.289332763671876,-25.408187866210938,-36.67718505859375,29.695528030395508
1747979719220584200,20.307584228515626,10.205389022827148,-81.86563873291016,40.759342193603516
1747979719238852600,20.3258525390625,-7.569096088409424,-45.462432861328125,46.439903259277344
1747979719257124000,20.3441240234375,-11.35214900970459,-20.30908203125,22.066011428833008
1747979719275395000,20.36239501953125,-2.7589244842529297,-11.331212043762207,9.797411918640137
1747979719293660000,20.380659912109376,2.878565549850464,-8.12542724609375,2.5639095306396484
1747979719311924700,20.3989248046875,5.154737949371338,-4.960321426391602,-1.6354942321777344
1747979719330191600,20.417191650390624,4.840680122375488,-2.772084951400757,-3.3104701042175293
1747979719348457700,20.435457763671874,3.8973097801208496,-1.7563318014144897,-2.892324447631836
1747979719366722300,20.453722412109375,4.529015064239502,-1.140179991722107,-2.982055187225342
1747979719384987600,20.471987548828125,9.288339614868164,-0.5096712112426758,-3.727419376373291
1747979719403253500,20.49025341796875,16.69711685180664,1.906481385231018,-6.087340831756592
1747979719421520100,20.50852001953125,21.548564910888672,4.882554531097412,-11.941381454467773
1747979719439784400,20.526784423828126,9.78126049041748,6.550950050354004,-10.853843688964844
1747979719458050300,20.54505029296875,1.8969101905822754,6.64486837387085,-1.5098711252212524
1747979719476311600,20.5633115234375,-1.322034478187561,-0.8632107973098755,-2.0883359909057617
1747979719494582000,20.58158203125,-12.52582836151123,-4.3686957359313965,-2.765504837036133
1747979719512847400,20.599847412109376,-28.965118408203125,-11.172687530517578,5.420341491699219
1747979719531108000,20.618108154296873,-12.173484802246094,-9.596415519714355,2.035693883895874
1747979719549373400,20.63637353515625,-3.6819558143615723,-13.689338684082031,-2.65842604637146
1747979719567644400,20.65464453125,10.416555404663086,-23.067407608032227,-11.72542953491211
1747979719585908700,20.67290869140625,0.47916272282600403,-34.787452697753906,-8.054241180419922
1747979719604176400,20.69117626953125,-0.8243274092674255,-27.16332244873047,1.3088740110397339
1747979719622440700,20.709440673828126,1.841277003288269,-19.088743209838867,3.407379388809204
1747979719640707600,20.72770751953125,9.468399047851562,-18.611373901367188,2.0889341831207275
1747979719658971600,20.7459716796875,12.818350791931152,-23.818754196166992,10.619945526123047
1747979719677237800,20.76423779296875,10.700104713439941,-28.68575668334961,17.06381607055664
1747979719695502600,20.782502685546874,7.70967435836792,-25.62114906311035,15.929618835449219
1747979719713769500,20.80076953125,17.514863967895508,-19.84846305847168,19.715662002563477
1747979719732034300,20.819034423828125,-5.917450428009033,-27.41277503967285,46.869415283203125
1747979719750299600,20.837299560546874,-59.394046783447266,-12.79741382598877,36.406795501708984
1747979719768565000,20.85556494140625,-9.596415519714355,-3.535395383834839,16.39322853088379
1747979719786833000,20.8738330078125,2.60339093208313,-3.910470485687256,7.061817646026611
1747979719805098200,20.89209814453125,4.884947299957275,-4.249054908752441,5.773880958557129
1747979719823361500,20.910361572265625,0.7561319470405579,-1.4889339208602905,4.874179840087891
1747979719841628400,20.92862841796875,0.18065811693668365,1.0169496536254883,2.1852452754974365
1747979719859894800,20.946894775390625,-1.1359925270080566,2.4436700344085693,2.2408783435821533
1747979719878155300,20.9651552734375,-4.391427993774414,4.968696117401123,2.3718855381011963
1747979719896420900,20.9834208984375,-3.245863914489746,4.075575351715088,0.576670229434967
1747979719914689800,21.001689697265626,0.28534409403800964,1.949552297592163,-0.3032902777194977
1747979719932957400,21.01995751953125,0.9619147181510925,0.7208378314971924,-1.2652050256729126
1747979719951220000,21.038219970703125,1.2418749332427979,0.5467599630355835,-1.6372889280319214
1747979719969488600,21.056488525390623,0.6783652305603027,-0.20398813486099243,0.39421752095222473
1747979719987751200,21.074751220703124,-0.7429714202880859,-1.0205388069152832,1.277169108390808
1747979720006020600,21.0930205078125,-0.7100701332092285,-1.85383939743042,3.3822548389434814
1747979720024284000,21.111283935546876,-6.063412666320801,-23.284557342529297,16.85145378112793
1747979720042549000,21.129549072265625,-2.0231316089630127,-82.05108642578125,34.46980667114258
1747979720060815600,21.147815673828124,0.8626125454902649,-48.32305145263672,38.92045593261719
1747979720079081200,21.166081298828125,-16.375879287719727,-17.353347778320312,33.842288970947266
1747979720097346600,21.1843466796875,-2.9030921459198,-10.202995300292969,20.02313995361328
1747979720115611600,21.202611572265624,1.8149559497833252,-10.067801475524902,5.961119174957275
1747979720133877200,21.220877197265626,3.9122650623321533,-6.318248271942139,-0.3924229145050049
1747979720152139300,21.23913916015625,6.534200668334961,-4.107280254364014,-3.6921253204345703
1747979720170408700,21.25740869140625,6.223731517791748,-3.149552822113037,-3.8087754249572754
1747979720188674300,21.27567431640625,8.783453941345215,-3.9020955562591553,-3.968496322631836
1747979720206929200,21.29392919921875,10.749157905578613,-3.3200414180755615,-2.0691933631896973
1747979720225206800,21.312206787109375,17.23250961303711,-0.5760720372200012,-1.4219348430633545
1747979720268583200,21.355583251953124,15.16451358795166,8.325227737426758,-9.127422332763672
1747979720286849800,21.373849853515626,3.87876558303833,6.724429607391357,-1.1365907192230225
1747979720305117400,21.392117431640624,-6.437291145324707,-4.661816596984863,-3.7082769870758057
1747979720323384800,21.410384765625,-22.918455123901367,-7.430910587310791,-7.493124008178711
1747979720341647600,21.428647705078124,-22.042083740234375,-10.143773078918457,-0.33439695835113525
1747979720359912000,21.446911865234377,-27.82194709777832,-14.943177223205566,9.399605751037598
1747979720378179800,21.465179931640623,15.269797325134277,-13.25145149230957,-9.043074607849121
1747979720396451800,21.483451904296874,25.545774459838867,-23.950958251953125,-10.267004013061523
1747979720414710000,21.5017099609375,0.8841479420661926,-36.806396484375,-8.514261245727539
1747979720432970800,21.519970703125,-14.225330352783203,-36.289546966552734,9.057432174682617
1747979720451240000,21.538239990234374,2.713460922241211,-24.00958251953125,9.119047164916992
1747979720469506000,21.556506103515623,14.311471939086914,-19.31307029724121,11.874382019042969
1747979720487771000,21.57477099609375,21.51386833190918,-26.06740951538086,25.29811668395996
1747979720506041300,21.593041259765624,16.039091110229492,-29.063222885131836,13.588241577148438
1747979720524303400,21.611303466796876,8.964112281799316,-26.764320373535156,32.36471939086914
1747979720542569200,21.6295693359375,-20.628524780273438,-26.315067291259766,43.21497344970703
1747979720560833500,21.64783349609375,-58.32146453857422,-15.859628677368164,26.084758758544922
1747979720579101200,21.66610107421875,-2.906083106994629,-6.9756760597229,10.284351348876953
1747979720597365800,21.68436572265625,5.617151260375977,-6.952944278717041,3.483949661254883
1747979720615631600,21.702631591796877,2.6464617252349854,-3.6885361671447754,5.469992637634277
1747979720633897200,21.720897216796875,0.43908295035362244,-0.99481600522995,4.2209391593933105
1747979720652162300,21.739162353515624,0.2273181527853012,0.9290133714675903,2.4017956256866455
1747979720670423800,21.757423828125,-7.207779884338379,3.867997884750366,4.564907550811768
1747979720688690200,21.775690185546875,-4.526622295379639,5.274977684020996,3.4707891941070557
1747979720706958000,21.7939580078125,0.2955136001110077,3.8596229553222656,2.2815563678741455
1747979720725226200,21.812226318359375,0.877567708492279,2.316850423812866,0.589830756187439
1747979720743488000,21.830488037109376,0.5018945336341858,0.9786644577980042,-0.2913261651992798
1747979720761759000,21.848759033203127,0.2727817893028259,0.13878370821475983,-0.7986045479774475
1747979720782302700,21.869302734375,0.6580262184143066,-1.1066805124282837,0.5234299302101135
1747979720800572400,21.887572509765626,-0.7154539823532104,-1.8131613731384277,1.2305090427398682
1747979720818838800,21.9058388671875,-14.395220756530762,-14.414961814880371,15.966707229614258
1747979720837107200,21.924107177734374,-8.628518104553223,-47.584869384765625,28.942386627197266
1747979720855369200,21.942369140625,2.0709879398345947,-73.72286224365234,26.867809295654297
1747979720873635000,21.960635009765625,-18.813568115234375,-30.642486572265625,38.324642181396484
1747979720891900000,21.97889990234375,-8.024331092834473,-15.52104377746582,16.427326202392578
1747979720910168800,21.9971689453125,3.8327035903930664,-9.100502967834473,10.665409088134766
1747979720928431600,22.015431640625,6.317051887512207,-5.916851997375488,7.236494064331055
1747979720946697500,22.033697509765624,4.453042984008789,-2.200200319290161,-1.5128620862960815
1747979720964958000,22.0519580078125,3.7914273738861084,-2.1373889446258545,-4.859822750091553
1747979720983228700,22.070228759765627,2.6697919368743896,-3.3607194423675537,-4.555934429168701
1747979721001494000,22.088493896484376,2.1068804264068604,-2.92283296585083,-3.184846878051758
1747979721019759900,22.106759765625,2.8630123138427734,-2.1003000736236572,-1.7491533756256104
1747979721038025200,22.125025146484376,4.931607246398926,-0.6442674994468689,-0.6562315821647644
1747979721056291000,22.143291015625,7.939385414123535,1.679761528968811,-1.7688941955566406
1747979721074556200,22.16155615234375,12.4480619430542,3.685544967651367,-7.0546393394470215
1747979721092822500,22.179822509765625,9.638887405395508,2.9210381507873535,-8.38863754272461
1747979721111088600,22.198088623046875,2.885145902633667,4.205385684967041,-2.063809633255005
1747979721129353200,22.216353271484376,0.5407779216766357,3.3553354740142822,0.6622136831283569
1747979721147618800,22.234618896484374,-1.1216355562210083,-2.846860647201538,-1.210768222808838
1747979721165884400,22.252884521484376,-30.56950569152832,-10.7228364944458,8.94975471496582
1747979721184146400,22.271146484375,-25.584657669067383,-16.760526657104492,13.99681568145752
1747979721202415900,22.289415771484375,6.50608491897583,-16.226327896118164,-12.201601028442383
1747979721220676600,22.307676513671876,12.591032981872559,-25.03131675720215,-20.06620979309082
1747979721238946300,22.3259462890625,7.1820573806762695,-25.450660705566406,-7.46500825881958
1747979721257213000,22.344212890625,5.638088226318359,-29.51008415222168,1.7868403196334839
1747979721275478300,22.362478271484374,-0.30209386348724365,-19.134206771850586,7.369295597076416
1747979721293743900,22.380743896484375,2.132004976272583,-21.253049850463867,11.96889877319336
1747979721312009200,22.39900927734375,6.188437461853027,-28.9603328704834,23.15414810180664
1747979721330274800,22.41727490234375,3.8333017826080322,-30.682565689086914,16.493127822875977
1747979721348540400,22.43554052734375,13.191631317138672,-23.35454750061035,17.85344886779785
1747979721366806000,22.453805908203126,3.4618160724639893,-22.10609245300293,32.55076217651367
1747979721385071600,22.472071533203124,-77.8863754272461,-17.981464385986328,31.26820945739746
1747979721403337500,22.49033740234375,-19.122840881347656,-8.933603286743164,20.803199768066406
1747979721421602300,22.508602294921875,5.400002479553223,-6.006583213806152,7.963313579559326
1747979721439869200,22.526869140625,4.744967460632324,-4.688137531280518,6.486942291259766
1747979721458129400,22.54512939453125,0.7674978375434875,-2.0446670055389404,5.7032928466796875
1747979721476395000,22.56339501953125,-0.08195417374372482,0.3684946894645691,3.1543383598327637
1747979721494664700,22.581664794921874,-9.126823425292969,3.862015724182129,3.672982692718506
1747979721512931600,22.599931640625,-2.8181469440460205,2.550748825073242,1.1730812788009644
1747979721531196400,22.618196533203125,0.5413761138916016,2.0410776138305664,0.5306084156036377
1747979721549462000,22.6364619140625,0.8757730722427368,1.4865410327911377,0.012562318705022335
1747979721567727400,22.654727294921877,0.6999006271362305,1.1778669357299805,-0.5030909776687622
1747979721585992200,22.6729921875,0.48514479398727417,0.7740781307220459,-0.4456632137298584
1747979721604258800,22.6912587890625,0.381655216217041,0.07657032459974289,0.3284149169921875
1747979721622525700,22.709525634765626,-0.3170489966869354,-1.1527422666549683,1.1383854150772095
1747979721640790000,22.7277900390625,-1.2616157531738281,-2.1361923217773438,2.465205430984497
1747979721659055400,22.746055419921873,-29.972496032714844,-31.252656936645508,38.3455810546875
1747979721677321200,22.7643212890625,-1.6241283416748047,-84.27401733398438,35.189449310302734
1747979721695585800,22.782585693359376,-15.18604850769043,-52.797630310058594,47.74458694458008
1747979721713852700,22.800852783203126,-15.731014251708984,-20.750558853149414,25.360929489135742
1747979721732113000,22.81911279296875,0.32602208852767944,-11.83430290222168,12.527024269104004
1747979721750382800,22.8373828125,6.089135646820068,-7.234699249267578,7.121040344238281
1747979721768649700,22.855649658203124,4.019343852996826,-2.946761131286621,0.8602197170257568
1747979721786914800,22.873914794921873,3.8709888458251953,-0.14117653667926788,-3.2159535884857178
1747979721805180200,22.89218017578125,3.861417531967163,-0.1986042857170105,-2.9138598442077637
1747979721823445500,22.910445556640624,5.078765869140625,-0.10468599200248718,-2.758326292037964
1747979721841711400,22.92871142578125,9.601201057434082,-2.4113669395446777,-2.848057270050049
1747979721859964700,22.946964599609377,19.448265075683594,-0.9290133714675903,0.7740781307220459
1747979721878242600,22.96524267578125,20.270198822021484,1.6510475873947144,-2.293520450592041
1747979721896504000,22.983504150390626,12.318849563598633,4.394418716430664,-5.4759745597839355
1747979721914774000,23.00177392578125,5.921039581298828,3.7256247997283936,-4.01754903793335
1747979721933038800,23.020038818359374,0.005982056725770235,0.6843472719192505,-2.8462624549865723
1747979721951305000,23.038304931640624,-13.220345497131348,-4.6648077964782715,-5.327021598815918
1747979721969569500,23.056569580078126,-17.099111557006836,-6.364310264587402,-3.7363924980163574
1747979721987836700,23.074836669921876,-13.82812213897705,-8.109275817871094,0.1824527233839035
1747979722006105600,23.093105712890626,-18.288942337036133,-14.069198608398438,2.2067806720733643
1747979722024367400,23.111367431640623,-0.486939400434494,-15.17288875579834,-4.2831525802612305
1747979722042632700,23.1296328125,20.92942237854004,-29.65664291381836,-10.951949119567871
1747979722060898600,23.147898681640626,0.719641387462616,-31.447072982788086,-4.040879249572754
1747979722079159000,23.166158935546875,-0.8087740540504456,-25.6301212310791,4.053441524505615
1747979722097429500,23.184429443359374,3.9589250087738037,-14.534005165100098,3.232105255126953
1747979722115695000,23.202695068359375,14.773286819458008,-16.317853927612305,5.788238048553467
1747979722133961000,23.2209609375,19.557735443115234,-26.277379989624023,22.614566802978516
1747979722152226600,23.2392265625,14.20439338684082,-35.51247787475586,18.881763458251953
1747979722170492200,23.2574921875,24.379274368286133,-26.117061614990234,31.928030014038086
1747979722188757800,23.2757578125,-5.9575300216674805,-30.06641387939453,46.39025115966797
1747979722207023000,23.294023193359376,-63.97749710083008,-18.023338317871094,25.796422958374023
1747979722225288700,23.312288818359374,-4.420141696929932,-6.929614543914795,15.531811714172363
1747979722243553800,23.3305537109375,4.968098163604736,-6.106483459472656,6.3601226806640625
1747979722261819100,23.348819091796877,4.783252239227295,-3.2201411724090576,6.153143405914307
1747979722305199600,23.39219970703125,0.1579262912273407,2.3922245502471924,0.97926265001297
1747979722323465200,23.41046533203125,-9.664012908935547,7.489534854888916,3.6813576221466064
1747979722341730000,23.42872998046875,-3.586242914199829,7.341179847717285,2.242672920227051
1747979722359992800,23.446992919921875,1.155135154724121,4.686343193054199,1.0277173519134521
1747979722378264300,23.465264404296875,1.072582721710205,2.5489542484283447,0.1453639715909958
1747979722396523300,23.483523193359375,0.4301098585128784,0.9936196208000183,-0.4103690981864929
1747979722414793200,23.501793212890625,-0.21355941891670227,-0.44745782017707825,0.3397808074951172
1747979722426209500,23.51320947265625,0.7489534616470337,-1.999801516532898,1.8370895385742188
