time,seconds_elapsed,z,y,x
1747979699043883500,0.130883544921875,9.047893524169922,3.472282886505127,-1.521506428718567
1747979699062151700,0.149151611328125,8.954121589660645,3.7052197456359863,-1.5268162488937378
1747979699080411400,0.167411376953125,8.92697811126709,3.8626556396484375,-1.2747838497161865
1747979699098678300,0.18567822265625,8.937832832336426,3.966552972793579,-0.7859405279159546
1747979699116942600,0.203942626953125,8.942554473876953,4.0282793045043945,-0.19948185980319977
1747979699135213000,0.222213134765625,8.989701271057129,3.9259519577026367,-0.09099569171667099
1747979699153478700,0.240478759765625,9.012712478637695,3.8723630905151367,-0.10918974131345749
1747979699171743700,0.25874365234375,9.042943000793457,3.7948553562164307,-0.24567078053951263
1747979699190009900,0.277009765625,9.06694221496582,3.7359704971313477,-0.2630302906036377
1747979699208275700,0.295275634765625,9.074195861816406,3.724397659301758,-0.15473896265029907
1747979699226541300,0.313541259765625,9.048172950744629,3.790119171142578,0.04097992181777954
1747979699244807400,0.331807373046875,8.966891288757324,3.967426061630249,0.3008442223072052
1747979699263072500,0.350072509765625,8.827071189880371,4.237115859985352,0.6047858595848083
1747979699281338400,0.36833837890625,8.680328369140625,4.480391979217529,0.9022796750068665
1747979699299603700,0.386603759765625,8.550714492797852,4.655101299285889,1.2047491073608398
1747979699317868500,0.40486865234375,8.425061225891113,4.773939609527588,1.5696994066238403
1747979699336136200,0.42313623046875,8.319754600524902,4.807937145233154,1.9752305746078491
1747979699354396000,0.44139599609375,8.278036117553711,4.72201681137085,2.3265411853790283
1747979699372661500,0.45966162109375,8.262207984924316,4.5869832038879395,2.6327950954437256
1747979699390931000,0.477930908203125,8.220444679260254,4.467402458190918,2.9500362873077393
1747979699409198800,0.49619873046875,8.153749465942383,4.3605217933654785,3.2769405841827393
1747979699427463700,0.514463623046875,8.066777229309082,4.245794773101807,3.624422788619995
1747979699445729000,0.53272900390625,7.978987216949463,4.081637382507324,3.9889976978302
1747979699463995000,0.550994873046875,7.892853736877441,3.8540661334991455,4.368654251098633
1747979699482260500,0.569260498046875,7.7860941886901855,3.599855899810791,4.759610176086426
1747979699500526000,0.587526123046875,7.651760101318359,3.3572514057159424,5.139604568481445
1747979699518787600,0.60578759765625,7.452917098999023,3.107950210571289,5.570528030395508
1747979699537057500,0.6240576171875,7.115275859832764,2.8995022773742676,6.099331378936768
1747979699555321900,0.64232177734375,6.61745548248291,2.7424020767211914,6.702582836151123
1747979699573589500,0.660589599609375,5.9629645347595215,2.603309154510498,7.341794490814209
1747979699591853300,0.678853271484375,5.135429859161377,2.431565046310425,7.99693489074707
1747979699610120700,0.69712060546875,4.097227096557617,2.215070962905884,8.633788108825684
1747979699628381000,0.715380859375,2.9267876148223877,1.9204262495040894,9.164169311523438
1747979699646638000,0.73363818359375,1.7507599592208862,1.493442416191101,9.536276817321777
1747979699664918300,0.751918212890625,0.6487152576446533,0.9211657047271729,9.745088577270508
1747979699683181600,0.770181640625,-0.36021479964256287,0.34270650148391724,9.797391891479492
1747979699701451800,0.78845166015625,-1.2611380815505981,-0.2872783839702606,9.724357604980469
1747979699719702300,0.806702392578125,-2.0284693241119385,-0.9283677339553833,9.552988052368164
1747979699737979400,0.8249794921875,-2.544752836227417,-1.5256766080856323,9.350543022155762
1747979699756245000,0.843244873046875,-2.8178582191467285,-2.1246585845947266,9.153228759765625
1747979699774510800,0.8615107421875,-2.8971078395843506,-2.75260066986084,8.95913314819336
1747979699792776700,0.879776611328125,-2.8390161991119385,-3.3460123538970947,8.773842811584473
1747979699811039000,0.8980390625,-2.6934614181518555,-3.876936912536621,8.59946346282959
1747979699829307100,0.91630712890625,-2.5146231651306152,-4.380922317504883,8.409536361694336
1747979699847573500,0.934573486328125,-2.3889729976654053,-4.841811180114746,8.190592765808105
1747979699865840000,0.952840087890625,-2.2439210414886475,-5.2803521156311035,7.957313537597656
1747979699884099600,0.971099609375,-2.0789904594421387,-5.668848514556885,7.731629848480225
1747979699902370600,0.98937060546875,-1.9298958778381348,-6.01088285446167,7.508722305297852
1747979699920636700,1.00763671875,-1.7679063081741333,-6.28867244720459,7.318691253662109
1747979699938897200,1.025897216796875,-1.6383074522018433,-6.500687122344971,7.161922454833984
1747979699966301400,1.053301513671875,-1.304443120956421,-6.74837064743042,6.999574661254883
1747979699984567300,1.0715673828125,-0.9564489722251892,-6.862255096435547,6.944838523864746
1747979700002830000,1.089830078125,-0.6198142170906067,-6.906013011932373,6.9396653175354
1747979700021099300,1.108099365234375,-0.3329352140426636,-6.899735450744629,6.965551376342773
1747979700039362800,1.12636279296875,-0.055377520620822906,-6.88986873626709,6.983034610748291
1747979700057629400,1.14462939453125,0.2576856315135956,-6.87199068069458,6.996103763580322
1747979700075893500,1.1628935546875,0.6119503378868103,-6.825355052947998,7.019699573516846
1747979700094159600,1.18115966796875,0.9670038223266602,-6.7855000495910645,7.018404960632324
1747979700112422100,1.199422119140625,1.2711926698684692,-6.764492988586426,6.990123271942139
1747979700130692000,1.217692138671875,1.5518852472305298,-6.686844348907471,7.0081305503845215
1747979700148946700,1.23594677734375,1.8017563819885254,-6.54366397857666,7.083096981048584
1747979700176356400,1.2633564453125,2.0963656902313232,-6.1062211990356445,7.38616418838501
1747979700194620700,1.28162060546875,2.2266151905059814,-5.66873836517334,7.690494537353516
1747979700212886500,1.299886474609375,2.2988226413726807,-5.262128829956055,7.95371150970459
1747979700231152400,1.31815234375,2.3229012489318848,-4.873351097106934,8.190890312194824
1747979700249413000,1.3364130859375,2.2613682746887207,-4.480133533477783,8.429160118103027
1747979700267683600,1.35468359375,2.104846239089966,-4.124128341674805,8.648542404174805
1747979700285949400,1.372949462890625,1.894525408744812,-3.7965247631073,8.84495735168457
1747979700304213800,1.3912138671875,1.6475220918655396,-3.5094709396362305,9.01140308380127
1747979700322478800,1.409478759765625,1.4007683992385864,-3.2857820987701416,9.13660717010498
1747979700359012000,1.44601220703125,1.0692458152770996,-2.981595993041992,9.284551620483398
1747979700377277400,1.46427734375,1.0612293481826782,-2.9471535682678223,9.296463012695312
1747979700395543300,1.482543212890625,0.9938191175460815,-3.08475661277771,9.259197235107422
1747979700413805800,1.500805908203125,1.01349675655365,-3.3268508911132812,9.172842025756836
1747979700432078000,1.519078125,1.0819045305252075,-3.579068183898926,9.069501876831055
1747979700450340400,1.53734033203125,1.1813703775405884,-3.7897250652313232,8.970979690551758
1747979700468601300,1.555601318359375,1.2618361711502075,-3.9983463287353516,8.868884086608887
1747979700486865700,1.57386572265625,1.2650322914123535,-4.140627861022949,8.802898406982422
1747979700505138000,1.592137939453125,1.1867749691009521,-4.31348180770874,8.73049545288086
1747979700523398100,1.610398193359375,1.073906660079956,-4.636524677276611,8.57819938659668
1747979700541668400,1.62866845703125,0.9473191499710083,-4.966155052185059,8.406903266906738
1747979700559934000,1.646933837890625,0.8127419352531433,-5.173539638519287,8.295182228088379
1747979700578198300,1.6651982421875,0.6494830250740051,-5.2663493156433105,8.251052856445312
1747979700596467000,1.683467041015625,0.49313196539878845,-5.339890480041504,8.214530944824219
1747979700614731000,1.70173095703125,0.39039346575737,-5.44207239151001,8.152763366699219
1747979700632996900,1.719996826171875,0.291031152009964,-5.547987461090088,8.085248947143555
1747979700651262500,1.738262451171875,0.21888643503189087,-5.622808933258057,8.035683631896973
1747979700669528000,1.756528076171875,0.20554542541503906,-5.648727893829346,8.017838478088379
1747979700687794000,1.7747939453125,0.24250216782093048,-5.662064552307129,8.007393836975098
1747979700706059000,1.79305908203125,0.2538639008998871,-5.681303977966309,7.993401050567627
1747979700724323800,1.81132373046875,0.24573305249214172,-5.673492431640625,7.999200820922852
1747979700742587100,1.829587158203125,0.24055300652980804,-5.623505115509033,8.034578323364258
1747979700760855300,1.847855224609375,0.25208547711372375,-5.549509048461914,8.085514068603516
1747979700779123000,1.866123046875,0.31289738416671753,-5.4287519454956055,8.164977073669434
1747979700797389800,1.884389892578125,0.4027419090270996,-5.3124775886535645,8.237201690673828
1747979700815653600,1.902653564453125,0.4070679545402527,-5.190552711486816,8.314360618591309
1747979700833919200,1.920919189453125,0.43194493651390076,-5.073989391326904,8.384758949279785
1747979700852184600,1.9391845703125,0.48454853892326355,-5.007107734680176,8.422006607055664
1747979700870451700,1.95745166015625,0.5593736171722412,-4.986501693725586,8.429591178894043
1747979700888711400,1.97571142578125,0.6641156673431396,-5.030797004699707,8.39560317993164
1747979700906982000,1.99398193359375,0.7747087478637695,-5.118804454803467,8.332694053649902
1747979700925246200,2.01224609375,0.877800703048706,-5.21148157119751,8.264747619628906
1747979700943514400,2.030514404296875,0.9369309544563293,-5.250070095062256,8.233774185180664
1747979700961778700,2.04877880859375,0.9094212651252747,-5.2308855056762695,8.249053001403809
1747979700980044500,2.06704443359375,0.8248439431190491,-5.148316860198975,8.309667587280273
1747979700998305000,2.085304931640625,0.733392596244812,-4.996006965637207,8.410600662231445
1747979701016574700,2.10357470703125,0.6542221903800964,-4.825393199920654,8.516085624694824
1747979701034841300,2.12184130859375,0.518194317817688,-4.62282657623291,8.63696002960205
1747979701053104000,2.140104248046875,0.2551918029785156,-4.306728363037109,8.810396194458008
1747979701071373300,2.158373291015625,-0.07284636795520782,-3.8589391708374023,9.018835067749023
1747979701089638400,2.176638427734375,-0.40313103795051575,-3.3166465759277344,9.223527908325195
1747979701107904000,2.194904052734375,-0.6620451807975769,-2.8231654167175293,9.371634483337402
1747979701126169900,2.213169921875,-0.8490865230560303,-2.4179887771606445,9.469345092773438
1747979701144431000,2.23143115234375,-1.0388555526733398,-2.0462193489074707,9.537814140319824
1747979701162701000,2.249701171875,-1.2479437589645386,-1.7182005643844604,9.577397346496582
1747979701180966700,2.267966552734375,-1.356192708015442,-1.4060463905334473,9.613526344299316
1747979701199232000,2.28623193359375,-1.4973357915878296,-1.0499004125595093,9.638038635253906
1747979701217498000,2.304498046875,-1.7531105279922485,-0.7407694458961487,9.623617172241211
1747979701235764000,2.322763916015625,-2.045224666595459,-0.5517172813415527,9.578558921813965
1747979701254024000,2.34102392578125,-2.215688943862915,-0.4525716006755829,9.545784950256348
1747979701272295000,2.359294921875,-2.1922452449798584,-0.2496819645166397,9.5586519241333
1747979701290562300,2.377562255859375,-2.044265031814575,-0.22687344253063202,9.59195613861084
1747979701308821000,2.395821044921875,-1.911110520362854,-0.45083847641944885,9.611478805541992
1747979701327093200,2.41409326171875,-1.67117178440094,-0.8856035470962524,9.625954627990723
1747979701345357800,2.43235791015625,-1.4366422891616821,-1.5147455930709839,9.585287094116211
1747979701363628000,2.4506279296875,-1.0359476804733276,-2.2299904823303223,9.496846199035645
1747979701381889500,2.4688896484375,-0.7206255197525024,-3.01735258102417,9.306577682495117
1747979701400154400,2.487154296875,-0.6079660058021545,-3.916844367980957,8.973564147949219
1747979701418416000,2.505416015625,-0.4764007329940796,-4.887700080871582,8.492324829101562
1747979701436686300,2.523686279296875,-0.48550310730934143,-5.745179176330566,7.936832904815674
1747979701454952200,2.5419521484375,-0.9769060611724854,-6.556244850158691,7.231696128845215
1747979701473217800,2.5602177734375,-1.659010648727417,-7.349894046783447,6.281947135925293
1747979701491483400,2.5784833984375,-1.6089696884155273,-8.001707077026367,5.442429065704346
1747979701509744000,2.596744140625,-1.0676764249801636,-8.498625755310059,4.782210350036621
1747979701528013300,2.615013427734375,-0.5592028498649597,-8.904420852661133,4.0785651206970215
1747979701546281000,2.633281005859375,-0.08222939819097519,-9.235062599182129,3.308011531829834
1747979701564545800,2.6515458984375,0.30435022711753845,-9.506964683532715,2.4002315998077393
1747979701582812000,2.66981201171875,0.6463176012039185,-9.696318626403809,1.3415641784667969
1747979701601077200,2.6880771484375,1.0173513889312744,-9.752116203308105,0.3119954466819763
1747979701619342600,2.706342529296875,1.2362370491027832,-9.725367546081543,-0.35361799597740173
1747979701637611500,2.724611572265625,1.3679879903793335,-9.71020793914795,-0.27670225501060486
1747979701655873500,2.74287353515625,1.4675649404525757,-9.698613166809082,0.13884185254573822
1747979701674130700,2.761130615234375,1.4356474876403809,-9.685690879821777,0.6020258665084839
1747979701692405800,2.77940576171875,1.179551362991333,-9.705904960632324,0.8001105189323425
1747979701710659300,2.797659423828125,0.717778205871582,-9.761499404907227,0.6588212847709656
1747979701728933000,2.81593310546875,0.14398929476737976,-9.799407005310059,0.43246009945869446
1747979701747202600,2.83420263671875,-0.36782336235046387,-9.80057430267334,0.2225988358259201
1747979701765468400,2.852468505859375,-0.79728764295578,-9.777541160583496,0.010911782272160053
1747979701783732700,2.870732666015625,-1.3295764923095703,-9.718523979187012,-0.13645531237125397
1747979701802001200,2.889001220703125,-2.01957631111145,-9.598851203918457,-0.13964906334877014
1747979701820265200,2.90726513671875,-2.747385025024414,-9.417284965515137,-0.05244777351617813
1747979701838531300,2.92553125,-3.4014832973480225,-9.201136589050293,0.07158132642507553
1747979701856792000,2.9437919921875,-3.8918869495391846,-9.001623153686523,0.24520650506019592
1747979701875062800,2.962062744140625,-4.221929550170898,-8.839178085327148,0.529511570930481
1747979701893317400,2.9803173828125,-4.390386581420898,-8.732361793518066,0.8405405282974243
1747979701911594200,2.99859423828125,-4.419859409332275,-8.689374923706055,1.0935091972351074
1747979701929858300,3.0168583984375,-4.409448146820068,-8.648441314697266,1.4132691621780396
1747979701948126500,3.03512646484375,-4.397677421569824,-8.573060035705566,1.8437035083770752
1747979701966387700,3.0533876953125,-4.471072196960449,-8.459131240844727,2.165353775024414
1747979701984656600,3.07165673828125,-4.574832439422607,-8.381963729858398,2.247157573699951
1747979702002922200,3.089922119140625,-4.6576080322265625,-8.338958740234375,2.237091541290283
1747979702021187800,3.108187744140625,-4.738032341003418,-8.297113418579102,2.223764657974243
1747979702039454000,3.126453857421875,-4.811331748962402,-8.275811195373535,2.1443419456481934
1747979702057719600,3.144719482421875,-4.909057140350342,-8.248895645141602,2.023113489151001
1747979702075985200,3.162985107421875,-4.925881385803223,-8.26032543182373,1.9336055517196655
1747979702094250500,3.18125048828125,-4.762033939361572,-8.324296951293945,2.0652544498443604
1747979702112512000,3.199511962890625,-4.513728141784668,-8.42463493347168,2.210859537124634
1747979702130782500,3.217782470703125,-4.230525970458984,-8.551163673400879,2.283937692642212
1747979702149047600,3.236047607421875,-3.93241810798645,-8.687286376953125,2.302884817123413
1747979702167313700,3.254313720703125,-3.5756819248199463,-8.853412628173828,2.251150369644165
1747979702185567500,3.2725673828125,-3.1947596073150635,-9.031473159790039,2.1123664379119873
1747979702203845400,3.290845458984375,-2.9042162895202637,-9.163797378540039,1.9561305046081543
1747979702222112000,3.309112060546875,-2.8845748901367188,-9.185162544250488,1.883656620979309
1747979702240377000,3.327377197265625,-2.973789691925049,-9.129768371582031,2.009984016418457
1747979702258637300,3.34563720703125,-3.082003593444824,-9.053388595581055,2.184840202331543
1747979702276908000,3.363907958984375,-3.1955173015594482,-9.001205444335938,2.236755847930908
1747979702295173400,3.38217333984375,-3.2662031650543213,-8.990029335021973,2.178860902786255
1747979702313435600,3.400435546875,-3.352111339569092,-8.959053039550781,2.1759722232818604
1747979702331705000,3.418705078125,-3.4480834007263184,-8.865217208862305,2.398916482925415
1747979702349970700,3.436970703125,-3.3402748107910156,-8.82098388671875,2.6961004734039307
1747979702368231700,3.455231689453125,-3.1324105262756348,-8.840707778930664,2.8750648498535156
1747979702386500900,3.4735009765625,-3.0141830444335938,-8.867295265197754,2.9192278385162354
1747979702404769000,3.49176904296875,-2.8519976139068604,-8.967484474182129,2.7724430561065674
1747979702423033300,3.510033447265625,-2.51434063911438,-9.16636848449707,2.4273226261138916
1747979702441299200,3.52829931640625,-2.140352964401245,-9.313970565795898,2.214722156524658
1747979702459564500,3.546564453125,-1.7482362985610962,-9.396899223327637,2.208639144897461
1747979702477829400,3.564829345703125,-1.427386999130249,-9.425734519958496,2.3139166831970215
1747979702496096300,3.58309619140625,-1.1515123844146729,-9.44703483581543,2.379849672317505
1747979702514362000,3.601362060546875,-0.8508594036102295,-9.47763442993164,2.384665012359619
1747979702532628700,3.619628662109375,-0.6063600778579712,-9.499091148376465,2.3739681243896484
1747979702560026000,3.647026123046875,-0.3531864583492279,-9.498676300048828,2.4262192249298096
1747979702578293000,3.66529296875,-0.1564805656671524,-9.502188682556152,2.4331142902374268
1747979702596557600,3.6835576171875,0.05282754823565483,-9.509334564208984,2.4095418453216553
1747979702614823700,3.70182373046875,0.2378474920988083,-9.515068054199219,2.3755080699920654
1747979702633089800,3.72008984375,0.40248578786849976,-9.526678085327148,2.3057639598846436
1747979702651355600,3.738355712890625,0.5534296035766602,-9.543966293334961,2.2005839347839355
1747979702669615600,3.75661572265625,0.7160351276397705,-9.560110092163086,2.0803136825561523
1747979702687884800,3.774884765625,0.9102129936218262,-9.568587303161621,1.9620803594589233
1747979702706154200,3.793154296875,1.1103596687316895,-9.576325416564941,1.8158233165740967
1747979702724414000,3.8114140625,1.2931824922561646,-9.580554962158203,1.6663652658462524
1747979702742683100,3.82968310546875,1.4372724294662476,-9.577492713928223,1.5626927614212036
1747979702760950500,3.847950439453125,1.522696614265442,-9.57850170135498,1.4730297327041626
1747979702779214300,3.86621435546875,1.560462236404419,-9.587532043457031,1.3712443113327026
1747979702797481500,3.8844814453125,1.5353339910507202,-9.604252815246582,1.2795240879058838
1747979702843142700,3.930142578125,1.0136929750442505,-9.664704322814941,1.342406153678894
1747979702861405200,3.9484052734375,0.5725514888763428,-9.691462516784668,1.4084911346435547
1747979702879671000,3.966671142578125,0.05742930620908737,-9.692768096923828,1.5109776258468628
1747979702897940000,3.98493994140625,-0.5210910439491272,-9.659759521484375,1.6290004253387451
1747979702916208600,4.003208740234375,-1.1128003597259521,-9.600494384765625,1.6817622184753418
1747979702934473200,4.02147314453125,-1.6297292709350586,-9.533397674560547,1.6414772272109985
1747979702952738800,4.03973876953125,-2.0478756427764893,-9.448634147644043,1.6630187034606934
1747979702971004200,4.058004150390625,-2.4038808345794678,-9.329938888549805,1.8465481996536255
1747979702989270300,4.076270263671875,-2.743995189666748,-9.199493408203125,2.018892288208008
1747979703007535600,4.09453564453125,-3.06758713722229,-9.073872566223145,2.1191623210906982
1747979703025801700,4.1128017578125,-3.365870952606201,-8.940001487731934,2.2323498725891113
1747979703044066000,4.131066162109375,-3.654621124267578,-8.798971176147461,2.336240768432617
1747979703062334200,4.149334228515625,-3.919067144393921,-8.67334270477295,2.376999616622925
1747979703080598500,4.1675986328125,-4.152333736419678,-8.5719633102417,2.3485541343688965
1747979703098863000,4.185863037109375,-4.348086357116699,-8.484418869018555,2.311912775039673
1747979703117131000,4.204131103515625,-4.506275177001953,-8.393759727478027,2.3397464752197266
1747979703135391200,4.22239111328125,-4.633699417114258,-8.297483444213867,2.432429313659668
1747979703153660400,4.240660400390625,-4.722296714782715,-8.216551780700684,2.534618377685547
1747979703171928300,4.25892822265625,-4.75929069519043,-8.182180404663086,2.576282501220703
1747979703190193200,4.277193115234375,-4.739735126495361,-8.19648265838623,2.566850423812866
1747979703208454700,4.29545458984375,-4.665502548217773,-8.253353118896484,2.5201950073242188
1747979703226719500,4.313719482421875,-4.547640800476074,-8.338196754455566,2.455521583557129
1747979703244988700,4.33198876953125,-4.395164966583252,-8.440695762634277,2.3818674087524414
1747979703263256800,4.3502568359375,-4.186522006988525,-8.562028884887695,2.3239686489105225
1747979703281521400,4.368521484375,-3.854654312133789,-8.725345611572266,2.290436029434204
1747979703299786800,4.386786865234375,-3.405644178390503,-8.921467781066895,2.246136426925659
1747979703327185400,4.414185302734375,-3.0668506622314453,-9.042396545410156,2.2506957054138184
1747979703345453600,4.43245361328125,-3.1810333728790283,-8.948169708251953,2.459146022796631
1747979703363716600,4.450716552734375,-3.386204481124878,-8.812944412231445,2.664903402328491
1747979703381984300,4.468984375,-3.4837536811828613,-8.751240730285645,2.741415023803711
1747979703400248300,4.487248291015625,-3.4690256118774414,-8.755474090576172,2.7465803623199463
1747979703418515700,4.505515625,-3.439967393875122,-8.772138595581055,2.729903221130371
1747979703436775000,4.52377490234375,-3.473292350769043,-8.75743579864502,2.7348990440368652
1747979703455045600,4.542045654296875,-3.445039749145508,-8.748518943786621,2.798438310623169
1747979703473312300,4.560312255859375,-3.3324732780456543,-8.752604484558105,2.919363498687744
1747979703491578400,4.578578369140625,-3.2327497005462646,-8.766841888427734,2.987961530685425
1747979703509841000,4.5968408203125,-3.148728370666504,-8.817663192749023,2.9275319576263428
1747979703528110800,4.61511083984375,-3.052379608154297,-8.90380573272705,2.7642951011657715
1747979703546374400,4.63337451171875,-2.921203851699829,-9.004218101501465,2.574242353439331
1747979703564641300,4.651641357421875,-2.7292163372039795,-9.101262092590332,2.440192222595215
1747979703582905000,4.669905029296875,-2.353409767150879,-9.21493148803711,2.404707193374634
1747979703601172500,4.68817236328125,-1.7665836811065674,-9.332884788513184,2.452056884765625
1747979703619432400,4.706432373046875,-1.1947908401489258,-9.40579605102539,2.5178544521331787
1747979703637704200,4.7247041015625,-0.8549413084983826,-9.43286418914795,2.554656505584717
1747979703655968300,4.74296826171875,-0.7193934917449951,-9.442279815673828,2.5616278648376465
1747979703674236700,4.761236572265625,-0.5914280414581299,-9.450417518615723,2.5643672943115234
1747979703692486100,4.779486083984375,-0.39244788885116577,-9.461971282958984,2.559925079345703
1747979703719898000,4.806898193359375,-0.019948069006204605,-9.482762336730957,2.5125529766082764
1747979703738159000,4.8251591796875,0.23510368168354034,-9.493638038635254,2.4600179195404053
1747979703756424700,4.8434248046875,0.5271502137184143,-9.501224517822266,2.3843157291412354
1747979703774696400,4.861696533203125,0.8714442253112793,-9.500426292419434,2.284420967102051
1747979703792947000,4.879947021484375,1.1833823919296265,-9.487712860107422,2.1952288150787354
1747979703811229400,4.8982294921875,1.4036422967910767,-9.476758003234863,2.1111528873443604
1747979703829475300,4.916475341796875,1.58026123046875,-9.47404956817627,1.9953142404556274
1747979703847758000,4.934758056640625,1.733461856842041,-9.480453491210938,1.8309086561203003
1747979703866023700,4.953023681640625,1.8354909420013428,-9.492996215820312,1.6583449840545654
1747979703884289800,4.971289794921875,1.8836325407028198,-9.506281852722168,1.5227147340774536
1747979703902555100,4.98955517578125,1.8656742572784424,-9.522027969360352,1.4444210529327393
1747979703920821500,5.007821533203125,1.8091893196105957,-9.53640079498291,1.421270728111267
1747979703939086300,5.02608642578125,1.7725697755813599,-9.543136596679688,1.4222042560577393
1747979703957352400,5.0443525390625,1.726158857345581,-9.558633804321289,1.3744080066680908
1747979703975618000,5.0626181640625,1.4887874126434326,-9.600103378295898,1.3629577159881592
1747979703993877800,5.080877685546875,1.0605030059814453,-9.636645317077637,1.498843789100647
1747979704012149200,5.099149169921875,0.575219988822937,-9.64055061340332,1.7219260931015015
1747979704030411800,5.117411865234375,0.055031657218933105,-9.614344596862793,1.948714256286621
1747979704048677400,5.135677490234375,-0.5643364191055298,-9.562504768371582,2.1156859397888184
1747979704066947000,5.153947021484375,-1.2403918504714966,-9.476085662841797,2.213897705078125
1747979704085212200,5.172212158203125,-1.900972604751587,-9.346776008605957,2.293513536453247
1747979704103478300,5.190478271484375,-2.4446730613708496,-9.18487548828125,2.428529977798462
1747979704121744100,5.208744140625,-2.8347103595733643,-9.014535903930664,2.6341331005096436
1747979704140009500,5.227009521484375,-3.1581385135650635,-8.857367515563965,2.794516086578369
1747979704158275300,5.245275390625,-3.442054033279419,-8.720657348632812,2.887648820877075
1747979704176541000,5.263541015625,-3.6720566749572754,-8.603891372680664,2.9538381099700928
1747979704194806800,5.281806884765625,-3.834355354309082,-8.511499404907227,3.014667272567749
1747979704213072400,5.300072265625,-3.934988260269165,-8.440802574157715,3.0829977989196777
1747979704231337700,5.318337646484375,-3.977841377258301,-8.386283874511719,3.175400733947754
1747979704249598700,5.3365986328125,-3.9840145111083984,-8.342437744140625,3.2813870906829834
1747979704267868200,5.3548681640625,-3.987301826477051,-8.294669151306152,3.3964691162109375
1747979704286136300,5.37313623046875,-4.011518478393555,-8.239635467529297,3.500319719314575
1747979704304396300,5.391396240234375,-4.057456970214844,-8.201006889343262,3.5378849506378174
1747979704322666800,5.409666748046875,-4.120458126068115,-8.197041511535645,3.4736783504486084
1747979704340932400,5.427932373046875,-4.165462017059326,-8.226471900939941,3.3481643199920654
1747979704359198000,5.446197998046875,-4.138619422912598,-8.29472541809082,3.2102136611938477
1747979704377463800,5.4644638671875,-3.974256753921509,-8.41162395477295,3.1122326850891113
1747979704395729700,5.482729736328125,-3.6403210163116455,-8.579667091369629,3.0616116523742676
1747979704413995500,5.50099560546875,-3.179027795791626,-8.778688430786133,3.010735273361206
1747979704432260900,5.5192607421875,-2.77778959274292,-8.94817066192627,2.9069318771362305
1747979704450526500,5.5375263671875,-2.7383925914764404,-8.984787940979004,2.8303592205047607
1747979704468798700,5.555798828125,-2.8667900562286377,-8.931355476379395,2.872023344039917
1747979704487058200,5.57405810546875,-2.9829483032226562,-8.863763809204102,2.9617300033569336
1747979704505323800,5.59232373046875,-3.1329715251922607,-8.791419982910156,3.0218427181243896
1747979704523588400,5.61058837890625,-3.2443032264709473,-8.752408981323242,3.017604351043701
1747979704541853200,5.628853271484375,-3.28981614112854,-8.737234115600586,3.0123090744018555
1747979704560124400,5.64712451171875,-3.22761607170105,-8.777871131896973,2.9610085487365723
1747979704578390300,5.665390380859375,-3.0511696338653564,-8.889400482177734,2.811586380004883
1747979704596647400,5.6836474609375,-2.9662516117095947,-8.989287376403809,2.574916362762451
1747979704614916900,5.701916748046875,-2.9225268363952637,-9.005264282226562,2.5690834522247314
1747979704633185000,5.72018505859375,-2.8531365394592285,-9.016519546508789,2.6073198318481445
1747979704651449000,5.738448974609375,-2.738062620162964,-9.065254211425781,2.561307668685913
1747979704669714400,5.75671435546875,-2.566873073577881,-9.157787322998047,2.4046289920806885
1747979704687981000,5.77498095703125,-2.3250131607055664,-9.27308464050293,2.2000749111175537
1747979704706249200,5.793249267578125,-2.0084946155548096,-9.385982513427734,2.026179075241089
1747979704724512300,5.81151220703125,-1.5859572887420654,-9.484827041625977,1.9387894868850708
1747979704742777900,5.82977783203125,-1.015393614768982,-9.561271667480469,1.9460656642913818
1747979704761043700,5.848043701171875,-0.4373100697994232,-9.595809936523438,1.9913047552108765
1747979704779309300,5.866309326171875,0.013330190442502499,-9.596785545349121,2.034118890762329
1747979704797571600,5.884571533203125,0.2859288454055786,-9.587939262390137,2.0556790828704834
1747979704815839500,5.902839599609375,0.44730910658836365,-9.582571983337402,2.0519213676452637
1747979704834106600,5.921106689453125,0.5700669884681702,-9.579523086547852,2.035648822784424
1747979704852373500,5.93937353515625,0.7083749771118164,-9.579584121704102,1.9914605617523193
1747979704870625800,5.957625732421875,0.9465410113334656,-9.576452255249023,1.905712366104126
1747979704888903700,5.975903564453125,1.2729294300079346,-9.562129020690918,1.7836613655090332
1747979704907158500,5.994158447265625,1.5297404527664185,-9.54975414276123,1.6426197290420532
1747979704925430500,6.012430419921875,1.669628381729126,-9.548462867736816,1.508419156074524
1747979704943700500,6.030700439453125,1.7861393690109253,-9.54560375213623,1.3882555961608887
1747979704961966300,6.04896630859375,1.928072214126587,-9.535920143127441,1.2589157819747925
1747979704980232000,6.06723193359375,2.0879359245300293,-9.521860122680664,1.1003714799880981
1747979704998497300,6.085497314453125,2.2699732780456543,-9.498418807983398,0.9291796088218689
1747979705016763100,6.10376318359375,2.460500955581665,-9.462703704833984,0.7995699644088745
1747979705035029000,6.122029052734375,2.650430202484131,-9.420251846313477,0.6857129335403442
1747979705053294600,6.140294677734375,2.861483573913574,-9.366228103637695,0.5672822594642639
1747979705071560400,6.158560546875,3.137767791748047,-9.2809419631958,0.504626452922821
1747979705089825000,6.176824951171875,3.28507399559021,-9.22911262512207,0.5175660252571106
1747979705108088000,6.195088134765625,3.0969574451446533,-9.294301986694336,0.5107961297035217
1747979705126356200,6.213356201171875,2.7020790576934814,-9.409278869628906,0.6327541470527649
1747979705144624400,6.231624267578125,2.2423176765441895,-9.505910873413086,0.9196615219116211
1747979705162888700,6.249888671875,1.7560126781463623,-9.573073387145996,1.2283381223678589
1747979705181154800,6.26815478515625,1.2632198333740234,-9.61453628540039,1.4836114645004272
1747979705199415600,6.28641552734375,0.7318164706230164,-9.641054153442383,1.6584957838058472
1747979705217686000,6.30468603515625,0.1337682157754898,-9.651432037353516,1.7515943050384521
1747979705235952000,6.3229521484375,-0.4872640073299408,-9.63367748260498,1.7863218784332275
1747979705254216400,6.341216552734375,-1.01003897190094,-9.585525512695312,1.8258346319198608
1747979705272479500,6.3594794921875,-1.4110848903656006,-9.522441864013672,1.888928771018982
1747979705290748200,6.377748046875,-1.7027496099472046,-9.464673042297363,1.938222885131836
1747979705309015800,6.396015869140625,-1.9025282859802246,-9.42052173614502,1.9673048257827759
1747979705327280400,6.4142802734375,-2.009397506713867,-9.388113021850586,2.015385389328003
1747979705345546200,6.432546142578125,-2.002429485321045,-9.37158203125,2.097585916519165
1747979705363807500,6.450807373046875,-1.8999472856521606,-9.363067626953125,2.2269487380981445
1747979705382066200,6.469066162109375,-1.8250681161880493,-9.324800491333008,2.439936637878418
1747979705400342800,6.4873427734375,-1.8933355808258057,-9.219261169433594,2.7670671939849854
1747979705418604300,6.505604248046875,-2.1977412700653076,-9.016422271728516,3.1796445846557617
1747979705436873700,6.523873779296875,-2.831666946411133,-8.716987609863281,3.497415065765381
1747979705455141400,6.542141357421875,-3.6915743350982666,-8.349608421325684,3.5906028747558594
1747979705473401300,6.5604013671875,-4.450051307678223,-7.983024597167969,3.5643324851989746
1747979705491671800,6.578671875,-4.691006183624268,-7.836201190948486,3.5811314582824707
1747979705509937400,6.5969375,-4.80478048324585,-7.826959609985352,3.448033094406128
1747979705528203000,6.615203125,-5.011911392211914,-7.8151679039001465,3.1685969829559326
1747979705546457000,6.63345703125,-5.274193286895752,-7.769810676574707,2.8370893001556396
1747979705564734500,6.651734375,-5.522638320922852,-7.6370673179626465,2.7224583625793457
1747979705583000000,6.67,-5.648796081542969,-7.4179840087890625,3.049713611602783
1747979705601265700,6.688265625,-5.641844749450684,-7.304447174072266,3.3242685794830322
1747979705619527000,6.70652685546875,-5.338043212890625,-7.576930046081543,3.214268445968628
1747979705637796000,6.724796142578125,-5.358217716217041,-7.669822692871094,2.9494805335998535
1747979705656064300,6.743064208984375,-5.4531168937683105,-7.853353977203369,2.1964704990386963
1747979705674328800,6.761328857421875,-4.99229097366333,-8.276738166809082,1.675925850868225
1747979705692579600,6.77957958984375,-4.319453239440918,-8.692647933959961,1.4199718236923218
1747979705710861800,6.79786181640625,-3.568239212036133,-9.053378105163574,1.2410168647766113
1747979705729124400,6.816124267578125,-2.8235089778900146,-9.358054161071777,0.8311112523078918
1747979705747390200,6.83439013671875,-2.3091814517974854,-9.533658981323242,0.11457005888223648
1747979705765657300,6.8526572265625,-1.834409236907959,-9.626626968383789,-0.4462098181247711
1747979705783923200,6.870923095703125,-1.214003562927246,-9.706299781799316,-0.7416555881500244
1747979705802188500,6.8891884765625,-0.23699986934661865,-9.774653434753418,-0.7975675463676453
1747979705820454700,6.90745458984375,0.9126312732696533,-9.74091911315918,-0.7195391058921814
1747979705838716400,6.92571630859375,1.847507119178772,-9.594447135925293,-0.8771613240242004
1747979705856985900,6.94398583984375,2.613407850265503,-9.401004791259766,-1.0135692358016968
1747979705875251500,6.96225146484375,3.2486324310302734,-9.20235538482666,-0.9995837807655334
1747979705893515800,6.980515869140625,3.62036395072937,-9.075944900512695,-0.8696536421775818
1747979705911784200,6.9987841796875,3.8031768798828125,-9.010196685791016,-0.7670220136642456
1747979705930048500,7.017048583984375,3.8105287551879883,-9.008729934692383,-0.7475159764289856
1747979705948297700,7.035297607421875,3.6746697425842285,-9.072257041931152,-0.6535079479217529
1747979705966575000,7.0535751953125,3.590826988220215,-9.119179725646973,-0.4273490309715271
1747979705984842200,7.07184228515625,3.5449962615966797,-9.146791458129883,-0.07282035052776337
1747979706003112400,7.090112548828125,3.3425986766815186,-9.214290618896484,0.3999633193016052
1747979706021377000,7.108376953125,3.013197898864746,-9.295855522155762,0.862453818321228
1747979706039643000,7.126642822265625,2.577731132507324,-9.378854751586914,1.276129961013794
1747979706057908200,7.144908203125,2.047785758972168,-9.454134941101074,1.6315633058547974
1747979706076174300,7.16317431640625,1.3802506923675537,-9.518534660339355,1.930936336517334
1747979706094435800,7.181435791015625,0.6403382420539856,-9.531234741210938,2.2319633960723877
1747979706112705800,7.199705810546875,-0.20588865876197815,-9.45953369140625,2.5905539989471436
1747979706130971000,7.217970947265625,-1.199547290802002,-9.257649421691895,3.015489339828491
1747979706149237000,7.236237060546875,-2.400399923324585,-8.669958114624023,3.912292718887329
1747979706167502300,7.25450244140625,-2.2015960216522217,-7.997336387634277,5.237525939941406
1747979706185768400,7.2727685546875,-1.665561556816101,-7.18974494934082,6.46293830871582
1747979706204032800,7.29103271484375,-2.3997676372528076,-6.246368885040283,7.173571586608887
1747979706222301000,7.309301025390625,-3.72147798538208,-5.51614236831665,7.208254337310791
1747979706240565200,7.327565185546875,-4.95161771774292,-5.121108055114746,6.744760990142822
1747979706258830000,7.345830078125,-5.972718238830566,-5.196638107299805,5.792900085449219
1747979706277098000,7.364097900390625,-6.6079607009887695,-5.653559684753418,4.5396318435668945
1747979706295362600,7.382362548828125,-6.785211086273193,-6.136081695556641,3.541964530944824
1747979706313628400,7.40062841796875,-6.7245354652404785,-6.434185028076172,3.1012825965881348
1747979706331894000,7.41889404296875,-6.5921220779418945,-6.395035266876221,3.447247266769409
1747979706350159600,7.43715966796875,-6.208682060241699,-6.307426452636719,4.23140287399292
1747979706368420600,7.455420654296875,-5.246626853942871,-6.386306285858154,5.28432559967041
1747979706386691000,7.473691162109375,-3.8757989406585693,-6.733701229095459,5.989288806915283
1747979706404956700,7.491956787109375,-2.5651023387908936,-7.060769081115723,6.3088765144348145
1747979706423222300,7.51022216796875,-2.125250816345215,-7.230343818664551,6.28025484085083
1747979706441488400,7.52848828125,-2.355898141860962,-7.422608852386475,5.965794563293457
1747979706459754000,7.54675390625,-2.800598382949829,-7.640021324157715,5.479309558868408
1747979706478014700,7.5650146484375,-3.4661271572113037,-7.826303958892822,4.792812824249268
1747979706496284200,7.5832841796875,-4.740793228149414,-7.817817687988281,3.555657386779785
1747979706514552300,7.60155224609375,-5.483452796936035,-7.734724044799805,2.5183157920837402
1747979706532818000,7.61981787109375,-5.300722599029541,-7.857077598571777,2.530769109725952
1747979706551081200,7.638081298828125,-4.859321594238281,-7.93516206741333,3.1074607372283936
1747979706569348000,7.65634814453125,-4.038457870483398,-8.168802261352539,3.632859945297241
1747979706587613400,7.674613525390625,-3.091172695159912,-8.62834358215332,3.497495174407959
1747979706605881000,7.692881103515625,-2.3506295680999756,-9.062041282653809,2.9308857917785645
1747979706624142600,7.711142578125,-1.7964564561843872,-9.377594947814941,2.2515721321105957
1747979706642407000,7.729406982421875,-1.244970440864563,-9.589842796325684,1.649574875831604
1747979706660676400,7.74767626953125,0.040401190519332886,-9.735995292663574,1.202025055885315
1747979706678942200,7.765942138671875,2.976539373397827,-9.335285186767578,0.47830694913864136
1747979706697207800,7.784207763671875,3.5170319080352783,-9.144967079162598,-0.4859868288040161
1747979706715473700,7.8024736328125,2.88413667678833,-9.371068954467773,-0.317679226398468
1747979706733734700,7.820734619140625,3.06668758392334,-9.318181037902832,-0.05511673539876938
1747979706752003800,7.83900390625,3.3626773357391357,-9.209027290344238,0.34976261854171753
1747979706770268400,7.857268310546875,3.4165432453155518,-9.155510902404785,0.8602206110954285
1747979706788540000,7.875539794921875,3.262993335723877,-9.154375076293945,1.3365726470947266
1747979706806803500,7.893803466796875,3.040454864501953,-9.16361141204834,1.7378064393997192
1747979706825066800,7.912066650390625,2.632798910140991,-9.198808670043945,2.164809226989746
1747979706843333400,7.93033349609375,2.2084357738494873,-9.213043212890625,2.545339822769165
1747979706861599200,7.94859912109375,1.7912589311599731,-9.214776039123535,2.848757266998291
1747979706879864000,7.966864013671875,1.3430278301239014,-9.217314720153809,3.0779049396514893
1747979706898131000,7.985130859375,0.797829806804657,-9.204532623291016,3.2979066371917725
1747979706918670300,8.00567041015625,0.447878897190094,-9.179642677307129,3.4306933879852295
1747979706952927500,8.039927490234374,-2.907470703125,-8.39795207977295,4.154170989990234
1747979706971193300,8.058193359375,-4.331448078155518,-7.000011920928955,5.336154460906982
1747979706989454300,8.076454345703125,-3.4603772163391113,-5.97288179397583,6.970409393310547
1747979707007723500,8.0947236328125,-4.176736354827881,-4.7801055908203125,7.479410171508789
1747979707025991400,8.112991455078125,-5.668764591217041,-3.8081600666046143,7.042666912078857
1747979707044256300,8.13125634765625,-7.045780658721924,-3.2757670879364014,5.988529205322266
1747979707062521300,8.149521240234375,-7.942871570587158,-3.463411569595337,4.599092960357666
1747979707080787500,8.167787353515624,-8.365132331848145,-4.222430229187012,2.9037413597106934
1747979707099053000,8.186052978515624,-8.29275894165039,-4.982312202453613,1.6256728172302246
1747979707117319200,8.204319091796876,-8.134522438049316,-5.284775733947754,1.4617679119110107
1747979707135584300,8.222584228515625,-7.99442720413208,-5.342581272125244,1.9447565078735352
1747979707153849000,8.24084912109375,-7.542405128479004,-5.26892614364624,3.4039196968078613
1747979707172117000,8.259116943359375,-6.057738304138184,-5.362674236297607,5.548121452331543
1747979707190384400,8.27738427734375,-3.9351699352264404,-5.697171688079834,6.949304580688477
1747979707208642600,8.295642578125,-2.3906009197235107,-6.107794761657715,7.294929027557373
1747979707226913000,8.3139130859375,-2.3289871215820312,-6.409834384918213,7.05166482925415
1747979707245178400,8.332178466796876,-2.6731419563293457,-6.594176292419434,6.753316879272461
1747979707263450600,8.35045068359375,-3.103853702545166,-6.7035675048828125,6.454799175262451
1747979707290837200,8.377837158203125,-3.962608575820923,-7.105922698974609,5.4808502197265625
1747979707309106700,8.396106689453125,-4.393022537231445,-7.6320271492004395,4.323153972625732
1747979707327378000,8.4143779296875,-4.73625373840332,-7.963761329650879,3.2221949100494385
1747979707345637400,8.432637451171875,-4.601191520690918,-8.457767486572266,1.8791799545288086
1747979707363908900,8.450908935546876,-4.283679962158203,-8.715009689331055,1.3909772634506226
1747979707382171600,8.469171630859375,-4.059206008911133,-8.792974472045898,1.5628622770309448
1747979707400432400,8.487432373046875,-3.499530076980591,-9.004429817199707,1.7057695388793945
1747979707418699000,8.505698974609375,-2.602642059326172,-9.343558311462402,1.4697967767715454
1747979707436968700,8.52396875,-1.657310128211975,-9.641531944274902,0.7282318472862244
1747979707455234300,8.542234375,-0.25171518325805664,-9.804258346557617,0.22197464108467102
1747979707473498400,8.560498291015625,2.399348258972168,-9.51183795928955,-0.06463833898305893
1747979707491767300,8.578767333984375,2.8141329288482666,-9.313966751098633,-1.251716136932373
1747979707510031400,8.59703125,1.9455227851867676,-9.56456184387207,-0.9849923849105835
1747979707528297000,8.615296875,2.068171977996826,-9.561539649963379,-0.7319422364234924
1747979707546557400,8.633557373046875,2.544977903366089,-9.456483840942383,-0.5780090093612671
1747979707564828700,8.65182861328125,2.9621899127960205,-9.348393440246582,-0.2628321945667267
1747979707583095600,8.670095458984376,3.137523651123047,-9.293815612792969,0.13058821856975555
1747979707601357300,8.688357421875,3.317152261734009,-9.224871635437012,0.3665415048599243
1747979707619625500,8.70662548828125,3.407956838607788,-9.190919876098633,0.3859367072582245
1747979707637891600,8.7248916015625,3.166670083999634,-9.264588356018066,0.6129580736160278
1747979707656157000,8.743156982421874,2.952030658721924,-9.313368797302246,0.8847550749778748
1747979707674418000,8.76141796875,2.754385471343994,-9.342759132385254,1.167182207107544
1747979707692676400,8.77967626953125,2.502958297729492,-9.372958183288574,1.4556705951690674
1747979707710954200,8.797954345703126,2.144282341003418,-9.405194282531738,1.7833925485610962
1747979707729219800,8.8162197265625,1.5749346017837524,-9.43210220336914,2.1888694763183594
1747979707747485200,8.834485107421875,0.7000696063041687,-9.427650451660156,2.620197296142578
1747979707765750800,8.852750732421875,-0.6090387105941772,-9.259934425354004,3.1810052394866943
1747979707784016000,8.871015869140624,-2.290264129638672,-8.421961784362793,4.478992462158203
1747979707802279000,8.88927880859375,-1.464511513710022,-7.630079746246338,5.989426612854004
1747979707820546800,8.907546875,-0.996982753276825,-6.8877105712890625,6.913870334625244
1747979707838815200,8.925815185546876,-1.4637621641159058,-6.188573837280273,7.469611167907715
1747979707857078800,8.944078857421875,-2.454882860183716,-5.700510025024414,7.5969648361206055
1747979707875345200,8.96234521484375,-4.033603191375732,-5.438812255859375,7.098275661468506
1747979707893606100,8.980606201171875,-5.669365406036377,-5.3854780197143555,5.923767566680908
1747979707911878400,8.99887841796875,-6.785562515258789,-5.528829097747803,4.429932117462158
1747979707930140700,9.017140625,-7.260327339172363,-5.756753444671631,3.2223551273345947
1747979707948403000,9.03540283203125,-7.217891216278076,-5.883871555328369,3.08516526222229
1747979707966674000,9.053673828125,-6.752066135406494,-6.024397850036621,3.7884459495544434
1747979707984939000,9.07193896484375,-5.916139602661133,-6.215068340301514,4.754824638366699
1747979708003205400,9.090205322265625,-4.279266357421875,-6.541234016418457,5.927587032318115
1747979708021470700,9.108470703125,-2.018277645111084,-7.007047653198242,6.562312126159668
1747979708039735300,9.1267353515625,-0.618858814239502,-7.013972282409668,6.830615997314453
1747979708058003000,9.1450029296875,-1.0109614133834839,-6.988128662109375,6.810295581817627
1747979708076268000,9.16326806640625,-2.153613328933716,-7.173998832702637,6.33496618270874
1747979708094533400,9.181533447265625,-3.290501356124878,-7.415915012359619,5.5147905349731445
1747979708112799500,9.199799560546875,-4.094834327697754,-7.6628289222717285,4.555161952972412
1747979708131064800,9.21806494140625,-4.649808883666992,-7.841253280639648,3.6235504150390625
1747979708149331000,9.2363310546875,-4.822879791259766,-7.842979431152344,3.385796546936035
1747979708167596300,9.25459619140625,-4.63334321975708,-7.831020355224609,3.6665186882019043
1747979708185861000,9.272861083984376,-4.049945831298828,-8.196821212768555,3.556145668029785
1747979708204127200,9.291127197265626,-3.20965838432312,-8.651712417602539,3.328977346420288
1747979708222390500,9.309390625,-2.322284698486328,-9.030182838439941,3.04941725730896
1747979708240659000,9.327658935546875,-1.457762360572815,-9.280287742614746,2.8261804580688477
1747979708258924800,9.3459248046875,-0.7690451145172119,-9.548227310180664,2.1156632900238037
1747979708277190100,9.364190185546875,1.351555585861206,-9.617353439331055,1.3841681480407715
1747979708295456000,9.3824560546875,3.2253899574279785,-9.263619422912598,0.13536377251148224
1747979708313721600,9.4007216796875,2.4815940856933594,-9.49070930480957,-0.06525770574808121
1747979708331986400,9.418986328125,2.3886260986328125,-9.51308822631836,0.1781618893146515
1747979708350254000,9.437254150390626,2.6923511028289795,-9.425419807434082,0.38578513264656067
1747979708368519400,9.45551953125,2.98030948638916,-9.316279411315918,0.7488583326339722
1747979708386785000,9.473784912109375,3.1056277751922607,-9.228261947631836,1.1959916353225708
1747979708405045200,9.492045166015625,3.169609785079956,-9.1748628616333,1.418305516242981
1747979708423311400,9.510311279296875,2.979379177093506,-9.201327323913574,1.641647219657898
1747979708441586200,9.528586181640625,2.709409236907959,-9.214977264404297,1.9948493242263794
1747979708459846100,9.54684619140625,2.452648878097534,-9.201594352722168,2.3561179637908936
1747979708478114600,9.565114501953126,2.1706674098968506,-9.175802230834961,2.7072083950042725
1747979708496378600,9.583378662109375,1.8216761350631714,-9.141926765441895,3.056593418121338
1747979708514644700,9.601644775390625,1.375077247619629,-9.08923053741455,3.425079107284546
1747979708532910000,9.61991015625,0.79951411485672,-9.008774757385254,3.799849033355713
1747979708551175700,9.63817578125,0.04500923678278923,-8.883323669433594,4.161812782287598
1747979708569437200,9.656437255859375,-1.180038571357727,-8.44958782196045,4.8423261642456055
1747979708587707400,9.674707275390626,-2.862677574157715,-7.166444778442383,6.056670188903809
1747979708605973000,9.692972900390625,-1.9928125143051147,-6.107354640960693,7.413843631744385
1747979708624238800,9.71123876953125,-1.778643012046814,-5.063215732574463,8.211968421936035
1747979708642492200,9.7294921875,-2.730426549911499,-4.22560977935791,8.42170524597168
1747979708660765400,9.747765380859375,-4.1086106300354,-3.6681246757507324,8.117899894714355
1747979708679029000,9.766029052734375,-5.605166912078857,-3.4999148845672607,7.2504377365112305
1747979708697302300,9.78430224609375,-6.752575397491455,-3.8344480991363525,5.994650363922119
1747979708715566600,9.802566650390625,-7.45892858505249,-4.503939628601074,4.507218360900879
1747979708733831700,9.820831787109375,-7.612125873565674,-5.23488712310791,3.2996363639831543
1747979708752099300,9.839099365234375,-7.382024765014648,-5.65065336227417,3.1324074268341064
1747979708770364000,9.857364013671875,-7.081377983093262,-5.822726726531982,3.4908528327941895
1747979708788624400,9.875624267578125,-6.507632732391357,-5.846860885620117,4.438582897186279
1747979708806895900,9.893895751953124,-5.0173659324646,-5.981070518493652,5.940449237823486
1747979708825161000,9.912160888671876,-2.7592878341674805,-6.331190586090088,6.9669575691223145
1747979708843422200,9.930422119140625,-1.0666204690933228,-6.508547782897949,7.262039661407471
1747979708861692000,9.94869189453125,-0.7966948747634888,-6.543056964874268,7.265657424926758
1747979708879958500,9.96695849609375,-1.4352716207504272,-6.597934246063232,7.1164164543151855
1747979708898223400,9.985223388671875,-2.288393974304199,-6.680006980895996,6.810055255889893
1747979708916484600,10.003484619140625,-3.203840494155884,-6.8908843994140625,6.203808784484863
1747979708934753300,10.021753173828126,-4.162929534912109,-7.238070964813232,5.149417400360107
1747979708953022200,10.040022216796874,-4.546624183654785,-7.456048011779785,4.468964576721191
1747979708971286500,10.05828662109375,-4.481801986694336,-7.81441068649292,3.883882999420166
1747979708989552400,10.076552490234375,-3.9066872596740723,-8.251712799072266,3.589312791824341
1747979709007818500,10.094818603515625,-3.4683632850646973,-8.294567108154297,3.9251410961151123
1747979709026082800,10.113082763671875,-2.855250835418701,-8.512380599975586,3.9526021480560303
1747979709044349200,10.13134912109375,-2.232861042022705,-8.973240852355957,3.275883674621582
1747979709062615000,10.149614990234374,-1.4154211282730103,-9.497217178344727,2.0088701248168945
1747979709080881200,10.167881103515626,0.29023897647857666,-9.694463729858398,1.472835898399353
1747979709099145200,10.186145263671875,3.019230365753174,-9.313015937805176,0.6229647397994995
1747979709117407200,10.2044072265625,2.6228108406066895,-9.44528579711914,-0.3789072036743164
1747979709135677700,10.222677734375,2.2429277896881104,-9.547649383544922,-0.21853969991207123
1747979709153943300,10.240943359375,2.672152280807495,-9.438834190368652,-0.06437594443559647
1747979709172204500,10.25920458984375,3.1580917835235596,-9.285138130187988,0.22086264193058014
1747979709190473500,10.277473388671876,3.368560552597046,-9.194639205932617,0.5895050764083862
1747979709208757500,10.295757568359376,3.2113075256347656,-9.23436164855957,0.806329607963562
1747979709227005700,10.314005615234375,2.9744744300842285,-9.308244705200195,0.8632578253746033
1747979709245272000,10.33227197265625,2.749816417694092,-9.360194206237793,1.0302289724349976
1747979709263532500,10.350532470703126,2.611821174621582,-9.358229637145996,1.3557360172271729
1747979709281803300,10.36880322265625,2.512068510055542,-9.32264518737793,1.736055850982666
1747979709300067800,10.38706787109375,2.350773811340332,-9.277120590209961,2.1552317142486572
1747979709318335000,10.4053349609375,2.0670840740203857,-9.232758522033691,2.5921919345855713
1747979709336600300,10.423600341796876,1.6143381595611572,-9.180519104003906,3.057465076446533
1747979709354865000,10.441864990234375,0.9248184561729431,-9.125755310058594,3.4787096977233887
1747979709373132300,10.46013232421875,-0.09211967140436172,-8.96752643585205,3.9763176441192627
1747979709391393000,10.47839306640625,-1.6062968969345093,-8.334344863891602,4.918804168701172
1747979709409662700,10.496662841796875,-2.945594549179077,-7.021122932434082,6.185746192932129
1747979709427928800,10.5149287109375,-1.8244061470031738,-6.045020580291748,7.507688522338867
1747979709446193000,10.53319287109375,-1.927667498588562,-4.99901819229126,8.217667579650879
1747979709464461300,10.55146142578125,-3.0071768760681152,-4.264166831970215,8.307217597961426
1747979709482726000,10.569725830078125,-4.5746846199035645,-3.8049511909484863,7.799406051635742
1747979709500988400,10.587988525390625,-6.167117595672607,-3.7537240982055664,6.641712188720703
1747979709519259600,10.606259765625,-7.276845455169678,-4.1720991134643555,5.086966514587402
1747979709537523000,10.62452294921875,-7.876152992248535,-4.80249547958374,3.337416648864746
1747979709555788300,10.642788330078124,-7.9300994873046875,-5.292461395263672,2.310727596282959
1747979709574052900,10.661052978515626,-7.6667022705078125,-5.428778648376465,2.82597279548645
1747979709592304400,10.679304443359374,-7.071835517883301,-5.674346446990967,3.745279312133789
1747979709610585600,10.697585693359375,-6.025843620300293,-5.923250675201416,4.984020709991455
1747979709628849400,10.715849365234375,-4.322646617889404,-6.096046447753906,6.355237007141113
1747979709647117600,10.73411767578125,-1.9551715850830078,-6.262101650238037,7.293798446655273
1747979709665385500,10.752385498046875,-0.1568503975868225,-6.155572414398193,7.636780738830566
1747979709683648500,10.7706484375,0.1642792820930481,-6.045074939727783,7.72438907623291
1747979709701912000,10.788912109375,-0.5717156529426575,-6.1532087326049805,7.618877410888672
1747979709720177400,10.807177490234375,-1.8167054653167725,-6.28509521484375,7.309805393218994
1747979709738440400,10.8254404296875,-3.0028388500213623,-6.4859113693237305,6.719526767730713
1747979709756704500,10.84370458984375,-3.7412025928497314,-6.822900295257568,5.973907470703125
1747979709774972000,10.861971923828126,-4.012346267700195,-7.162131309509277,5.370386123657227
1747979709793242000,10.8802421875,-4.094729423522949,-7.434545516967773,4.919032573699951
1747979709811507700,10.8985078125,-4.273118495941162,-8.035643577575684,3.661285161972046
1747979709829773600,10.916773681640626,-4.252155780792236,-8.236225128173828,3.212456226348877
1747979709848039400,10.935039306640626,-3.990393877029419,-8.35643482208252,3.2377238273620605
1747979709866304500,10.953304443359375,-3.2249088287353516,-8.627530097961426,3.376661539077759
1747979709884570000,10.971570068359375,-2.089416980743408,-9.048681259155273,3.1609890460968018
1747979709902835200,10.989835205078125,-0.6954342126846313,-9.454338073730469,2.5234932899475098
1747979709921103000,11.00810302734375,1.4600235223770142,-9.411937713623047,2.34944486618042
1747979709939367700,11.02636767578125,3.8706552982330322,-8.972798347473145,0.8619911670684814
1747979709957633300,11.04463330078125,3.084535837173462,-9.302597045898438,0.42831966280937195
1747979709975899000,11.06289892578125,2.9808037281036377,-9.336365699768066,0.4280194342136383
1747979709994164000,11.0811640625,3.2222063541412354,-9.252747535705566,0.4900555908679962
1747979710012426800,11.0994267578125,3.422229766845703,-9.160539627075195,0.7803598046302795
1747979710030690800,11.11769091796875,3.552938461303711,-9.07174301147461,1.1472758054733276
1747979710048960500,11.13596044921875,3.6692616939544678,-8.99735164642334,1.3491802215576172
1747979710067228400,11.154228515625,3.474086284637451,-9.02508544921875,1.6476255655288696
1747979710085493000,11.172492919921876,3.2388103008270264,-9.030871391296387,2.0468497276306152
1747979710103758600,11.190758544921875,2.995457887649536,-9.011916160583496,2.459414482116699
1747979710122025000,11.20902490234375,2.7165825366973877,-8.987049102783203,2.8441596031188965
1747979710140287500,11.22728759765625,2.3785297870635986,-8.970602989196777,3.1791493892669678
1747979710158558700,11.245558837890625,1.9025788307189941,-8.968550682067871,3.490189790725708
1747979710176821200,11.2638212890625,1.0984898805618286,-8.98358154296875,3.7847981452941895
1747979710195087400,11.28208740234375,0.0425235852599144,-8.913278579711914,4.097287654876709
1747979710213353000,11.30035302734375,-1.420637845993042,-8.474241256713867,4.733410358428955
1747979710231618600,11.31861865234375,-2.8881521224975586,-7.13040018081665,6.08704137802124
1747979710249884000,11.3368837890625,-2.168473958969116,-6.064788341522217,7.399471759796143
1747979710268149800,11.355149658203125,-2.3718271255493164,-4.974997043609619,8.1154146194458
1747979710286410500,11.373410400390625,-3.293367862701416,-4.075313091278076,8.293471336364746
1747979710304680000,11.391679931640626,-4.586001873016357,-3.4605729579925537,7.951677322387695
1747979710322947800,11.40994775390625,-5.777792930603027,-3.283527374267578,7.216071128845215
1747979710341213000,11.428212890625,-6.658918380737305,-3.6626179218292236,6.203237533569336
1747979710359478500,11.446478515625,-7.269533634185791,-4.400775909423828,4.901340007781982
1747979710377744000,11.464743896484375,-7.484571933746338,-5.154975891113281,3.6937155723571777
1747979710396009200,11.48300927734375,-7.401090145111084,-5.625444412231445,3.1327860355377197
1747979710414275600,11.501275634765625,-7.238112449645996,-5.800474643707275,3.193796396255493
1747979710432540700,11.519540771484374,-6.8415656089782715,-5.836779594421387,3.919329881668091
1747979710459939300,11.546939208984375,-4.898386001586914,-6.044839382171631,5.975101947784424
1747979710478204700,11.56520458984375,-2.8260576725006104,-6.386139392852783,6.889613628387451
1747979710496470800,11.583470703125,-0.8083004355430603,-6.6609907150268555,7.156392574310303
1747979710514736000,11.601736083984376,0.2569710910320282,-6.729434490203857,7.133358001708984
1747979710533002200,11.620002197265626,-0.08356431871652603,-6.78145170211792,7.088093280792236
1747979710551267600,11.638267578125,-0.8924430012702942,-6.834269046783447,6.980861186981201
1747979710569533400,11.656533447265625,-1.6388764381408691,-6.960177421569824,6.7161102294921875
1747979710587793400,11.67479345703125,-2.763291358947754,-7.084641933441162,6.197436809539795
1747979710606065000,11.69306494140625,-3.789116859436035,-7.198509693145752,5.482714653015137
1747979710624331800,11.711331787109375,-4.318570613861084,-7.547906875610352,4.540395736694336
1747979710642596000,11.72959619140625,-4.3077073097229,-8.241973876953125,3.1224489212036133
1747979710660860700,11.747860595703125,-4.068996429443359,-8.586799621582031,2.438502073287964
1747979710679128600,11.766128662109375,-3.838791847229004,-8.776313781738281,2.115684986114502
1747979710697388800,11.784388916015626,-3.2306504249572754,-9.024044036865234,2.089409589767456
1747979710715659000,11.802658935546875,-1.9158873558044434,-9.333608627319336,2.3343639373779297
1747979710733924600,11.820924560546874,-0.2969602048397064,-9.612861633300781,1.9341256618499756
1747979710752190200,11.839190185546874,1.932149052619934,-9.509186744689941,1.441627860069275
1747979710770455800,11.857455810546876,3.1365439891815186,-9.295062065124512,-0.004653653129935265
1747979710788717300,11.87571728515625,2.1589207649230957,-9.56888484954834,-0.10785730928182602
1747979710806987300,11.8939873046875,2.144110918045044,-9.572784423828125,-0.026668420061469078
1747979710825253000,11.912253173828125,2.417818307876587,-9.506961822509766,0.08917427808046341
1747979710843513600,11.930513671875,2.6706371307373047,-9.429140090942383,0.44172894954681396
1747979710861784000,11.9487841796875,2.785198450088501,-9.378020286560059,0.7290637493133545
1747979710880049700,11.967049560546876,2.722029685974121,-9.379843711853027,0.9193503260612488
1747979710898315300,11.985315185546876,2.621493101119995,-9.382802963256836,1.151920199394226
1747979710916581400,12.003581298828125,2.4731554985046387,-9.382970809936523,1.442036747932434
1747979710934846000,12.021845947265625,2.2615773677825928,-9.380712509155273,1.7673730850219727
1747979710953113600,12.040113525390625,1.994072675704956,-9.369966506958008,2.1127021312713623
1747979710971378700,12.058378662109375,1.664015293121338,-9.344667434692383,2.4787845611572266
1747979710989643800,12.076643798828124,1.2216213941574097,-9.295541763305664,2.887327194213867
1747979711007909600,12.09490966796875,0.6110077500343323,-9.209236145019531,3.324568510055542
1747979711026175200,12.11317529296875,-0.17313051223754883,-9.087797164916992,3.6902706623077393
1747979711044437200,12.131437255859375,-1.0827664136886597,-8.86632251739502,4.056115627288818
1747979711062706400,12.14970654296875,-2.2213003635406494,-8.232988357543945,4.849727153778076
1747979711080972300,12.16797216796875,-1.5952441692352295,-7.427950859069824,6.20619535446167
1747979711099233000,12.18623291015625,-0.5896952152252197,-6.846917152404785,7.000578880310059
1747979711117500400,12.20450048828125,-0.9251906275749207,-6.2190375328063965,7.530187129974365
1747979711135772400,12.2227724609375,-1.8176265954971313,-5.775826454162598,7.7183003425598145
1747979711154033700,12.24103369140625,-2.921513557434082,-5.590604782104492,7.513055324554443
1747979711172301800,12.2593017578125,-4.066422939300537,-5.708468914031982,6.863945484161377
1747979711190566400,12.27756640625,-5.104285717010498,-6.046435832977295,5.798530578613281
1747979711208830500,12.29583056640625,-5.698634624481201,-6.4947638511657715,4.6454010009765625
1747979711227098600,12.3140986328125,-5.68781852722168,-6.9444732666015625,3.9571633338928223
1747979711245363200,12.33236328125,-5.399714469909668,-7.040410995483398,4.184717178344727
1747979711263628800,12.35062890625,-4.969048500061035,-6.950266361236572,4.820632457733154
1747979711281894700,12.368894775390626,-4.074565887451172,-7.013911247253418,5.5171637535095215
1747979711300159700,12.38715966796875,-2.956186294555664,-7.243237495422363,5.918834209442139
1747979711318421500,12.40542138671875,-1.912642478942871,-7.384247779846191,6.168536186218262
1747979711336673800,12.423673828125,-1.1005162000656128,-7.385409832000732,6.362445831298828
1747979711354957300,12.441957275390624,-0.9054548144340515,-7.409111499786377,6.365638732910156
1747979711373205000,12.460205078125,-1.2975480556488037,-7.524970531463623,6.158514499664307
1747979711391489800,12.47848974609375,-1.8621125221252441,-7.653075695037842,5.84799861907959
1747979711409754000,12.496754150390625,-2.4624404907226562,-7.807610988616943,5.404973983764648
1747979711428020200,12.515020263671875,-3.5311295986175537,-7.886144638061523,4.644993305206299
1747979711446285300,12.533285400390625,-4.256994247436523,-8.076894760131836,3.5885796546936035
1747979711464551200,12.55155126953125,-4.107721328735352,-8.703978538513184,1.8982899188995361
1747979711482817800,12.56981787109375,-3.7787528038024902,-8.859740257263184,1.8606898784637451
1747979711501081600,12.58808154296875,-3.3876888751983643,-8.910301208496094,2.3165152072906494
1747979711519348000,12.606347900390626,-2.5442657470703125,-9.03980827331543,2.836320161819458
1747979711537614000,12.624614013671875,-1.345237374305725,-9.281476974487305,2.877603769302368
1747979711565012200,12.65201220703125,0.8750959634780884,-9.630772590637207,1.6487970352172852
1747979711583279600,12.670279541015624,3.663043975830078,-9.087014198303223,0.4943511188030243
1747979711601542400,12.68854248046875,3.4956421852111816,-9.144113540649414,-0.6338649392127991
1747979711619807500,12.706807373046875,2.811061143875122,-9.396729469299316,-0.1885121911764145
1747979711638077000,12.725076904296875,2.9950733184814453,-9.34113597869873,-0.09393595904111862
1747979711656333000,12.7433330078125,3.351036310195923,-9.21895694732666,0.1322973519563675
1747979711674608400,12.7616083984375,3.551814079284668,-9.125263214111328,0.5918617844581604
1747979711692873000,12.779873046875,3.686408519744873,-9.040265083312988,0.9592296481132507
1747979711711138600,12.798138671875,3.609208345413208,-9.035099029541016,1.2556774616241455
1747979711729398800,12.816398681640624,3.31213641166687,-9.078269958496094,1.6884595155715942
1747979711747669000,12.8346689453125,2.9857165813446045,-9.09648323059082,2.1390695571899414
1747979711765934800,12.852934814453125,2.645015001296997,-9.098065376281738,2.5426793098449707
1747979711784199000,12.871198974609374,2.2727906703948975,-9.097878456115723,2.8808226585388184
1747979711802467600,12.889467529296875,1.8532332181930542,-9.10201644897461,3.1551477909088135
1747979711823019500,12.91001953125,1.3108364343643188,-9.086884498596191,3.4563519954681396
1747979711841282300,12.9282822265625,0.6241526007652283,-9.03122329711914,3.7793595790863037
1747979711859547100,12.946547119140625,-0.47708427906036377,-8.841809272766113,4.222668647766113
1747979711877813200,12.964813232421875,-2.4854397773742676,-8.009222984313965,5.090291976928711
1747979711896079600,12.98307958984375,-2.47027850151062,-6.515018939971924,6.905678749084473
1747979711914344400,13.001344482421874,-1.5652623176574707,-5.60899543762207,7.89463472366333
1747979711932605200,13.019605224609375,-2.416977643966675,-4.703668594360352,8.262557983398438
1747979711950875100,13.037875244140626,-4.098991870880127,-3.9131364822387695,8.007604598999023
1747979711969138400,13.056138427734375,-5.841655254364014,-3.4972987174987793,7.06258487701416
1747979711987407000,13.074406982421875,-7.163080215454102,-3.6725525856018066,5.607029914855957
1747979712005672700,13.092672607421875,-7.916105270385742,-4.233200550079346,3.956178903579712
1747979712023938600,13.1109384765625,-8.134778022766113,-4.723043441772461,2.784662961959839
1747979712042205200,13.129205078125,-8.017643928527832,-4.9373250007629395,2.7525110244750977
1747979712060469800,13.1474697265625,-7.4609222412109375,-5.016861915588379,3.9245240688323975
1747979712078735400,13.1657353515625,-6.083695888519287,-5.09118127822876,5.771019458770752
1747979712097000700,13.184000732421875,-3.7341508865356445,-5.295699596405029,7.365312576293945
1747979712115267000,13.20226708984375,-2.1824183464050293,-5.619297981262207,7.739293575286865
1747979712133533400,13.220533447265625,-1.9064905643463135,-5.78775691986084,7.687867641448975
1747979712151797000,13.238796875,-1.9750128984451294,-5.893267631530762,7.589785575866699
1747979712170064100,13.257064208984374,-2.003544330596924,-6.023059844970703,7.479615688323975
1747979712188325600,13.27532568359375,-1.9373797178268433,-6.245502471923828,7.312752723693848
1747979712206594300,13.29359423828125,-2.0650742053985596,-6.650753974914551,6.9093475341796875
1747979712224861400,13.311861328125,-2.873213768005371,-7.138693809509277,6.084392547607422
1747979712243121400,13.330121337890626,-3.6548829078674316,-7.807423114776611,4.682102680206299
1747979712261393400,13.348393310546875,-3.241818428039551,-8.59572696685791,3.440967321395874
1747979712279657700,13.36665771484375,-2.8727667331695557,-8.842902183532715,3.128321409225464
1747979712297922800,13.3849228515625,-2.5566294193267822,-8.98840618133545,2.9846816062927246
1747979712316189000,13.40318896484375,-2.0280566215515137,-9.243714332580566,2.58396315574646
1747979712334455800,13.421455810546876,-1.2698897123336792,-9.583930969238281,1.6648706197738647
1747979712352720100,13.43972021484375,0.2936707139015198,-9.773824691772461,0.7888060808181763
1747979712370985700,13.45798583984375,2.9974594116210938,-9.340834617614746,0.012705415487289429
1747979712389251600,13.47625146484375,3.101017713546753,-9.235004425048828,-1.1552057266235352
1747979712407517000,13.494516845703124,2.388840913772583,-9.45503044128418,-1.0639349222183228
1747979712425784300,13.512784423828125,2.859192371368408,-9.34311580657959,-0.8759735822677612
1747979712444043300,13.531043212890625,3.541698932647705,-9.131150245666504,-0.560882031917572
1747979712462314200,13.549314208984375,3.953866720199585,-8.977611541748047,-0.07443593442440033
1747979712480581000,13.5675810546875,3.911654472351074,-8.99082088470459,0.31654781103134155
1747979712498846000,13.585845947265625,3.70733642578125,-9.070562362670898,0.46546149253845215
1747979712517107200,13.604107177734376,3.438743829727173,-9.17448616027832,0.48985400795936584
1747979712535372000,13.6223720703125,3.1576921939849854,-9.263386726379395,0.674358069896698
1747979712553643800,13.640643798828124,2.9787302017211914,-9.301770210266113,0.9167031049728394
1747979712581041000,13.668041015625,2.7382471561431885,-9.325970649719238,1.3282957077026367
1747979712599306500,13.686306396484374,2.449601411819458,-9.354159355163574,1.6538699865341187
1747979712617571800,13.70457177734375,1.9999715089797974,-9.38828182220459,2.0239570140838623
1747979712635838700,13.722838623046876,1.326786756515503,-9.414716720581055,2.4163761138916016
1747979712654107600,13.741107666015624,0.3251563608646393,-9.369440078735352,2.888597249984741
1747979712672368600,13.75936865234375,-1.2948931455612183,-8.857095718383789,4.013880252838135
1747979712690623500,13.77762353515625,-2.3006272315979004,-7.724582195281982,5.592324256896973
1747979712708900600,13.795900634765625,-0.8174577355384827,-7.128504276275635,6.689716815948486
1747979712727170000,13.814170166015625,-0.31387680768966675,-6.5454421043396,7.300329208374023
1747979712745427000,13.832427001953125,-1.0957667827606201,-5.916501522064209,7.74793004989624
1747979712763697200,13.850697265625,-2.643749713897705,-5.370736598968506,7.771864891052246
1747979712781963500,13.868963623046875,-4.331734657287598,-5.119842529296875,7.159567832946777
1747979712800229400,13.8872294921875,-5.678620338439941,-5.2014546394348145,6.077357292175293
1747979712818494500,13.905494384765625,-6.5419464111328125,-5.51131010055542,4.802549362182617
1747979712836747300,13.923747314453125,-6.726982116699219,-6.009568691253662,3.8560290336608887
1747979712855014000,13.942013916015625,-6.256018161773682,-6.39675235748291,4.022423267364502
1747979712873293000,13.96029296875,-5.716997146606445,-6.473382472991943,4.652671813964844
1747979712891556400,13.978556396484375,-4.864129543304443,-6.466455459594727,5.546291351318359
1747979712909823700,13.99682373046875,-3.9828245639801025,-6.432641506195068,6.244548320770264
1747979712928088800,14.0150888671875,-3.0755198001861572,-6.267727375030518,6.89150857925415
1747979712946348000,14.03334814453125,-1.7076209783554077,-5.911438941955566,7.640356540679932
1747979712964621300,14.051621337890625,-0.655120313167572,-5.637340545654297,8.001708984375
1747979712982884900,14.069884765625,-1.356398582458496,-5.832945823669434,7.770008087158203
1747979713001147000,14.08814697265625,-2.5078930854797363,-6.286369800567627,7.101279258728027
1747979713019416000,14.106416015625,-3.4893312454223633,-6.8430914878845215,6.101866722106934
1747979713037683000,14.124682861328125,-4.434070110321045,-7.3099822998046875,4.810336589813232
1747979713055948300,14.1429482421875,-4.667316913604736,-8.032666206359863,3.150963306427002
1747979713074214000,14.1612138671875,-4.418910026550293,-8.414995193481445,2.4284183979034424
1747979713092479200,14.179479248046874,-4.286492347717285,-8.352733612060547,2.844984292984009
1747979713110744600,14.19774462890625,-3.4404170513153076,-8.649666786193848,3.095625162124634
1747979713129010700,14.2160107421875,-2.290393352508545,-9.094133377075195,2.878708600997925
1747979713147276000,14.234276123046875,-1.3055028915405273,-9.468182563781738,2.210270404815674
1747979713165541600,14.252541748046875,-0.31573358178138733,-9.635005950927734,1.817437767982483
1747979713183807500,14.270807373046875,0.9527868628501892,-9.529014587402344,2.127485752105713
1747979713202061300,14.289061279296876,3.4154350757598877,-9.001457214355469,1.8827358484268188
1747979713220339200,14.307339111328124,3.7629146575927734,-9.005818367004395,0.9858090281486511
1747979713238592500,14.325592529296875,3.3130834102630615,-9.1854829788208,0.941551148891449
1747979713256870400,14.343870361328126,3.543670415878296,-9.090559959411621,1.0199167728424072
1747979713275123200,14.362123291015624,3.7324297428131104,-8.985966682434082,1.2479950189590454
1747979713293402000,14.380402099609375,3.803917407989502,-8.914102554321289,1.5182515382766724
1747979713311667000,14.3986669921875,3.9436278343200684,-8.840339660644531,1.5913270711898804
1747979713355047400,14.44204736328125,3.3396759033203125,-8.953019142150879,2.219489097595215
1747979713373312500,14.4603125,3.0068423748016357,-8.979007720947266,2.5636746883392334
1747979713391578400,14.478578369140624,2.6181890964508057,-9.001755714416504,2.889564037322998
1747979713409842700,14.4968427734375,2.1785240173339844,-9.024415016174316,3.1701831817626953
1747979713430394400,14.517394287109376,1.9474310874938965,-9.030172348022461,3.3014566898345947
1747979713448659700,14.53565966796875,1.0254093408584595,-9.007689476013184,3.747821092605591
1747979713476058000,14.56305810546875,-0.3209264874458313,-8.859786033630371,4.199681758880615
1747979713494323500,14.581323486328126,-1.9304656982421875,-8.253927230834961,4.937824249267578
1747979713512588800,14.5995888671875,-1.818402886390686,-7.473690986633301,6.088799953460693
1747979713530855200,14.617855224609375,-0.9777205586433411,-6.800613880157471,7.0022735595703125
1747979713549116400,14.636116455078126,-1.3627673387527466,-5.941914081573486,7.685873031616211
1747979713567386400,14.654386474609375,-2.5683164596557617,-5.217416763305664,7.900534629821777
1747979713585649400,14.6726494140625,-4.1343302726745605,-4.783213138580322,7.500956058502197
1747979713603920000,14.690919921875,-5.546315670013428,-4.777482509613037,6.5307087898254395
1747979713622183200,14.70918310546875,-6.4216766357421875,-5.075084209442139,5.40756368637085
1747979713640449000,14.727448974609375,-6.819954872131348,-5.466117858886719,4.454874038696289
1747979713658714600,14.745714599609375,-6.7582688331604,-5.713176727294922,4.233381271362305
1747979713676980200,14.763980224609375,-6.436642169952393,-5.734697341918945,4.681771278381348
1747979713695236000,14.782236083984374,-5.728365421295166,-5.789513111114502,5.46840763092041
1747979713713511400,14.800511474609374,-4.245804786682129,-6.011898517608643,6.485854625701904
1747979713731776800,14.81877685546875,-2.232224941253662,-6.388687610626221,7.101970195770264
1747979713750043600,14.837043701171876,-0.9471524953842163,-6.5370354652404785,7.253013610839844
1747979713768308500,14.85530859375,-0.6069346070289612,-6.564357280731201,7.264776229858398
1747979713786573600,14.873573486328125,-0.8392830491065979,-6.6873860359191895,7.1281561851501465
1747979713804840400,14.89184033203125,-1.299107551574707,-6.844228744506836,6.906877040863037
1747979713823105800,14.910105712890624,-1.7661164999008179,-7.01051139831543,6.630965232849121
1747979713841371100,14.92837109375,-2.1018788814544678,-7.2660017013549805,6.246875286102295
1747979713859624400,14.94662451171875,-2.6001079082489014,-7.596139430999756,5.636865139007568
1747979713877890800,14.964890869140625,-3.114142894744873,-7.909533977508545,4.896684169769287
1747979713896157000,14.983156982421875,-3.0198285579681396,-8.385573387145996,4.098650932312012
1747979713914434000,15.00143408203125,-1.86174476146698,-8.991606712341309,3.4526844024658203
1747979713932699100,15.01969921875,-1.1624561548233032,-9.215981483459473,3.1544389724731445
1747979713950964700,15.03796484375,-0.8448320627212524,-9.32402229309082,2.9300153255462646
1747979713969230600,15.056230712890626,-0.6343133449554443,-9.388437271118164,2.7732656002044678
1747979713987496200,15.07449609375,-0.2927360534667969,-9.56212043762207,2.1716971397399902
1747979714005762000,15.092761962890625,1.847072958946228,-9.549073219299316,1.2804896831512451
1747979714024027400,15.11102734375,3.193626642227173,-9.275604248046875,0.004921747837215662
1747979714042293200,15.129293212890625,2.4090707302093506,-9.50794506072998,-0.1773684173822403
1747979714060557600,15.1475576171875,2.1139907836914062,-9.578198432922363,0.15897557139396667
1747979714078825500,15.165825439453124,2.1537792682647705,-9.562901496887207,0.3850480914115906
1747979714097090300,15.18409033203125,2.2243101596832275,-9.533461570739746,0.6337872743606567
1747979714115350800,15.202350830078124,2.2142364978790283,-9.51436996459961,0.9000197649002075
1747979714133620700,15.220620849609375,2.102415084838867,-9.51842975616455,1.1024829149246216
1747979714151887400,15.238887451171875,1.9255857467651367,-9.542878150939941,1.2090070247650146
1747979714170148900,15.25714892578125,1.7418298721313477,-9.574973106384277,1.233708143234253
1747979714188418300,15.275418212890624,1.5414878129959106,-9.601868629455566,1.2899771928787231
1747979714206684200,15.29368408203125,1.2966828346252441,-9.619690895080566,1.4199472665786743
1747979714224949800,15.31194970703125,1.0067521333694458,-9.616365432739258,1.6577285528182983
1747979714243215400,15.33021533203125,0.6287012696266174,-9.579328536987305,2.019232988357544
1747979714261481000,15.34848095703125,0.14781147241592407,-9.489355087280273,2.4832231998443604
1747979714279746300,15.366746337890625,-0.397591233253479,-9.316882133483887,3.045278787612915
1747979714298011600,15.38501171875,-0.9974949955940247,-9.035344123840332,3.6883115768432617
1747979714316265700,15.403265625,-1.6768540143966675,-8.585554122924805,4.439881324768066
1747979714334542800,15.42154296875,-1.485490322113037,-8.04470443725586,5.4140706062316895
1747979714352806000,15.439805908203125,0.031444136053323746,-7.657689571380615,6.131471157073975
1747979714371070000,15.458070068359374,1.2491731643676758,-7.044813632965088,6.711653709411621
1747979714389339400,15.47633935546875,0.8925814628601074,-6.477273464202881,7.313297748565674
1747979714407606500,15.4946064453125,-0.7455893158912659,-6.090476989746094,7.654168128967285
1747979714425871600,15.51287158203125,-2.5931613445281982,-5.952559947967529,7.353822231292725
1747979714444126200,15.531126220703126,-3.972752809524536,-6.035192966461182,6.635495662689209
1747979714462402600,15.549402587890626,-4.6276750564575195,-6.338186264038086,5.8862690925598145
1747979714480668700,15.567668701171876,-4.5537495613098145,-6.780429363250732,5.433717727661133
1747979714498934000,15.58593408203125,-3.8366665840148926,-7.053637504577637,5.635807514190674
1747979714517200000,15.604199951171875,-3.0094857215881348,-7.0315961837768555,6.142945766448975
1747979714535465200,15.62246533203125,-2.435596466064453,-6.925510406494141,6.507017612457275
1747979714553731300,15.6407314453125,-2.4970130920410156,-6.748335838317871,6.667910575866699
1747979714581124900,15.668124755859376,-2.57114839553833,-6.413805961608887,6.963362693786621
1747979714599395600,15.6863955078125,-2.218712091445923,-6.265751361846924,7.214829921722412
1747979714617661400,15.704661376953124,-1.98087477684021,-6.334627628326416,7.223900318145752
1747979714635926500,15.722926513671876,-2.344741106033325,-6.5917792320251465,6.876535892486572
1747979714654192400,15.7411923828125,-2.5995142459869385,-6.974526405334473,6.390195369720459
1747979714672454000,15.759453857421875,-2.796828031539917,-7.424253463745117,5.7701263427734375
1747979714690722600,15.77772265625,-2.6561615467071533,-8.001592636108398,5.015520095825195
1747979714708989400,15.795989501953125,-2.40018630027771,-8.717050552368164,3.8063457012176514
1747979714727254800,15.8142548828125,-1.9973522424697876,-9.091547966003418,3.096845865249634
1747979714745521400,15.832521484375,-1.6100225448608398,-9.252492904663086,2.8346641063690186
1747979714763786000,15.850785888671876,-1.0833971500396729,-9.411483764648438,2.5468313694000244
1747979714782051600,15.869051513671875,-0.1647728681564331,-9.50195026397705,2.4335012435913086
1747979714800317400,15.8873173828125,0.8474836349487305,-9.489794731140137,2.337029218673706
1747979714818583300,15.905583251953125,2.496528387069702,-9.320634841918945,1.7689627408981323
1747979714836849000,15.923848876953125,4.87892484664917,-8.509735107421875,0.12891927361488342
1747979714855109400,15.942109375,4.39362907409668,-8.677556991577148,-1.2775492668151855
1747979714873379800,15.9603798828125,3.607118606567383,-9.082002639770508,-0.8614116907119751
1747979714891630300,15.97863037109375,3.6305153369903564,-9.104779243469238,-0.39804673194885254
1747979714919045400,16.00604541015625,3.9478647708892822,-8.980423927307129,0.049714345484972
1747979714962420200,16.049420166015626,3.782395601272583,-9.043047904968262,0.39099690318107605
1747979714980689200,16.067689208984376,3.391000986099243,-9.181947708129883,0.6550227999687195
1747979714998954500,16.08595458984375,3.0981972217559814,-9.253270149230957,1.0071202516555786
1747979715017220400,16.104220458984376,2.8391952514648438,-9.28516960144043,1.4002509117126465
1747979715035486500,16.122486572265625,2.532593250274658,-9.303062438964844,1.8097240924835205
1747979715053751600,16.14075146484375,2.102224826812744,-9.323127746582031,2.2126998901367188
1747979715072017400,16.159017333984377,1.5232630968093872,-9.33632755279541,2.597834348678589
1747979715090283300,16.177283203125,0.812781572341919,-9.304343223571777,3.0007822513580322
1747979715108548600,16.195548583984376,0.007907775230705738,-9.195940017700195,3.416247606277466
1747979715126815000,16.21381494140625,-0.9416967630386353,-8.964350700378418,3.8716583251953125
1747979715145061000,16.23206103515625,-2.000612258911133,-8.472670555114746,4.521895885467529
1747979715163345700,16.250345703125,-0.7970183491706848,-7.73225212097168,5.984409332275391
1747979715181610200,16.2686103515625,1.148140788078308,-7.1073317527771,6.663610458374023
1747979715199879400,16.28687939453125,0.5126764178276062,-6.487835884094238,7.340387344360352
1747979715218140400,16.305140380859374,-1.3198634386062622,-6.003628730773926,7.645293235778809
1747979715236403500,16.323403564453123,-3.0499513149261475,-5.706435203552246,7.373636245727539
1747979715254669300,16.34166943359375,-4.169047832489014,-5.707091331481934,6.803256988525391
1747979715272938200,16.359938232421875,-4.921003818511963,-5.964085578918457,6.037343978881836
1747979715291206000,16.378205810546874,-5.408062934875488,-6.388924598693848,5.115721702575684
1747979715309470700,16.396470703125,-5.5020952224731445,-6.923420429229736,4.246091842651367
1747979715327736600,16.414736572265625,-5.177915573120117,-7.324974060058594,3.971158981323242
1747979715346002000,16.433001953125,-4.678715705871582,-7.328822135925293,4.542482852935791
1747979715364267300,16.451267333984376,-3.8953731060028076,-7.153284549713135,5.467421531677246
1747979715382533400,16.469533447265626,-2.461977005004883,-7.145608425140381,6.254204750061035
1747979715400799000,16.487799072265624,-0.8647263646125793,-6.9207000732421875,6.898717403411865
1747979715419064300,16.506064208984377,0.4998890161514282,-6.459134101867676,7.3665313720703125
1747979715437329200,16.5243291015625,0.9770984053611755,-6.105037212371826,7.61642599105835
1747979715455597000,16.54259716796875,0.6212769150733948,-5.996525764465332,7.738980770111084
1747979715473860900,16.56086083984375,-0.05399143695831299,-6.027868747711182,7.739380359649658
1747979715492128000,16.5791279296875,-1.162184476852417,-6.083390235900879,7.6077446937561035
1747979715510388700,16.597388671875,-2.913715124130249,-6.134376049041748,7.07925271987915
1747979715528653800,16.61565380859375,-3.201667547225952,-6.798755168914795,6.305742263793945
1747979715546924000,16.633924072265625,-1.7969675064086914,-7.7840681076049805,5.693443298339844
1747979715565189400,16.652189453125,-0.7993804812431335,-8.401281356811523,5.001558303833008
1747979715601720800,16.688720947265626,-0.07015414535999298,-9.238070487976074,3.299886465072632
1747979715619987000,16.706987060546876,0.3196227550506592,-9.375589370727539,2.869194984436035
1747979715638252000,16.725251953125,0.8446705341339111,-9.33640193939209,2.8903748989105225
1747979715656517600,16.743517578125,2.6451828479766846,-9.150681495666504,2.3460919857025146
1747979715674783500,16.761783447265625,4.7125654220581055,-8.603882789611816,0.032050490379333496
1747979715693049300,16.78004931640625,3.5857431888580322,-9.071702003479004,-1.0405594110488892
1747979715711314400,16.798314453125,3.151742935180664,-9.253412246704102,-0.8227916955947876
1747979715729580300,16.816580322265626,3.5856454372406006,-9.116750717163086,-0.5139386057853699
1747979715747844900,16.834844970703124,4.097970008850098,-8.913053512573242,0.014838525094091892
1747979715766108200,16.853108154296876,4.401195526123047,-8.742169380187988,0.6633744835853577
1747979715784376300,16.871376220703127,4.577994346618652,-8.61279296875,1.047804594039917
1747979715802644200,16.889644287109373,4.78961706161499,-8.482489585876465,1.1589008569717407
1747979715820908500,16.907908447265626,4.727513790130615,-8.49893569946289,1.2863891124725342
1747979715839174700,16.926174560546876,4.423656940460205,-8.62464427947998,1.510918140411377
1747979715857435400,16.944435302734377,4.0809712409973145,-8.747366905212402,1.7508158683776855
1747979715875705600,16.96270556640625,3.6977696418762207,-8.869888305664062,1.971725344657898
1747979715921369900,17.008369873046874,2.491041421890259,-9.112467765808105,2.644575834274292
1747979715939635200,17.02663525390625,1.770097255706787,-9.13992691040039,3.092667579650879
1747979715957900800,17.04490087890625,0.6168293952941895,-8.924450874328613,4.026142597198486
1747979715976166100,17.063166259765627,-0.7045184969902039,-8.067978858947754,5.536016464233398
1747979715994427100,17.08142724609375,-0.2793826162815094,-7.442649841308594,6.384749412536621
1747979716012699000,17.099698974609375,1.1436848640441895,-6.910228252410889,6.868542194366455
1747979716030963500,17.11796337890625,1.507562279701233,-6.278243064880371,7.38559627532959
1747979716049228500,17.136228515625,0.6060625910758972,-5.6786885261535645,7.9762959480285645
1747979716067489800,17.15448974609375,-0.7329666614532471,-5.306473731994629,8.218283653259277
1747979716085760300,17.17276025390625,-2.1161813735961914,-5.273378849029541,7.9968366622924805
1747979716104024600,17.191024658203126,-3.3142426013946533,-5.546167850494385,7.381864547729492
1747979716122292500,17.20929248046875,-4.159857749938965,-6.002377986907959,6.550051212310791
1747979716158822100,17.245822265625,-4.4250102043151855,-6.884158134460449,5.409598350524902
1747979716177089000,17.264089111328126,-4.099869251251221,-6.967196464538574,5.557460784912109
1747979716195351000,17.28235107421875,-3.493820905685425,-7.008257865905762,5.908776760101318
1747979716213622000,17.3006220703125,-2.6361451148986816,-7.041011333465576,6.301669597625732
1747979716231885300,17.31888525390625,-1.6654815673828125,-6.941258430480957,6.729129791259766
1747979716250149600,17.337149658203124,-0.5631754994392395,-6.836002349853516,7.013416767120361
1747979716268412700,17.35541259765625,0.6661326885223389,-6.745731830596924,7.091367721557617
1747979716286682000,17.37368212890625,1.188210129737854,-6.660470008850098,7.103689193725586
1747979716304947700,17.39194775390625,0.07357902824878693,-6.645655155181885,7.215674877166748
1747979716323208400,17.41020849609375,-2.0322296619415283,-6.60170316696167,6.965892791748047
1747979716341479000,17.42847900390625,-3.135601043701172,-6.719367980957031,6.422947406768799
1747979716359744500,17.44674462890625,-2.7876858711242676,-7.376223087310791,5.83577299118042
1747979716378010400,17.46501025390625,-1.5268479585647583,-8.352916717529297,4.912600040435791
1747979716396276000,17.48327587890625,-0.7984501123428345,-8.89572525024414,4.057663917541504
1747979716414541600,17.50154150390625,-0.3027017116546631,-9.199831008911133,3.3922855854034424
1747979716432806100,17.51980615234375,0.12858083844184875,-9.327387809753418,3.036351442337036
1747979716451073800,17.53807373046875,0.7104026079177856,-9.222558975219727,3.2673914432525635
1747979716478471000,17.565470947265624,2.0056207180023193,-9.105599403381348,3.0498592853546143
1747979716496737300,17.5837373046875,4.463311672210693,-8.484528541564941,2.080324172973633
1747979716515001900,17.602001953125,5.238649368286133,-8.29078483581543,-0.23567861318588257
1747979716533268000,17.62026806640625,4.063694000244141,-8.917022705078125,-0.45739370584487915
1747979716551532300,17.6385322265625,3.8733437061309814,-9.008996963500977,-0.2670108377933502
1747979716569801200,17.65680126953125,4.137263774871826,-8.894869804382324,0.020763389766216278
1747979716588061400,17.6750615234375,4.453901767730713,-8.725509643554688,0.5141573548316956
1747979716606333700,17.693333740234376,4.645284652709961,-8.579830169677734,1.0217442512512207
1747979716624591000,17.711591064453124,4.377651214599609,-8.617836952209473,1.6748601198196411
1747979716642861000,17.729861083984375,3.9314162731170654,-8.633001327514648,2.500277519226074
1747979716661128000,17.7481279296875,3.2540619373321533,-8.635313034057617,3.328446865081787
1747979716679389200,17.76638916015625,2.2378745079040527,-8.653427124023438,4.0430474281311035
1747979716697649000,17.78464892578125,0.9423888921737671,-8.507319450378418,4.793074607849121
1747979716715925000,17.802925048828126,-0.013805204071104527,-7.823548793792725,5.9184465408325195
1747979716734188800,17.821188720703127,-0.017378948628902435,-6.963379859924316,6.9099321365356445
1747979716752456000,17.8394560546875,-0.14525215327739716,-6.424103260040283,7.412550449371338
1747979716770720800,17.857720703125,-0.6950629353523254,-5.445342540740967,8.130268096923828
1747979716788987400,17.8759873046875,-1.7184674739837646,-4.477076530456543,8.557965278625488
1747979716807252000,17.894251953125,-3.3423094749450684,-3.7737350463867188,8.415700912475586
1747979716825518300,17.912518310546876,-5.032431125640869,-3.5528955459594727,7.634640216827393
1747979716843783200,17.930783203125,-6.374938011169434,-3.8259050846099854,6.399899482727051
1747979716862049800,17.9490498046875,-6.9416608810424805,-4.32869815826416,5.4140424728393555
1747979716880314400,17.967314453125,-6.6971330642700195,-4.662947177886963,5.44439697265625
1747979716898576600,17.98557666015625,-5.998965740203857,-4.925526142120361,5.998979091644287
1747979716916844800,18.0038447265625,-4.9988017082214355,-4.963499069213867,6.827280521392822
1747979716935113500,18.022113525390626,-3.347393751144409,-4.88049840927124,7.8237996101379395
1747979716953376800,18.040376708984375,-1.7459561824798584,-4.92164945602417,8.304523468017578
1747979716971640300,18.058640380859377,-1.0383594036102295,-4.935375213623047,8.414274215698242
1747979716989911000,18.0769111328125,-1.5325064659118652,-5.0545549392700195,8.266739845275879
1747979717008171800,18.095171875,-1.9716572761535645,-5.257293224334717,8.044224739074707
1747979717026437600,18.113437744140626,-2.385122060775757,-5.459683895111084,7.7935309410095215
1747979717044705800,18.131705810546876,-3.0816500186920166,-5.706105709075928,7.3607001304626465
1747979717062971000,18.149970947265626,-3.318671703338623,-6.179514408111572,6.858288764953613
1747979717081237200,18.1682373046875,-2.3855695724487305,-7.441044330596924,5.930935859680176
1747979717099501300,18.186501220703125,-1.3039329051971436,-8.330635070800781,5.013620376586914
1747979717117768200,18.204768310546875,-0.5468020439147949,-8.734816551208496,4.431715965270996
1747979717136028700,18.223028564453124,-0.07178926467895508,-8.959415435791016,3.9949748516082764
1747979717154298400,18.24129833984375,-0.1118498370051384,-9.22793197631836,3.3269925117492676
1747979717172565200,18.259565185546876,0.0038250796496868134,-9.489931106567383,2.4854283332824707
1747979717190829300,18.277829345703125,1.3583720922470093,-9.512600898742676,1.975180745124817
1747979717209097000,18.296096923828124,3.410238742828369,-9.142505645751953,1.0104238986968994
1747979717227362000,18.314362060546873,2.7930798530578613,-9.403959274291992,-0.019060170277953148
1747979717245627000,18.332626953125,1.8438094854354858,-9.635167121887207,0.004958439152687788
1747979717263893800,18.350893798828125,1.882820963859558,-9.626925468444824,0.11582604050636292
1747979717282157300,18.3691572265625,2.140381336212158,-9.568313598632812,0.3197447657585144
1747979717300410600,18.38741064453125,2.58656644821167,-9.445169448852539,0.5784168243408203
1747979717318683600,18.40568359375,3.2854487895965576,-9.222269058227539,0.6258519291877747
1747979717336956700,18.423956787109375,3.672262191772461,-9.089259147644043,0.36872851848602295
1747979717355220500,18.442220458984377,3.5773508548736572,-9.132598876953125,0.18529359996318817
1747979717373486800,18.46048681640625,3.4697470664978027,-9.17236614227295,0.254300981760025
1747979717391746600,18.47874658203125,3.4434335231781006,-9.171876907348633,0.5055310130119324
1747979717410016800,18.497016845703126,3.397144079208374,-9.164278030395508,0.8435364961624146
1747979717428284000,18.515283935546876,3.200805425643921,-9.2003812789917,1.159280776977539
1747979717446537700,18.533537841796875,2.8246169090270996,-9.28669548034668,1.4194929599761963
1747979717464814800,18.55181494140625,2.3246665000915527,-9.372089385986328,1.7308905124664307
1747979717483079200,18.5700791015625,1.7096692323684692,-9.39401912689209,2.250678539276123
1747979717501345500,18.588345458984374,0.6982299089431763,-9.187609672546387,3.3669629096984863
1747979717519612000,18.60661181640625,-0.9727793335914612,-8.254258155822754,5.211243629455566
1747979717537878500,18.62487841796875,-1.154077410697937,-7.042999267578125,6.730554103851318
1747979717556141300,18.643141357421875,-0.8256585597991943,-6.646917819976807,7.1674885749816895
1747979717574403300,18.6614033203125,-1.3757573366165161,-6.178475856781006,7.494655609130859
1747979717592669200,18.679669189453126,-2.2692699432373047,-5.425083637237549,7.8520731925964355
1747979717610939000,18.69793896484375,-3.30122971534729,-4.65053129196167,7.981888771057129
1747979717629205200,18.716205322265626,-4.573292255401611,-4.241095542907715,7.571937561035156
1747979717647465700,18.7344658203125,-5.7716240882873535,-4.318717002868652,6.653809070587158
1747979717665735700,18.752735595703125,-6.641290187835693,-4.766656398773193,5.422945976257324
1747979717684003600,18.771003662109376,-7.0573954582214355,-5.369613170623779,4.194826126098633
1747979717702267100,18.78926708984375,-7.022635459899902,-5.82934045791626,3.5968680381774902
1747979717720532700,18.80753271484375,-6.7052388191223145,-6.042341232299805,3.8426523208618164
1747979717738795800,18.825795654296876,-6.05739164352417,-6.1559600830078125,4.652772426605225
1747979717757063700,18.844063720703126,-4.588047027587891,-6.319170951843262,5.937510967254639
1747979717775330300,18.862330322265624,-2.631589412689209,-6.4633708000183105,6.894613742828369
1747979717793595100,18.88059521484375,-1.1808773279190063,-6.427498817443848,7.31634521484375
1747979717811861000,18.898861083984375,-0.9714267253875732,-6.420349597930908,7.353336334228516
1747979717830127400,18.91712744140625,-1.554178237915039,-6.558620929718018,7.127771854400635
1747979717848388400,18.935388427734374,-2.6134285926818848,-6.759310722351074,6.611945152282715
1747979717866657800,18.95365771484375,-3.5925850868225098,-6.952541351318359,5.915372371673584
1747979717884924400,18.97192431640625,-3.892103433609009,-7.133607387542725,5.495386600494385
1747979717903184400,18.990184326171875,-3.7359845638275146,-7.377007961273193,5.27809476852417
1747979717921454000,19.0084541015625,-3.0520524978637695,-7.9111738204956055,4.932994842529297
1747979717939721500,19.026721435546875,-1.954153299331665,-8.630935668945312,4.233713150024414
1747979717957986800,19.04498681640625,-1.203613519668579,-9.109109878540039,3.436791181564331
1747979717976251100,19.063251220703126,-0.8088093996047974,-9.361184120178223,2.8196072578430176
1747979717994512600,19.0815126953125,-0.5929957032203674,-9.477249145507812,2.462967872619629
1747979718012782800,19.099782958984374,-0.3425740599632263,-9.51562213897705,2.360445022583008
1747979718031049200,19.11804931640625,-0.004523113835602999,-9.603317260742188,2.0031020641326904
1747979718049313500,19.1363134765625,1.4552937746047974,-9.613472938537598,1.303594708442688
1747979718067580400,19.154580322265623,2.8281147480010986,-9.393442153930664,0.03380977362394333
1747979718085844500,19.172844482421876,2.228315591812134,-9.52515983581543,-0.7362451553344727
1747979718104111600,19.191111572265626,1.7950724363327026,-9.61759090423584,-0.7181705236434937
1747979718122377500,19.20937744140625,1.9440969228744507,-9.604957580566406,-0.44876593351364136
1747979718140642600,19.227642578125,2.2774033546447754,-9.541476249694824,-0.09886998683214188
1747979718158902800,19.24590283203125,2.64154052734375,-9.443227767944336,0.2895246148109436
1747979718177173000,19.264173095703125,2.9250686168670654,-9.341590881347656,0.6440395712852478
1747979718195433000,19.282432861328125,3.025507926940918,-9.292272567749023,0.8579617142677307
1747979718206811600,19.293811767578124,3.0315651893615723,-9.283987045288086,0.9237422943115234
1747979718225118700,19.31211865234375,3.006856918334961,-9.27987289428711,1.0387009382247925
1747979718243387400,19.330387451171877,2.7516298294067383,-9.338464736938477,1.2073743343353271
1747979718261653000,19.348653076171875,2.2681472301483154,-9.437009811401367,1.426344394683838
1747979718279918600,19.366918701171876,1.7487410306930542,-9.51458740234375,1.6280757188796997
1747979718298184000,19.385183837890626,1.1687287092208862,-9.570939064025879,1.8075653314590454
1747979718316447500,19.403447509765623,0.5281904339790344,-9.588960647583008,2.0022332668304443
1747979718334715400,19.42171533203125,-0.17058871686458588,-9.54975414276123,2.2381224632263184
1747979718352981200,19.439981201171875,-0.96458500623703,-9.444099426269531,2.4727964401245117
1747979718371246000,19.45824609375,-1.9383245706558228,-9.191290855407715,2.828281879425049
1747979718389513000,19.476512939453126,-2.494049310684204,-8.755270957946777,3.6552817821502686
1747979718407777800,19.49477783203125,-1.85417640209198,-8.53604793548584,4.464753150939941
1747979718426043600,19.513043701171874,-1.5569360256195068,-7.988994598388672,5.476133823394775
1747979718444308700,19.531308837890624,-1.7393075227737427,-7.4587602615356445,6.130075931549072
1747979718462574300,19.54957421875,-2.403992176055908,-7.005112648010254,6.433143138885498
1747979718480836000,19.567836181640626,-3.4348342418670654,-6.694270133972168,6.294825077056885
1747979718499104800,19.586104736328124,-4.471583366394043,-6.593892574310303,5.7237772941589355
1747979718517372400,19.604372314453126,-5.259089469909668,-6.671013355255127,4.906700611114502
1747979718535637500,19.622637451171876,-5.6755523681640625,-6.853268146514893,4.130012035369873
1747979718553902800,19.64090283203125,-5.696634292602539,-7.092251300811768,3.67211651802063
1747979718572169000,19.6591689453125,-5.3914594650268555,-7.329388618469238,3.6671934127807617
1747979718599566300,19.68656640625,-4.245747089385986,-7.585150718688965,4.547004222869873
1747979718617834000,19.704833984375,-3.1035847663879395,-7.906365394592285,4.908491134643555
1747979718636100900,19.723100830078124,-2.0891523361206055,-8.26579475402832,4.852647304534912
1747979718654363600,19.74136376953125,-1.1875479221343994,-8.494917869567871,4.7604875564575195
1747979718672629200,19.759629150390627,-0.6263169050216675,-8.497336387634277,4.862008094787598
1747979718690883800,19.7778837890625,-0.9644266366958618,-8.412528991699219,4.953319072723389
1747979718709156400,19.79615625,-2.257011651992798,-8.248788833618164,4.8061933517456055
1747979718727426300,19.81442626953125,-3.9892656803131104,-7.890338897705078,4.250223159790039
1747979718745691600,19.832691650390625,-4.799657821655273,-7.6974263191223145,3.7348413467407227
1747979718763958500,19.85095849609375,-4.142964839935303,-8.320035934448242,3.138305425643921
1747979718782218000,19.869218017578124,-3.390181064605713,-8.905569076538086,2.331014633178711
1747979718800488400,19.887488525390626,-3.205308437347412,-9.090920448303223,1.821325659751892
1747979718818754300,19.90575439453125,-3.0351202487945557,-9.20193099975586,1.5325334072113037
1747979718837021400,19.924021484375,-2.3929033279418945,-9.447319984436035,1.1217237710952759
1747979718855284700,19.94228466796875,-1.425885558128357,-9.635319709777832,1.1677203178405762
1747979718873550000,19.960550048828125,-0.5846989154815674,-9.747812271118164,0.9350940585136414
1747979718891816700,19.978816650390623,1.0148733854293823,-9.757243156433105,0.04867251589894295
1747979718910084600,19.997084716796873,2.1937105655670166,-9.512201309204102,-0.9704486727714539
1747979718928347100,20.01534716796875,1.0838764905929565,-9.652252197265625,-1.3767170906066895
1747979718946613500,20.033613525390624,0.7482974529266357,-9.697999000549316,-1.2747340202331543
1747979718964878800,20.05187890625,1.236375331878662,-9.670756340026855,-1.0880953073501587
1747979718983141400,20.070141357421875,1.8584775924682617,-9.605714797973633,-0.7158185243606567
1747979719001410300,20.088410400390625,2.2762277126312256,-9.54069995880127,-0.17307992279529572
1747979719019675600,20.106675537109375,2.3407065868377686,-9.522459030151367,0.28281375765800476
1747979719037936600,20.1249365234375,2.1910266876220703,-9.543354988098145,0.5999135375022888
1747979719056207600,20.14320751953125,1.9421358108520508,-9.58081340789795,0.8199000954627991
1747979719074473200,20.16147314453125,1.6075016260147095,-9.625333786010742,1.0025016069412231
1747979719092737800,20.17973779296875,1.2160643339157104,-9.66348648071289,1.1723299026489258
1747979719111004000,20.19800390625,0.7843644022941589,-9.68655776977539,1.3384604454040527
1747979719129262000,20.216261962890623,0.2879951298236847,-9.689680099487305,1.5044150352478027
1747979719147535600,20.23453564453125,-0.28244829177856445,-9.656659126281738,1.7044771909713745
1747979719165802200,20.25280224609375,-0.9351530075073242,-9.565685272216797,1.9645034074783325
1747979719184066300,20.27106640625,-1.776294469833374,-9.392012596130371,2.2070374488830566
1747979719202332700,20.289332763671876,-2.856391191482544,-9.051901817321777,2.477940082550049
1747979719220584200,20.307584228515626,-3.654855489730835,-8.376554489135742,3.5653223991394043
1747979719238852600,20.3258525390625,-3.0403988361358643,-8.080187797546387,4.658616542816162
1747979719257124000,20.3441240234375,-2.5834574699401855,-7.705962657928467,5.4936347007751465
1747979719275395000,20.36239501953125,-2.7940945625305176,-7.322710037231445,5.899755477905273
1747979719293660000,20.380659912109376,-3.512970447540283,-7.058125019073486,5.837636470794678
1747979719311924700,20.3989248046875,-4.343879222869873,-6.946958541870117,5.395051956176758
1747979719330191600,20.417191650390624,-5.074940204620361,-6.993805885314941,4.644115447998047
1747979719348457700,20.435457763671874,-5.56272554397583,-7.139579772949219,3.7839932441711426
1747979719366722300,20.453722412109375,-5.8239946365356445,-7.290214538574219,3.0281996726989746
1747979719384987600,20.471987548828125,-5.925506591796875,-7.359724521636963,2.6379833221435547
1747979719403253500,20.49025341796875,-5.841634750366211,-7.316003799438477,2.930448055267334
1747979719421520100,20.50852001953125,-5.3809003829956055,-7.380234718322754,3.5796844959259033
1747979719439784400,20.526784423828126,-4.451470851898193,-7.688903331756592,4.159478664398193
1747979719458050300,20.54505029296875,-3.287912130355835,-8.087972640991211,4.473307132720947
1747979719476311600,20.5633115234375,-2.0249712467193604,-8.452242851257324,4.549197196960449
1747979719494582000,20.58158203125,-0.7899325489997864,-8.583608627319336,4.683356285095215
1747979719512847400,20.599847412109376,-0.3641485571861267,-8.558384895324707,4.780955791473389
1747979719531108000,20.618108154296873,-1.4042856693267822,-8.481587409973145,4.72512149810791
1747979719549373400,20.63637353515625,-3.0088863372802734,-8.33148193359375,4.215346813201904
1747979719567644400,20.65464453125,-4.467233180999756,-8.048352241516113,3.3917465209960938
1747979719585908700,20.67290869140625,-4.579401016235352,-8.169629096984863,2.919309139251709
1747979719604176400,20.69117626953125,-3.840620279312134,-8.686270713806152,2.4565138816833496
1747979719622440700,20.709440673828126,-3.6706464290618896,-8.815018653869629,2.248978853225708
1747979719640707600,20.72770751953125,-3.7413933277130127,-8.757299423217773,2.355365514755249
1747979719658971600,20.7459716796875,-3.417921543121338,-8.92004108428955,2.2331137657165527
1747979719677237800,20.76423779296875,-2.7084362506866455,-9.197203636169434,2.0765202045440674
1747979719695502600,20.782502685546874,-1.9518921375274658,-9.406180381774902,1.9874745607376099
1747979719713769500,20.80076953125,-1.1368101835250854,-9.622872352600098,1.5310508012771606
1747979719732034300,20.819034423828125,0.896000325679779,-9.745624542236328,0.6753470301628113
1747979719750299600,20.837299560546874,1.8949054479599,-9.616388320922852,-0.4129458963871002
1747979719768565000,20.85556494140625,1.0167156457901,-9.736510276794434,-0.634656548500061
1747979719786833000,20.8738330078125,0.7970959544181824,-9.76402473449707,-0.5143792629241943
1747979719805098200,20.89209814453125,1.2005305290222168,-9.728408813476562,-0.3910340368747711
1747979719823361500,20.910361572265625,1.7605561017990112,-9.649298667907715,-0.16617874801158905
1747979719841628400,20.92862841796875,2.1794521808624268,-9.56272029876709,0.2011488974094391
1747979719859894800,20.946894775390625,2.404958963394165,-9.494840621948242,0.5479937791824341
1747979719878155300,20.9651552734375,2.452962875366211,-9.461771965026855,0.8330332636833191
1747979719896420900,20.9834208984375,2.281799077987671,-9.479083061218262,1.0846658945083618
1747979719914689800,21.001689697265626,1.9393478631973267,-9.525331497192383,1.320269227027893
1747979719932957400,21.01995751953125,1.5454792976379395,-9.565367698669434,1.5334049463272095
1747979719951220000,21.038219970703125,1.1249576807022095,-9.591104507446289,1.726647138595581
1747979719969488600,21.056488525390623,0.6745206713676453,-9.595175743103027,1.9271148443222046
1747979719987751200,21.074751220703124,0.1334979385137558,-9.554271697998047,2.2213027477264404
1747979720006020600,21.0930205078125,-0.5635852813720703,-9.453683853149414,2.558582067489624
1747979720024284000,21.111283935546876,-1.4072164297103882,-9.253780364990234,2.9365665912628174
1747979720042549000,21.129549072265625,-2.4637832641601562,-8.702141761779785,3.7998175621032715
1747979720060815600,21.147815673828124,-1.9403475522994995,-8.155991554260254,5.094210624694824
1747979720079081200,21.166081298828125,-1.1059627532958984,-7.799489498138428,5.846449375152588
1747979720097346600,21.1843466796875,-1.3806096315383911,-7.255916118621826,6.456139087677002
1747979720115611600,21.202611572265624,-2.514832019805908,-6.723496437072754,6.686278343200684
1747979720133877200,21.220877197265626,-3.8876161575317383,-6.442121505737305,6.294570446014404
1747979720152139300,21.23913916015625,-5.048802375793457,-6.46127462387085,5.384947299957275
1747979720170408700,21.25740869140625,-5.760420799255371,-6.707169532775879,4.250597953796387
1747979720188674300,21.27567431640625,-6.044466972351074,-7.037055969238281,3.1906754970550537
1747979720206929200,21.29392919921875,-6.037108421325684,-7.304286003112793,2.5370993614196777
1747979720225206800,21.312206787109375,-6.011463642120361,-7.3284993171691895,2.528144359588623
1747979720268583200,21.355583251953124,-4.812228202819824,-7.319502830505371,4.416269302368164
1747979720286849800,21.373849853515626,-3.4019856452941895,-7.671744346618652,5.080052852630615
1747979720305117400,21.392117431640624,-1.8978434801101685,-7.876131534576416,5.531802654266357
1747979720323384800,21.410384765625,-1.2397133111953735,-7.811389446258545,5.8035688400268555
1747979720341647600,21.428647705078124,-1.8895834684371948,-7.733338356018066,5.732454776763916
1747979720359912000,21.446911865234377,-3.6574785709381104,-7.527742385864258,5.117815971374512
1747979720378179800,21.465179931640623,-4.991415977478027,-7.227023124694824,4.369437217712402
1747979720396451800,21.483451904296874,-4.877178192138672,-7.384180068969727,4.233572006225586
1747979720414710000,21.5017099609375,-3.0892279148101807,-8.30614948272705,4.207217693328857
1747979720432970800,21.519970703125,-2.1710517406463623,-9.056113243103027,3.083746910095215
1747979720451240000,21.538239990234374,-2.373793125152588,-9.310002326965332,1.9811853170394897
1747979720469506000,21.556506103515623,-2.6010830402374268,-9.359349250793457,1.3686020374298096
1747979720487771000,21.57477099609375,-2.193415403366089,-9.471171379089355,1.3122339248657227
1747979720506041300,21.593041259765624,-1.2725847959518433,-9.606224060058594,1.5287688970565796
1747979720524303400,21.611303466796876,0.701008141040802,-9.712536811828613,1.1879864931106567
1747979720542569200,21.6295693359375,2.9023969173431396,-9.365785598754883,0.3070077896118164
1747979720560833500,21.64783349609375,2.646965742111206,-9.416046142578125,-0.7534985542297363
1747979720579101200,21.66610107421875,1.7081536054611206,-9.639327049255371,-0.6337864398956299
1747979720597365800,21.68436572265625,1.7941237688064575,-9.634352684020996,-0.4432917535305023
1747979720615631600,21.702631591796877,2.247633218765259,-9.5436372756958,-0.32129397988319397
1747979720633897200,21.720897216796875,2.6825664043426514,-9.435997009277344,-0.04386785998940468
1747979720652162300,21.739162353515624,3.021941661834717,-9.327095985412598,0.33052000403404236
1747979720670423800,21.757423828125,3.204225778579712,-9.251077651977539,0.6217844486236572
1747979720688690200,21.775690185546875,3.0709023475646973,-9.277329444885254,0.8583996295928955
1747979720706958000,21.7939580078125,2.7596538066864014,-9.345287322998047,1.1340298652648926
1747979720725226200,21.812226318359375,2.3752543926239014,-9.40720272064209,1.4487310647964478
1747979720743488000,21.830488037109376,1.923807144165039,-9.456006050109863,1.766079068183899
1747979720761759000,21.848759033203127,1.3795291185379028,-9.487787246704102,2.0772266387939453
1747979720782302700,21.869302734375,0.7585517168045044,-9.486909866333008,2.3789212703704834
1747979720800572400,21.887572509765626,0.08848559111356735,-9.437278747558594,2.6769495010375977
1747979720818838800,21.9058388671875,-0.7635537385940552,-9.30578327178955,3.00923228263855
1747979720837107200,21.924107177734374,-2.2823903560638428,-8.750378608703613,3.80232572555542
1747979720855369200,21.942369140625,-3.3155364990234375,-7.622863292694092,5.209152698516846
1747979720873635000,21.960635009765625,-2.7135367393493652,-7.026528835296631,6.284959316253662
1747979720891900000,21.97889990234375,-2.7319324016571045,-6.368548393249512,6.943647384643555
1747979720910168800,21.9971689453125,-3.481250286102295,-5.756166458129883,7.140277862548828
1747979720928431600,22.015431640625,-4.487093925476074,-5.310901165008545,6.920725345611572
1747979720946697500,22.033697509765624,-5.357431888580322,-5.151118755340576,6.403124809265137
1747979720964958000,22.0519580078125,-5.939759731292725,-5.386080265045166,5.652041912078857
1747979720983228700,22.070228759765627,-6.210464954376221,-5.865424156188965,4.823182582855225
1747979721001494000,22.088493896484376,-6.192124843597412,-6.381711006164551,4.143365859985352
1747979721019759900,22.106759765625,-5.980207443237305,-6.822351932525635,3.732126474380493
1747979721038025200,22.125025146484376,-5.663727283477783,-7.161799430847168,3.587053060531616
1747979721056291000,22.143291015625,-5.28127908706665,-7.403128623962402,3.6793839931488037
1747979721074556200,22.16155615234375,-4.740109443664551,-7.606269359588623,3.989001750946045
1747979721092822500,22.179822509765625,-3.9462697505950928,-7.900446891784668,4.271537780761719
1747979721111088600,22.198088623046875,-2.9293978214263916,-8.272527694702148,4.384069919586182
1747979721129353200,22.216353271484376,-1.7974783182144165,-8.544669151306152,4.471446514129639
1747979721147618800,22.234618896484374,-0.5886915326118469,-8.682023048400879,4.529019355773926
1747979721175017500,22.262017578125,0.28484824299812317,-8.634867668151855,4.6469407081604
1747979721193281300,22.28028125,-1.207834005355835,-8.515743255615234,4.717984676361084
1747979721211547600,22.298547607421874,-2.9617817401885986,-8.326719284057617,4.257901191711426
1747979721229813800,22.316813720703124,-3.7938389778137207,-8.348885536193848,3.484111785888672
1747979721248080000,22.335079833984373,-4.018064022064209,-8.593149185180664,2.49981951713562
1747979721266338000,22.353338134765625,-3.4709229469299316,-9.074392318725586,1.3580186367034912
1747979721284602400,22.371602294921875,-2.5274362564086914,-9.473365783691406,0.32181352376937866
1747979721302876200,22.389876220703126,-1.7685215473175049,-9.64719009399414,-0.20042473077774048
1747979721321132800,22.4081328125,-0.9614413380622864,-9.761998176574707,0.12304647266864777
1747979721339406600,22.426406494140625,-0.2780216634273529,-9.771499633789062,0.8225728869438171
1747979721357672000,22.444671875,0.7181947231292725,-9.754608154296875,0.7536193132400513
1747979721375937800,22.462937744140625,2.1876494884490967,-9.561036109924316,0.19210968911647797
1747979721394204200,22.4812041015625,2.6735599040985107,-9.40954875946045,-0.7406627535820007
1747979721412469000,22.499468994140624,1.912820816040039,-9.580309867858887,-0.8915641903877258
1747979721430734300,22.517734375,1.9036222696304321,-9.597905158996582,-0.7018182277679443
1747979721449000200,22.536000244140624,2.331676721572876,-9.512701988220215,-0.5548858642578125
1747979721467266600,22.5542666015625,2.792785167694092,-9.400495529174805,-0.25913164019584656
1747979721485529900,22.57252978515625,3.109882116317749,-9.302956581115723,0.14056356251239777
1747979721503798300,22.59079833984375,3.1476733684539795,-9.280265808105469,0.45267945528030396
1747979721522062300,22.609062255859374,2.9246716499328613,-9.333998680114746,0.747595489025116
1747979721540329000,22.627328857421876,2.643141746520996,-9.389413833618164,1.0434640645980835
1747979721558593000,22.645593017578125,2.3158960342407227,-9.440140724182129,1.3253282308578491
1747979721585992200,22.6729921875,1.6922508478164673,-9.513395309448242,1.6934343576431274
1747979721604258800,22.6912587890625,1.1583367586135864,-9.54647445678711,1.9388680458068848
1747979721622525700,22.709525634765626,0.5289490818977356,-9.536545753479004,2.2384440898895264
1747979721640790000,22.7277900390625,-0.2745591402053833,-9.470446586608887,2.543896198272705
1747979721659055400,22.746055419921873,-1.3120322227478027,-9.289463996887207,2.8671517372131348
1747979721677321200,22.7643212890625,-2.9078545570373535,-8.47728157043457,3.9895122051239014
1747979721695585800,22.782585693359376,-2.5273287296295166,-7.670821189880371,5.568417549133301
1747979721713852700,22.800852783203126,-1.9602807760238647,-7.112277030944824,6.4659857749938965
1747979721732113000,22.81911279296875,-2.475424289703369,-6.480133056640625,6.93658971786499
1747979721750382800,22.8373828125,-3.437359571456909,-5.946353912353516,7.00439453125
1747979721768649700,22.855649658203124,-4.63800048828125,-5.605464935302734,6.580563545227051
1747979721786914800,22.873914794921873,-5.786532878875732,-5.57529354095459,5.627452850341797
1747979721805180200,22.89218017578125,-6.504687309265137,-5.780964374542236,4.528311252593994
1747979721823445500,22.910445556640624,-6.857118606567383,-6.068934917449951,3.5191030502319336
1747979721841711400,22.92871142578125,-6.901451587677002,-6.350144386291504,2.8778085708618164
1747979721859964700,22.946964599609377,-6.644802570343018,-6.5318756103515625,3.0687639713287354
1747979721878242600,22.96524267578125,-6.01821756362915,-6.734572410583496,3.8291893005371094
1747979721896504000,22.983504150390626,-5.009027004241943,-7.027263164520264,4.665119171142578
1747979721914774000,23.00177392578125,-3.642685890197754,-7.351781845092773,5.377569198608398
1747979721933038800,23.020038818359374,-2.0340893268585205,-7.67769718170166,5.757741928100586
1747979721951305000,23.038304931640624,-0.6333732008934021,-7.863982677459717,5.830331325531006
1747979721969569500,23.056569580078126,-0.07933108508586884,-7.900564193725586,5.8147149085998535
1747979721987836700,23.074836669921876,-0.4872959852218628,-7.923405170440674,5.7635321617126465
1747979722006105600,23.093105712890626,-1.490196943283081,-7.943264484405518,5.560573577880859
1747979722024367400,23.111367431640623,-3.0591020584106445,-7.853464603424072,5.020071506500244
1747979722042632700,23.1296328125,-4.316338062286377,-7.657240867614746,4.355684757232666
1747979722060898600,23.147898681640626,-3.5928843021392822,-8.171817779541016,4.068005561828613
1747979722079159000,23.166158935546875,-2.453467845916748,-8.709461212158203,3.7897133827209473
1747979722097429500,23.184429443359374,-1.9765020608901978,-8.92647647857666,3.5563416481018066
1747979722115695000,23.202695068359375,-1.7507401704788208,-9.075888633728027,3.2862284183502197
1747979722133961000,23.2209609375,-1.4217078685760498,-9.242036819458008,2.9664127826690674
1747979722152226600,23.2392265625,-0.9625515937805176,-9.299750328063965,2.9705631732940674
1747979722170492200,23.2574921875,-0.212712362408638,-9.53767204284668,2.285538911819458
1747979722188757800,23.2757578125,2.2874326705932617,-9.460329055786133,1.2271777391433716
1747979722207023000,23.294023193359376,3.590562343597412,-9.12549877166748,-0.2631416618824005
1747979722225288700,23.312288818359374,2.5590524673461914,-9.455251693725586,-0.5343908071517944
1747979722243553800,23.3305537109375,2.189267158508301,-9.557291984558105,-0.3184244632720947
1747979722261819100,23.348819091796877,2.3408524990081787,-9.52522087097168,-0.16333086788654327
1747979722305199600,23.39219970703125,3.08941912651062,-9.296734809875488,0.5121687650680542
1747979722323465200,23.41046533203125,3.269263982772827,-9.215141296386719,0.7932283282279968
1747979722341730000,23.42872998046875,3.1303093433380127,-9.214911460876465,1.2339718341827393
1747979722359992800,23.446992919921875,2.850942373275757,-9.219757080078125,1.7619091272354126
1747979722378264300,23.465264404296875,2.500413417816162,-9.208840370178223,2.2762486934661865
1747979722396523300,23.483523193359375,2.071176528930664,-9.189468383789062,2.738611936569214
1747979722414793200,23.501793212890625,1.5177797079086304,-9.163761138916016,3.155618667602539
1747979722426209500,23.51320947265625,1.520303726196289,-9.161036491394043,3.1623122692108154
1747979722444475600,23.5314755859375,0.41778144240379333,-9.03644847869873,3.7952775955200195
1747979722462741500,23.549741455078124,-0.6393616199493408,-8.817818641662598,4.251282691955566
1747979722481007000,23.568007080078125,-2.6037511825561523,-8.079852104187012,4.916567325592041
1747979722499272700,23.586272705078127,-3.3780722618103027,-7.042156219482422,5.935722827911377
1747979722517538800,23.604538818359377,-3.0424695014953613,-6.12695837020874,7.031350135803223
1747979722535803400,23.622803466796874,-3.4480409622192383,-5.160837173461914,7.596899509429932
1747979722554069500,23.641069580078124,-4.228376388549805,-4.4732465744018555,7.638522624969482
1747979722572335000,23.659335205078126,-5.1002960205078125,-4.008659839630127,7.358922004699707
1747979722590588700,23.677588623046876,-5.9453253746032715,-3.911710262298584,6.751868724822998
1747979722608865800,23.69586572265625,-6.6092987060546875,-4.296258926391602,5.839132308959961
1747979722627127300,23.714127197265626,-6.950503826141357,-4.909002780914307,4.881428241729736
1747979722645397200,23.732397216796876,-7.0218682289123535,-5.529934406280518,4.043430328369141
