time,seconds_elapsed,z,y,x
1747979698984533500,0.071533447265625,0.983340322971344,1.7673858404159546,-0.33429601788520813
1747979699002790400,0.089790283203125,0.6299547553062439,1.723708987236023,-0.013133603148162365
1747979699021054000,0.108053955078125,0.2597704529762268,1.4095715284347534,0.5241223573684692
1747979699039320300,0.1263203125,-0.09575312584638596,0.8298604488372803,1.2095131874084473
1747979699057585000,0.1445849609375,-0.5867360830307007,-0.1511891484260559,1.528690218925476
1747979699075849700,0.162849609375,-0.873842716217041,-1.8726073503494263,1.1143709421157837
1747979699094111500,0.181111572265625,-0.7939720749855042,-3.3151657581329346,0.7385360598564148
1747979699112386300,0.19938623046875,-0.5390886068344116,-4.087910175323486,0.5169447064399719
1747979699130648600,0.217648681640625,-0.6881396770477295,-0.9854783415794373,-0.6151412725448608
1747979699148913200,0.2359130859375,-0.7411322593688965,-0.28588494658470154,-0.29474249482154846
1747979699167178800,0.2541787109375,-0.6520986557006836,0.5564982295036316,-0.46242499351501465
1747979699185452300,0.272452392578125,0.7602217793464661,0.43447789549827576,-0.3865249752998352
1747979699203710200,0.290710205078125,1.6731599569320679,0.05406157299876213,-0.12492194026708603
1747979699221976000,0.30897607421875,1.4924964904785156,-0.5494732856750488,0.36331209540367126
1747979699240241400,0.327241455078125,1.1496484279632568,-1.0739010572433472,1.070694088935852
1747979699258508300,0.34550830078125,0.5679519772529602,-1.6102408170700073,1.6879733800888062
1747979699276772900,0.36377294921875,-0.06505715101957321,-1.890017032623291,1.522887110710144
1747979699295038500,0.38203857421875,-0.2515237629413605,-2.0416643619537354,1.0870347023010254
1747979699313304000,0.400303955078125,0.06994406878948212,-2.306321620941162,0.7895433306694031
1747979699331570400,0.4185703125,0.7866417169570923,-2.213623046875,0.4147774875164032
1747979699349829400,0.436829345703125,0.7641924023628235,-1.8881844282150269,-0.3579670190811157
1747979699368101000,0.45510107421875,0.7226535677909851,-1.6264287233352661,-0.6757696866989136
1747979699386368500,0.473368408203125,1.033125877380371,-1.539685845375061,-0.4407392740249634
1747979699404633600,0.491633544921875,1.195005178451538,-1.5271631479263306,-0.2594650089740753
1747979699422898200,0.509898193359375,1.0216721296310425,-1.799150824546814,-0.33276882767677307
1747979699441163800,0.528163818359375,0.9662361145019531,-1.977981686592102,-0.6488916277885437
1747979699459425000,0.546425048828125,0.993725061416626,-2.1123719215393066,-1.034500241279602
1747979699477696000,0.564696044921875,0.8440630435943604,-2.3188445568084717,-1.2806789875030518
1747979699495960600,0.582960693359375,0.7834346890449524,-2.323273181915283,-1.201724648475647
1747979699514225200,0.60122509765625,0.8043568134307861,-2.7458393573760986,-1.2399036884307861
1747979699532492800,0.619492919921875,0.9175195693969727,-3.5582900047302246,-0.8298604488372803
1747979699550758700,0.637758544921875,1.0340421199798584,-4.356996536254883,-0.2831360399723053
1747979699569023200,0.656023193359375,1.3271046876907349,-4.964654445648193,0.29245173931121826
1747979699587289000,0.6742890625,1.6983580589294434,-5.6489763259887695,0.6725626587867737
1747979699605549600,0.692549560546875,2.0306687355041504,-6.496246337890625,1.1316279172897339
1747979699623820500,0.710820556640625,2.4888176918029785,-6.782895088195801,1.8095356225967407
1747979699642084000,0.729083984375,3.0002646446228027,-6.5055623054504395,2.1505510807037354
1747979699660354600,0.7473544921875,3.486971616744995,-6.011372089385986,1.9998201131820679
1747979699678612200,0.7656123046875,3.2589659690856934,-5.559942722320557,1.8777997493743896
1747979699696885000,0.783885009765625,3.3539557456970215,-5.051244735717773,2.2853996753692627
1747979699715144700,0.802144775390625,3.2653801441192627,-4.531093120574951,2.238821029663086
1747979699733412000,0.820412109375,3.05631160736084,-3.2482759952545166,1.6736180782318115
1747979699751679500,0.838679443359375,3.1818442344665527,-1.9086484909057617,1.259145975112915
1747979699769946400,0.8569462890625,3.50911545753479,-0.7663304209709167,0.9323330521583557
1747979699788211000,0.8752109375,3.4487924575805664,0.09254608303308487,0.7128797173500061
1747979699806476500,0.8934765625,3.0947959423065186,0.5453499555587769,0.8298604488372803
1747979699824742400,0.911742431640625,2.9020681381225586,0.5734497308731079,1.1879801750183105
1747979699843009000,0.930009033203125,2.6143505573272705,0.00733038317412138,1.4692835807800293
1747979699861273600,0.948273681640625,2.4352142810821533,-0.2393064647912979,1.9462167024612427
1747979699879538000,0.966537841796875,2.1730003356933594,-0.2545780837535858,2.029752492904663
1747979699897806300,0.984806396484375,2.0312795639038086,-0.2321287989616394,1.704466700553894
1747979699916071700,1.00307177734375,1.7212655544281006,0.04138612002134323,1.426675796508789
1747979699934335000,1.0213349609375,1.3548991680145264,-0.06185010448098183,1.1699596643447876
1747979699970866200,1.0578662109375,0.8822421431541443,1.225395679473877,1.3205379247665405
1747979699989131000,1.076131103515625,0.5140430927276611,1.8348864316940308,0.9570731520652771
1747979700007398400,1.0943984375,0.0656680166721344,1.795027494430542,0.6659958362579346
1747979700025664500,1.11266455078125,-0.13607023656368256,1.3130548000335693,0.8581129312515259
1747979700043930000,1.13093017578125,-0.08735372871160507,1.0946705341339111,1.1733194589614868
1747979700062197000,1.149197021484375,-0.18356500566005707,1.2046263217926025,1.4341589212417603
1747979700080461300,1.16746142578125,-0.30604347586631775,1.4731014966964722,1.3874276876449585
1747979700098722800,1.185722900390625,-0.044745877385139465,1.79090416431427,0.8158105611801147
1747979700116992800,1.20399267578125,-0.1846340149641037,1.5004377365112305,0.8161159753799438
1747979700135256600,1.222256591796875,-0.6001750826835632,0.9589056968688965,1.1488847732543945
1747979700153527300,1.24052734375,-1.095739483833313,0.7718282341957092,1.0888673067092896
1747979700180921600,1.267921630859375,-2.6528351306915283,0.31383201479911804,1.049619197845459
1747979700199188700,1.286188720703125,-2.942079782485962,0.3723223805427551,0.5044219493865967
1747979700217453300,1.304453369140625,-2.6201536655426025,0.3836233615875244,-0.003054326167330146
1747979700235719400,1.322719482421875,-2.8513662815093994,0.06933320313692093,-0.1921171247959137
1747979700253985000,1.340985107421875,-2.4720189571380615,-0.6339253783226013,-0.20525072515010834
1747979700272251000,1.3592509765625,-2.1789562702178955,-1.1192578077316284,-0.1160643994808197
1747979700290516000,1.377515869140625,-1.8950567245483398,-1.4674509763717651,0.09285151958465576
1747979700308778800,1.39577880859375,-1.561829686164856,-1.6055065393447876,0.08292495459318161
1747979700327036700,1.41403662109375,-1.0644327402114868,-1.3329079151153564,0.06673702597618103
1747979700354452200,1.4414521484375,-0.9082038998603821,-0.940732479095459,0.11178833991289139
1747979700372712200,1.459712158203125,-0.18096883594989777,-0.34544429183006287,0.7101308703422546
1747979700390977500,1.4779775390625,0.769690215587616,-0.38576140999794006,0.02687807008624077
1747979700409232000,1.49623193359375,1.3886494636535645,0.1973094791173935,-0.25671613216400146
1747979700427499000,1.5144990234375,1.4555391073226929,0.6357579827308655,-0.5804746747016907
1747979700445774800,1.53277490234375,1.2560917139053345,0.7061602473258972,-0.2246456891298294
1747979700464034600,1.55103466796875,1.3519974946975708,0.3738495409488678,0.3220787048339844
1747979700482305800,1.569305908203125,0.974177360534668,-0.2791654169559479,0.6695083379745483
1747979700500574000,1.587573974609375,1.0734429359436035,-0.6020076870918274,0.26251932978630066
1747979700518832000,1.60583203125,1.957212209701538,-0.3943135142326355,-0.6050620079040527
1747979700537104000,1.624103759765625,2.0341813564300537,-0.2393064647912979,-1.044274091720581
1747979700555369200,1.642369140625,1.278693675994873,-0.17516560852527618,-1.169501543045044
1747979700573635300,1.66063525390625,0.5180137157440186,-0.3269656300544739,-1.2234103679656982
1747979700591900200,1.678900146484375,0.42149701714515686,-0.4908302128314972,-0.903775155544281
1747979700610165800,1.697165771484375,0.6633996367454529,-0.45295658707618713,-0.37537670135498047
1747979700628426800,1.7154267578125,0.7023423314094543,-0.3787364661693573,-0.4329507350921631
1747979700646698000,1.733697998046875,0.5082398653030396,-0.08750644326210022,-0.5998696684837341
1747979700664962600,1.751962646484375,0.1794416606426239,0.17608191072940826,-0.43279802799224854
1747979700683228200,1.770228271484375,0.07391469180583954,0.4453207552433014,-0.26404649019241333
1747979700701493500,1.788493408203125,0.10033461451530457,0.619111955165863,-0.735634446144104
1747979700719756000,1.806756103515625,-0.0754418596625328,0.7626652717590332,-1.173624873161316
1747979700738024200,1.825024169921875,-0.3649919927120209,0.7283040881156921,-1.1128437519073486
1747979700756291800,1.843291748046875,-0.5141957998275757,0.8788823485374451,-1.1756101846694946
1747979700774556700,1.861556640625,-0.8069530129432678,1.0096075534820557,-1.0137308835983276
1747979700792824000,1.879823974609375,-0.764955997467041,1.045495867729187,-0.6143777370452881
1747979700811087400,1.89808740234375,-0.8475755453109741,0.8539896011352539,-1.2628111839294434
1747979700829353700,1.916353759765625,-0.8428413271903992,0.9259189963340759,-1.2678507566452026
1747979700847619000,1.934619140625,-0.5195409059524536,0.9802860021591187,-1.0983357429504395
1747979700865886200,1.95288623046875,-0.2347249686717987,1.0100656747817993,-0.9063712954521179
1747979700884149200,1.971149169921875,0.1996002197265625,1.0714576244354248,-0.675616979598999
1747979700902412500,1.98941259765625,0.5155702829360962,0.973566472530365,-0.41691553592681885
1747979700920681700,2.007681640625,0.6291912198066711,0.6165157556533813,0.09239336848258972
1747979700938948900,2.025948974609375,0.35643985867500305,0.0074830991216003895,0.6382014751434326
1747979700957213700,2.044213623046875,-0.013897184282541275,-0.5537493228912354,0.6343835592269897
1747979700975474400,2.062474365234375,-0.4386012554168701,-0.8875871896743774,0.5444336533546448
1747979700993743400,2.080743408203125,-0.9033169746398926,-0.9877691268920898,0.6464481353759766
1747979701012012800,2.0990126953125,-1.0207557678222656,-0.8859072923660278,0.6860016584396362
1747979701030275800,2.11727587890625,-1.1992812156677246,-1.1462886333465576,0.5859724879264832
1747979701048540400,2.13554052734375,-1.8987219333648682,-1.910786509513855,0.5450445413589478
1747979701066808600,2.15380859375,-2.6955955028533936,-2.331519842147827,0.717308521270752
1747979701085074000,2.172073974609375,-3.249650478363037,-2.169335126876831,0.46410486102104187
1747979701103338500,2.19033837890625,-2.9106202125549316,-1.4772248268127441,-0.15515977144241333
1747979701121604000,2.20860400390625,-2.2983803749084473,-0.8930850028991699,-0.6485861539840698
1747979701139868700,2.22686865234375,-2.0502164363861084,-0.845132052898407,-0.9581421613693237
1747979701158137900,2.245137939453125,-1.7156150341033936,-0.9601274728775024,-1.3829989433288574
1747979701176396500,2.263396484375,-1.666898488998413,-0.5308418869972229,-0.7037167549133301
1747979701194666800,2.281666748046875,-2.137875556945801,-0.9208793640136719,0.6479753255844116
1747979701212932600,2.2999326171875,-2.0694587230682373,-1.6603317260742188,1.742187738418579
1747979701231199200,2.31819921875,-1.6507105827331543,-1.9046778678894043,2.6264150142669678
1747979701249462800,2.336462890625,-1.2096658945083618,-1.222494125366211,3.0662381649017334
1747979701267730700,2.354730712890625,-1.8106045722961426,-0.02687807008624077,2.5815165042877197
1747979701285995300,2.372995361328125,-0.6716463565826416,0.8200865983963013,2.0752620697021484
1747979701304260900,2.3912607421875,1.0183123350143433,0.7609853744506836,0.7101308703422546
1747979701322523100,2.409523193359375,2.4585797786712646,1.440267562866211,-0.631481945514679
1747979701340792000,2.4277919921875,3.6494617462158203,1.2492194175720215,-0.8384125232696533
1747979701359059200,2.44605908203125,4.133114337921143,2.3350324630737305,-0.4625777006149292
1747979701377323800,2.46432373046875,4.596913814544678,2.010510206222534,-0.7116580009460449
1747979701395589400,2.48258935546875,5.412418842315674,1.0995573997497559,-1.1621711254119873
1747979701413854200,2.500854248046875,6.208223342895508,1.866346001625061,-2.0007364749908447
1747979701432121600,2.51912158203125,5.823225498199463,1.7067575454711914,-2.5579981803894043
1747979701450389800,2.5373896484375,6.01015043258667,-1.6171129941940308,-2.3469443321228027
1747979701468647400,2.5556474609375,6.634454727172852,-4.391510009765625,-1.2415835857391357
1747979701486917600,2.573917724609375,5.516265869140625,-2.3218986988067627,2.0399844646453857
1747979701505182200,2.59218212890625,4.278347492218018,-0.8341364860534668,4.081648826599121
1747979701523452700,2.61045263671875,4.259410858154297,-1.8518379926681519,4.162588596343994
1747979701541714700,2.628714599609375,4.530787467956543,-2.472782611846924,3.93855357170105
1747979701559980800,2.646980712890625,5.285664081573486,-3.0534098148345947,3.2446107864379883
1747979701578246100,2.66524609375,6.122396945953369,-2.241417407989502,2.4080307483673096
1747979701596512800,2.6835126953125,5.780312538146973,0.7793113589286804,2.0419697761535645
1747979701614765800,2.701765869140625,3.743535041809082,1.818698525428772,1.2386820316314697
1747979701633044200,2.720044189453125,-0.2623666226863861,-0.21319197118282318,0.7617489695549011
1747979701651308300,2.738308349609375,-1.984701156616211,-1.7591391801834106,0.5867360830307007
1747979701669573400,2.756573486328125,-2.2901337146759033,-2.3012821674346924,-0.0022907445672899485
1747979701687842300,2.77484228515625,-1.2794572114944458,0.5742133259773254,-1.3909401893615723
1747979701706103300,2.793103271484375,0.5768095254898071,2.0164661407470703,-2.6681065559387207
1747979701724374500,2.81137451171875,1.213025689125061,1.5515977144241333,-3.302031993865967
1747979701742639600,2.8296396484375,1.1762210130691528,-0.058948494493961334,-2.9042060375213623
1747979701760903200,2.847903076171875,1.0966558456420898,-1.9668333530426025,-2.372600555419922
1747979701779168500,2.86616845703125,0.6556110978126526,-2.1252002716064453,-2.970790386199951
1747979701797430300,2.88443017578125,-0.13607023656368256,-1.1476631164550781,-3.928321599960327
1747979701815701200,2.902701171875,-0.6290385127067566,-0.5894849896430969,-4.232685089111328
1747979701833961000,2.9209609375,-0.8665123581886292,-0.45555275678634644,-3.9209911823272705
1747979701852230100,2.939230224609375,-1.373377799987793,-0.9140071272850037,-3.020881414413452
1747979701870498600,2.95749853515625,-2.0857994556427,-0.7919867634773254,-2.0929770469665527
1747979701888757800,2.9757578125,-2.2350032329559326,-0.5597052574157715,-1.0994046926498413
1747979701907031300,2.99403125,-1.6772832870483398,-0.13729196786880493,-0.24236078560352325
1747979701925300000,3.012300048828125,-1.235169529914856,1.4228578805923462,-0.1739438772201538
1747979701943560000,3.030559814453125,-1.2229522466659546,2.9413161277770996,-0.432034432888031
1747979701961822200,3.048822265625,-1.2030991315841675,1.7116444110870361,-0.8565858006477356
1747979701980092400,3.067092529296875,-1.334587812423706,-1.521359920501709,-0.3113885521888733
1747979701998356700,3.085356689453125,-1.07771897315979,-2.0387628078460693,-0.0685696229338646
1747979702016622800,3.103622802734375,-0.7571674585342407,-1.3839151859283447,-0.2554943859577179
1747979702034889500,3.121889404296875,-0.29917123913764954,-1.3431400060653687,-0.14905111491680145
1747979702053154300,3.140154296875,-0.09453139454126358,-1.539380431175232,-0.2203696370124817
1747979702071415300,3.158415283203125,-0.09728029370307922,-1.387580394744873,0.11133018881082535
1747979702089680600,3.1766806640625,-0.47937649488449097,0.6362161636352539,0.8084801435470581
1747979702107951000,3.194951171875,-0.2768746614456177,1.2522737979888916,1.2147055864334106
1747979702126218000,3.213218017578125,0.024129176512360573,1.0268645286560059,1.5250251293182373
1747979702144482300,3.231482421875,0.18539759516716003,0.7232644557952881,1.6980526447296143
1747979702162748400,3.24974853515625,0.41920626163482666,0.3300199508666992,2.163379192352295
1747979702181012200,3.26801220703125,0.8187121152877808,0.007941247895359993,2.392453670501709
1747979702199274200,3.286274169921875,0.9115636348724365,-0.13637566566467285,1.8880317211151123
1747979702217545500,3.30454541015625,0.3286454975605011,-0.5902485251426697,0.2776382565498352
1747979702235811000,3.32281103515625,-0.3827070891857147,1.0256427526474,-0.702800452709198
1747979702254076700,3.34107666015625,-0.7179193496704102,1.0265589952468872,-0.8381071090698242
1747979702272343800,3.35934375,-0.22708915174007416,0.4769330322742462,-0.7999280095100403
1747979702290608000,3.377608154296875,0.4334088861942291,0.32757648825645447,-0.5345070958137512
1747979702308868000,3.3958681640625,0.3784310221672058,0.9260717034339905,-0.7544185519218445
1747979702327141600,3.4141416015625,-0.5813909769058228,1.9204076528549194,-1.1591167449951172
1747979702345400300,3.432400390625,-1.0305296182632446,2.0415115356445312,-0.06658431142568588
1747979702363669800,3.450669677734375,-0.2223549485206604,2.4182627201080322,0.40912699699401855
1747979702381938000,3.46893798828125,0.17547103762626648,1.3193162679672241,0.1944078654050827
1747979702400203300,3.487203369140625,0.9607383012771606,0.29626965522766113,0.6901249885559082
1747979702418468400,3.50546826171875,1.5442672967910767,-2.093740701675415,2.573880672454834
1747979702436734000,3.52373388671875,0.7695375084877014,-2.0091357231140137,2.7310256958007812
1747979702454999000,3.5419990234375,0.13087788224220276,0.2874121069908142,2.216371774673462
1747979702473266400,3.560266357421875,-0.5739079117774963,0.46410486102104187,1.74356210231781
1747979702491530800,3.57853076171875,-0.5146539807319641,-0.6495024561882019,1.737911581993103
1747979702509796600,3.596796630859375,-0.09728029370307922,-0.4531092941761017,1.8629863262176514
1747979702528062200,3.615062255859375,0.10399980843067169,0.18310685455799103,1.397354245185852
1747979702546329000,3.6333291015625,-0.09773843735456467,0.2612976133823395,0.9421069025993347
1747979702564593400,3.651593505859375,-0.18096883594989777,0.42470407485961914,0.9135489463806152
1747979702582858200,3.669858154296875,0.09254608303308487,0.6872233748435974,1.0558805465698242
1747979702601126000,3.6881259765625,0.16783522069454193,0.7470881938934326,0.9911288619041443
1747979702619386000,3.70638623046875,0.27840182185173035,0.9550877809524536,0.7883216142654419
1747979702637657600,3.72465771484375,0.4590652287006378,1.1024590730667114,0.6418666839599609
1747979702655922200,3.742922119140625,0.6185010671615601,0.9662361145019531,0.6294966340065002
1747979702674187000,3.76118701171875,0.640644907951355,0.7050912380218506,0.8547531962394714
1747979702692445400,3.779445556640625,0.7338019013404846,0.21303924918174744,1.115287184715271
1747979702710719000,3.797718994140625,0.9059131741523743,-0.13484850525856018,1.1572842597961426
1747979702728985000,3.815985107421875,0.765566885471344,0.23121249675750732,0.9616546034812927
1747979702747250400,3.83425048828125,0.4607451260089874,0.6301075220108032,0.5925393104553223
1747979702765517300,3.852517333984375,0.4489859640598297,0.5545129179954529,0.30146199464797974
1747979702783782000,3.870781982421875,0.5907067060470581,0.32879820466041565,0.06322455406188965
1747979702802044700,3.889044677734375,0.44806966185569763,0.31780263781547546,-0.3729332387447357
1747979702838576400,3.925576416015625,-0.16340644657611847,-0.413555771112442,-1.5931365489959717
1747979702856839000,3.9438388671875,-0.2718350291252136,-0.4833471179008484,-2.381610870361328
1747979702875110700,3.962110595703125,-0.518471896648407,-0.7837401032447815,-2.7531697750091553
1747979702893377800,3.980377685546875,-0.7050912380218506,-1.7301230430603027,-2.958878517150879
1747979702911643100,3.99864306640625,-0.5293147563934326,-2.3693935871124268,-2.9659035205841064
1747979702929907500,4.016907470703125,-0.04306599870324135,-1.8964312076568604,-2.6870434284210205
1747979702948173300,4.03517333984375,-0.06734789162874222,0.08567385375499725,-2.4854578971862793
1747979702966435000,4.05343505859375,-0.6195700764656067,1.7324138879776,-2.4376578330993652
1747979702984705800,4.071705810546875,-0.817337691783905,0.7254024744033813,-2.1978931427001953
1747979703002951400,4.089951416015625,-0.9980010986328125,-1.307709813117981,-1.6731599569320679
1747979703021236000,4.108236083984375,-1.3952162265777588,-2.065946340560913,-1.337336778640747
1747979703039497700,4.126497802734375,-1.4498887062072754,-2.0917553901672363,-1.2809844017028809
1747979703057768400,4.1447685546875,-1.2276864051818848,-2.2576053142547607,-1.1084150075912476
1747979703076033300,4.163033203125,-1.0381654500961304,-2.6338982582092285,-0.8203920125961304
1747979703094299000,4.181298828125,-0.9628763198852539,-2.3996315002441406,-0.6624833345413208
1747979703112564700,4.199564697265625,-1.0282388925552368,-1.587027907371521,-0.6728680729866028
1747979703130830300,4.217830322265625,-1.1435397863388062,-0.8866708874702454,-0.6824892163276672
1747979703149097000,4.236096923828125,-0.9865473508834839,-0.3546072840690613,-0.5867360830307007
1747979703167361800,4.25436181640625,-0.5958990454673767,-0.3142901659011841,-0.22815817594528198
1747979703185627400,4.27262744140625,-0.1716531366109848,-0.16019940376281738,0.12247848510742188
1747979703203888600,4.290888671875,0.16203200817108154,-0.06414084881544113,0.44654250144958496
1747979703222158600,4.30915869140625,0.30573806166648865,-0.07956519722938538,0.7472409009933472
1747979703240421400,4.32742138671875,0.35964691638946533,-0.13545936346054077,0.9909761548042297
1747979703258686000,4.34568603515625,0.40851613879203796,0.15241087973117828,1.2615894079208374
1747979703276957000,4.36395703125,0.5723807215690613,0.8535314798355103,1.8445075750350952
1747979703295221500,4.382221435546875,0.8955284357070923,1.541213035583496,2.4663684368133545
1747979703313487400,4.4004873046875,0.8216137290000916,1.6227635145187378,1.5780175924301147
1747979703331753200,4.418753173828125,0.09269879758358002,2.2631030082702637,-0.44455718994140625
1747979703350019800,4.437019775390625,-0.9433286786079407,1.4705053567886353,-1.5164729356765747
1747979703368284400,4.455284423828125,-0.9553932547569275,-0.5108360648155212,-0.878576934337616
1747979703386550300,4.47355029296875,-0.5064072608947754,-0.694553792476654,-0.015577063895761967
1747979703404816400,4.49181640625,0.18616119027137756,0.46960264444351196,0.08674286305904388
1747979703423082000,4.51008203125,0.8009970784187317,1.9917261600494385,-0.7005097270011902
1747979703441347000,4.52834716796875,0.8978192210197449,2.8519771099090576,-1.1568260192871094
1747979703459608000,4.546608154296875,-0.04046982154250145,1.586722493171692,-0.014049900695681572
1747979703477877500,4.56487744140625,-0.3179553747177124,1.2131783962249756,0.2203696370124817
1747979703496146700,4.583146728515625,0.31093040108680725,1.1172724962234497,0.07849618047475815
1747979703514405400,4.6014052734375,0.8242099285125732,0.2970332205295563,0.32940909266471863
1747979703532675800,4.61967578125,0.9450085163116455,-0.6522513628005981,0.7812966704368591
1747979703550941700,4.637941650390625,0.6827946305274963,-1.2421945333480835,1.2107349634170532
1747979703569208300,4.656208251953125,0.25961771607398987,-1.0723739862442017,1.7230981588363647
1747979703587473000,4.674472900390625,0.09010262042284012,0.41661009192466736,2.80234432220459
1747979703605738800,4.69273876953125,-0.01970040425658226,1.6893478631973267,3.1726813316345215
1747979703624004900,4.7110048828125,-0.11545353382825851,1.4301882982254028,2.5161540508270264
1747979703642270700,4.729270751953125,-0.10018189996480942,0.2580905556678772,1.279915452003479
1747979703660535800,4.747535888671875,-0.025961773470044136,-0.10873401165008545,0.6959282159805298
1747979703678807300,4.765807373046875,0.006108652334660292,0.4795292317867279,0.7808384895324707
1747979703697067300,4.7840673828125,0.13805554807186127,1.2699888944625854,0.9471465349197388
1747979703715329300,4.802329345703125,0.24358251690864563,1.5848898887634277,1.0036516189575195
1747979703733597400,4.820597412109375,0.3006984293460846,1.4654656648635864,1.0618364810943604
1747979703751864600,4.838864501953125,0.4069889783859253,1.1916453838348389,1.353830099105835
1747979703770131000,4.857130859375,0.5619960427284241,0.6507241725921631,1.8406896591186523
1747979703788389400,4.875389404296875,0.5684100985527039,-0.3045163154602051,1.9375118017196655
1747979703806664200,4.893664306640625,0.5798638463020325,-0.6556110978126526,1.4839444160461426
1747979703824923000,4.9119228515625,0.6145304441452026,0.32299500703811646,1.0039570331573486
1747979703843197200,4.930197265625,0.7031059265136719,1.4453071355819702,0.6450737118721008
1747979703861459500,4.94845947265625,0.7275404930114746,1.5777121782302856,0.35216382145881653
1747979703879724500,4.966724609375,0.5965099334716797,1.235169529914856,0.12308934330940247
1747979703897989600,4.98498974609375,0.36163222789764404,0.8272642493247986,-0.1966986060142517
1747979703916256000,5.003256103515625,0.18341228365898132,0.17241671681404114,-0.33857205510139465
1747979703934522400,5.0215224609375,0.06582073122262955,-0.010842857882380486,-0.1898263692855835
1747979703952787200,5.039787109375,0.24037547409534454,0.5021312236785889,-0.23105977475643158
1747979703971052500,5.058052490234375,0.16264286637306213,-0.05742133408784866,-1.2267701625823975
1747979703989317000,5.076317138671875,-0.5195409059524536,-1.2406673431396484,-2.191784381866455
1747979704007586600,5.094586669921875,-1.038318157196045,-1.874592661857605,-2.434603452682495
1747979704025848800,5.112848876953125,-1.1803443431854248,-2.350304126739502,-2.4775166511535645
1747979704044116000,5.131115966796875,-1.0241155624389648,-2.7853927612304688,-2.9274189472198486
1747979704062385200,5.14938525390625,-0.8020660877227783,-2.607783794403076,-3.3202052116394043
1747979704080647400,5.1676474609375,-0.6485861539840698,-1.2000447511672974,-3.61800217628479
1747979704098912500,5.18591259765625,-0.6107125282287598,0.740368664264679,-3.4830009937286377
1747979704117162500,5.20416259765625,-0.7831292152404785,1.6473509073257446,-2.8455629348754883
1747979704135440000,5.22243994140625,-0.6976081132888794,0.9752463698387146,-2.3023509979248047
1747979704153710800,5.2407109375,-0.4124867618083954,0.5429064631462097,-1.9898935556411743
1747979704171975400,5.258975341796875,-0.2015855312347412,0.561079740524292,-1.7258470058441162
1747979704190241300,5.2772412109375,-0.15225815773010254,0.5248859524726868,-1.3255776166915894
1747979704208507000,5.2955068359375,-0.23167064785957336,0.39156460762023926,-0.9043859839439392
1747979704226769200,5.31376904296875,-0.44135013222694397,0.2168571650981903,-0.46853363513946533
1747979704245037000,5.332037109375,-0.6931793093681335,-0.14813482761383057,-0.07971791177988052
1747979704263305200,5.35030517578125,-0.9320276379585266,-0.5061018466949463,0.1108720451593399
1747979704281569800,5.36856982421875,-1.0613783597946167,-0.8681922554969788,0.11499538272619247
1747979704299835000,5.3868349609375,-0.9778425693511963,-1.4410310983657837,0.1999056488275528
1747979704318102500,5.4051025390625,-0.5574145317077637,-1.8257235288619995,0.24236078560352325
1747979704336367000,5.4233671875,-0.18707747757434845,-1.8150333166122437,0.3367394804954529
1747979704354632400,5.441632568359375,0.03191770985722542,-1.5054774284362793,0.6711881756782532
1747979704372899600,5.459899658203125,0.0981965884566307,-0.8487972617149353,1.310611367225647
1747979704391164200,5.4781640625,0.2649627923965454,0.16722436249256134,2.0648772716522217
1747979704409425700,5.49642578125,0.59803706407547,0.9060658812522888,2.643213987350464
1747979704427695400,5.5146953125,1.0044151544570923,1.1020009517669678,2.2925772666931152
1747979704445962200,5.532962158203125,0.6765332818031311,0.47418415546417236,0.2076941877603531
1747979704464228400,5.551228271484375,-0.08888089656829834,0.33658674359321594,-0.8585711121559143
1747979704482491100,5.5694912109375,-0.5615378618240356,-0.24434609711170197,-0.5884159207344055
1747979704500758000,5.587758056640625,-0.8127561807632446,-1.359480619430542,-0.43447789549827576
1747979704519025200,5.606025146484375,-0.5364924073219299,-1.416596531867981,-0.23518311977386475
1747979704537289500,5.62428955078125,0.06414084881544113,0.4297437071800232,-0.5041165351867676
1747979704555555300,5.642555419921875,1.1527026891708374,2.5364651679992676,-0.5997169613838196
1747979704573817300,5.6608173828125,1.8668042421340942,3.098766565322876,0.10048733651638031
1747979704592085800,5.679085693359375,1.7056884765625,0.790154218673706,0.25732699036598206
1747979704610353700,5.697353759765625,0.44486260414123535,1.2735012769699097,-0.19532416760921478
1747979704628613600,5.715613525390625,0.11911872029304504,1.1478158235549927,-0.022907447069883347
1747979704646884000,5.733884033203125,0.42791110277175903,0.5474879741668701,0.4207334518432617
1747979704665150200,5.752150146484375,0.8790351152420044,-0.275347501039505,0.9882272481918335
1747979704683410400,5.770410400390625,1.0571023225784302,-0.8257371187210083,1.538158655166626
1747979704701681000,5.788680908203125,0.8681922554969788,-1.0267117023468018,2.0050125122070312
1747979704719946800,5.80694677734375,0.4801400899887085,-0.6498079299926758,2.501951217651367
1747979704738213400,5.82521337890625,0.1547016203403473,0.8585711121559143,3.073721170425415
1747979704756478000,5.84347802734375,-0.07498370856046677,1.7673858404159546,2.987436532974243
1747979704774743800,5.861743896484375,-0.19883663952350616,1.659873604774475,2.3400721549987793
1747979704793008600,5.880008544921875,-0.1638645976781845,0.9352346658706665,1.4640913009643555
1747979704811277000,5.898277099609375,-0.00931569468230009,0.2073887437582016,0.9393580555915833
1747979704829536300,5.916536376953125,0.07040221989154816,0.230448916554451,0.6682865619659424
1747979704847806700,5.934806640625,0.19776763021945953,0.6633996367454529,0.6281222105026245
1747979704866069200,5.9530693359375,0.36942076683044434,1.2826642990112305,1.0589349269866943
1747979704884342000,5.971342041015625,0.5013676285743713,1.6117680072784424,1.5963436365127563
1747979704902601200,5.989601318359375,0.679129421710968,0.9541715383529663,1.4178181886672974
1747979704920871200,6.00787109375,0.7987062931060791,0.1082758679986,0.8610145449638367
1747979704939136000,6.026135986328125,0.7449501752853394,0.007788531947880983,0.6902777552604675
1747979704957397200,6.044397216796875,0.7136433124542236,0.3878994286060333,0.7661777138710022
1747979704975666400,6.06266650390625,0.8013024926185608,0.7310529947280884,0.8303185701370239
1747979704993932300,6.080932373046875,0.8474228382110596,0.8768970370292664,0.9666942358016968
1747979705012198100,6.0991982421875,0.5870414972305298,0.8536841869354248,1.0363328456878662
1747979705030464800,6.11746484375,0.47678032517433167,0.8434522151947021,1.054964303970337
1747979705048725800,6.135725830078125,0.566119372844696,0.6824892163276672,1.1921035051345825
1747979705066995200,6.1539951171875,0.4970915913581848,-0.0708603709936142,1.701259732246399
1747979705085256000,6.172255859375,0.40424007177352905,-1.2040153741836548,1.1203268766403198
1747979705103526400,6.1905263671875,0.2638937830924988,-0.28878653049468994,-0.9549350738525391
1747979705121793300,6.208793212890625,-0.532369077205658,-0.16279558837413788,-2.233781576156616
1747979705140057900,6.227057861328125,-1.3214542865753174,-0.9631817936897278,-2.5537221431732178
1747979705158311700,6.245311767578125,-1.4311045408248901,-1.416596531867981,-2.620917320251465
1747979705176590600,6.263590576171875,-1.1455250978469849,-1.8909333944320679,-2.528676748275757
1747979705194841600,6.281841552734375,-0.7857254147529602,-1.9706512689590454,-2.6778805255889893
1747979705213122000,6.3001220703125,-0.451123982667923,-1.7624989748001099,-3.0576860904693604
1747979705231390500,6.318390380859375,-0.21868975460529327,-1.197906732559204,-3.3266193866729736
1747979705249653200,6.3366533203125,-0.24633140861988068,-0.2557998299598694,-2.975219249725342
1747979705267916800,6.354916748046875,-0.2854267954826355,0.7832819819450378,-2.514932155609131
1747979705286184700,6.373184814453125,-0.08384125679731369,1.5302174091339111,-2.06854248046875
1747979705304451000,6.391451171875,0.1598939746618271,1.9173532724380493,-1.6629278659820557
1747979705322716200,6.409716064453125,0.1336267739534378,1.9103283882141113,-1.1937834024429321
1747979705340980700,6.427980712890625,-0.1391245573759079,1.2049317359924316,-0.4132503271102905
1747979705359245000,6.4462451171875,-0.7005097270011902,-0.3295617997646332,0.5199990272521973
1747979705377510100,6.46451025390625,-1.431868076324463,-1.6552921533584595,0.7435756921768188
1747979705395773000,6.48277294921875,-2.177276372909546,-1.9886717796325684,0.10415252298116684
1747979705414042000,6.5010419921875,-2.8961122035980225,-2.3744332790374756,-0.9408851861953735
1747979705432310300,6.519310302734375,-3.134807825088501,-4.0796637535095215,-2.2681427001953125
1747979705450574800,6.537574951171875,-2.6610817909240723,-5.242292881011963,-3.3116531372070312
1747979705468840400,6.55584033203125,-1.7919732332229614,-3.8704421520233154,-3.5292739868164062
1747979705487107300,6.574107421875,-0.8526151776313782,-1.0094548463821411,-1.2712105512619019
1747979705505372700,6.59237255859375,0.10506882518529892,-1.1953105926513672,-0.1690569519996643
1747979705523637800,6.6106376953125,0.6882924437522888,-1.9741637706756592,-0.4810563921928406
1747979705541901600,6.628901611328125,0.9758572578430176,-2.1540634632110596,-0.9060658812522888
1747979705560171800,6.647171875,0.6664539575576782,-0.4778493344783783,-1.560302495956421
1747979705578430500,6.665430419921875,-0.8425359129905701,1.7821993827819824,-1.6177239418029785
1747979705596695800,6.68369580078125,-1.1485793590545654,1.189354658126831,-0.6336199641227722
1747979705614966000,6.701966064453125,1.2012665271759033,0.6166684627532959,1.790598750114441
1747979705633233200,6.720233154296875,3.5911240577697754,2.8606820106506348,-1.4117095470428467
1747979705651497500,6.73849755859375,4.736801624298096,-0.8397870063781738,-0.6307183504104614
1747979705669763300,6.756763427734375,3.894113302230835,0.526107668876648,2.7704265117645264
1747979705688027100,6.775027099609375,3.2919528484344482,2.992170572280884,3.6172385215759277
1747979705706297600,6.793297607421875,3.4881932735443115,5.579795837402344,3.640756845474243
1747979705724560400,6.811560302734375,4.449236869812012,6.228534698486328,3.721085548400879
1747979705742825000,6.829824951171875,4.8087310791015625,2.3412938117980957,2.833651065826416
1747979705761094100,6.84809423828125,3.2230777740478516,-0.27870726585388184,2.6456573009490967
1747979705779357700,6.866357666015625,1.538464069366455,-1.5425875186920166,3.3064608573913574
1747979705797623000,6.884623046875,0.3355177342891693,-1.6333009004592896,5.290245532989502
1747979705815889000,6.902888916015625,-0.4115704596042633,0.01725694350898266,6.494872093200684
1747979705834154800,6.92115478515625,0.7496843934059143,1.9349156618118286,5.514891624450684
1747979705852416500,6.93941650390625,0.3781255781650543,2.4213171005249023,4.757266044616699
1747979705870686000,6.95768603515625,-0.0403171069920063,0.26542094349861145,3.9770381450653076
1747979705888951600,6.97595166015625,0.09224065393209457,-2.1642956733703613,2.2094995975494385
1747979705907218400,6.994218505859375,-0.16814066469669342,-1.093143343925476,1.1820242404937744
1747979705925483000,7.01248291015625,-0.28206703066825867,0.5227479338645935,0.24373523890972137
1747979705943740000,7.030739990234375,-0.6963863968849182,0.6937901973724365,-0.6562219858169556
1747979705962017300,7.049017333984375,-1.2279918193817139,0.19333885610103607,-0.4738787114620209
1747979705980281900,7.06728173828125,-1.6296358108520508,-0.799011766910553,-0.16004669666290283
1747979705998546200,7.085546142578125,-2.040748119354248,-1.6679675579071045,-1.0395399332046509
1747979706016811500,7.1038115234375,-2.0668625831604004,-1.739133358001709,-1.6899586915969849
1747979706035077400,7.122077392578125,-1.9737056493759155,-1.8698585033416748,-2.1730003356933594
1747979706053344300,7.14034423828125,-1.750434398651123,-1.951256275177002,-2.662761688232422
1747979706071608800,7.15860888671875,-1.4981470108032227,-2.0222694873809814,-3.3380730152130127
1747979706089873400,7.176873291015625,-1.492038369178772,-1.796249270439148,-3.9173262119293213
1747979706108150000,7.19514990234375,-1.9271271228790283,-1.7366899251937866,-4.38494348526001
1747979706126402000,7.213402099609375,-2.4555256366729736,-1.768149495124817,-5.1660871505737305
1747979706144671500,7.23167138671875,-5.079649925231934,2.023643732070923,-8.485681533813477
1747979706162937000,7.24993701171875,-5.617516994476318,10.508256912231445,-4.4877214431762695
1747979706181203200,7.268203125,-7.31037712097168,6.338032245635986,-0.7238753437995911
1747979706199464700,7.286464599609375,-6.995628833770752,-3.6548068523406982,-2.0190622806549072
1747979706217734400,7.304734375,-5.073694229125977,-8.955131530761719,-1.4028520584106445
1747979706235989800,7.32298974609375,-3.2733213901519775,-9.760099411010742,-0.07651086896657944
1747979706254265600,7.341265625,-0.6502660512924194,-10.082789421081543,1.1971431970596313
1747979706272516900,7.359516845703125,1.9211711883544922,-9.1817626953125,2.193922519683838
1747979706290797000,7.377797119140625,3.0138564109802246,-5.477476119995117,1.9814941883087158
1747979706309062700,7.396062744140625,3.33089542388916,-0.646906316280365,0.7379252314567566
1747979706327328300,7.414328369140625,2.3379340171813965,4.989699840545654,-1.5572482347488403
1747979706345595100,7.43259521484375,-0.16798794269561768,6.267171859741211,-0.7338019013404846
1747979706363858700,7.450858642578125,-2.110081195831299,7.712784767150879,2.3490822315216064
1747979706382126600,7.469126708984375,-2.1897990703582764,5.250844955444336,6.929808139801025
1747979706400387000,7.487386962890625,-1.783879280090332,2.11588454246521,9.077762603759766
1747979706418653200,7.505653076171875,-1.0374019145965576,-3.428786516189575,6.864750862121582
1747979706436922600,7.523922607421875,0.35475999116897583,-6.050009250640869,3.662900686264038
1747979706455183600,7.54218359375,1.7302757501602173,-4.848284721374512,0.6898195743560791
1747979706473452800,7.560452880859375,3.3211216926574707,-3.3715178966522217,-2.229963541030884
1747979706491722200,7.57872216796875,5.577657699584961,-5.821087837219238,-5.943260669708252
1747979706509985500,7.596985595703125,8.000960350036621,0.788016140460968,-5.647754669189453
1747979706528251100,7.615251220703125,7.080233573913574,10.059423446655273,-2.1169536113739014
1747979706546504700,7.633504638671875,3.899305582046509,12.074362754821777,-1.529606580734253
1747979706564783600,7.65178369140625,2.9403998851776123,11.868500709533691,0.3439171314239502
1747979706583048200,7.670048095703125,3.960697650909424,7.417889595031738,2.8176159858703613
1747979706601313800,7.688313720703125,4.279110908508301,2.7013988494873047,3.4878878593444824
1747979706619580000,7.706579833984375,3.7093265056610107,-1.6271922588348389,3.6444220542907715
1747979706637845200,7.72484521484375,2.4130704402923584,-7.090007305145264,4.453665733337402
1747979706656112000,7.743112060546875,1.8484781980514526,-8.562650680541992,7.6228346824646
1747979706674377200,7.761377197265625,2.4608707427978516,9.799958229064941,15.865545272827148
1747979706692631600,7.779631591796875,0.47708576917648315,14.285236358642578,2.795013904571533
1747979706710909400,7.797909423828125,-0.38469240069389343,-1.4008667469024658,-3.785531997680664
1747979706729172700,7.8161728515625,-0.6027712821960449,-2.521040916442871,0.9103419184684753
1747979706747436800,7.834436767578125,-0.9766207933425903,-3.5886805057525635,1.8205311298370361
1747979706765705200,7.852705322265625,-1.806328535079956,-2.877786159515381,0.5783366560935974
1747979706783972000,7.87097216796875,-2.2232439517974854,-1.5364787578582764,-0.7066183686256409
1747979706802236700,7.889236572265625,-2.3243422508239746,-0.12889257073402405,-1.0963504314422607
1747979706820502300,7.907502197265625,-2.1502456665039062,-1.510058879852295,-2.0415115356445312
1747979706838763300,7.92576318359375,-1.6389514207839966,-2.8318185806274414,-1.9672914743423462
1747979706857035000,7.944034912109375,-1.1614075899124146,-3.512322425842285,-1.6161967515945435
1747979706875299600,7.962299560546875,-0.8474228382110596,-3.72383451461792,-1.5981762409210205
1747979706893564700,7.980564697265625,-0.9521862268447876,-3.291036605834961,-2.160783052444458
1747979706920952800,8.007952880859374,-1.632842779159546,-3.13847279548645,-4.0494256019592285
1747979706939229400,8.0262294921875,-2.2545509338378906,-4.841259956359863,-5.938679218292236
1747979706957495000,8.0444951171875,-4.962974548339844,-6.8465776443481445,-12.53663444519043
1747979706975760600,8.0627607421875,-7.285942554473877,12.035114288330078,-6.987381935119629
1747979706994025200,8.081025146484375,-8.308530807495117,2.9332222938537598,-1.1131491661071777
1747979707012288500,8.09928857421875,-7.06114387512207,-7.710188388824463,-2.370615243911743
1747979707030556400,8.117556396484375,-5.522679805755615,-11.553446769714355,-0.9541715383529663
1747979707048825600,8.13582568359375,-3.2151365280151367,-11.14920711517334,1.042594313621521
1747979707067089400,8.15408935546875,0.166460782289505,-10.84789752960205,3.639993190765381
1747979707085355000,8.17235498046875,2.2285890579223633,-9.655946731567383,4.720461368560791
1747979707103620600,8.19062060546875,3.297297954559326,-2.738356113433838,2.8183796405792236
1747979707121886500,8.208886474609375,2.7209465503692627,2.753016948699951,0.49235737323760986
1747979707140151800,8.22715185546875,-0.5587889552116394,5.168225288391113,-0.10094548016786575
1747979707158412800,8.245412841796876,-5.463884353637695,10.829876899719238,2.233170509338379
1747979707176683300,8.263683349609375,-4.057214260101318,13.408339500427246,5.413793087005615
1747979707194949000,8.28194921875,-0.6035348773002625,12.096353530883789,6.308863639831543
1747979707213215000,8.300215087890624,1.0453431606292725,1.6311628818511963,4.897153854370117
1747979707231480300,8.318480224609376,1.3408491611480713,-3.2058207988739014,1.76723313331604
1747979707249746000,8.336745849609375,1.5221234560012817,-1.6765196323394775,-1.0375546216964722
1747979707268007200,8.355007080078124,2.2565362453460693,-1.5250251293182373,-2.6787967681884766
1747979707286276400,8.3732763671875,4.644255638122559,-1.935831904411316,-2.9972102642059326
1747979707304544300,8.391544189453125,7.63703727722168,-1.6206254959106445,-2.2032382488250732
1747979707322809000,8.40980908203125,9.115178108215332,2.749657154083252,-3.894113302230835
1747979707341074400,8.428074462890624,10.138224601745605,1.5138767957687378,0.26740625500679016
1747979707359340300,8.44634033203125,5.860183238983154,5.097517967224121,0.9767735004425049
1747979707377606000,8.46460595703125,2.719572067260742,7.717060565948486,-0.09758572280406952
1747979707395870700,8.48287060546875,1.9312504529953003,6.514725208282471,1.9630154371261597
1747979707414137600,8.5011376953125,1.2499829530715942,-0.3926336467266083,5.268865585327148
1747979707432399400,8.5193994140625,3.0492866039276123,-5.846133232116699,5.950743675231934
1747979707450668800,8.537668701171874,2.291661024093628,-7.669107913970947,7.903832912445068
1747979707468934400,8.555934326171876,0.21135938167572021,10.15303897857666,15.011402130126953
1747979707487200300,8.5742001953125,-0.12202033400535583,24.169342041015625,3.8166861534118652
1747979707505465600,8.592465576171875,-1.819920301437378,1.2169963121414185,-4.7302350997924805
1747979707523727000,8.61072705078125,-0.7351763248443604,-3.190091133117676,0.22082778811454773
1747979707541996000,8.62899609375,0.16920967400074005,-3.7725510597229004,2.367255449295044
1747979707560264400,8.647264404296875,-0.3732386529445648,-4.301865577697754,2.2435553073883057
1747979707578528500,8.665528564453124,-1.0458012819290161,-3.229644536972046,1.0447323322296143
1747979707596793900,8.6837939453125,-1.155604362487793,-0.8327620625495911,0.8985827565193176
1747979707615061000,8.70206103515625,-0.9416487812995911,2.484389066696167,0.6210972666740417
1747979707633325800,8.720325927734375,-1.1838568449020386,-0.3017674386501312,-1.3377948999404907
1747979707651591400,8.73859130859375,-0.998153805732727,-1.834428310394287,-1.298241376876831
1747979707669856000,8.75685595703125,-0.889267086982727,-2.6200010776519775,-1.044274091720581
1747979707688121000,8.77512109375,-0.9095783233642578,-2.920241355895996,-1.1943942308425903
1747979707706392000,8.79339208984375,-1.1276572942733765,-2.744464874267578,-1.7133243083953857
1747979707724654300,8.811654296875,-1.6458237171173096,-2.7681357860565186,-2.6169466972351074
1747979707742920000,8.829919921875,-1.9011653661727905,-3.815922498703003,-3.955657958984375
1747979707761185800,8.848185791015625,-2.8400652408599854,-5.5649824142456055,-5.662568092346191
1747979707779458300,8.866458251953125,-6.898043155670166,3.3208162784576416,-12.883453369140625
1747979707797715700,8.8847158203125,-5.871026039123535,17.387821197509766,-5.552001476287842
1747979707815983600,8.902983642578125,-6.411794185638428,3.5917348861694336,0.6120869517326355
1747979707834248200,8.921248291015624,-5.610339164733887,-4.492913722991943,1.2356276512145996
1747979707852502300,8.939502197265625,-3.9322922229766846,-8.033794403076172,1.1021536588668823
1747979707870775000,8.957775146484375,-2.1284072399139404,-12.037710189819336,0.432034432888031
1747979707889034200,8.9760341796875,0.2551889419555664,-12.889867782592773,-1.0905472040176392
1747979707907312400,8.9943125,2.02929425239563,-11.430968284606934,-0.6068946123123169
1747979707925576700,9.01257666015625,2.395660877227783,-7.698887348175049,0.3332269787788391
1747979707943841300,9.03084130859375,3.185356855392456,1.2504411935806274,-0.5557346343994141
1747979707962109400,9.049109375,2.4025330543518066,7.217831134796143,-0.13897185027599335
1747979707980374800,9.067374755859374,0.6411030888557434,8.708495140075684,1.126588225364685
1747979707998634800,9.085634765625,-1.737911581993103,10.416626930236816,5.021312236785889
1747979708016905200,9.1039052734375,-2.5192081928253174,5.499772548675537,13.020134925842285
1747979708035170800,9.1221708984375,-2.2145392894744873,-0.9999864101409912,12.490056037902832
1747979708053432300,9.140432373046876,-1.00197172164917,-9.337839126586914,6.627735137939453
1747979708071702300,9.158702392578125,1.441794753074646,-9.32241439819336,0.17348572611808777
1747979708089968000,9.176968017578124,3.847229242324829,-5.7703857421875,-3.8004980087280273
1747979708108233700,9.195233642578126,5.867666244506836,-1.9017761945724487,-4.534910678863525
1747979708126494700,9.21349462890625,5.862320899963379,-1.5528194904327393,-3.1696269512176514
1747979708144765000,9.231764892578125,5.178152084350586,5.575366973876953,-3.981161594390869
1747979708163030800,9.25003076171875,6.09674072265625,13.525167465209961,-5.0710978507995605
1747979708181296600,9.268296630859375,6.200740337371826,9.849133491516113,-0.6841690540313721
1747979708199562000,9.28656201171875,5.139667510986328,8.427191734313965,1.8651243448257446
1747979708217826800,9.304826904296876,3.523623466491699,5.324301242828369,3.397632598876953
1747979708236094500,9.323094482421874,1.1232284307479858,-0.8623890280723572,5.375614166259766
1747979708254359300,9.341359375,3.347083330154419,-7.7317214012146,5.864306449890137
1747979708272625000,9.359625,3.7901134490966797,4.118453502655029,11.700512886047363
1747979708290890500,9.377890380859375,2.5673139095306396,19.337244033813477,10.690905570983887
1747979708309156600,9.396156494140625,0.6905831694602966,1.8726073503494263,-4.16549015045166
1747979708327417900,9.41441796875,-0.9624181985855103,-1.196379542350769,-0.5871942043304443
1747979708345687800,9.432687744140624,-0.31642818450927734,-2.766303300857544,1.7412713766098022
1747979708363953700,9.45095361328125,-0.6647741198539734,-4.198018550872803,1.9382754564285278
1747979708382214400,9.46921435546875,-1.3255776166915894,-3.481321096420288,1.0670288801193237
1747979708400483000,9.487483154296875,-1.545030951499939,0.7738135457038879,0.4691445231437683
1747979708418756400,9.50575634765625,-1.6594154834747314,1.1644618511199951,-1.183398723602295
1747979708437016000,9.52401611328125,-1.680490255355835,-1.1930198669433594,-1.4356859922409058
1747979708455282000,9.542281982421875,-1.3533719778060913,-2.984229326248169,-1.0199922323226929
1747979708473547500,9.560547607421874,-1.126588225364685,-3.9799396991729736,-0.7606799602508545
1747979708491813000,9.578813232421876,-1.1252137422561646,-4.2670464515686035,-0.9001099467277527
1747979708510079000,9.597078857421875,-1.3715451955795288,-3.8006508350372314,-1.4164438247680664
1747979708528344600,9.615344482421875,-1.7452419996261597,-3.0944905281066895,-2.2489004135131836
1747979708546610200,9.633610107421875,-1.9031506776809692,-2.7713429927825928,-3.2892038822174072
1747979708564875000,9.651875,-4.149149417877197,-2.755613088607788,-6.021451473236084
1747979708583142700,9.670142578125,-8.002945899963379,0.7970264554023743,-12.915218353271484
1747979708601402400,9.68840234375,-5.753587245941162,14.17741870880127,-6.518695831298828
1747979708619673000,9.706673095703126,-7.478517532348633,1.3800972700119019,0.39446622133255005
1747979708637931000,9.724930908203126,-5.7717604637146,-6.323982238769531,0.447000652551651
1747979708656206000,9.7432060546875,-4.112650394439697,-9.39480209350586,0.6050620079040527
1747979708674470000,9.761469970703125,-1.7707456350326538,-11.096214294433594,0.5723807215690613
1747979708692737300,9.7797373046875,0.9491318464279175,-10.596527099609375,1.7930421829223633
1747979708711001600,9.798001708984375,2.440406560897827,-10.086912155151367,3.2142202854156494
1747979708729267500,9.816267333984374,3.235753297805786,-6.90934419631958,3.559206247329712
1747979708747532500,9.834532470703126,4.291633605957031,1.8475619554519653,1.1021536588668823
1747979708765798700,9.852798583984375,3.5051448345184326,5.197394371032715,-0.33505958318710327
1747979708784063000,9.87106298828125,1.1354458332061768,8.249124526977539,-0.5203045010566711
1747979708802331000,9.889330810546875,-2.2849414348602295,11.70952320098877,3.2432363033294678
1747979708820595700,9.907595703125,-2.551736831665039,10.396926879882812,9.137627601623535
1747979708838860000,9.925860107421874,-1.5056301355361938,3.7036759853363037,10.933571815490723
1747979708857128200,9.944128173828124,-0.7092145681381226,-4.583168983459473,7.93162727355957
1747979708875388200,9.96238818359375,0.06841690838336945,-6.499453544616699,2.2241604328155518
1747979708893653500,9.980653564453124,1.038318157196045,-4.65341854095459,-1.9440786838531494
1747979708911923000,9.9989228515625,3.2731688022613525,-3.2039883136749268,-4.041331768035889
1747979708930192000,10.01719189453125,5.971818447113037,-4.362799644470215,-4.054007053375244
1747979708948451600,10.03545166015625,6.875899314880371,3.076164722442627,-4.9984049797058105
1747979708966710800,10.053710693359376,7.806552410125732,6.150343894958496,-3.369074583053589
1747979708984987000,10.07198681640625,5.304906368255615,6.565121650695801,0.9069821834564209
1747979709003252000,10.090251953125,2.9746084213256836,11.600789070129395,-2.548529863357544
1747979709021518000,10.10851806640625,2.9416215419769287,8.37587833404541,-0.21991148591041565
1747979709039784000,10.126783935546875,4.04438591003418,-0.3839288055896759,3.824169158935547
1747979709058049500,10.145049560546875,6.195700645446777,-7.4270524978637695,6.673855304718018
1747979709076315000,10.16331494140625,2.6360361576080322,-6.254038333892822,10.129520416259766
1747979709094580700,10.181580810546874,1.3817771673202515,17.313600540161133,14.104573249816895
1747979709112845300,10.19984521484375,2.1374175548553467,11.225717544555664,-2.752864122390747
1747979709131113500,10.218113525390624,-0.46822822093963623,-1.018923282623291,-2.166128158569336
1747979709149373200,10.236373291015624,-0.02519819140434265,-2.846784830093384,2.316706418991089
1747979709167642400,10.254642333984375,-0.13347405195236206,-4.318358898162842,2.8718302249908447
1747979709185910300,10.27291015625,-0.8481863737106323,-3.3591480255126953,1.541213035583496
1747979709204178700,10.2911787109375,-1.11391282081604,-0.47448956966400146,-0.7522805333137512
1747979709222432800,10.309432861328125,-1.1539244651794434,2.724611759185791,-1.5267049074172974
1747979709240701400,10.327701416015625,-1.21974515914917,1.224173903465271,-1.4130840301513672
1747979709258970600,10.345970703125,-1.2683089971542358,-1.9058995246887207,-0.7212791442871094
1747979709277239000,10.364239013671876,-1.1030699014663696,-3.935804843902588,-0.09682214260101318
1747979709295503400,10.38250341796875,-1.1354458332061768,-4.777271747589111,-0.05421429127454758
1747979709313769200,10.400769287109375,-1.3255776166915894,-4.820642948150635,-0.5096143484115601
1747979709332034600,10.41903466796875,-1.7227927446365356,-4.2586469650268555,-1.3182471990585327
1747979709350300400,10.437300537109374,-1.8831448554992676,-4.053091049194336,-2.462703227996826
1747979709368566800,10.45556689453125,-2.6111435890197754,-3.7807977199554443,-4.374100685119629
1747979709386830600,10.47383056640625,-5.881868839263916,-2.6090054512023926,-8.062963485717773
1747979709405098500,10.492098388671875,-7.779063701629639,2.3302981853485107,-12.244029998779297
1747979709423363300,10.51036328125,-5.426774024963379,14.81455135345459,-5.393176555633545
1747979709441629000,10.52862890625,-7.351152420043945,-0.4444044530391693,-0.048716504126787186
1747979709459894500,10.54689453125,-5.197394371032715,-7.359246253967285,0.6803511381149292
1747979709478160100,10.56516015625,-3.796985626220703,-11.297952651977539,1.2315043210983276
1747979709496421000,10.583421142578125,-1.2050844430923462,-12.715160369873047,1.1705704927444458
1747979709514691300,10.60169140625,1.296714186668396,-11.878427505493164,2.2351558208465576
1747979709532957200,10.619957275390625,2.420400857925415,-11.282986640930176,3.1024317741394043
1747979709551222800,10.638222900390625,3.464216709136963,-5.395772933959961,2.188119411468506
1747979709569489000,10.656489013671875,3.4231362342834473,5.6459221839904785,-0.2590068578720093
1747979709587750100,10.674750244140625,0.9573785662651062,7.285179138183594,1.3055717945098877
1747979709606024000,10.69302392578125,-1.255022644996643,8.965516090393066,2.8480064868927
1747979709624284000,10.711283935546875,-3.8426477909088135,9.823781967163086,5.914855480194092
1747979709642551600,10.729551513671876,-3.7554469108581543,9.174585342407227,10.751686096191406
1747979709660818000,10.74781787109375,-2.5983152389526367,2.964223623275757,12.88772964477539
1747979709679081700,10.766081787109375,-0.8463537693023682,-4.710534572601318,9.49284553527832
1747979709697348000,10.78434814453125,0.7057020664215088,-6.586196422576904,2.2284364700317383
1747979709715613200,10.80261328125,1.4530956745147705,-5.965557098388672,-3.5746307373046875
1747979709733879600,10.820879638671874,3.316387414932251,-4.148232936859131,-5.649434566497803
1747979709752140300,10.839140380859375,5.338046073913574,-1.407128095626831,-4.9454121589660645
1747979709770406700,10.85740673828125,5.982356071472168,2.352900266647339,-4.225812911987305
1747979709788673500,10.875673583984375,6.991352558135986,7.51868200302124,-5.796195030212402
1747979709806942700,10.893942626953125,7.387651443481445,-3.012787342071533,0.40683624148368835
1747979709825207800,10.912207763671875,5.460218906402588,4.684878349304199,-1.998598337173462
1747979709843474000,10.930473876953124,3.667634963989258,7.392538547515869,-1.4439327716827393
1747979709861739300,10.9487392578125,1.5488488674163818,5.396536350250244,2.539824962615967
1747979709880005400,10.96700537109375,2.0445659160614014,2.3626739978790283,5.954103469848633
1747979709898270500,10.9852705078125,3.9512290954589844,-0.44257187843322754,8.150317192077637
1747979709916536600,11.00353662109375,0.5823072791099548,3.5935676097869873,10.974499702453613
1747979709934802200,11.02180224609375,1.8735237121582031,23.49708366394043,12.162174224853516
1747979709953067800,11.04006787109375,1.0102183818817139,3.811188220977783,-4.820337772369385
1747979709971333600,11.058333740234374,0.4288274049758911,-0.7299839854240417,-0.6250678896903992
1747979709989599500,11.076599609375,0.7258606553077698,-2.647031784057617,1.4721852540969849
1747979710007859200,11.094859130859374,-0.18814650177955627,-3.6216673851013184,1.4118622541427612
1747979710026130400,11.11313037109375,-0.9990701079368591,-2.7592782974243164,0.9656252264976501
1747979710044384500,11.131384521484375,-1.3251193761825562,0.526107668876648,0.8587238192558289
1747979710062662100,11.149662109375,-1.5781704187393188,-0.42149701714515686,-1.062447428703308
1747979710080927500,11.167927490234375,-1.3975069522857666,-2.6678011417388916,-1.0224356651306152
1747979710099193000,11.186193115234374,-1.1974486112594604,-3.774688959121704,-0.7127270102500916
1747979710117458700,11.204458740234376,-1.0908526182174683,-4.083176136016846,-0.6711881756782532
1747979710135724500,11.222724609375,-1.0393872261047363,-3.953214406967163,-0.8788823485374451
1747979710153979600,11.240979736328125,-1.067945122718811,-3.52805233001709,-1.430799126625061
1747979710172255700,11.259255859375,-1.162629246711731,-3.6131153106689453,-3.2146782875061035
1747979710190521600,11.277521484375,-1.5312864780426025,-3.7536141872406006,-4.658458232879639
1747979710208782300,11.2957822265625,-3.90205454826355,-4.319427967071533,-6.754489898681641
1747979710227053000,11.314052978515624,-8.858309745788574,0.7212791442871094,-11.671496391296387
1747979710245318700,11.332318603515626,-5.638286113739014,13.114818572998047,-6.935153007507324
1747979710263579600,11.35057958984375,-7.326259613037109,-0.0936150997877121,-1.6093244552612305
1747979710281848800,11.368848876953125,-5.906914234161377,-5.672952651977539,-0.7005097270011902
1747979710300116700,11.38711669921875,-4.743521213531494,-9.233075141906738,0.8953757286071777
1747979710318384400,11.40538427734375,-2.8092164993286133,-9.613186836242676,2.001805305480957
1747979710336647200,11.423647216796875,-0.07162395119667053,-9.004764556884766,3.308446168899536
1747979710354912800,11.441912841796874,2.1224513053894043,-8.893587112426758,3.911370277404785
1747979710373178400,11.460178466796876,3.4721579551696777,-6.708980083465576,3.4301609992980957
1747979710391452200,11.4784521484375,4.38326358795166,-1.041372537612915,1.3498594760894775
1747979710409709800,11.496709716796875,3.5127806663513184,2.945439577102661,-0.2863430976867676
1747979710427975200,11.51497509765625,1.0384708642959595,6.131407260894775,-0.31810808181762695
1747979710446241300,11.5332412109375,-1.318858027458191,10.662041664123535,1.5486961603164673
1747979710464507000,11.5515068359375,-1.6070337295532227,11.593611717224121,5.011385917663574
1747979710482769000,11.569768798828125,-0.6973026990890503,9.786519050598145,8.175820350646973
1747979710501041400,11.58804150390625,-0.16264286637306213,3.648698091506958,10.340269088745117
1747979710519303700,11.6063037109375,0.5083925724029541,-4.808884143829346,8.061894416809082
1747979710537568300,11.624568359375,0.3171917796134949,-7.9380412101745605,3.0802879333496094
1747979710555835000,11.6428349609375,0.8382598161697388,-3.913355588912964,-2.0949623584747314
1747979710574101000,11.66110107421875,2.3965771198272705,-1.5639677047729492,-5.161200523376465
1747979710592363300,11.67936328125,3.378084897994995,-3.6752707958221436,-6.2154011726379395
1747979710610627300,11.69762744140625,5.920964241027832,0.7249443531036377,-6.2995476722717285
1747979710628896800,11.715896728515625,8.938027381896973,-1.7890715599060059,-1.768149495124817
1747979710647164700,11.73416455078125,8.455138206481934,2.727818727493286,0.35659259557724
1747979710665425000,11.7524248046875,6.636592864990234,7.525554180145264,-0.9196576476097107
1747979710683694800,11.77069482421875,5.123937606811523,8.542034149169922,-0.19654589891433716
1747979710701960400,11.78896044921875,1.142012596130371,5.7132697105407715,4.307363510131836
1747979710720226300,11.807226318359374,0.24007004499435425,0.05451972410082817,8.619155883789062
1747979710738492000,11.825491943359374,3.0277535915374756,-1.6708691120147705,10.435564041137695
1747979710756757500,11.843757568359376,1.4007140398025513,17.806875228881836,12.60841178894043
1747979710775023400,11.8620234375,1.4520267248153687,11.497095108032227,-4.126700401306152
1747979710793288400,11.880288330078125,-0.4502076804637909,0.2096794992685318,-2.609769105911255
1747979710811555000,11.89855517578125,0.28267788887023926,-1.9365955591201782,1.0990992784500122
1747979710829817300,11.9168173828125,-0.01863138936460018,-4.459316253662109,1.5917620658874512
1747979710848089000,11.935089111328125,-0.9005680680274963,-3.994600534439087,1.470963478088379
1747979710866351400,11.953351318359376,-1.1062769889831543,-0.25763240456581116,0.17287486791610718
1747979710884617200,11.9716171875,-1.0111347436904907,-0.3572034537792206,-0.49327367544174194
1747979710902883800,11.9898837890625,-0.9894489645957947,-1.6048957109451294,-0.5485569834709167
1747979710921148000,12.00814794921875,-1.0990992784500122,-2.3383922576904297,-0.7490735054016113
1747979710939409200,12.0264091796875,-1.2044734954833984,-2.738203525543213,-0.9770789742469788
1747979710957680000,12.04468017578125,-1.3671164512634277,-2.92069935798645,-1.1746938228607178
1747979710975945700,12.06294580078125,-1.586722493171692,-2.992628812789917,-1.505935549736023
1747979710994209800,12.081209716796875,-1.962251901626587,-2.9654452800750732,-2.1233675479888916
1747979711012478500,12.099478515625,-2.135126829147339,-2.8933632373809814,-3.059976816177368
1747979711030742800,12.11774267578125,-2.054797887802124,-2.4865269660949707,-4.057366847991943
1747979711049008000,12.136008056640625,-2.8744263648986816,-2.844799518585205,-4.796360969543457
1747979711067274200,12.154274169921875,-5.957158088684082,8.783173561096191,-11.07239055633545
1747979711085539300,12.172539306640624,-4.220009803771973,14.480255126953125,-1.0370965003967285
1747979711103805400,12.190805419921874,-5.462815284729004,0.22770002484321594,1.9619464874267578
1747979711122058500,12.20905859375,-4.025296688079834,-4.715879917144775,0.005650503560900688
1747979711140335600,12.227335693359375,-2.23591947555542,-6.87925910949707,-0.7487680912017822
1747979711158599200,12.24559912109375,-0.3006984293460846,-8.434674263000488,0.008704829961061478
1747979711176866800,12.26386669921875,1.3367258310317993,-9.838290214538574,0.7283040881156921
1747979711195134500,12.282134521484375,2.562732458114624,-9.595623970031738,1.1520918607711792
1747979711213395200,12.300395263671875,3.2698090076446533,-6.098573207855225,1.7145460844039917
1747979711231664600,12.31866455078125,3.628844976425171,2.108401298522949,0.30604347586631775
1747979711249930800,12.3369306640625,1.96133553981781,7.399868965148926,-2.253023624420166
1747979711268196000,12.355196044921875,-0.09040805697441101,7.624208927154541,-0.48808133602142334
1747979711286462200,12.373462158203125,-1.2195924520492554,5.617974758148193,3.9770381450653076
1747979711304727600,12.3917275390625,-2.725375175476074,-1.3952162265777588,9.37922477722168
1747979711322993400,12.409993408203125,-2.869539499282837,-3.5466835498809814,10.3098783493042
1747979711341258800,12.4282587890625,-1.8588629961013794,-4.837441921234131,8.606328010559082
1747979711359524600,12.446524658203124,-0.07727445662021637,-6.624833583831787,4.876384735107422
1747979711377785600,12.46478564453125,0.7996225953102112,-5.669135093688965,1.0438159704208374
1747979711396054500,12.483054443359375,1.6209309101104736,-3.154660940170288,-1.3900238275527954
1747979711414323000,12.501322998046875,3.15740966796875,-2.9886581897735596,-4.055686950683594
1747979711432587300,12.519587158203125,5.3892059326171875,-0.07528914511203766,-6.348264217376709
1747979711450852000,12.53785205078125,9.123883247375488,-5.264436721801758,-1.1032226085662842
1747979711469119700,12.55611962890625,6.366743087768555,2.7087292671203613,2.11588454246521
1747979711487388200,12.57438818359375,3.388622283935547,11.927449226379395,-1.0065531730651855
1747979711505650200,12.592650146484376,1.9547687768936157,13.620767593383789,-0.10002918541431427
1747979711523915800,12.610915771484375,0.31673362851142883,9.198256492614746,3.456580877304077
1747979711542181400,12.629181396484375,2.5130996704101562,-1.1020009517669678,7.300450325012207
1747979711569580000,12.656580078125,3.9852848052978516,1.4175127744674683,13.553420066833496
1747979711587850200,12.674850341796875,1.4839444160461426,23.44882583618164,9.894795417785645
1747979711606112500,12.693112548828125,-2.1030564308166504,5.02879524230957,-5.300172328948975
1747979711624371000,12.711370849609375,-0.8915578126907349,-2.0867156982421875,-1.1313223838806152
1747979711642642400,12.729642333984375,0.793666660785675,-3.4384076595306396,1.8290832042694092
1747979711660897000,12.74789697265625,-0.2295326143503189,-4.864167213439941,1.853670597076416
1747979711679170000,12.766170166015625,-1.2903001308441162,-3.2866077423095703,0.9718865752220154
1747979711697436700,12.784436767578125,-1.8301522731781006,0.527634859085083,0.6148358583450317
1747979711715705300,12.802705322265625,-1.991573452949524,-0.4495968222618103,-1.2096658945083618
1747979711733971500,12.820971435546875,-1.8498526811599731,-2.3522894382476807,-1.5987870693206787
1747979711752237800,12.83923779296875,-1.698510766029358,-2.853351593017578,-1.523956060409546
1747979711770503400,12.85750341796875,-1.466840147972107,-3.0752482414245605,-1.4442381858825684
1747979711788760000,12.875760009765624,-1.2563971281051636,-2.901151657104492,-1.6084082126617432
1747979711807037700,12.89403759765625,-1.2276864051818848,-2.3996315002441406,-2.0108156204223633
1747979711821032200,12.9080322265625,-1.5650367736816406,-1.7247780561447144,-2.7230844497680664
1747979711838984200,12.925984130859375,-1.8730655908584595,-1.5106697082519531,-3.7595701217651367
1747979711857264000,12.94426416015625,-3.012634754180908,-2.8732047080993652,-6.1065144538879395
1747979711875523300,12.9625234375,-7.402923107147217,-4.140902996063232,-11.944705963134766
1747979711893795600,12.980795654296875,-9.421527862548828,12.930795669555664,-5.072014331817627
1747979711912060000,12.999059814453124,-6.624375343322754,2.6534459590911865,0.561079740524292
1747979711930325500,13.017325439453124,-5.8082594871521,-6.829320907592773,-0.6550002694129944
1747979711948589800,13.03558984375,-5.181053638458252,-12.289539337158203,0.17592918872833252
1747979711966857000,13.05385693359375,-3.048064947128296,-13.088704109191895,1.0361801385879517
1747979711994257700,13.081257568359375,1.2026410102844238,-11.84376049041748,2.866790533065796
1747979712012522200,13.099522216796874,2.5841126441955566,-8.142528533935547,2.456289052963257
1747979712030788000,13.1177880859375,1.694692850112915,-1.8354973793029785,1.2849550247192383
1747979712049053400,13.136053466796875,-0.518471896648407,5.750990867614746,0.7538077235221863
1747979712067319300,13.1543193359375,-2.620917320251465,11.27122688293457,1.9869918823242188
1747979712085585000,13.1725849609375,-3.0437889099121094,14.898850440979004,4.676173686981201
1747979712103849200,13.19084912109375,-0.6010913848876953,10.31965160369873,6.811911106109619
1747979712122114000,13.209114013671876,-0.1618792861700058,-0.5369505286216736,5.781686782836914
1747979712140382500,13.227382568359374,0.03940080851316452,-1.9088011980056763,2.7310256958007812
1747979712158643200,13.245643310546875,0.8020660877227783,-0.25335636734962463,-0.12446379661560059
1747979712176914400,13.26391455078125,1.6733126640319824,2.0308215618133545,-1.5972598791122437
1747979712195175700,13.28217578125,3.22979736328125,2.180025339126587,-2.78646183013916
1747979712213442600,13.300442626953124,5.5040483474731445,-0.4427245855331421,-4.722446441650391
1747979712231710200,13.318710205078125,8.615338325500488,-0.11591167747974396,-7.149719715118408
1747979712249975800,13.336975830078124,10.495734214782715,0.8787296414375305,0.6091853380203247
1747979712268241700,13.35524169921875,5.810702800750732,7.517765998840332,-0.28008171916007996
1747979712286507300,13.37350732421875,3.625943422317505,8.490874290466309,-1.3709343671798706
1747979712304773000,13.391773193359375,2.8101327419281006,3.939622640609741,1.3904820680618286
1747979712323038500,13.41003857421875,3.612504243850708,-5.60942268371582,5.161505699157715
1747979712341304000,13.428303955078125,4.988783836364746,-9.5774507522583,8.01546859741211
1747979712359570000,13.44656982421875,2.359314203262329,9.684504508972168,14.763696670532227
1747979712377834200,13.464834228515626,0.2736676335334778,23.551755905151367,7.593818664550781
1747979712396102400,13.483102294921874,-0.21533000469207764,2.129781723022461,-5.426774024963379
1747979712414354700,13.501354736328125,0.054825156927108765,-3.688098907470703,1.0088438987731934
1747979712432632600,13.519632568359375,0.46731191873550415,-5.5429911613464355,3.445280075073242
1747979712450893000,13.53789306640625,-0.30512720346450806,-5.79237699508667,2.9045114517211914
1747979712469159200,13.5561591796875,-1.2615894079208374,-2.7235426902770996,0.43737950921058655
1747979712487423700,13.574423828125,-1.5477797985076904,0.030695978552103043,-1.0932960510253906
1747979712505696300,13.5926962890625,-1.3742940425872803,3.4875824451446533,-1.4482088088989258
1747979712523960600,13.610960693359376,-1.176526427268982,0.6441574096679688,-1.8791742324829102
1747979712542226400,13.629226318359375,-0.7467827796936035,-2.1600193977355957,-1.2272282838821411
1747979712560492000,13.647491943359375,-0.43050727248191833,-3.452915906906128,-0.6501133441925049
1747979712587891200,13.67489111328125,-0.6640105247497559,-3.6560285091400146,-0.9445503950119019
1747979712606155500,13.693155517578125,-1.045495867729187,-3.3458616733551025,-1.6655241250991821
1747979712624417500,13.71141748046875,-1.4471397399902344,-3.230408191680908,-2.7119362354278564
1747979712642687200,13.729687255859375,-1.846798300743103,-4.198782444000244,-3.983452320098877
1747979712660950300,13.7479501953125,-4.852866172790527,-4.035375595092773,-7.043734550476074
1747979712679217200,13.766217041015626,-8.725446701049805,3.341891050338745,-12.419501304626465
1747979712697482200,13.784482177734375,-5.069265365600586,17.342464447021484,-4.9736647605896
1747979712715752200,13.802752197265624,-4.515057563781738,6.2265496253967285,1.468672752380371
1747979712734013000,13.821012939453125,-4.713588714599609,-4.665025234222412,1.2484558820724487
1747979712752284400,13.839284423828126,-4.176791191101074,-9.788809776306152,0.14294247329235077
1747979712770542300,13.857542236328126,-2.238821029663086,-11.921646118164062,-0.8965974450111389
1747979712788805600,13.8758056640625,0.09239336848258972,-11.43600845336914,-0.3741549551486969
1747979712807081200,13.894081298828125,1.7707456350326538,-10.146777153015137,0.4453207552433014
1747979712825344300,13.91234423828125,2.855642318725586,-7.010747909545898,1.5558737516403198
1747979712843596800,13.9305966796875,3.6858081817626953,2.2369885444641113,1.6742289066314697
1747979712861864200,13.9488642578125,2.11893892288208,7.0861897468566895,-0.30543261766433716
1747979712880143600,13.9671435546875,-1.374904990196228,6.5810041427612305,1.2927435636520386
1747979712898401800,13.98540185546875,-4.913800239562988,2.0445659160614014,5.951812744140625
1747979712916672800,14.0036728515625,-6.498384475708008,-1.9715676307678223,9.082038879394531
1747979712934937600,14.0219375,-6.564968585968018,0.7782423496246338,9.743606567382812
1747979712953192000,14.04019189453125,-4.211915969848633,3.9019017219543457,8.80302619934082
1747979712971469600,14.058469482421875,0.0007635815418325365,-4.888296604156494,3.7678167819976807
1747979712989731600,14.076731689453124,3.230102777481079,-6.369492053985596,-1.9004018306732178
1747979713008000500,14.09500048828125,5.771302223205566,-4.458858013153076,-4.132808685302734
1747979713026261500,14.113261474609375,7.697360038757324,-3.371670722961426,-4.721072196960449
1747979713044530700,14.13153076171875,10.24970817565918,-1.6259706020355225,-2.811507225036621
1747979713062798800,14.149798828125,9.199935913085938,2.303114652633667,1.0516045093536377
1747979713081063200,14.168063232421876,4.618905067443848,11.716395378112793,-3.32784104347229
1747979713099328500,14.18632861328125,1.635897159576416,8.142681121826172,1.1594222784042358
1747979713117594600,14.2045947265625,1.24647057056427,1.5150985717773438,6.378807544708252
1747979713135859200,14.222859130859375,3.505755662918091,-0.013439035043120384,5.985868453979492
1747979713154125800,14.241125732421875,3.431535482406616,0.20372356474399567,5.475337982177734
1747979713172388600,14.259388671875,-0.8558222055435181,2.3208298683166504,5.767179012298584
1747979713190657000,14.277656982421876,-2.6474900245666504,14.013707160949707,9.7222261428833
1747979713208923000,14.2959228515625,-1.6720908880233765,20.308673858642578,4.37516975402832
1747979713227188200,14.314188232421875,0.3735440969467163,1.943315029144287,-3.9351940155029297
1747979713245454000,14.3324541015625,0.3773620128631592,-1.5189164876937866,0.9301950335502625
1747979713263720000,14.350719970703125,0.3972151279449463,-3.321885108947754,1.8413006067276
1747979713281981000,14.36898095703125,-0.17470745742321014,-3.4045047760009766,0.8729264140129089
1747979713300249300,14.387249267578126,-0.528245747089386,-0.35674530267715454,0.9001099467277527
1747979713318517000,14.40551708984375,-0.7319692969322205,0.3251330256462097,-0.2736676335334778
1747979713336780500,14.423780517578125,-0.8054258227348328,-2.17742919921875,-1.36482572555542
1747979713355047400,14.44204736328125,-0.8275696635246277,-3.0103440284729004,-1.2359330654144287
1747979713373312500,14.4603125,-0.9335548281669617,-3.25514817237854,-1.3622294664382935
1747979713391578400,14.478578369140624,-1.0166324377059937,-3.1441233158111572,-1.6307047605514526
1747979713409842700,14.4968427734375,-0.9926560521125793,-2.922990083694458,-1.8964312076568604
1747979713432676900,14.5196767578125,-1.3019065856933594,-2.356107234954834,-2.574186086654663
1747979713450942700,14.537942626953125,-1.5511395931243896,-2.3658812046051025,-3.293785333633423
1747979713478341400,14.56534130859375,-2.7072019577026367,-2.649933338165283,-6.180582046508789
1747979713496606500,14.5836064453125,-5.909204959869385,4.2250494956970215,-11.275045394897461
1747979713514871600,14.60187158203125,-4.401436805725098,10.683574676513672,-1.6885842084884644
1747979713533138200,14.62013818359375,-6.644381046295166,1.8916969299316406,0.4343251883983612
1747979713551400400,14.638400390625,-5.892253398895264,-6.22761869430542,0.15195272862911224
1747979713569669600,14.656669677734374,-4.597066402435303,-10.385319709777832,0.5874996781349182
1747979713597069000,14.684069091796875,-0.6171266436576843,-11.474186897277832,0.4740314185619354
1747979713615334000,14.702333984375,1.6013832092285156,-8.953757286071777,0.8891143798828125
1747979713633599200,14.72059912109375,2.5114197731018066,-6.019771575927734,1.183704137802124
1747979713651864800,14.73886474609375,3.1671836376190186,0.6333145499229431,-0.096211276948452
1747979713670131700,14.757131591796876,2.5001187324523926,5.65981912612915,-1.5838208198547363
1747979713688391700,14.7753916015625,0.7249443531036377,7.575645446777344,-0.22892175614833832
1747979713706662000,14.793661865234375,-0.956156849861145,9.844398498535156,3.515223979949951
1747979713724928800,14.8119287109375,-1.4465289115905762,7.7535600662231445,9.578367233276367
1747979713743195100,14.830195068359375,-1.0314459800720215,1.2626584768295288,9.989326477050781
1747979713761459000,14.848458984375,-0.6007859706878662,-3.1975741386413574,6.856962203979492
1747979713779712500,14.86671240234375,0.5778785347938538,-4.067293643951416,2.8565585613250732
1747979713797990700,14.88499072265625,1.24647057056427,-2.7290403842926025,-0.6484334468841553
1747979713816244500,14.903244384765625,1.8182404041290283,-0.7857254147529602,-2.9153544902801514
1747979713834520300,14.921520263671875,3.2751541137695312,1.9853121042251587,-4.384332656860352
1747979713852785200,14.93978515625,4.942052364349365,1.9978348016738892,-5.311473369598389
1747979713871043000,14.95804296875,5.737093448638916,1.7182111740112305,-4.888601779937744
1747979713889312000,14.97631201171875,6.21372127532959,2.1697933673858643,-1.2466232776641846
1747979713907571000,14.994571044921875,5.518251419067383,5.593540191650391,4.910593032836914
1747979713925848000,15.01284814453125,3.7056612968444824,11.744036674499512,-0.013897184282541275
1747979713944116500,15.031116455078125,2.535090684890747,10.264979362487793,-1.5833626985549927
1747979713962384400,15.04938427734375,1.173930287361145,3.7166569232940674,-0.024587325751781464
1747979713980646400,15.067646484375,3.2951598167419434,-6.748228549957275,3.2458324432373047
1747979713998911700,15.085911865234374,4.863556385040283,2.9628491401672363,11.931572914123535
1747979714017179000,15.104178955078124,3.2487339973449707,15.600582122802734,7.415140628814697
1747979714035439400,15.122439453125,0.6027712821960449,1.8264870643615723,-4.40525484085083
1747979714053709000,15.140708984375,-1.7773123979568481,-0.2886338233947754,-1.6885842084884644
1747979714071975000,15.158974853515625,-0.7910705208778381,-1.7904460430145264,0.18860463798046112
1747979714090242000,15.177241943359375,-0.6139195561408997,-2.9471194744110107,0.4970915913581848
1747979714108506000,15.195506103515624,-0.7831292152404785,-2.58457088470459,0.02779436856508255
1747979714126771700,15.213771728515624,-0.5983424782752991,-2.084730386734009,-0.5085453391075134
1747979714145037600,15.23203759765625,-0.29397889971733093,-1.0097602605819702,-0.8611672520637512
1747979714163304200,15.25030419921875,-0.20265454053878784,0.9532552361488342,-1.1840095520019531
1747979714181568500,15.268568603515625,-0.24938572943210602,0.40194934606552124,-1.2122620344161987
1747979714199832800,15.286832763671875,-0.43447789549827576,-0.9677632451057434,-1.2916746139526367
1747979714218101200,15.305101318359375,-0.9260717034339905,-1.906968593597412,-1.3448197841644287
1747979714236367000,15.3233671875,-1.652695894241333,-2.2463042736053467,-1.6549866199493408
1747979714254631400,15.34163134765625,-2.3525948524475098,-1.9320141077041626,-2.2568416595458984
1747979714272897000,15.35989697265625,-3.1004464626312256,-1.6363552808761597,-2.7093400955200195
1747979714291162400,15.378162353515625,-3.794389486312866,-1.6630805730819702,-2.979037046432495
1747979714309425000,15.3964248046875,-4.890434265136719,-2.213775634765625,-3.235600471496582
1747979714327693800,15.41469384765625,-5.069570541381836,7.6228346824646,-3.5749361515045166
1747979714345958100,15.432958251953124,-3.8369972705841064,11.698986053466797,1.9381227493286133
1747979714364225000,15.45122509765625,-4.825071811676025,6.957907676696777,3.5637879371643066
1747979714382493000,15.469492919921874,-4.2696428298950195,-3.612504243850708,1.4789047241210938
1747979714400756200,15.487756103515625,-2.9633073806762695,-11.56474781036377,-0.17027868330478668
1747979714419017200,15.506017333984374,-0.9020952582359314,-12.548394203186035,-1.2759448289871216
1747979714437287700,15.52428759765625,0.8113817572593689,-10.463510513305664,-0.8005388975143433
1747979714455554300,15.54255419921875,2.0561723709106445,-6.644534111022949,0.5148066878318787
1747979714482952000,15.569951904296875,3.515071392059326,3.469409227371216,0.47280970215797424
1747979714501217300,15.58821728515625,2.5731170177459717,10.15700912475586,-2.07159686088562
1747979714519483100,15.606483154296875,0.10323622822761536,9.900598526000977,-2.0619757175445557
1747979714537748500,15.62474853515625,-2.9581148624420166,-4.265824794769287,5.365534782409668
1747979714556014600,15.6430146484375,-4.648990154266357,-8.796917915344238,7.589237213134766
1747979714583408000,15.670408203125,-4.435950756072998,-5.356371879577637,6.913773059844971
1747979714601678000,15.688677978515624,-2.5506677627563477,-1.7096590995788574,6.402020454406738
1747979714619945200,15.7069453125,0.3217732608318329,-3.7789652347564697,3.241403818130493
1747979714638209800,15.725209716796876,2.1403191089630127,-3.319441795349121,0.6105598211288452
1747979714656475600,15.7434755859375,3.9432878494262695,-0.3497203588485718,-1.0096075534820557
1747979714674737000,15.76173681640625,5.728999614715576,2.749504566192627,-2.9849929809570312
1747979714693005300,15.78000537109375,8.865334510803223,6.659958362579346,-2.8817567825317383
1747979714711273200,15.798273193359375,8.220871925354004,5.362480640411377,0.032681290060281754
1747979714729538000,15.8165380859375,4.517653942108154,9.485820770263672,-1.201724648475647
1747979714747804700,15.8348046875,3.307987928390503,10.343475341796875,-0.77472984790802
1747979714766069200,15.8530693359375,2.563190460205078,6.325051307678223,2.0535762310028076
1747979714784334800,15.8713349609375,-0.04566217586398125,-1.2904528379440308,6.17752742767334
1747979714802600700,15.8896005859375,2.4862215518951416,-7.015940189361572,7.783492088317871
1747979714820865800,15.90786572265625,3.8432586193084717,6.974095821380615,12.916592597961426
1747979714839132400,15.92613232421875,2.0975584983825684,21.810638427734375,8.333271026611328
1747979714857392600,15.944392578125,-0.775340735912323,4.015217304229736,-6.347959041595459
1747979714875663000,15.9626630859375,-2.5694520473480225,-1.5008958578109741,-2.127643585205078
1747979714893912000,15.980912109375,-0.8539896011352539,-2.8930578231811523,0.9483683109283447
1747979714921330000,16.008329833984376,-0.7745771408081055,-1.942704200744629,0.7154759168624878
1747979714939550700,16.02655078125,-1.2835805416107178,1.4827226400375366,0.3859141170978546
1747979714957857300,16.044857177734375,-1.3602441549301147,1.5389223098754883,-1.6184874773025513
1747979714976125000,16.063125,-1.0978775024414062,-1.0222829580307007,-2.3186917304992676
1747979714994388200,16.08138818359375,-0.8234463334083557,-3.4663548469543457,-1.6001615524291992
1747979715012655400,16.0996552734375,-0.6908885836601257,-4.862334728240967,-1.0705413818359375
1747979715030920700,16.117920654296874,-0.821461021900177,-5.088507652282715,-1.0416779518127441
1747979715049186600,16.1361865234375,-1.1146763563156128,-4.432743549346924,-1.5981762409210205
1747979715067452700,16.15445263671875,-1.4231632947921753,-3.260340452194214,-2.512336015701294
1747979715085717800,16.1727177734375,-1.9538525342941284,-1.7140878438949585,-3.5888333320617676
1747979715103983400,16.1909833984375,-2.3602306842803955,-0.48029279708862305,-4.538576126098633
1747979715122249000,16.2092490234375,-2.6703975200653076,-0.9543242454528809,-5.283984184265137
1747979715140510200,16.22751025390625,-3.6273179054260254,-1.009149432182312,-6.612463474273682
1747979715158780200,16.2457802734375,-6.07505464553833,20.04768180847168,-4.966792583465576
1747979715177046000,16.2640458984375,-5.328119277954102,15.178779602050781,2.6621506214141846
1747979715195311400,16.282311279296874,-4.930293560028076,-4.265672206878662,-0.012828170321881771
1747979715213577200,16.3005771484375,-3.5781431198120117,-11.971126556396484,-1.4566081762313843
1747979715231837000,16.3188369140625,-1.8904752731323242,-11.641716957092285,-1.5500705242156982
1747979715250108400,16.3371083984375,0.014355333521962166,-8.629999160766602,-0.3929390609264374
1747979715268376000,16.3553759765625,1.503339409828186,-7.320761680603027,0.6950119137763977
1747979715286639600,16.3736396484375,2.5778512954711914,-6.6898908615112305,1.463938593864441
1747979715304905200,16.3919052734375,3.4826955795288086,-4.551251411437988,2.1589505672454834
1747979715323171000,16.410171142578125,3.8421897888183594,2.09083890914917,1.13926362991333
1747979715341432300,16.428432373046874,2.6085472106933594,9.916481018066406,-2.1449005603790283
1747979715359702000,16.446701904296877,-0.27519479393959045,10.985036849975586,-1.9384281635284424
1747979715377968000,16.464968017578126,-3.6309831142425537,4.661970615386963,7.03411340713501
1747979715396233200,16.483233154296876,-4.483750820159912,2.691014051437378,9.8384428024292
1747979715414499300,16.501499267578126,-3.9704713821411133,2.450944185256958,8.934820175170898
1747979715432764700,16.5197646484375,-2.0923662185668945,-1.4158328771591187,6.33513069152832
1747979715451030500,16.538030517578125,-0.6027712821960449,-4.479475021362305,2.9017627239227295
1747979715469296000,16.556296142578127,0.1362229436635971,-4.839580059051514,0.4056145250797272
1747979715487557000,16.57455712890625,0.5826127529144287,-5.305822849273682,-2.3179280757904053
1747979715505826300,16.592826416015626,2.1236729621887207,-7.174459457397461,-6.986771106719971
1747979715524092700,16.6110927734375,6.739829063415527,0.21563543379306793,-3.090825319290161
1747979715542359800,16.62935986328125,9.187413215637207,13.83487606048584,-0.8862127661705017
1747979715560624400,16.647624267578124,7.038236618041992,15.719853401184082,-3.696650981903076
1747979715578890000,16.665889892578125,5.890879154205322,9.729708671569824,-2.543642997741699
1747979715597155600,16.684155517578127,5.35041618347168,1.7205020189285278,0.7212791442871094
1747979715615416600,16.70241650390625,2.719419240951538,-6.9105658531188965,4.42144250869751
1747979715633686800,16.720686767578126,0.607200026512146,-11.523362159729004,6.384916305541992
1747979715651952400,16.738952392578124,3.1112895011901855,-2.221564292907715,11.049941062927246
1747979715670218200,16.75721826171875,3.9321396350860596,23.30252456665039,10.4120454788208
1747979715688483600,16.775483642578124,1.4654656648635864,10.282236099243164,-6.465397834777832
1747979715706749400,16.79374951171875,-1.1887437105178833,0.3908010423183441,-2.6006059646606445
1747979715725014800,16.812014892578127,-0.34284812211990356,-3.6354117393493652,2.171778678894043
1747979715743275800,16.83027587890625,-0.20861047506332397,-6.504340648651123,2.853046178817749
1747979715761545200,16.848545166015626,-1.035416603088379,-5.92188024520874,2.0343339443206787
1747979715779813000,16.866813232421876,-1.2705997228622437,-2.2985332012176514,1.1627819538116455
1747979715798077000,16.885076904296874,-1.0674870014190674,0.7087563872337341,1.235474944114685
1747979715816343000,16.903343017578123,-0.8045095205307007,0.04214970022439957,-0.27061331272125244
1747979715834608600,16.921608642578125,-0.6239988207817078,-1.4366023540496826,-1.700037956237793
1747979715852873200,16.939873291015626,-0.6921103000640869,-1.7024813890457153,-1.9895881414413452
1747979715871140900,16.958140869140625,-0.6727153658866882,-1.7229454517364502,-2.085035800933838
1747979715894149000,16.981149169921874,-0.8135197758674622,-1.585500717163086,-2.3829853534698486
1747979715912237300,16.9992373046875,-1.1427761316299438,-1.8538233041763306,-2.5528059005737305
1747979715930502000,17.017501953125,-1.5664112567901611,-2.7519478797912598,-3.006678819656372
1747979715948763600,17.035763671875,-3.1887166500091553,-4.373948097229004,-4.2978949546813965
1747979715967033000,17.054033203125,-9.365785598754883,-0.5485569834709167,-8.660542488098145
1747979715985300000,17.072300048828126,-6.347042560577393,9.97237491607666,-8.459567070007324
1747979716003564300,17.090564208984375,-4.113872051239014,11.23778247833252,0.328340083360672
1747979716021829600,17.10882958984375,-4.568813800811768,4.7720794677734375,1.6838500499725342
1747979716040095700,17.127095703125,-4.543462753295898,-4.926322937011719,0.551305890083313
1747979716058363400,17.14536328125,-3.152217388153076,-8.62175178527832,0.10170906037092209
1747979716076627200,17.163627197265626,-1.035722017288208,-9.642049789428711,0.18356500566005707
1747979716094893000,17.18189306640625,1.0899362564086914,-9.441533088684082,0.6239988207817078
1747979716113147000,17.20014697265625,2.423302412033081,-8.456207275390625,1.1968377828598022
1747979716149689300,17.236689453125,3.743076801300049,-0.720820963382721,0.33337971568107605
1747979716167956000,17.2549560546875,2.908482074737549,4.8479790687561035,-1.9283488988876343
1747979716186208500,17.27320849609375,1.0939068794250488,6.370255470275879,-1.278388261795044
1747979716204487000,17.29148681640625,-0.26710084080696106,5.517640113830566,1.358258843421936
1747979716222739700,17.30973974609375,-1.9141463041305542,4.177554607391357,3.4040465354919434
1747979716241018400,17.328018310546874,-2.0538816452026367,3.0471484661102295,5.28413724899292
1747979716259283000,17.346282958984375,-1.11085844039917,3.2600350379943848,6.348417282104492
1747979716277545000,17.364544921875,-0.14049901068210602,1.405295491218567,6.146068096160889
1747979716295812900,17.382812744140626,0.29306259751319885,-7.982939720153809,3.4187073707580566
1747979716314080800,17.401080810546876,-0.28359419107437134,-14.308754920959473,-1.7224873304367065
1747979716332347000,17.419346923828126,1.7046194076538086,-7.288996696472168,-4.564995765686035
1747979716350612500,17.437612548828124,5.914092063903809,3.4242050647735596,-4.8838677406311035
1747979716368878300,17.45587841796875,9.461691856384277,11.471285820007324,0.6310238242149353
1747979716387141400,17.474141357421875,7.858170509338379,12.61314582824707,-1.6945401430130005
1747979716405403400,17.4924033203125,5.119050979614258,8.993768692016602,-0.6466008424758911
1747979716423675000,17.5106748046875,3.1112895011901855,6.186995983123779,0.15256360173225403
1747979716441936100,17.52893603515625,-0.41340306401252747,-1.7872389554977417,3.7452147006988525
1747979716460209000,17.547208984375,-0.5954409241676331,-8.073805809020996,6.493497371673584
1747979716478471000,17.565470947265624,4.040110111236572,-6.875288486480713,9.854020118713379
1747979716496737300,17.5837373046875,2.71071457862854,11.185553550720215,13.537842750549316
1747979716515001900,17.602001953125,2.4501805305480957,17.604679107666016,-1.99752938747406
1747979716533268000,17.62026806640625,-1.463022232055664,2.7015514373779297,-6.18562126159668
1747979716551532300,17.6385322265625,-1.737606167793274,1.6752979755401611,-0.16081027686595917
1747979716569801200,17.65680126953125,-0.9518807530403137,-2.029905319213867,1.5932892560958862
1747979716588061400,17.6750615234375,-0.8730791807174683,-4.500244140625,2.062891960144043
1747979716606333700,17.693333740234376,-1.6522377729415894,-2.7093400955200195,0.9271407127380371
1747979716624591000,17.711591064453124,-2.5894577503204346,-3.294396162033081,-1.4845552444458008
1747979716642861000,17.729861083984375,-3.1259500980377197,-4.331492900848389,-1.9590448141098022
1747979716661128000,17.7481279296875,-3.318830966949463,-4.495204448699951,-2.877786159515381
1747979716679389200,17.76638916015625,-3.1955888271331787,-4.195116996765137,-4.924489974975586
1747979716697649000,17.78464892578125,-4.602411270141602,-3.1677944660186768,-6.691265106201172
1747979716715925000,17.802925048828126,-8.215526580810547,3.676797866821289,-7.469049453735352
1747979716734188800,17.821188720703127,-6.267935752868652,7.539909839630127,-6.239835739135742
1747979716752456000,17.8394560546875,-4.6213483810424805,0.5881105065345764,-2.794097661972046
1747979716770720800,17.857720703125,-7.052286624908447,-3.008664131164551,-1.6661349534988403
1747979716788987400,17.8759873046875,-5.841704368591309,-6.912856578826904,-1.3422236442565918
1747979716807252000,17.894251953125,-3.8628063201904297,-10.686171531677246,-0.6597344875335693
1747979716825518300,17.912518310546876,-1.1769846677780151,-11.893088340759277,0.5245805382728577
1747979716843783200,17.930783203125,0.973566472530365,-11.118968963623047,2.0393736362457275
1747979716862049800,17.9490498046875,3.3702962398529053,-4.100432872772217,0.8978192210197449
1747979716880314400,17.967314453125,3.743993043899536,3.919464111328125,-0.598953366279602
1747979716898576600,17.98557666015625,2.1397082805633545,6.895294189453125,0.07284568250179291
1747979716916844800,18.0038447265625,-1.697136402130127,7.605424880981445,1.757153868675232
1747979716935113500,18.022113525390626,-3.617696762084961,8.842427253723145,6.512434482574463
1747979716953376800,18.040376708984375,-2.233628749847412,3.8953349590301514,9.451154708862305
1747979716971640300,18.058640380859377,-1.0024298429489136,-1.1829406023025513,7.416973114013672
1747979716989911000,18.0769111328125,0.5739079117774963,-5.457469940185547,2.5199718475341797
1747979717008171800,18.095171875,1.649794340133667,-1.2139419317245483,-1.3312281370162964
1747979717026437600,18.113437744140626,2.6251933574676514,-0.3266601860523224,-4.335768699645996
1747979717044705800,18.131705810546876,4.497037410736084,0.5505422949790955,-7.079622745513916
1747979717062971000,18.149970947265626,7.8541998863220215,5.388136863708496,-7.2036285400390625
1747979717081237200,18.1682373046875,11.950967788696289,11.934168815612793,-1.26067316532135
1747979717099501300,18.186501220703125,7.8958916664123535,11.276267051696777,-1.2489140033721924
1747979717117768200,18.204768310546875,3.704592227935791,3.2589659690856934,2.78340744972229
1747979717136028700,18.223028564453124,2.635730743408203,-1.892460584640503,2.8660271167755127
1747979717154298400,18.24129833984375,4.612948894500732,-4.486805438995361,1.1618657112121582
1747979717172565200,18.259565185546876,4.480696678161621,-4.937929153442383,2.7340800762176514
1747979717190829300,18.277829345703125,2.233628749847412,9.332493782043457,8.249582290649414
1747979717209097000,18.296096923828124,-0.016493361443281174,21.953428268432617,7.984467029571533
1747979717227362000,18.314362060546873,-0.3706424832344055,11.158064842224121,-7.400327205657959
1747979717245627000,18.332626953125,-0.06765332818031311,-0.1547016203403473,-3.380986452102661
1747979717263893800,18.350893798828125,0.3923282027244568,-4.470769882202148,0.5829181671142578
1747979717282157300,18.3691572265625,0.4746423065662384,-7.704079627990723,1.7250834703445435
1747979717300410600,18.38741064453125,0.3724750876426697,-6.4027838706970215,3.0909781455993652
1747979717318683600,18.40568359375,0.38347065448760986,-0.6357579827308655,4.169613361358643
1747979717336956700,18.423956787109375,0.408363401889801,3.489262342453003,1.4069753885269165
1747979717355220500,18.442220458984377,0.2451096773147583,1.4618005752563477,-0.7600690722465515
1747979717373486800,18.46048681640625,0.027947084978222847,-1.6255123615264893,-0.5641340613365173
1747979717391746600,18.47874658203125,-0.3969096839427948,-3.051424503326416,-0.09162978827953339
1747979717410016800,18.497016845703126,-0.7400632500648499,-3.358078956604004,-0.16951510310173035
1747979717428284000,18.515283935546876,-0.799011766910553,-3.1343495845794678,-0.8718574047088623
1747979717446537700,18.533537841796875,-0.7443392872810364,-2.615877628326416,-1.878868818283081
1747979717464814800,18.55181494140625,-1.2793045043945312,-2.338850259780884,-2.584876298904419
1747979717483079200,18.5700791015625,-2.8128817081451416,-2.8767170906066895,-3.1247284412384033
1747979717501345500,18.588345458984374,-7.332826614379883,-2.931236982345581,-5.925545692443848
1747979717519612000,18.60661181640625,-12.237921714782715,1.1227703094482422,-11.414475440979004
1747979717537878500,18.62487841796875,-6.883382320404053,12.352153778076172,-8.779813766479492
1747979717556141300,18.643141357421875,-2.3527474403381348,5.415472984313965,-4.551403999328613
1747979717574403300,18.6614033203125,-3.612962484359741,-3.7174203395843506,-1.497688889503479
1747979717592669200,18.679669189453126,-5.574297904968262,-6.2297563552856445,-0.38667771220207214
1747979717610939000,18.69793896484375,-4.650211811065674,-7.006624221801758,-0.9254608750343323
1747979717629205200,18.716205322265626,-2.0247128009796143,-9.010567665100098,-0.5450445413589478
1747979717647465700,18.7344658203125,0.8113817572593689,-9.49590015411377,0.5265658497810364
1747979717665735700,18.752735595703125,2.791501522064209,-8.822879791259766,1.6073391437530518
1747979717684003600,18.771003662109376,3.8508944511413574,-6.315888404846191,2.096184015274048
1747979717702267100,18.78926708984375,4.481612682342529,0.7472409009933472,0.5093088746070862
1747979717720532700,18.80753271484375,3.801872491836548,6.026949405670166,-0.6017022728919983
1747979717738795800,18.825795654296876,0.5664247870445251,8.757364273071289,0.48915034532546997
1747979717757063700,18.844063720703126,-2.7041478157043457,10.26223087310791,5.453804969787598
1747979717775330300,18.862330322265624,-3.2795827388763428,7.953160285949707,8.342281341552734
1747979717793595100,18.88059521484375,-2.0836613178253174,2.3412938117980957,7.629096031188965
1747979717811861000,18.898861083984375,-0.4355469346046448,-3.1845932006835938,3.8841867446899414
1747979717830127400,18.91712744140625,1.130406141281128,-5.436395168304443,0.3222314119338989
1747979717848388400,18.935388427734374,2.408946990966797,-6.63506555557251,-2.37321138381958
1747979717866657800,18.95365771484375,3.503159523010254,-3.4243578910827637,-3.232088088989258
1747979717884924400,18.97192431640625,4.1134138107299805,2.5271494388580322,-3.8657078742980957
1747979717903184400,18.990184326171875,5.739078998565674,8.319526672363281,-4.348291397094727
1747979717921454000,19.0084541015625,6.74395227432251,9.081581115722656,0.2793181240558624
1747979717939721500,19.026721435546875,7.759363174438477,11.166158676147461,0.8636107444763184
1747979717957986800,19.04498681640625,6.288857460021973,10.35080623626709,-0.2617557644844055
1747979717976251100,19.063251220703126,3.966958999633789,6.531676769256592,-0.21670444309711456
1747979717994512600,19.0815126953125,1.7773123979568481,0.518471896648407,0.9819658994674683
1747979718012782800,19.099782958984374,0.40164390206336975,-5.0572004318237305,2.6623034477233887
1747979718031049200,19.11804931640625,2.4025330543518066,-4.831027984619141,3.441614866256714
1747979718049313500,19.1363134765625,4.050036430358887,7.606646537780762,8.287150382995605
1747979718067580400,19.154580322265623,4.172362327575684,14.04867935180664,5.684864521026611
1747979718085844500,19.172844482421876,1.6418530941009521,5.198616027832031,-4.329659938812256
1747979718104111600,19.191111572265626,-0.07757988572120667,-1.4836390018463135,-1.4300355911254883
1747979718122377500,19.20937744140625,-0.4619668424129486,-5.41532039642334,0.854905903339386
1747979718140642600,19.227642578125,-0.42012256383895874,-6.544352054595947,1.7747162580490112
1747979718158902800,19.24590283203125,-0.8637634515762329,-4.640437602996826,2.03540301322937
1747979718177173000,19.264173095703125,-1.2507466077804565,-1.780824899673462,1.457371711730957
1747979718195433000,19.282432861328125,-1.3513866662979126,0.608727216720581,0.32528573274612427
1747979718213685800,19.300685791015624,-1.0592403411865234,0.7709119319915771,-0.16691893339157104
1747979718231973000,19.31897314453125,-0.7202101349830627,-0.34804046154022217,-0.718224823474884
1747979718250237400,19.337237548828124,-0.6294966340065002,-2.171778678894043,-2.28937029838562
1747979718268502300,19.355502197265626,-0.6931793093681335,-2.143678903579712,-2.6479480266571045
1747979718286768400,19.373768310546875,-0.7663304209709167,-1.788308024406433,-2.8606820106506348
1747979718305033700,19.39203369140625,-0.7991644740104675,-1.7747162580490112,-3.2056679725646973
1747979718323299800,19.4102998046875,-1.0914634466171265,-2.0085248947143555,-3.5666894912719727
1747979718341564200,19.428564208984376,-1.3658946752548218,-2.2795963287353516,-3.7756054401397705
1747979718359829800,19.446829833984374,-1.6001615524291992,-2.353663682937622,-4.543920993804932
1747979718378092000,19.465092041015627,-3.752545118331909,4.359134197235107,-7.253871917724609
1747979718396362000,19.483362060546874,-1.6375770568847656,9.781937599182129,-1.1151344776153564
1747979718414626800,19.501626708984375,-5.864611625671387,4.843245029449463,0.15424346923828125
1747979718432893000,19.519892822265625,-5.226715564727783,-0.03741549700498581,-0.27580565214157104
1747979718451158800,19.53815869140625,-4.240473747253418,-4.865388870239258,0.1088867336511612
1747979718469419800,19.556419677734375,-3.13511323928833,-8.433300018310547,0.08216137439012527
1747979718487689200,19.574689208984374,-1.544114589691162,-9.59730339050293,-0.1085812970995903
1747979718505950700,19.59295068359375,-0.08124507963657379,-9.061117172241211,0.21914790570735931
1747979718524219600,19.6112197265625,0.9992228150367737,-7.037473201751709,0.4812090992927551
1747979718542487800,19.62948779296875,1.8935295343399048,-3.0668489933013916,0.6270532011985779
1747979718560751900,19.647751953125,2.827847957611084,2.2988386154174805,0.3923282027244568
1747979718579018000,19.66601806640625,2.830596923828125,8.31097412109375,-0.6255260109901428
1747979718597283300,19.684283447265624,2.21698260307312,11.421042442321777,0.36300668120384216
1747979718615549400,19.702549560546874,2.261575937271118,9.35463809967041,2.1650590896606445
1747979718633815300,19.720815185546876,0.4567744731903076,-1.845118522644043,7.6727728843688965
1747979718652079900,19.739079833984373,-0.9182831645011902,-6.575658798217773,9.684046745300293
1747979718670346000,19.757345947265627,-1.6172657012939453,-8.853880882263184,7.815562725067139
1747979718688604200,19.775604248046875,-1.546558141708374,-11.330634117126465,3.3426547050476074
1747979718706878700,19.793878662109375,-0.8998045325279236,-11.090411186218262,-3.3712124824523926
1747979718725143800,19.812143798828124,1.6232216358184814,-5.163338661193848,-7.939873695373535
1747979718743403800,19.83040380859375,6.085592269897461,4.216497421264648,-6.676451683044434
1747979718761669400,19.84866943359375,8.472089767456055,7.434535503387451,2.534785270690918
1747979718779938000,19.86693798828125,9.770331382751465,11.90301513671875,0.3452915847301483
1747979718798206000,19.8852060546875,6.7685394287109375,12.236241340637207,-2.113135576248169
1747979718816471000,19.903470947265625,4.558123588562012,7.107722759246826,0.24862214922904968
1747979718834736600,19.921736572265626,2.691014051437378,1.8515325784683228,3.8429532051086426
1747979718853001700,19.940001708984376,-1.264796495437622,-3.1477885246276855,5.924781799316406
1747979718871267600,19.958267578125,2.099696636199951,-6.239224910736084,5.192507266998291
1747979718889533400,19.976533447265624,4.700455188751221,9.904568672180176,9.962601661682129
1747979718907799000,19.994799072265625,2.3298399448394775,17.929658889770508,4.986493110656738
1747979718926064000,20.013064208984375,0.6082690954208374,4.608367443084717,-5.869956970214844
1747979718944330000,20.031330078125,-0.34406983852386475,-2.8932104110717773,-0.8329147696495056
1747979718962595600,20.049595703125,-0.23365595936775208,-6.893308639526367,2.2626447677612305
1747979718980860400,20.0678603515625,-0.7111998796463013,-8.651226043701172,2.6398541927337646
1747979718999127600,20.08612744140625,-1.3028228282928467,-7.2401275634765625,1.6340645551681519
1747979719017387800,20.1043876953125,-1.4761558771133423,-3.6557230949401855,-0.1036943718791008
1747979719035657000,20.122656982421876,-1.345583438873291,-1.2530373334884644,-1.059698462486267
1747979719053925000,20.140925048828127,-1.1012372970581055,-0.22113321721553802,-1.591151237487793
1747979719072189200,20.159189208984376,-1.1133018732070923,0.5305364727973938,-2.1363484859466553
1747979719090454800,20.177454833984374,-1.2046263217926025,0.9158397316932678,-2.470797300338745
1747979719108716800,20.195716796875,-1.1936306953430176,0.7533495426177979,-2.632982015609741
1747979719126984400,20.213984375,-1.1330022811889648,0.1840231567621231,-2.8545732498168945
1747979719145253400,20.23225341796875,-1.1725558042526245,-0.769079327583313,-3.193145275115967
1747979719163517700,20.250517578125,-1.5741997957229614,-1.998903751373291,-3.451083183288574
1747979719181782500,20.268782470703126,-1.8275561332702637,-3.723681926727295,-4.214664936065674
1747979719200048000,20.287048095703124,-3.120452404022217,-3.7557523250579834,-6.089104652404785
1747979719218311000,20.305310791015625,-4.941441535949707,6.978524684906006,-5.272836208343506
1747979719236569900,20.32356982421875,-3.6383132934570312,7.774481773376465,0.5203045010566711
1747979719254847000,20.341846923828125,-4.461759567260742,2.4080307483673096,0.6575964093208313
1747979719273112000,20.360112060546875,-3.634648323059082,-3.9237401485443115,0.44028112292289734
1747979719291376600,20.378376708984376,-2.5806002616882324,-7.978358268737793,0.5019785165786743
1747979719309642200,20.396642333984374,-1.34115469455719,-9.013774871826172,0.48166725039482117
1747979719327907800,20.414907958984376,-0.020922135561704636,-8.8225736618042,0.6186537742614746
1747979719346173400,20.43317333984375,0.8431467413902283,-7.325343132019043,0.6976081132888794
1747979719364433700,20.45143359375,1.2924381494522095,-4.997335910797119,0.4179845452308655
1747979719382693000,20.469693115234374,1.324813961982727,-0.6675229668617249,-0.41828998923301697
1747979719400970000,20.487969970703126,0.741284966468811,4.955338954925537,-0.9375254511833191
1747979719419230200,20.506230224609375,0.3194825351238251,7.0249505043029785,0.8355109095573425
1747979719437501000,20.5245009765625,0.7954992651939392,7.631386756896973,3.2149837017059326
1747979719455754800,20.542754638671877,0.25595253705978394,3.727041482925415,6.111859321594238
1747979719474031600,20.561031494140625,-0.7791585922241211,-0.33826664090156555,8.64985179901123
1747979719492291300,20.579291259765625,-1.0725266933441162,-0.6423248052597046,8.169405937194824
1747979719510563600,20.5975634765625,-0.790154218673706,-6.456998348236084,4.164268493652344
1747979719528823300,20.6158232421875,-0.6866125464439392,-11.557417869567871,-1.1343767642974854
1747979719547094800,20.6340947265625,0.6334672570228577,-11.41630744934082,-5.002833843231201
1747979719565361700,20.652361572265626,3.3463199138641357,-4.165642738342285,-7.1129150390625
1747979719583626000,20.6706259765625,6.26274299621582,6.627582550048828,-0.2076941877603531
1747979719601891600,20.6888916015625,8.021882057189941,11.080026626586914,0.71318519115448
1747979719620157400,20.707157470703127,6.074291229248047,12.660487174987793,-3.0553951263427734
1747979719638418700,20.725418701171876,3.751628875732422,10.669219970703125,-3.165809154510498
1747979719656688000,20.743688232421874,2.967888832092285,4.22398042678833,1.434617042541504
1747979719674954000,20.7619541015625,0.34315356612205505,-1.2496775388717651,4.723057270050049
1747979719693209000,20.780208984375,-0.23060162365436554,-5.284595012664795,5.225799560546875
1747979719711485700,20.798485595703124,2.6919305324554443,-3.597996234893799,6.338184833526611
1747979719729750800,20.816750732421873,4.992448806762695,12.128423690795898,10.803762435913086
1747979719748016400,20.835016357421875,2.915048837661743,14.509119033813477,1.9827158451080322
1747979719766282200,20.8532822265625,0.3095559775829315,2.10168194770813,-4.398229598999023
1747979719784548000,20.871548095703126,-0.30405816435813904,-2.3148739337921143,-0.40622538328170776
1747979719802813400,20.8898134765625,-0.08857546001672745,-4.648837089538574,2.3712260723114014
1747979719821078300,20.908078369140625,-0.3107776939868927,-5.911495685577393,2.9126055240631104
1747979719839344600,20.9263447265625,-0.8303185701370239,-5.252983093261719,2.1507039070129395
1747979719857610200,20.9446103515625,-1.063821792602539,-2.8147144317626953,1.2162326574325562
1747979719875869400,20.962869384765625,-1.2791517972946167,-0.8736900091171265,0.1973094791173935
1747979719894141200,20.98114111328125,-1.2750284671783447,-0.41890084743499756,-1.13926362991333
1747979719912403200,20.9994033203125,-1.3041973114013672,-0.204487144947052,-2.1117610931396484
1747979719930672600,21.017672607421876,-1.2806789875030518,-0.30024027824401855,-2.3770294189453125
1747979719948938200,21.035938232421874,-1.158505916595459,-0.6088799238204956,-2.45369291305542
1747979719967203800,21.054203857421875,-1.136056661605835,-1.136056661605835,-2.4724771976470947
1747979719985469400,21.072469482421877,-1.5908458232879639,-1.7137824296951294,-2.8012752532958984
1747979720003735300,21.0907353515625,-1.9285016059875488,-2.8490755558013916,-3.4414620399475098
1747979720022000400,21.10900048828125,-2.8012752532958984,-3.8431060314178467,-4.017813205718994
1747979720040266000,21.127265869140626,-5.727930545806885,4.024991035461426,-7.538077354431152
1747979720058531600,21.145531494140624,-4.209930419921875,11.972805976867676,-1.4140002727508545
1747979720076797400,21.16379736328125,-4.119980812072754,4.443281173706055,1.330159068107605
1747979720095062500,21.1820625,-4.882035255432129,-4.861570835113525,0.33475416898727417
1747979720113328600,21.20032861328125,-4.108221530914307,-10.135323524475098,-0.08720101416110992
1747979720131589400,21.21858935546875,-1.9886717796325684,-11.749382019042969,-0.04214970022439957
1747979720149858600,21.236858642578124,0.17180584371089935,-11.026576042175293,0.42638394236564636
1747979720168126200,21.255126220703126,1.8428276777267456,-8.946732521057129,0.9668469429016113
1747979720186387500,21.273387451171875,3.0659327507019043,-5.543754577636719,1.069166898727417
1747979720204654000,21.291654052734376,3.944356918334961,0.06979135423898697,-0.018478672951459885
1747979720222925000,21.309925048828124,3.1835241317749023,4.8534770011901855,-1.6363552808761597
1747979720241171200,21.328171142578125,1.4091134071350098,7.178277492523193,-1.3449726104736328
1747979720259457000,21.34645703125,-0.33857205510139465,9.243613243103027,0.47479501366615295
1747979720277719000,21.364718994140624,-1.6849191188812256,6.3302435874938965,5.6517252922058105
1747979720295983900,21.38298388671875,-3.1468722820281982,0.9532552361488342,10.27536392211914
1747979720314249000,21.4012490234375,-3.081204414367676,-2.919630527496338,9.461691856384277
1747979720332515800,21.419515869140625,-1.9402607679367065,-9.236741065979004,4.843397617340088
1747979720350781400,21.437781494140626,-0.7005097270011902,-12.572065353393555,-1.1195632219314575
1747979720369046300,21.45604638671875,1.315956473350525,-8.954215049743652,-6.076887607574463
1747979720387307500,21.4743076171875,5.364465713500977,3.8736491203308105,-5.3892059326171875
1747979720405575400,21.492575439453127,8.170781135559082,16.429832458496094,1.9747745990753174
1747979720423843800,21.51084375,11.75411605834961,18.71462059020996,-0.005345070734620094
1747979720442107000,21.52910693359375,9.450695991516113,8.617629051208496,-3.0002646446228027
1747979720460375600,21.54737548828125,4.806746006011963,1.7689130306243896,-2.278374671936035
1747979720478634200,21.56563427734375,0.31780263781547546,-4.903568267822266,1.608102798461914
1747979720496900600,21.583900634765627,-3.6196820735931396,-9.028130531311035,5.806885242462158
1747979720515171000,21.602171142578126,1.0977247953414917,-1.6803375482559204,9.487042427062988
1747979720533421800,21.620421875,2.3267858028411865,11.012984275817871,12.179737091064453
1747979720551702300,21.638702392578125,1.8794796466827393,18.876651763916016,3.425121545791626
1747979720569968000,21.656968017578127,-0.4389066696166992,3.6103663444519043,-6.137057781219482
1747979720588229600,21.675229736328124,-0.9002626538276672,-1.4735597372055054,-0.9185886383056641
1747979720606503000,21.6935029296875,0.19746218621730804,-3.565009593963623,2.0832033157348633
1747979720624764400,21.711764404296876,0.08384125679731369,-4.838358402252197,2.456289052963257
1747979720643026000,21.73002587890625,-0.5056437253952026,-4.798957347869873,2.107485055923462
1747979720661294600,21.748294677734375,-0.7267768979072571,-3.142901659011841,1.6656768321990967
1747979720679562800,21.766562744140625,-0.9769262671470642,-0.8523097038269043,-0.13179416954517365
1747979720697825000,21.784824951171874,-1.0532844066619873,-1.143081545829773,-1.5184582471847534
1747979720716094000,21.803093994140625,-1.1841622591018677,-1.7708983421325684,-2.0030272006988525
1747979720734358300,21.821358154296874,-1.2945761680603027,-2.2186625003814697,-2.2737932205200195
1747979720752623900,21.839623779296875,-1.3602441549301147,-2.459190845489502,-2.5592198371887207
1747979720770884600,21.857884521484376,-1.3419182300567627,-2.6975808143615723,-2.8173105716705322
1747979720789159000,21.876158935546876,-1.5092953443527222,-3.1387784481048584,-3.033862352371216
1747979720807417000,21.8944169921875,-1.746311068534851,-3.5135440826416016,-3.3757941722869873
1747979720825686500,21.9126865234375,-3.8770089149475098,-4.241390228271484,-6.03046178817749
1747979720843952000,21.9309521484375,-8.247750282287598,-0.6206390857696533,-10.125244140625
1747979720862218000,21.949218017578126,-4.679991245269775,10.003223419189453,-4.120133399963379
1747979720880483600,21.967483642578124,-4.800484657287598,3.4883460998535156,-1.2264647483825684
1747979720898743800,21.985743896484376,-4.644255638122559,-3.833179473876953,-1.0326677560806274
1747979720917013500,22.004013427734375,-3.8117990493774414,-7.5667877197265625,-0.21044307947158813
1747979720935281700,22.02228173828125,-2.9016098976135254,-8.512407302856445,0.9523389339447021
1747979720953546200,22.040546142578126,-0.5981897711753845,-7.371768951416016,1.7478381395339966
1747979720971811300,22.058811279296876,1.671938180923462,-5.896224021911621,2.215913772583008
1747979720990077000,22.077076904296874,3.0046935081481934,-3.405879259109497,2.113746404647827
1747979721008342800,22.0953427734375,3.6166276931762695,-0.4082106947898865,1.5318973064422607
1747979721026608400,22.1136083984375,3.6216673851013184,2.2799017429351807,0.9246972799301147
1747979721044872400,22.13187255859375,2.9688050746917725,4.0379719734191895,0.5557346343994141
1747979721063140600,22.150140625,1.8110626935958862,5.52222204208374,0.6210972666740417
1747979721081397200,22.168397216796876,1.4572190046310425,6.186232566833496,1.6618589162826538
1747979721099673600,22.186673583984376,2.0456349849700928,6.884298801422119,2.908482074737549
1747979721117935900,22.204935791015625,1.536784291267395,5.9614338874816895,4.0045270919799805
1747979721136201700,22.22320166015625,-0.038026362657547,2.9465084075927734,6.113081455230713
1747979721154467300,22.24146728515625,-0.24297164380550385,1.9307923316955566,6.636592864990234
1747979721172733200,22.259733154296875,-0.5268712639808655,-7.230659008026123,3.123201370239258
1747979721190998500,22.27799853515625,-1.2834278345108032,-15.630972862243652,-2.705064058303833
1747979721209264400,22.296264404296874,1.3356568813323975,-7.47607421875,-6.395606517791748
1747979721227530000,22.314530029296876,6.654918670654297,3.0949487686157227,-6.0396246910095215
1747979721245791000,22.332791015625,8.752018928527832,4.898681163787842,-2.1823160648345947
1747979721264059400,22.351059326171875,8.976970672607422,3.7838521003723145,3.810271978378296
1747979721282325800,22.36932568359375,6.637051105499268,3.681837558746338,4.95778226852417
1747979721300594000,22.387593994140627,2.875648260116577,2.6542093753814697,4.185343265533447
1747979721318855400,22.40585546875,-2.8654160499572754,0.1394299864768982,4.588972568511963
1747979721337125400,22.42412548828125,-3.1554243564605713,0.192422553896904,3.520721912384033
1747979721355388700,22.442388671875,1.2043207883834839,6.778007984161377,6.128200054168701
1747979721373654500,22.460654541015625,1.2173017263412476,12.259759902954102,7.838623046875
1747979721391920400,22.47892041015625,1.7357735633850098,12.370020866394043,0.20173825323581696
1747979721410185500,22.497185546875,0.0809396430850029,-0.4021020531654358,-3.601203441619873
1747979721428447000,22.515447021484373,-0.2194533348083496,-3.012481927871704,0.43768495321273804
1747979721446717000,22.533717041015624,0.11194105446338654,-3.74109148979187,2.364353895187378
1747979721464982500,22.551982421875,-0.3830125033855438,-4.743368625640869,2.3513729572296143
1747979721483248000,22.570248046875,-0.9210320711135864,-3.891058921813965,1.736537218093872
1747979721501508600,22.588508544921876,-1.244027018547058,-1.2376129627227783,-0.08628471940755844
1747979721519779300,22.606779296875,-1.1691961288452148,-1.5810719728469849,-1.3310753107070923
1747979721538045200,22.625045166015624,-1.015868902206421,-2.28937029838562,-1.588555097579956
1747979721556310300,22.643310302734374,-1.0031934976577759,-2.4301745891571045,-1.8086192607879639
1747979721574575600,22.66157568359375,-0.9995282292366028,-2.285857677459717,-2.1587977409362793
1747979721592831200,22.679831298828127,-1.020297646522522,-2.336406946182251,-2.514779567718506
1747979721611099000,22.698098876953125,-1.2345587015151978,-2.486985206604004,-2.878244400024414
1747979721629373000,22.716373046875,-1.5809192657470703,-3.1667253971099854,-3.4581081867218018
1747979721647638300,22.73463818359375,-1.7516560554504395,-4.198171615600586,-4.311639785766602
1747979721665903900,22.75290380859375,-5.6431732177734375,-2.0057759284973145,-8.748201370239258
1747979721684168400,22.77116845703125,-6.5141143798828125,12.532511711120605,-8.600218772888184
1747979721702431700,22.789431640625,-4.552778720855713,9.616087913513184,-0.9399688839912415
1747979721720700700,22.80770068359375,-5.262909412384033,-2.216830015182495,-0.17791450023651123
1747979721738966300,22.82596630859375,-4.662887096405029,-7.35130500793457,0.403781920671463
1747979721757227300,22.844227294921875,-3.8282926082611084,-9.967488288879395,0.8422304391860962
1747979721775496000,22.862495849609374,-1.6597208976745605,-11.315973281860352,0.6090326309204102
1747979721793763800,22.880763916015624,0.589790403842926,-9.32684326171875,0.7808384895324707
1747979721812029000,22.89902880859375,1.6149749755859375,-7.314347743988037,1.0793988704681396
1747979721830294300,22.917294189453123,1.9737056493759155,-4.471380710601807,1.211803913116455
1747979721848560000,22.93556005859375,2.37626576423645,1.5317445993423462,0.48915034532546997
1747979721866824400,22.953824462890626,2.085494041442871,7.741648197174072,0.3176499307155609
1747979721885092000,22.972092041015625,1.267698049545288,9.382126808166504,1.5717562437057495
1747979721903357000,22.99035693359375,0.9179777503013611,10.166935920715332,2.7424795627593994
1747979721921622300,23.008622314453124,0.49754974246025085,9.347307205200195,4.654335021972656
1747979721939888400,23.026888427734374,-0.29077184200286865,3.065627336502075,8.74148178100586
1747979721958152700,23.045152587890627,-0.2015855312347412,-3.0937271118164062,8.366257667541504
1747979721976414500,23.06341455078125,0.058795779943466187,-7.8876447677612305,4.871345043182373
1747979721994684000,23.081683837890626,0.14737124741077423,-8.842732429504395,0.5606215596199036
1747979722012950300,23.0999501953125,1.0761919021606445,-7.992255210876465,-4.341114044189453
1747979722031214800,23.11821484375,3.062878370285034,-3.72383451461792,-7.941553592681885
1747979722049482500,23.136482421875,5.650961875915527,5.758626461029053,-2.0083723068237305
1747979722067746800,23.154746826171873,6.808398723602295,13.143071174621582,1.863444447517395
1747979722086012400,23.173012451171875,5.8048996925354,15.747648239135742,-2.8072311878204346
1747979722104278000,23.191278076171876,4.0547709465026855,12.51601791381836,-3.525303363800049
1747979722122543900,23.2095439453125,3.048370361328125,4.343404769897461,-0.02687807008624077
