time,seconds_elapsed,z,y,x
1747979698989082400,0.076082275390625,9.559925079345703,3.521636724472046,-1.347757339477539
1747979699007356000,0.09435595703125,9.388239860534668,3.332603693008423,-0.8069794178009033
1747979699025619200,0.112619140625,9.131608963012695,2.9012975692749023,-1.710868239402771
1747979699043883500,0.130883544921875,8.581260681152344,4.337589263916016,-2.6117658615112305
1747979699062151700,0.149151611328125,5.780461311340332,4.156332969665527,-3.404388427734375
1747979699080411400,0.167411376953125,4.5924248695373535,1.5726827383041382,-3.0275187492370605
1747979699098678300,0.18567822265625,5.589035511016846,0.27696922421455383,-1.2861422300338745
1747979699116942600,0.203942626953125,6.753143787384033,2.1481566429138184,-0.7501499056816101
1747979699135213000,0.222213134765625,6.539584159851074,0.857228696346283,-0.29730820655822754
1747979699153478700,0.240478759765625,6.712465763092041,1.2885349988937378,-0.40259242057800293
1747979699171743700,0.25874365234375,7.408777236938477,4.350749969482422,-7.382455825805664
1747979699190009900,0.277009765625,7.594819068908691,5.461617469787598,-7.323832035064697
1747979699208275700,0.295275634765625,6.778268337249756,3.373879909515381,-0.48095735907554626
1747979699226541300,0.313541259765625,7.769495010375977,4.3998026847839355,-0.735194742679596
1747979699244807400,0.331807373046875,8.82532787322998,5.012365341186523,0.35413774847984314
1747979699263072500,0.350072509765625,7.285546779632568,4.825725078582764,1.4380863904953003
1747979699281338400,0.36833837890625,6.914659023284912,3.867997884750366,1.7676976919174194
1747979699299603700,0.386603759765625,7.332206726074219,3.191427230834961,1.6606189012527466
1747979699317868500,0.40486865234375,6.847660064697266,5.2109694480896,-2.2241287231445312
1747979699336136200,0.42313623046875,5.248656272888184,4.359124660491943,-0.7489534616470337
1747979699354396000,0.44139599609375,6.702296257019043,3.531806230545044,1.3178470134735107
1747979699372661500,0.45966162109375,9.32602596282959,2.830709218978882,1.731805443763733
1747979699390931000,0.477930908203125,8.837890625,2.1397817134857178,2.239083766937256
1747979699409198800,0.49619873046875,7.34895658493042,3.5676984786987305,4.100101470947266
1747979699427463700,0.514463623046875,5.748157978057861,3.08135724067688,4.112663745880127
1747979699445729000,0.53272900390625,4.811367988586426,1.5750755071640015,4.097708702087402
1747979699463995000,0.550994873046875,5.583651542663574,0.4366901218891144,5.481358528137207
1747979699482260500,0.569260498046875,6.960123062133789,0.46360939741134644,6.215356826782227
1747979699500526000,0.587526123046875,5.846263885498047,-0.7232306599617004,5.589633464813232
1747979699518787600,0.60578759765625,6.142375946044922,-0.753140926361084,5.554937839508057
1747979699537057500,0.6240576171875,6.226124286651611,-1.5990036725997925,6.1944193840026855
1747979699555321900,0.64232177734375,6.569494724273682,-1.5200406312942505,5.73978328704834
1747979699573589500,0.660589599609375,5.333601474761963,-1.124626636505127,5.336592674255371
1747979699591853300,0.678853271484375,3.4719855785369873,-1.1874382495880127,5.579464435577393
1747979699610120700,0.69712060546875,4.111467361450195,-2.245065927505493,5.352146148681641
1747979699628381000,0.715380859375,3.4857444763183594,-2.004587173461914,4.861019134521484
1747979699646638000,0.73363818359375,1.189831018447876,-2.1026928424835205,5.1290154457092285
1747979699664918300,0.751918212890625,0.39062830805778503,-2.3018953800201416,8.25822925567627
1747979699683181600,0.770181640625,2.307279348373413,-0.22971096634864807,9.801599502563477
1747979699701451800,0.78845166015625,1.2376874685287476,1.4231312274932861,9.031708717346191
1747979699719702300,0.806702392578125,-0.6969096064567566,-1.1365907192230225,10.581660270690918
1747979699737979400,0.8249794921875,-0.4331009089946747,-0.9810572862625122,10.85444164276123
1747979699756245000,0.843244873046875,-0.07537391036748886,0.5132604837417603,10.276575088500977
1747979699774510800,0.8615107421875,-0.4815555512905121,-0.9469595551490784,12.260225296020508
1747979699792776700,0.879776611328125,-0.8009973764419556,-1.428515076637268,15.17288875579834
1747979699811039000,0.8980390625,-0.15493527054786682,-0.28235307335853577,14.063815116882324
1747979699829307100,0.91630712890625,-2.0691933631896973,-2.6572296619415283,15.709479331970215
1747979699847573500,0.934573486328125,-2.6111676692962646,-3.239283561706543,15.781861305236816
1747979699865840000,0.952840087890625,-3.3266217708587646,-3.0173492431640625,15.539588928222656
1747979699884099600,0.971099609375,-5.282155990600586,-3.9254255294799805,14.045868873596191
1747979699902370600,0.98937060546875,-4.60558557510376,-4.693521499633789,14.578869819641113
1747979699920636700,1.00763671875,-4.679164886474609,-4.6163530349731445,15.750755310058594
1747979699938897200,1.025897216796875,-3.668795347213745,-5.79481840133667,14.929418563842773
1747979699966301400,1.053301513671875,-2.1655044555664062,-7.697112083435059,15.798611640930176
1747979699984567300,1.0715673828125,-2.5848467350006104,-8.706883430480957,15.86022663116455
1747979700002830000,1.089830078125,-1.5032907724380493,-9.42054271697998,14.302498817443848
1747979700021099300,1.108099365234375,0.9631111025810242,-10.464411735534668,11.502298355102539
1747979700039362800,1.12636279296875,2.358126640319824,-10.76112174987793,10.475179672241211
1747979700057629400,1.14462939453125,3.6598222255706787,-9.741181373596191,10.215558052062988
1747979700075893500,1.1628935546875,2.4813570976257324,-9.132805824279785,9.468399047851562
1747979700094159600,1.18115966796875,0.42412781715393066,-9.43310546875,6.387639999389648
1747979700112422100,1.199422119140625,3.638885021209717,-8.35573673248291,7.444071292877197
1747979700130692000,1.217692138671875,3.3278181552886963,-6.742974281311035,8.34138011932373
1747979700148946700,1.23594677734375,1.0396814346313477,-4.984249591827393,8.7505521774292
1747979700176356400,1.2633564453125,1.2921242713928223,-1.6683956384658813,10.85444164276123
1747979700194620700,1.28162060546875,-0.833898663520813,-2.3395824432373047,7.371089935302734
1747979700212886500,1.299886474609375,-0.5060819983482361,-2.2325034141540527,4.902893543243408
1747979700231152400,1.31815234375,0.6442674994468689,-0.8925228714942932,8.154739379882812
1747979700249413000,1.3364130859375,0.7166503667831421,-1.4554343223571777,3.796213150024414
1747979700267683600,1.35468359375,0.8069794178009033,-0.6855437159538269,4.4380879402160645
1747979700285949400,1.372949462890625,1.222732424736023,-0.6448656916618347,4.3752760887146
1747979700304213800,1.3912138671875,1.5469598770141602,-1.1174482107162476,3.2069804668426514
1747979700322478800,1.409478759765625,2.7690939903259277,-1.0091729164123535,3.008376359939575
1747979700359012000,1.44601220703125,3.4229328632354736,-0.355932354927063,5.638088226318359
1747979700377277400,1.46427734375,0.2147558331489563,-3.951746702194214,3.779463291168213
1747979700395543300,1.482543212890625,2.758326292037964,-4.561916351318359,4.289732933044434
1747979700413805800,1.500805908203125,-0.9619147181510925,-4.18145751953125,8.688937187194824
1747979700432078000,1.519078125,-0.5856433510780334,-1.4123635292053223,11.70987606048584
1747979700450340400,1.53734033203125,-0.38225340843200684,-2.6297121047973633,10.908878326416016
1747979700468601300,1.555601318359375,0.9230313301086426,-4.483551502227783,10.8699951171875
1747979700486865700,1.57386572265625,1.5858432054519653,-6.367899417877197,11.569297790527344
1747979700505138000,1.592137939453125,1.0941181182861328,-7.6013994216918945,9.817750930786133
1747979700523398100,1.610398193359375,2.586043119430542,-7.107879638671875,13.679766654968262
1747979700541668400,1.62866845703125,3.462414264678955,-5.011168956756592,15.282958030700684
1747979700559934000,1.646933837890625,3.0592236518859863,-5.318646430969238,14.848062515258789
1747979700578198300,1.6651982421875,4.133601188659668,-6.997211456298828,11.892328262329102
1747979700596467000,1.683467041015625,4.514657974243164,-7.1234331130981445,9.978668212890625
1747979700614731000,1.70173095703125,2.193620204925537,-5.763711452484131,9.268000602722168
1747979700632996900,1.719996826171875,0.12861421704292297,-4.799404144287109,8.772088050842285
1747979700651262500,1.738262451171875,1.0253244638442993,-4.295116424560547,9.373284339904785
1747979700669528000,1.756528076171875,2.1343977451324463,-4.5236310958862305,8.456833839416504
1747979700687794000,1.7747939453125,0.040677983313798904,-4.842474937438965,6.0747785568237305
1747979700706059000,1.79305908203125,-1.72941255569458,-3.480360507965088,6.376872539520264
1747979700724323800,1.81132373046875,1.9226330518722534,-4.503890514373779,7.936394691467285
1747979700742587100,1.829587158203125,1.26699960231781,-4.311268329620361,6.952346324920654
1747979700760855300,1.847855224609375,1.308275818824768,-3.8075790405273438,7.331010341644287
1747979700779123000,1.866123046875,6.281757831573486,-4.486542224884033,7.979465484619141
1747979700797389800,1.884389892578125,-2.48315167427063,-1.5296118259429932,5.400600910186768
1747979700815653600,1.902653564453125,-0.37926238775253296,-2.0859432220458984,5.730212211608887
1747979700833919200,1.920919189453125,1.129412293434143,-3.6089746952056885,4.361517429351807
1747979700852184600,1.9391845703125,1.308275818824768,-4.085146427154541,4.040280818939209
1747979700870451700,1.95745166015625,0.7238288521766663,-5.48375129699707,3.7046875953674316
1747979700888711400,1.97571142578125,1.1694921255111694,-5.423930644989014,4.095914363861084
1747979700906982000,1.99398193359375,0.5742774605751038,-4.232903480529785,4.682155609130859
1747979700925246200,2.01224609375,1.7365909814834595,-4.047459602355957,7.176673412322998
1747979700943514400,2.030514404296875,-0.3320041298866272,-2.6213371753692627,8.24985408782959
1747979700961778700,2.04877880859375,-1.089930772781372,-1.7718851566314697,9.080163955688477
1747979700980044500,2.06704443359375,-0.12921242415905,-1.495514154434204,10.948360443115234
1747979700998305000,2.085304931640625,-0.6011967062950134,-2.187039852142334,10.408180236816406
1747979701016574700,2.10357470703125,-1.3866406679153442,-1.6701902151107788,10.549356460571289
1747979701034841300,2.12184130859375,-1.7802600860595703,-0.8117650747299194,13.947164535522461
1747979701053104000,2.140104248046875,-0.2386840581893921,-0.3008974492549896,14.891133308410645
1747979701071373300,2.158373291015625,-1.067797064781189,-1.5840486288070679,15.665809631347656
1747979701089638400,2.176638427734375,-2.960519790649414,-2.0410776138305664,13.679766654968262
1747979701107904000,2.194904052734375,-2.6327030658721924,-3.269792079925537,11.171490669250488
1747979701126169900,2.213169921875,-2.3258235454559326,-1.5840486288070679,12.674781799316406
1747979701144431000,2.23143115234375,-3.4331023693084717,-2.0685951709747314,11.7056884765625
1747979701162701000,2.249701171875,-0.5982056856155396,-0.9230313301086426,11.529217720031738
1747979701180966700,2.267966552734375,6.915257453918457,-0.6197410821914673,14.550156593322754
1747979701199232000,2.28623193359375,7.992027759552002,-2.4113669395446777,14.525629997253418
1747979701217498000,2.304498046875,4.945366382598877,-2.3647069931030273,12.20339584350586
1747979701235764000,2.322763916015625,3.82791805267334,-3.3338000774383545,9.9469633102417
1747979701254024000,2.34102392578125,1.7491533756256104,1.6600207090377808,12.589238166809082
1747979701272295000,2.359294921875,0.9152546525001526,-0.8745766878128052,7.9244303703308105
1747979701290562300,2.377562255859375,-2.8187451362609863,-3.628117322921753,4.3417768478393555
1747979701308821000,2.395821044921875,-3.3164522647857666,-4.848456859588623,0.3284149169921875
1747979701327093200,2.41409326171875,0.7034898400306702,-5.004588603973389,2.341975212097168
1747979701345357800,2.43235791015625,7.997411251068115,-5.678168296813965,6.983452796936035
1747979701363628000,2.4506279296875,4.1868414878845215,-2.0213370323181152,6.437889099121094
1747979701381889500,2.4688896484375,1.975873351097107,-3.8356947898864746,5.368297576904297
1747979701400154400,2.487154296875,-0.038285162299871445,-3.70767879486084,5.229514122009277
1747979701418416000,2.505416015625,-0.3451646566390991,-5.410171985626221,7.442276477813721
1747979701436686300,2.523686279296875,-2.239083766937256,-7.197012424468994,7.032505512237549
1747979701454952200,2.5419521484375,-1.2448660135269165,-7.944170951843262,4.834099769592285
1747979701473217800,2.5602177734375,0.9056833982467651,-6.709474563598633,5.672784328460693
1747979701491483400,2.5784833984375,3.0616166591644287,-5.745167255401611,7.089933395385742
1747979701509744000,2.596744140625,-2.7086751461029053,-6.64486837387085,5.389235019683838
1747979701528013300,2.615013427734375,-1.8993029594421387,-7.608577728271484,4.223930358886719
1747979701546281000,2.633281005859375,-3.0687949657440186,-11.137990951538086,2.2271196842193604
1747979701564545800,2.6515458984375,-3.524627685546875,-16.44287872314453,0.32662028074264526
1747979701582812000,2.66981201171875,1.4775680303573608,-17.430517196655273,1.4811571836471558
1747979701601077200,2.6880771484375,4.073182582855225,-16.5332088470459,6.876374244689941
1747979701619342600,2.706342529296875,0.32542386651039124,-12.597613334655762,13.724632263183594
1747979701637611500,2.724611572265625,0.2153540402650833,-10.925628662109375,13.076775550842285
1747979701655873500,2.74287353515625,-2.1744775772094727,-11.57707405090332,7.250850677490234
1747979701674130700,2.761130615234375,-7.304090976715088,-13.341780662536621,1.6977076530456543
1747979701692405800,2.77940576171875,-11.867801666259766,-16.18744468688965,-4.97348165512085
1747979701710659300,2.797659423828125,-3.7698919773101807,-13.423734664916992,4.334598064422607
1747979701728933000,2.81593310546875,1.9280169010162354,-14.685949325561523,3.4402806758880615
1747979701747202600,2.83420263671875,2.943770170211792,-13.156935691833496,2.6560330390930176
1747979701765468400,2.852468505859375,-0.6544370055198669,-10.337592124938965,2.4335005283355713
1747979701783732700,2.870732666015625,-1.9232312440872192,-11.45683479309082,2.7020950317382812
1747979701802001200,2.889001220703125,-0.07776673883199692,-12.369098663330078,1.3770694732666016
1747979701820265200,2.90726513671875,0.7668996453285217,-11.779866218566895,0.3188436031341553
1747979701838531300,2.92553125,1.4464613199234009,-10.300503730773926,0.6687939167022705
1747979701856792000,2.9437919921875,1.9824535846710205,-10.469197273254395,1.4997016191482544
1747979701875062800,2.962062744140625,1.8652052879333496,-10.948360443115234,1.1736794710159302
1747979701893317400,2.9803173828125,1.2442678213119507,-10.932208061218262,-0.9385846853256226
1747979701911594200,2.99859423828125,-0.35892340540885925,-8.611170768737793,-0.5395814776420593
1747979701929858300,3.0168583984375,-3.8081772327423096,-5.989234924316406,3.895515203475952
1747979701948126500,3.03512646484375,-7.949554920196533,-6.0508503913879395,3.0867412090301514
1747979701966387700,3.0533876953125,-2.8384859561920166,-7.034300327301025,3.867997884750366
1747979701984656600,3.07165673828125,-0.527019202709198,-7.406982421875,2.968296527862549
1747979702002922200,3.089922119140625,1.8263218402862549,-5.590231895446777,0.02871387079358101
1747979702021187800,3.108187744140625,1.0618150234222412,-4.884349346160889,-1.3411771059036255
1747979702039454000,3.126453857421875,-1.7114664316177368,-3.397808074951172,0.3026920557022095
1747979702057719600,3.144719482421875,-2.819343328475952,-1.4727823734283447,0.8721838593482971
1747979702075985200,3.162985107421875,2.475374937057495,-0.9038887619972229,1.8801604509353638
1747979702094250500,3.18125048828125,2.400001049041748,-4.680959224700928,0.6652047038078308
1747979702112512000,3.199511962890625,0.7357929348945618,-6.330810546875,0.37926238775253296
1747979702130782500,3.217782470703125,-2.204986095428467,-6.39302396774292,0.4145565330982208
1747979702149047600,3.236047607421875,-3.4061830043792725,-5.774479389190674,0.26500511169433594
1747979702167313700,3.254313720703125,-4.636094093322754,-6.357729911804199,-0.12083754688501358
1747979702185567500,3.2725673828125,-7.595417499542236,-8.058428764343262,0.8542376756668091
1747979702203845400,3.290845458984375,-12.742379188537598,-14.79422378540039,9.058030128479004
1747979702222112000,3.309112060546875,-13.692329406738281,-16.736000061035156,12.166306495666504
1747979702240377000,3.327377197265625,-9.862616539001465,-13.611571311950684,7.786244869232178
1747979702258637300,3.34563720703125,-10.384251594543457,-12.220145225524902,1.5242279767990112
1747979702276908000,3.363907958984375,-5.219344615936279,-16.066608428955078,-3.9260237216949463
1747979702295173400,3.38217333984375,-2.599801778793335,-21.853050231933594,0.8428717851638794
1747979702313435600,3.400435546875,-1.9573289155960083,-18.163917541503906,3.4438700675964355
1747979702331705000,3.418705078125,1.5864413976669312,-5.667400360107422,5.242674350738525
1747979702349970700,3.436970703125,8.209774017333984,-2.441875457763672,1.0426725149154663
1747979702368231700,3.455231689453125,3.3996028900146484,-3.8488552570343018,1.9746768474578857
1747979702386500900,3.4735009765625,5.592624664306641,-6.3529438972473145,2.8319056034088135
1747979702404769000,3.49176904296875,7.150352478027344,-14.777474403381348,3.462414264678955
1747979702423033300,3.510033447265625,-6.3224358558654785,-14.127224922180176,7.710870742797852
1747979702441299200,3.52829931640625,-2.9066812992095947,-9.1112699508667,1.0432707071304321
1747979702459564500,3.546564453125,0.19561325013637543,-6.308676719665527,1.8490537405014038
1747979702477829400,3.564829345703125,-0.01136590726673603,-7.068996429443359,-1.241276741027832
1747979702496096300,3.58309619140625,0.16390834748744965,-8.527421951293945,0.4731806814670563
1747979702514362000,3.601362060546875,-1.5020943880081177,-9.763314247131348,2.2683959007263184
1747979702532628700,3.619628662109375,-2.5986053943634033,-8.906085968017578,5.313860893249512
1747979702550893300,3.637893310546875,-2.0063817501068115,-7.631309509277344,5.285745143890381
1747979702569159200,3.6561591796875,-0.8261220455169678,-7.719245910644531,2.035693883895874
1747979702587420200,3.674420166015625,-1.5966109037399292,-6.808178424835205,1.9334007501602173
1747979702605690600,3.692690673828125,-1.6109678745269775,-6.309275150299072,2.8761727809906006
1747979702623951400,3.710951416015625,-0.8333004713058472,-7.5667033195495605,2.7966115474700928
1747979702642220500,3.729220458984375,0.25064817070961,-8.308478355407715,2.324028968811035
1747979702660489000,3.747489013671875,1.5936198234558105,-8.139185905456543,2.441277265548706
1747979702678749200,3.765749267578125,1.5726827383041382,-7.834699630737305,3.259622573852539
1747979702697019000,3.784018798828125,-0.1178465187549591,-8.59202766418457,2.334198474884033
1747979702715284200,3.8022841796875,-0.9104689955711365,-9.019744873046875,2.947359323501587
1747979702733550300,3.82055029296875,-0.8877372145652771,-9.33739185333252,4.907679080963135
1747979702751816400,3.83881640625,-0.7818548083305359,-10.948958396911621,3.896113395690918
1747979702770080800,3.857080810546875,-1.3992030620574951,-12.171690940856934,3.455834150314331
1747979702788347400,3.875347412109375,-1.6468602418899536,-10.939387321472168,5.4765729904174805
1747979702806602000,3.89360205078125,-2.018345832824707,-8.338388442993164,7.288537979125977
1747979702843142700,3.930142578125,-3.446262836456299,-11.447263717651367,8.263014793395996
1747979702861405200,3.9484052734375,-2.0572292804718018,-15.116059303283691,8.288139343261719
1747979702879671000,3.966671142578125,-2.4227328300476074,-15.144174575805664,5.280959606170654
1747979702897940000,3.98493994140625,-3.359523057937622,-14.846866607666016,2.672184705734253
1747979702916208600,4.003208740234375,0.2721835672855377,-17.51067543029785,0.7471588850021362
1747979702934473200,4.02147314453125,3.4229328632354736,-19.710277557373047,2.349153518676758
1747979702952738800,4.03973876953125,2.087737798690796,-15.807584762573242,4.179663181304932
1747979702971004200,4.058004150390625,0.06640082597732544,-11.726625442504883,4.4482574462890625
1747979702989270300,4.076270263671875,-0.6107679605484009,-11.610573768615723,2.8666014671325684
1747979703007535600,4.09453564453125,-1.4590235948562622,-9.705886840820312,4.214957237243652
1747979703025801700,4.1128017578125,-1.7688941955566406,-8.1224365234375,3.81655216217041
1747979703044066000,4.131066162109375,-0.8267202377319336,-7.3292155265808105,3.1172497272491455
1747979703062334200,4.149334228515625,-0.018544375896453857,-6.530611038208008,2.4945175647735596
1747979703080598500,4.1675986328125,-0.4983053207397461,-5.50229549407959,1.7222341299057007
1747979703098863000,4.185863037109375,-0.32243284583091736,-4.85324239730835,0.45583271980285645
1747979703117131000,4.204131103515625,0.6113662123680115,-4.966901779174805,-0.11126625537872314
1747979703135391200,4.22239111328125,1.2975081205368042,-4.4482574462890625,-1.3124631643295288
1747979703153660400,4.240660400390625,1.490728497505188,-3.4139597415924072,-2.0572292804718018
1747979703171928300,4.25892822265625,0.5712863802909851,-2.654836654663086,-2.4466612339019775
1747979703190193200,4.277193115234375,-0.0364905446767807,-3.1172497272491455,-2.316850423812866
1747979703208454700,4.29545458984375,-0.013160524889826775,-3.8386857509613037,-1.4374881982803345
1747979703226719500,4.313719482421875,-0.7794619798660278,-4.794618606567383,-0.844068169593811
1747979703244988700,4.33198876953125,-1.5314065217971802,-5.736194133758545,-0.355932354927063
1747979703263256800,4.3502568359375,-2.321636199951172,-6.530611038208008,-0.21655045449733734
1747979703281521400,4.368521484375,-3.9451663494110107,-8.080561637878418,0.2386840581893921
1747979703299786800,4.386786865234375,-11.522637367248535,-10.256834030151367,3.19860577583313
1747979703327185400,4.414185302734375,-17.54417610168457,-15.545570373535156,10.550553321838379
1747979703345453600,4.43245361328125,-13.24846076965332,-19.368703842163086,14.30907917022705
1747979703363716600,4.450716552734375,-8.273782730102539,-14.34856128692627,12.21057415008545
1747979703381984300,4.468984375,-5.535196781158447,-9.024530410766602,7.176074981689453
1747979703400248300,4.487248291015625,-1.9058831930160522,-9.881160736083984,-0.48574298620224
1747979703418515700,4.505515625,0.5611169338226318,-11.494522094726562,-1.9950158596038818
1747979703436775000,4.52377490234375,2.9796624183654785,-15.011372566223145,-0.9768698215484619
1747979703455045600,4.542045654296875,0.2991028428077698,-11.854043006896973,-1.210768222808838
1747979703473312300,4.560312255859375,0.3242274820804596,-8.067999839782715,-1.0091729164123535
1747979703491578400,4.578578369140625,2.9940192699432373,-8.251648902893066,-0.259621262550354
1747979703509841000,4.5968408203125,3.8368911743164062,-8.516056060791016,1.072582721710205
1747979703528110800,4.61511083984375,3.300898790359497,-8.987442016601562,3.10109806060791
1747979703546374400,4.63337451171875,2.7415764331817627,-10.352546691894531,4.893920421600342
1747979703564641300,4.651641357421875,2.4921247959136963,-11.295917510986328,6.045466423034668
1747979703582905000,4.669905029296875,1.9746768474578857,-10.751550674438477,6.162116527557373
1747979703601172500,4.68817236328125,-1.6582261323928833,-9.058030128479004,5.584249973297119
1747979703619432400,4.706432373046875,-6.153143405914307,-7.313064098358154,3.693321704864502
1747979703637704200,4.7247041015625,-6.393621921539307,-6.491129398345947,1.7575281858444214
1747979703655968300,4.74296826171875,-1.9669002294540405,-7.172485828399658,1.4315061569213867
1747979703674236700,4.761236572265625,0.28953152894973755,-7.8526458740234375,1.7078771591186523
1747979703692486100,4.779486083984375,1.2340983152389526,-8.213363647460938,2.001596212387085
1747979703719898000,4.806898193359375,1.0151549577713013,-7.110272407531738,2.5633113384246826
1747979703738159000,4.8251591796875,0.8799605369567871,-6.174080848693848,2.3545374870300293
1747979703756424700,4.8434248046875,0.7244270443916321,-5.6931233406066895,2.4227328300476074
1747979703774696400,4.861696533203125,-0.5533402562141418,-6.907480716705322,3.035893678665161
1747979703792947000,4.879947021484375,-2.324028968811035,-9.17467975616455,2.9599215984344482
1747979703811229400,4.8982294921875,-2.1541385650634766,-10.767104148864746,2.847458839416504
1747979703829475300,4.916475341796875,-1.2891331911087036,-11.745169639587402,2.8486554622650146
1747979703847758000,4.934758056640625,-1.1635099649429321,-11.621939659118652,3.212364435195923
1747979703866023700,4.953023681640625,-1.1228320598602295,-11.654840469360352,4.216153621673584
1747979703884289800,4.971289794921875,-0.5252245664596558,-11.36231803894043,5.96590518951416
1747979703902555100,4.98955517578125,0.43968117237091064,-10.354940414428711,6.596413612365723
1747979703920821500,5.007821533203125,1.0941181182861328,-9.255437850952148,6.93619441986084
1747979703939086300,5.02608642578125,-0.5832505226135254,-9.851250648498535,7.063612461090088
1747979703957352400,5.0443525390625,-5.918646812438965,-12.481560707092285,6.258427619934082
1747979703975618000,5.0626181640625,-6.240481376647949,-13.243675231933594,8.611170768737793
1747979703993877800,5.080877685546875,-1.0091729164123535,-11.758330345153809,7.712067604064941
1747979704012149200,5.099149169921875,1.1012966632843018,-10.719246864318848,6.245266914367676
1747979704030411800,5.117411865234375,-1.4811571836471558,-11.933605194091797,4.4751763343811035
1747979704048677400,5.135677490234375,-0.4253242313861847,-13.420743942260742,3.4707891941070557
1747979704066947000,5.153947021484375,1.4482558965682983,-14.251651763916016,3.7429728507995605
1747979704085212200,5.172212158203125,1.9070796966552734,-16.08754539489746,3.012563705444336
1747979704103478300,5.190478271484375,0.8231309652328491,-15.859628677368164,2.661417007446289
1747979704121744100,5.208744140625,-2.3958137035369873,-13.421940803527832,2.1026928424835205
1747979704140009500,5.227009521484375,-2.3443679809570312,-10.733604431152344,1.168893814086914
1747979704158275300,5.245275390625,-0.8063812255859375,-8.185248374938965,1.1982059478759766
1747979704176541000,5.263541015625,0.5808576941490173,-6.533602237701416,1.6516457796096802
1747979704194806800,5.281806884765625,0.9960124492645264,-5.480760097503662,1.8532410860061646
1747979704213072400,5.300072265625,1.1054840087890625,-4.668995380401611,2.241476535797119
1747979704231337700,5.318337646484375,0.9176474809646606,-4.273581027984619,2.9599215984344482
1747979704249598700,5.3365986328125,0.7561319470405579,-4.680959224700928,3.772883176803589
1747979704267868200,5.3548681640625,0.11605189740657806,-5.043471813201904,4.156332969665527
1747979704286136300,5.37313623046875,0.9876375198364258,-4.934000492095947,3.2793633937835693
1747979704304396300,5.391396240234375,1.4225330352783203,-4.2723846435546875,0.6101697683334351
1747979704322666800,5.409666748046875,1.2281162738800049,-3.2171499729156494,-0.5018945336341858
1747979704340932400,5.427932373046875,0.9750752449035645,-2.751147747039795,-1.2370892763137817
1747979704359198000,5.446197998046875,0.623330295085907,-3.1387851238250732,-1.882553219795227
1747979704377463800,5.4644638671875,-0.09810572862625122,-4.062414646148682,-2.6524438858032227
1747979704395729700,5.482729736328125,-2.5160529613494873,-5.656632900238037,-2.84087872505188
1747979704413995500,5.50099560546875,-7.125227451324463,-8.132007598876953,0.1788634955883026
1747979704432260900,5.5192607421875,-20.329421997070312,-13.96092414855957,7.3304123878479
1747979704450526500,5.5375263671875,-19.31007957458496,-20.816360473632812,17.10868263244629
1747979704468798700,5.555798828125,-10.211370468139648,-20.8498592376709,16.873586654663086
1747979704487058200,5.57405810546875,-9.753743171691895,-11.56690502166748,13.585848808288574
1747979704505323800,5.59232373046875,-4.913063049316406,-8.149953842163086,4.478167533874512
1747979704523588400,5.61058837890625,-1.0151549577713013,-7.372884750366211,-1.3208380937576294
1747979704541853200,5.628853271484375,1.2681959867477417,-7.622934818267822,-3.9900317192077637
1747979704560124400,5.64712451171875,3.0969107151031494,-11.2037935256958,-4.089931964874268
1747979704578390300,5.665390380859375,-6.410371780395508,-14.722439765930176,-6.829115867614746
1747979704596647400,5.6836474609375,-0.058624155819416046,-14.71645736694336,-0.33379876613616943
1747979704614916900,5.701916748046875,3.8973097801208496,-12.078370094299316,2.210369825363159
1747979704633185000,5.72018505859375,3.717848300933838,-10.045069694519043,1.7018951177597046
1747979704651449000,5.738448974609375,3.366701364517212,-8.712865829467773,2.307279348373413
1747979704669714400,5.75671435546875,3.1381869316101074,-8.37846851348877,3.991826295852661
1747979704687981000,5.77498095703125,2.998206853866577,-8.875576972961426,5.96171760559082
1747979704706249200,5.793249267578125,2.1164517402648926,-9.336195945739746,7.125227451324463
1747979704724512300,5.81151220703125,1.6408780813217163,-8.71645450592041,6.964310169219971
1747979704742777900,5.82977783203125,-0.2991028428077698,-8.176275253295898,5.505885124206543
1747979704761043700,5.848043701171875,-2.7840490341186523,-7.63310432434082,3.589832067489624
1747979704779309300,5.866309326171875,-4.674378871917725,-7.415955543518066,1.5756736993789673
1747979704797571600,5.884571533203125,-3.3266217708587646,-7.489534854888916,0.3002992272377014
1747979704815839500,5.902839599609375,-1.3932210206985474,-7.878368377685547,0.8554341197013855
1747979704834106600,5.921106689453125,0.17527425289154053,-7.576872825622559,1.5170495510101318
1747979704852373500,5.93937353515625,0.9284151792526245,-6.440880298614502,1.2203395366668701
1747979704870625800,5.957625732421875,1.0863415002822876,-4.9262237548828125,0.8255237936973572
1747979704888903700,5.975903564453125,-1.052243709564209,-4.792823791503906,0.7058826684951782
1747979704907158500,5.994158447265625,-2.541775941848755,-5.241477966308594,1.430907964706421
1747979704925430500,6.012430419921875,-1.1001001596450806,-6.26859712600708,2.994617462158203
1747979704943700500,6.030700439453125,0.6693921089172363,-7.074978351593018,3.597010612487793
1747979704961966300,6.04896630859375,1.2915260791778564,-7.804789066314697,3.3990044593811035
1747979704980232000,6.06723193359375,1.721037745475769,-9.4121675491333,3.91705060005188
1747979704998497300,6.085497314453125,1.7485551834106445,-11.478370666503906,4.794020175933838
1747979705016763100,6.10376318359375,2.0650060176849365,-13.375280380249023,4.685146808624268
1747979705035029000,6.122029052734375,2.0476579666137695,-14.462818145751953,5.123631477355957
1747979705053294600,6.140294677734375,2.2325034141540527,-13.574482917785645,6.865606307983398
1747979705071560400,6.158560546875,-3.070589542388916,-14.161322593688965,8.100900650024414
1747979705089825000,6.176824951171875,-9.546764373779297,-15.888341903686523,7.920841217041016
1747979705108088000,6.195088134765625,-4.291527271270752,-15.750755310058594,11.023136138916016
1747979705126356200,6.213356201171875,0.7244270443916321,-14.93839168548584,11.013564109802246
1747979705144624400,6.231624267578125,1.8849459886550903,-13.211970329284668,6.737590312957764
1747979705162888700,6.249888671875,1.8179470300674438,-13.065409660339355,4.566701889038086
1747979705181154800,6.26815478515625,1.1467602252960205,-14.624932289123535,4.00618314743042
1747979705199415600,6.28641552734375,0.20997019112110138,-16.112668991088867,3.9631125926971436
1747979705217686000,6.30468603515625,-0.8045865893363953,-17.585451126098633,3.394218921661377
1747979705235952000,6.3229521484375,0.35413774847984314,-16.146766662597656,2.647658348083496
1747979705254216400,6.341216552734375,0.9218349456787109,-13.16231918334961,1.6366907358169556
1747979705272479500,6.3594794921875,1.262213945388794,-10.727622032165527,0.137587308883667
1747979705290748200,6.377748046875,1.4919248819351196,-7.503293514251709,-0.8578268885612488
1747979705309015800,6.396015869140625,1.8646070957183838,-4.3172502517700195,-0.022133609279990196
1747979705327280400,6.4142802734375,2.5591237545013428,-2.0165512561798096,0.859621524810791
1747979705345546200,6.432546142578125,4.299902439117432,-0.9026923179626465,2.3162522315979004
1747979705363807500,6.450807373046875,3.638885021209717,-0.8422735929489136,3.174079179763794
1747979705382066200,6.469066162109375,2.1373889446258545,-1.495514154434204,3.166900873184204
1747979705400342800,6.4873427734375,0.8333004713058472,-1.9926230907440186,3.613760471343994
1747979705418604300,6.505604248046875,-3.8524444103240967,-3.2476584911346436,4.6169514656066895
1747979705436873700,6.523873779296875,-2.9072794914245605,-6.132206439971924,1.6456637382507324
1747979705455141400,6.542141357421875,-3.0137600898742676,-8.412566184997559,0.9248259663581848
1747979705473401300,6.5604013671875,-2.1756739616394043,-9.42891788482666,-0.18783657252788544
1747979705491671800,6.578671875,-2.9150562286376953,-8.062616348266602,-2.1068804264068604
1747979705509937400,6.5969375,-9.125627517700195,-4.83051061630249,0.537188708782196
1747979705528203000,6.615203125,-11.659028053283691,-3.9050865173339844,3.442075490951538
1747979705546457000,6.63345703125,-14.276178359985352,-5.453841209411621,7.267002582550049
1747979705564734500,6.651734375,-12.531810760498047,-7.429714202880859,14.769099235534668
1747979705583000000,6.67,-6.5419769287109375,-2.5633113384246826,19.6414852142334
1747979705601265700,6.688265625,4.46979284286499,-0.9762716293334961,-0.3433700501918793
1747979705619527000,6.70652685546875,6.738188743591309,-5.520840167999268,-4.099503517150879
1747979705637796000,6.724796142578125,-18.25963020324707,-15.105889320373535,-11.902498245239258
1747979705656064300,6.743064208984375,6.943373203277588,-8.937192916870117,-4.377668857574463
1747979705674328800,6.761328857421875,5.8474602699279785,-4.9776692390441895,-0.2709871530532837
1747979705692579600,6.77957958984375,4.412963390350342,-7.033103942871094,-1.7820546627044678
1747979705710861800,6.79786181640625,6.032904148101807,-12.942179679870605,-4.9980082511901855
1747979705729124400,6.816124267578125,-6.580860614776611,-23.20559310913086,-6.247660160064697
1747979705747390200,6.83439013671875,-1.7545372247695923,-22.651058197021484,0.3188436031341553
1747979705765657300,6.8526572265625,0.4019941985607147,-17.889938354492188,3.573082447052002
1747979705783923200,6.870923095703125,2.1032910346984863,-17.749958038330078,5.927021503448486
1747979705802188500,6.8891884765625,1.7306089401245117,-23.24627113342285,12.228520393371582
1747979705820454700,6.90745458984375,-2.4269204139709473,-27.172893524169922,14.929418563842773
1747979705838716400,6.92571630859375,-4.753342151641846,-22.351356506347656,21.718454360961914
1747979705856985900,6.94398583984375,-11.0775728225708,-17.391035079956055,20.156539916992188
1747979705875251500,6.96225146484375,-19.517057418823242,-12.710674285888672,7.555337429046631
1747979705893515800,6.980515869140625,-10.97169017791748,-9.366703987121582,2.562713146209717
1747979705911784200,6.9987841796875,-2.197209358215332,-8.079365730285645,0.4983053207397461
1747979705930048500,7.017048583984375,-1.827518343925476,-4.565505504608154,1.5020943880081177
1747979705948297700,7.035297607421875,-1.6354942321777344,-1.587039589881897,2.912065267562866
1747979705966575000,7.0535751953125,-0.7399803996086121,-0.9583254456520081,4.709074974060059
1747979705984842200,7.07184228515625,-6.175875186920166,-0.8033902049064636,7.060023307800293
1747979706003112400,7.090112548828125,-1.1808580160140991,-2.059622049331665,1.9968105554580688
1747979706021377000,7.108376953125,-0.6035895347595215,-1.0755738019943237,0.3278166949748993
1747979706039643000,7.126642822265625,-0.9613165259361267,-0.09092725813388824,-0.9900303483009338
1747979706057908200,7.144908203125,-1.1724830865859985,0.08554340898990631,-1.7114664316177368
1747979706076174300,7.16317431640625,-1.0857433080673218,0.2231307178735733,-1.482353687286377
1747979706094435800,7.181435791015625,0.8644071817398071,-0.47916272282600403,0.45942193269729614
1747979706112705800,7.199705810546875,-0.8422735929489136,-2.0853450298309326,1.929213285446167
1747979706130971000,7.217970947265625,-4.941178798675537,-8.380861282348633,8.648857116699219
1747979706149237000,7.236237060546875,-9.120841979980469,-55.10909652709961,18.692729949951172
1747979706167502300,7.25450244140625,5.259424209594727,-69.4534683227539,46.892147064208984
1747979706185768400,7.2727685546875,-23.071596145629883,-37.711483001708984,43.307098388671875
1747979706204032800,7.29103271484375,-3.6466617584228516,-17.878572463989258,18.25963020324707
1747979706222301000,7.309301025390625,6.928418159484863,-10.40758228302002,10.657033920288086
1747979706240565200,7.327565185546875,7.562515735626221,-5.782256126403809,3.2542388439178467
1747979706258830000,7.345830078125,7.618149280548096,-1.8759729862213135,-3.4265220165252686
1747979706277098000,7.364097900390625,5.340181827545166,-1.852044701576233,-5.621936798095703
1747979706295362600,7.382362548828125,3.772284984588623,-1.3782658576965332,-3.613760471343994
1747979706313628400,7.40062841796875,6.4594244956970215,-0.8063812255859375,-2.709871530532837
1747979706331894000,7.41889404296875,16.630117416381836,1.1700903177261353,-1.2705888748168945
1747979706350159600,7.43715966796875,29.1409912109375,5.624329566955566,-8.752944946289062
1747979706368420600,7.455420654296875,13.463216781616211,10.169496536254883,-8.338987350463867
1747979706386691000,7.473691162109375,3.6532418727874756,6.934998035430908,-5.055436134338379
1747979706404956700,7.491956787109375,-10.673185348510742,0.6185446381568909,-4.473979949951172
1747979706423222300,7.51022216796875,-14.712868690490723,-1.5152549743652344,-7.074379920959473
1747979706441488400,7.52848828125,-9.988240242004395,-4.6199421882629395,-4.869992256164551
1747979706459754000,7.54675390625,-8.974281311035156,-8.98385238647461,-1.1479566097259521
1747979706478014700,7.5650146484375,-14.81695556640625,-15.881762504577637,-1.2646067142486572
1747979706496284200,7.5832841796875,-27.081966400146484,-35.84149169921875,-0.5150550603866577
1747979706514552300,7.60155224609375,11.638091087341309,-37.31547164916992,-6.159125328063965
1747979706532818000,7.61981787109375,6.806384086608887,-18.999610900878906,2.5148565769195557
1747979706551081200,7.638081298828125,14.134403228759766,-7.239484786987305,0.9421738982200623
1747979706569348000,7.65634814453125,16.290935516357422,-2.5878376960754395,-4.752145767211914
1747979706587613400,7.674613525390625,6.375077724456787,-5.0949177742004395,-1.0947163105010986
1747979706605881000,7.692881103515625,3.8877387046813965,-11.304890632629395,1.0157532691955566
1747979706624142600,7.711142578125,10.520044326782227,-26.371896743774414,10.028918266296387
1747979706642407000,7.729406982421875,16.68036651611328,-37.49612808227539,24.041885375976562
1747979706660676400,7.74767626953125,31.806594848632812,-38.516666412353516,26.618356704711914
1747979706678942200,7.765942138671875,-2.612962245941162,-46.31607437133789,44.56991195678711
1747979706697207800,7.784207763671875,-73.00801086425781,-26.91387176513672,24.372095108032227
1747979706715473700,7.8024736328125,5.5591254234313965,-10.415358543395996,10.884950637817383
1747979706733734700,7.820734619140625,6.4115681648254395,-8.895915985107422,7.704888820648193
1747979706752003800,7.83900390625,1.358525037765503,-5.276174068450928,6.845865726470947
1747979706770268400,7.857268310546875,-0.26620152592658997,-2.0398812294006348,3.2476584911346436
1747979706788540000,7.875539794921875,-0.020937198773026466,-0.14656038582324982,0.8392825126647949
1747979706806803500,7.893803466796875,-12.994821548461914,5.1774702072143555,-1.1383854150772095
1747979706825066800,7.912066650390625,-0.2877369225025177,1.8149559497833252,-1.8735800981521606
1747979706843333400,7.93033349609375,3.249453067779541,0.6963114142417908,-2.0027925968170166
1747979706861599200,7.94859912109375,2.500499725341797,0.7758727669715881,-1.9818553924560547
1747979706879864000,7.966864013671875,1.4033905267715454,0.7100701332092285,-1.567897081375122
1747979706898131000,7.985130859375,0.19142581522464752,-0.357128769159317,0.3026920557022095
1747979706918670300,8.00567041015625,-3.5467612743377686,-2.775674343109131,2.1678972244262695
1747979706952927500,8.039927490234374,-35.653656005859375,-29.6823673248291,29.88216781616211
1747979706971193300,8.058193359375,2.094916343688965,-76.58229064941406,48.802215576171875
1747979706989454300,8.076454345703125,-31.381868362426758,-57.148380279541016,64.58049011230469
1747979707007723500,8.0947236328125,-7.284948348999023,-22.895723342895508,20.030319213867188
1747979707025991400,8.112991455078125,9.219545364379883,-8.385048866271973,11.099705696105957
1747979707044256300,8.13125634765625,9.087342262268066,2.4538395404815674,5.907280921936035
1747979707062521300,8.149521240234375,9.465408325195312,8.790034294128418,-1.6031911373138428
1747979707080787500,8.167787353515624,6.454638957977295,3.6538400650024414,-4.0426740646362305
1747979707099053000,8.186052978515624,5.509474277496338,-0.9206385016441345,-2.5118656158447266
1747979707117319200,8.204319091796876,12.833306312561035,-0.9613165259361267,5.148158073425293
1747979707135584300,8.222584228515625,18.064016342163086,0.24885354936122894,4.535595417022705
1747979707153849000,8.24084912109375,24.60539436340332,7.561319351196289,-6.329614162445068
1747979707172117000,8.259116943359375,15.851851463317871,-0.851844847202301,-14.744573593139648
1747979707190384400,8.27738427734375,1.3716856241226196,-2.2821545600891113,-11.09492015838623
1747979707208642600,8.295642578125,-23.031517028808594,-1.6893328428268433,-5.951548099517822
1747979707226913000,8.3139130859375,-15.147764205932617,-0.2727817893028259,-5.517251014709473
1747979707245178400,8.332178466796876,-8.665008544921875,-1.8406788110733032,-1.4111671447753906
1747979707263450600,8.35045068359375,-8.208578109741211,-6.055635929107666,0.6574280261993408
1747979707290837200,8.377837158203125,-4.991427898406982,-19.905292510986328,-2.2480568885803223
1747979707309106700,8.396106689453125,-7.181458950042725,-21.403799057006836,0.5186443328857422
1747979707327378000,8.4143779296875,-0.005982056725770235,-34.53860092163086,-6.876374244689941
1747979707345637400,8.432637451171875,2.0967109203338623,-36.881771087646484,1.246660590171814
1747979707363908900,8.450908935546876,5.0943193435668945,-19.331613540649414,5.621936798095703
1747979707382171600,8.469171630859375,10.42492961883545,-8.528617858886719,1.1204391717910767
1747979707400432400,8.487432373046875,18.626928329467773,-12.041879653930664,6.607181549072266
1747979707418699000,8.505698974609375,14.866606712341309,-25.232912063598633,11.00160026550293
1747979707436968700,8.52396875,13.323834419250488,-28.189844131469727,20.814565658569336
1747979707455234300,8.542234375,19.247865676879883,-31.493135452270508,36.728031158447266
1747979707473498400,8.560498291015625,-0.03888336941599846,-44.242095947265625,36.096927642822266
1747979707491767300,8.578767333984375,-108.12507629394531,-33.36910629272461,25.204797744750977
1747979707510031400,8.59703125,-0.0364905446767807,-11.429317474365234,10.475179672241211
1747979707528297000,8.615296875,9.508479118347168,-7.211967468261719,2.86061954498291
1747979707546557400,8.633557373046875,4.097708702087402,-4.715056896209717,5.6685967445373535
1747979707564828700,8.65182861328125,0.4181457459926605,-1.1066805124282837,4.199403762817383
1747979707583095600,8.670095458984376,-0.4827519655227661,0.6538388133049011,2.1708884239196777
1747979707601357300,8.688357421875,1.5236297845840454,3.4510483741760254,0.12382857501506805
1747979707619625500,8.70662548828125,-16.075580596923828,5.569892883300781,5.08654260635376
1747979707637891600,8.7248916015625,-0.6574280261993408,2.316850423812866,0.24167509377002716
1747979707656157000,8.743156982421874,2.0644078254699707,1.557727575302124,-0.24825534224510193
1747979707674418000,8.76141796875,1.48055899143219,1.5080764293670654,-0.5533402562141418
1747979707692676400,8.77967626953125,0.735194742679596,1.2269197702407837,-0.42771705985069275
1747979707710954200,8.797954345703126,0.4492524564266205,0.6299105882644653,0.719641387462616
1747979707729219800,8.8162197265625,-0.7076773047447205,-1.292722463607788,1.236491084098816
1747979707747485200,8.834485107421875,-1.3986048698425293,-3.534797191619873,5.027320384979248
1747979707765750800,8.852750732421875,-14.578271865844727,-30.35175895690918,32.09253692626953
1747979707784016000,8.871015869140624,-15.801602363586426,-99.81838989257812,35.08177185058594
1747979707802279000,8.88927880859375,-12.220743179321289,-59.48257827758789,41.52564239501953
1747979707820546800,8.907546875,-7.327421188354492,-24.457040786743164,22.72104835510254
1747979707838815200,8.925815185546876,1.8747764825820923,-12.859626770019531,7.8526458740234375
1747979707857078800,8.944078857421875,5.990431308746338,-7.06062126159668,6.493522644042969
1747979707875345200,8.96234521484375,-1.2023934125900269,-1.9968105554580688,4.842474937438965
1747979707893606100,8.980606201171875,3.9774694442749023,-0.893121063709259,-0.5862415432929993
1747979707911878400,8.99887841796875,6.801000118255615,-0.1136590763926506,-1.0887342691421509
1747979707930140700,9.017140625,11.048260688781738,-2.1056840419769287,-2.2821545600891113
1747979707948403000,9.03540283203125,29.660831451416016,-3.232703447341919,0.8847461938858032
1747979707966674000,9.053673828125,34.00619888305664,1.9710876941680908,-1.0348957777023315
1747979707984939000,9.07193896484375,21.58266258239746,7.200601577758789,-6.1704912185668945
1747979708003205400,9.090205322265625,16.080366134643555,12.596416473388672,-2.420340061187744
1747979708021470700,9.108470703125,-1.4135600328445435,-5.618347644805908,-1.2693923711776733
1747979708039735300,9.1267353515625,-30.54079246520996,-7.3645100593566895,-8.191229820251465
1747979708058003000,9.1450029296875,-21.763320922851562,-7.750950813293457,-13.854443550109863
1747979708076268000,9.16326806640625,-12.685548782348633,-11.889935493469238,-6.553342819213867
1747979708094533400,9.181533447265625,-3.8949170112609863,-13.630714416503906,-3.245863914489746
1747979708112799500,9.199799560546875,-10.003793716430664,-19.666011810302734,1.1922239065170288
1747979708131064800,9.21806494140625,-1.1928220987319946,-11.549556732177734,4.7952165603637695
1747979708149331000,9.2363310546875,16.106687545776367,-14.22712516784668,-8.394021987915039
1747979708167596300,9.25459619140625,8.087740898132324,-23.6039981842041,-8.097909927368164
1747979708185861000,9.272861083984376,9.291330337524414,-37.744384765625,-2.9216363430023193
1747979708204127200,9.291127197265626,6.9098734855651855,-22.333410263061523,5.154737949371338
1747979708222390500,9.309390625,10.702497482299805,-16.220346450805664,11.472986221313477
1747979708240659000,9.327658935546875,16.00439453125,-29.847471237182617,18.68315887451172
1747979708258924800,9.3459248046875,16.009180068969727,-30.11666488647461,32.10749053955078
1747979708277190100,9.364190185546875,11.124232292175293,-35.015968322753906,50.24748229980469
1747979708295456000,9.3824560546875,-117.65568542480469,-31.956146240234375,44.59324264526367
1747979708313721600,9.4007216796875,-12.687942504882812,-11.886944770812988,20.344974517822266
1747979708331986400,9.418986328125,5.739185333251953,-8.998807907104492,4.645066738128662
1747979708350254000,9.437254150390626,3.9332022666931152,-5.435894966125488,5.854638576507568
1747979708368519400,9.45551953125,0.7776673436164856,-2.2911276817321777,4.756333351135254
1747979708386785000,9.473784912109375,0.29790642857551575,0.4223332107067108,1.461416482925415
1747979708405045200,9.492045166015625,-13.463216781616211,6.192026615142822,0.844068169593811
1747979708423311400,9.510311279296875,-5.06082010269165,3.535395383834839,1.4536397457122803
1747979708441586200,9.528586181640625,1.5128620862960815,0.8955138921737671,-0.21954147517681122
1747979708459846100,9.54684619140625,1.932204246520996,0.9643075466156006,-0.5024927258491516
1747979708478114600,9.565114501953126,1.4177473783493042,1.171286702156067,-0.5341976284980774
1747979708496378600,9.583378662109375,0.9900303483009338,1.220937728881836,0.15553347766399384
1747979708514644700,9.601644775390625,0.4995017349720001,0.8530412912368774,1.2077772617340088
1747979708532910000,9.61991015625,0.06759724020957947,-0.7124629616737366,1.0295119285583496
1747979708551175700,9.63817578125,-1.3776676654815674,-3.348755359649658,7.284948348999023
1747979708569437200,9.656437255859375,-24.570100784301758,-23.66023063659668,38.50410461425781
1747979708587707400,9.674707275390626,-12.305688858032227,-69.44330596923828,42.55934143066406
1747979708605973000,9.692972900390625,-1.6115660667419434,-60.02634811401367,63.205810546875
1747979708624238800,9.71123876953125,-15.142977714538574,-25.076183319091797,21.46002960205078
1747979708642492200,9.7294921875,1.8652052879333496,-16.136598587036133,9.115457534790039
1747979708660765400,9.747765380859375,3.5509488582611084,-8.678169250488281,7.146762847900391
1747979708679029000,9.766029052734375,4.734199523925781,-0.6161518096923828,-0.12323036789894104
1747979708697302300,9.78430224609375,7.762316703796387,1.9148563146591187,-1.4799607992172241
1747979708715566600,9.802566650390625,7.319046497344971,0.2919243574142456,-2.5190439224243164
1747979708733831700,9.820831787109375,8.73320484161377,-3.1310083866119385,-4.2346978187561035
1747979708752099300,9.839099365234375,14.22712516784668,-2.404188632965088,1.6516457796096802
1747979708770364000,9.857364013671875,18.250059127807617,-0.8608179688453674,0.5353940725326538
1747979708788624400,9.875624267578125,22.574487686157227,6.541378974914551,-3.6580276489257812
1747979708806895900,9.893895751953124,17.173887252807617,12.275179862976074,-7.478168964385986
1747979708825161000,9.912160888671876,0.865005373954773,0.06999006122350693,-3.772883176803589
1747979708843422200,9.930422119140625,-17.16371726989746,-4.884947299957275,-4.515256404876709
1747979708861692000,9.94869189453125,-21.69153594970703,-5.102096080780029,-6.930212497711182
1747979708879958500,9.96695849609375,-12.681960105895996,-6.794419765472412,-0.18005990982055664
1747979708898223400,9.985223388671875,-5.779862880706787,-9.749555587768555,-1.6247265338897705
1747979708916484600,10.003484619140625,-13.069597244262695,-17.69013786315918,-0.46719861030578613
1747979708934753300,10.021753173828126,-4.645665168762207,-20.8444766998291,3.704089403152466
1747979708953022200,10.040022216796874,7.074978351593018,-20.82952117919922,-7.178467750549316
1747979708971286500,10.05828662109375,0.494716078042984,-37.42972946166992,-8.167900085449219
1747979708989552400,10.076552490234375,1.277767300605774,-34.61157989501953,2.318047046661377
1747979709007818500,10.094818603515625,11.748161315917969,-12.468400955200195,-0.016749758273363113
1747979709026082800,10.113082763671875,20.613569259643555,-10.788639068603516,4.849055290222168
1747979709044349200,10.13134912109375,21.431316375732422,-25.07737922668457,14.612369537353516
1747979709062615000,10.149614990234374,20.551355361938477,-28.701908111572266,36.22254943847656
1747979709080881200,10.167881103515626,18.416358947753906,-30.868009567260742,44.794837951660156
1747979709099145200,10.186145263671875,-36.89971923828125,-40.69293975830078,39.396629333496094
1747979709117407200,10.2044072265625,-42.63591384887695,-24.19861602783203,24.065813064575195
1747979709135677700,10.222677734375,3.7669010162353516,-11.45803165435791,8.123034477233887
1747979709153943300,10.240943359375,5.698507308959961,-7.410571575164795,6.550950050354004
1747979709172204500,10.25920458984375,1.2095718383789062,-2.6871397495269775,6.141777515411377
1747979709190473500,10.277473388671876,-3.197409152984619,1.2131611108779907,1.866999864578247
1747979709208757500,10.295757568359376,-8.325227737426758,4.975874900817871,1.472184181213379
1747979709227005700,10.314005615234375,-5.840281963348389,6.156732559204102,2.472982168197632
1747979709245272000,10.33227197265625,-0.9337990283966064,3.487539052963257,2.2337000370025635
1747979709263532500,10.350532470703126,2.2271196842193604,2.246262311935425,0.7184450030326843
1747979709281803300,10.36880322265625,1.3268201351165771,1.9507486820220947,0.20338992774486542
1747979709300067800,10.38706787109375,0.6496513485908508,1.9639091491699219,0.43908295035362244
1747979709318335000,10.4053349609375,0.2805584669113159,1.5284154415130615,0.47258245944976807
1747979709336600300,10.423600341796876,-0.5162515044212341,0.08853443711996078,1.0462616682052612
1747979709354865000,10.441864990234375,-2.8289146423339844,-2.403590440750122,2.138585329055786
1747979709373132300,10.46013232421875,-9.694520950317383,-8.47896671295166,14.991033554077148
1747979709391393000,10.47839306640625,-17.679967880249023,-28.57688331604004,37.21018600463867
1747979709409662700,10.496662841796875,-8.322237014770508,-76.2353286743164,44.406002044677734
1747979709427928800,10.5149287109375,-17.065011978149414,-60.31049728393555,71.16852569580078
1747979709446193000,10.53319287109375,-13.010375022888184,-23.46820640563965,16.818552017211914
1747979709464461300,10.55146142578125,3.6017963886260986,-10.539785385131836,9.2919282913208
1747979709482726000,10.569725830078125,2.2307088375091553,-2.430509567260742,5.566303730010986
1747979709500988400,10.587988525390625,4.60139799118042,4.5338006019592285,-0.33080771565437317
1747979709519259600,10.606259765625,5.172086238861084,2.7152554988861084,-1.9130617380142212
1747979709537523000,10.62452294921875,6.270391941070557,-0.04007977992296219,-1.350150227546692
1747979709555788300,10.642788330078124,15.51924991607666,-4.2346978187561035,0.14416755735874176
1747979709574052900,10.661052978515626,31.66302490234375,-1.6313068866729736,12.246466636657715
1747979709592304400,10.679304443359374,24.804597854614258,1.0612168312072754,1.389631748199463
1747979709610585600,10.697585693359375,16.462020874023438,5.359922885894775,-2.699103832244873
1747979709628849400,10.715849365234375,11.429317474365234,7.334599494934082,-6.067001819610596
1747979709647117600,10.73411767578125,1.1581261157989502,-4.701298236846924,-4.975874900817871
1747979709665385500,10.752385498046875,-18.372093200683594,-10.320243835449219,-9.412766456604004
1747979709683648500,10.7706484375,-25.207788467407227,-10.564909934997559,-12.368500709533691
1747979709701912000,10.788912109375,-19.81077766418457,-9.675976753234863,3.858426570892334
1747979709720177400,10.807177490234375,-8.338987350463867,-13.227523803710938,1.929213285446167
1747979709738440400,10.8254404296875,-2.874378204345703,-16.0103759765625,-1.8406788110733032
1747979709756704500,10.84370458984375,0.9876375198364258,-18.64607048034668,-1.4225330352783203
1747979709774972000,10.861971923828126,3.6807594299316406,-15.586248397827148,-4.207778453826904
1747979709793242000,10.8802421875,-5.850451469421387,-28.625934600830078,-9.07418155670166
1747979709811507700,10.8985078125,0.1333998590707779,-30.621549606323242,0.4899304509162903
1747979709829773600,10.916773681640626,11.073385238647461,-27.540790557861328,4.124029636383057
1747979709848039400,10.935039306640626,17.602201461791992,-12.705887794494629,8.387441635131836
1747979709866304500,10.953304443359375,21.730419158935547,-16.540985107421875,17.54178237915039
1747979709884570000,10.971570068359375,18.312271118164062,-30.725038528442383,24.410978317260742
1747979709902835200,10.989835205078125,14.699109077453613,-28.97528839111328,42.437904357910156
1747979709921103000,11.00810302734375,13.395021438598633,-28.402206420898438,35.693138122558594
1747979709939367700,11.02636767578125,-131.7386474609375,-46.04927444458008,36.76512145996094
1747979709957633300,11.04463330078125,-9.482755661010742,-18.670597076416016,22.054645538330078
1747979709975899000,11.06289892578125,5.62373161315918,-9.17707347869873,8.179863929748535
1747979709994164000,11.0811640625,3.8913278579711914,-3.800400495529175,9.339186668395996
1747979710012426800,11.0994267578125,1.0534402132034302,-0.8763712644577026,5.819344520568848
1747979710030690800,11.11769091796875,0.9451649188995361,2.138585329055786,1.7587246894836426
1747979710048960500,11.13596044921875,-16.488941192626953,9.086145401000977,2.4191436767578125
1747979710067228400,11.154228515625,-2.241476535797119,6.813562393188477,0.9308080077171326
1747979710085493000,11.172492919921876,2.713460922241211,3.820739507675171,-0.16031911969184875
1747979710103758600,11.190758544921875,2.3778674602508545,2.5154547691345215,-0.5587241053581238
1747979710122025000,11.20902490234375,1.7186448574066162,1.5493526458740234,-0.9744769930839539
1747979710140287500,11.22728759765625,0.6927221417427063,0.5377869009971619,-1.0504491329193115
1747979710158558700,11.245558837890625,-2.9790642261505127,-1.164108157157898,-0.4660021960735321
1747979710176821200,11.2638212890625,-4.66779899597168,-3.6155550479888916,1.944766640663147
1747979710195087400,11.28208740234375,-2.348555326461792,-4.284946918487549,6.338587284088135
1747979710213353000,11.30035302734375,-23.28036880493164,-23.888147354125977,40.926239013671875
1747979710231618600,11.31861865234375,-19.54517364501953,-80.70990753173828,53.54957580566406
1747979710249884000,11.3368837890625,-16.21615982055664,-60.22256088256836,65.0165786743164
1747979710268149800,11.355149658203125,-11.270792961120605,-20.47478485107422,16.4315128326416
1747979710286410500,11.373410400390625,5.631507873535156,-10.473982810974121,7.675576686859131
1747979710304680000,11.391679931640626,8.195417404174805,-6.719046115875244,7.378866672515869
1747979710322947800,11.40994775390625,6.076572895050049,-0.10229317098855972,5.015954494476318
1747979710341213000,11.428212890625,5.269593715667725,1.033101201057434,-2.33180570602417
1747979710359478500,11.446478515625,3.67238450050354,-1.9100706577301025,-4.441677093505859
1747979710377744000,11.464743896484375,3.188436269760132,-3.0424740314483643,-3.4953157901763916
1747979710396009200,11.48300927734375,8.61894702911377,-3.6263227462768555,2.1643080711364746
1747979710414275600,11.501275634765625,19.28435516357422,-2.3886351585388184,4.122833251953125
1747979710432540700,11.519540771484374,22.745573043823242,1.3351950645446777,-1.4225330352783203
1747979710450806800,11.537806884765626,20.699111938476562,4.281956195831299,-9.281759262084961
1747979710469072000,11.55607177734375,8.052446365356445,3.5162527561187744,-8.188239097595215
1747979710487323600,11.57432373046875,-0.2997010350227356,-0.5641079545021057,-0.8871390223503113
1747979710505603800,11.592603759765625,-13.537992477416992,-5.4951171875,-2.6488547325134277
1747979710523868400,11.610868408203125,-22.48655128479004,-6.059823513031006,-0.8991031050682068
1747979710542128000,11.629128173828125,-12.358928680419922,-7.944170951843262,2.8929226398468018
1747979710560396800,11.647396728515625,-5.5244293212890625,-14.08714485168457,0.5736792087554932
1747979710578662000,11.665661865234375,-12.421142578125,-16.973487854003906,5.582455158233643
1747979710596933000,11.68393310546875,2.8109683990478516,-14.921642303466797,-3.64546537399292
1747979710615197400,11.702197509765625,8.01057243347168,-29.157142639160156,-18.479171752929688
1747979710633459000,11.720458984375,1.2831511497497559,-38.904903411865234,-5.703890800476074
1747979710651729000,11.73872900390625,4.435695171356201,-30.80699348449707,2.9718856811523438
1747979710669994800,11.756994873046875,4.378267288208008,-12.374482154846191,4.064807415008545
1747979710688260000,11.775260009765624,16.80658721923828,-11.47956657409668,12.623933792114258
1747979710706526500,11.7935263671875,27.557540893554688,-29.257640838623047,36.235111236572266
1747979710724791800,11.811791748046875,17.31805419921875,-38.87379837036133,30.954151153564453
1747979710743057400,11.830057373046875,9.457033157348633,-32.641090393066406,42.468414306640625
1747979710761323000,11.848322998046875,-43.24847412109375,-36.5485725402832,40.693538665771484
1747979710779588900,11.8665888671875,-34.47877883911133,-22.085752487182617,23.787647247314453
1747979710797852000,11.884851806640626,1.7066807746887207,-7.9519476890563965,7.300501823425293
1747979710816120000,11.9031201171875,2.5806591510772705,-4.858626365661621,8.201997756958008
1747979710834374700,11.921374755859375,1.934597134590149,-1.6253247261047363,8.112266540527344
1747979710852651500,11.939651611328125,-4.71744966506958,3.37687087059021,1.4763715267181396
1747979710870916600,11.95791650390625,-5.0087761878967285,6.361917018890381,2.4329023361206055
1747979710889182700,11.9761826171875,-0.29312077164649963,5.517251014709473,1.5032907724380493
1747979710907451400,11.994451416015625,0.3361915946006775,5.110470771789551,1.6785650253295898
1747979710925714400,12.01271435546875,0.6681957244873047,4.700101852416992,1.5146567821502686
1747979710943979500,12.0309794921875,1.3268201351165771,3.7609190940856934,1.033101201057434
1747979710962245400,12.049245361328126,1.3555340766906738,2.8109683990478516,0.6442674994468689
1747979710980510700,12.0675107421875,0.7423732280731201,2.011167526245117,1.189831018447876
1747979710998772000,12.08577197265625,-0.10648060590028763,0.6951149702072144,1.6588243246078491
1747979711017042200,12.104042236328125,-0.3314059376716614,-1.280758261680603,0.7956135272979736
1747979711035308000,12.12230810546875,-0.14416755735874176,-2.772084951400757,3.5431721210479736
1747979711053573000,12.140572998046874,-16.58584976196289,-21.64248275756836,25.098316192626953
1747979711071838500,12.15883837890625,3.6358940601348877,-103.18030548095703,52.48177719116211
1747979711090106400,12.1771064453125,-11.578868865966797,-53.01059341430664,52.648677825927734
1747979711108371200,12.19537109375,-14.746966361999512,-19.00977897644043,15.872190475463867
1747979711126636300,12.21363623046875,-0.8859425783157349,-10.860424041748047,9.678967475891113
1747979711144897800,12.231897705078126,1.461416482925415,-4.022933006286621,5.962316036224365
1747979711163168000,12.25016796875,3.855435371398926,0.14356936514377594,0.49651068449020386
1747979711181429800,12.2684296875,4.952544689178467,-0.5330012440681458,-2.486142635345459
1747979711199698400,12.286698486328126,6.623931407928467,-1.4195420742034912,-2.7637102603912354
1747979711217965300,12.30496533203125,11.4981107711792,-4.032504558563232,-4.342374801635742
1747979711236230400,12.32323046875,10.525428771972656,-2.246262311935425,-2.9790642261505127
1747979711254496300,12.341496337890625,20.73320960998535,3.2919256687164307,-3.682554006576538
1747979711272761300,12.35976123046875,21.71127700805664,8.038687705993652,-11.191231727600098
1747979711291027700,12.37802783203125,9.145368576049805,13.094721794128418,-2.7248268127441406
1747979711309292300,12.396292236328126,0.8123632669448853,0.31824541091918945,-2.4472594261169434
1747979711327559700,12.4145595703125,-3.8021950721740723,-3.971487283706665,-8.154141426086426
1747979711345823000,12.432822998046875,-12.859626770019531,-4.347758769989014,-11.6787691116333
1747979711364090000,12.451090087890625,-12.223135948181152,-5.953342914581299,-5.015356063842773
1747979711382356700,12.469356689453125,-6.728617191314697,-6.096313953399658,-1.0911271572113037
1747979711400616400,12.487616455078125,-3.8919260501861572,-9.630513191223145,-2.7284159660339355
1747979711418885600,12.5058857421875,-15.152549743652344,-18.625133514404297,0.49710890650749207
1747979711437154300,12.524154296875,7.980661869049072,-26.43889617919922,-17.69552230834961
1747979711455413800,12.542413818359375,-7.258627414703369,-45.2781867980957,-7.315456867218018
1747979711473684200,12.560684326171875,5.73978328704834,-35.17329788208008,4.397409915924072
1747979711491949600,12.578949462890625,9.811769485473633,-9.977472305297852,4.419543266296387
1747979711510216000,12.5972158203125,15.06999683380127,-7.919644832611084,9.466604232788086
1747979711528481300,12.615481201171875,27.199813842773438,-27.039493560791016,21.890737533569336
1747979711546746600,12.63374658203125,18.57488441467285,-33.862030029296875,23.698514938354492
1747979711565012200,12.65201220703125,19.256837844848633,-32.12065124511719,35.64647674560547
1747979711583279600,12.670279541015624,-26.864818572998047,-42.72325134277344,46.33042907714844
1747979711601542400,12.68854248046875,-57.52106475830078,-24.15554428100586,25.78685188293457
1747979711619807500,12.706807373046875,3.906881093978882,-10.807183265686035,9.400801658630371
1747979711638077000,12.725076904296875,7.1886372566223145,-6.410371780395508,7.314260482788086
1747979711656333000,12.7433330078125,1.7365909814834595,-2.541177749633789,8.479565620422363
1747979711674608400,12.7616083984375,0.5042873620986938,0.9308080077171326,4.7473602294921875
1747979711692873000,12.779873046875,-4.447659015655518,4.60139799118042,2.448455810546875
1747979711711138600,12.798138671875,-8.98803997039795,5.843871116638184,2.1780667304992676
1747979711729398800,12.816398681640624,0.45942193269729614,3.304488182067871,0.4749752879142761
1747979711747669000,12.8346689453125,2.324028968811035,2.235494613647461,-0.486939400434494
1747979711765934800,12.852934814453125,2.1649062633514404,1.2005987167358398,-1.5595221519470215
1747979711784199000,12.871198974609374,1.5326029062271118,0.7992027401924133,-1.7018951177597046
1747979711802467600,12.889467529296875,0.763310432434082,0.2189432680606842,-0.97926265001297
1747979711823019500,12.91001953125,-0.39960137009620667,-1.4422738552093506,0.4893322288990021
1747979711841282300,12.9282822265625,-6.2398834228515625,-3.658625841140747,3.159722328186035
1747979711859547100,12.946547119140625,-19.78804588317871,-15.137594223022461,21.076580047607422
1747979711877813200,12.964813232421875,-28.548168182373047,-46.0056037902832,40.356746673583984
1747979711896079600,12.98307958984375,9.608379364013672,-71.14160919189453,61.26702880859375
1747979711914344400,13.001344482421874,-21.1387939453125,-29.96531867980957,46.20779800415039
1747979711932605200,13.019605224609375,1.0875378847122192,-15.123835563659668,19.469799041748047
1747979711950875100,13.037875244140626,4.4620161056518555,-7.3052873611450195,9.915258407592773
1747979711969138400,13.056138427734375,8.682954788208008,-1.6965112686157227,0.31824541091918945
1747979711987407000,13.074406982421875,12.544970512390137,0.7405785918235779,-1.3950155973434448
1747979712005672700,13.092672607421875,12.258430480957031,0.2548356056213379,0.9098708033561707
1747979712023938600,13.1109384765625,12.969696998596191,0.6299105882644653,2.431705951690674
1747979712042205200,13.129205078125,19.00080680847168,-0.802193820476532,2.685943365097046
1747979712060469800,13.1474697265625,19.933408737182617,-1.3872389793395996,-2.4233310222625732
1747979712078735400,13.1657353515625,18.30270004272461,-1.40279221534729,-10.48953628540039
1747979712097000700,13.184000732421875,-5.834897994995117,-2.9838497638702393,-17.483158111572266
1747979712115267000,13.20226708984375,-16.345970153808594,-0.46061834692955017,-9.008976936340332
1747979712133533400,13.220533447265625,-13.803595542907715,-1.4063814878463745,-10.586445808410645
1747979712151797000,13.238796875,-9.960124015808105,-2.179861545562744,-6.637091636657715
1747979712170064100,13.257064208984374,-5.959922790527344,-4.593023300170898,-1.280758261680603
1747979712188325600,13.27532568359375,-4.436891555786133,-8.565108299255371,-1.568495273590088
1747979712206594300,13.29359423828125,-14.370694160461426,-19.19582176208496,2.6626133918762207
1747979712224861400,13.311861328125,-2.712862730026245,-30.656843185424805,-8.416753768920898
1747979712243121400,13.330121337890626,8.400602340698242,-63.827945709228516,-2.1343977451324463
1747979712261393400,13.348393310546875,1.301695466041565,-29.929426193237305,8.678169250488281
1747979712279657700,13.36665771484375,8.46580696105957,-7.345965385437012,2.9934210777282715
1747979712297922800,13.3849228515625,19.056440353393555,-7.294519901275635,6.495316982269287
1747979712316189000,13.40318896484375,22.434507369995117,-21.60599136352539,16.570894241333008
1747979712334455800,13.421455810546876,15.318252563476562,-32.00579833984375,28.3052978515625
1747979712352720100,13.43972021484375,18.293128967285156,-39.26622009277344,42.683170318603516
1747979712370985700,13.45798583984375,-45.05385971069336,-40.15874099731445,38.90071487426758
1747979712389251600,13.47625146484375,-52.91667556762695,-25.10848617553711,24.479772567749023
1747979712407517000,13.494516845703124,3.476173162460327,-9.877572059631348,10.047462463378906
1747979712425784300,13.512784423828125,6.724429607391357,-8.280961036682129,5.587839126586914
1747979712444043300,13.531043212890625,2.4287149906158447,-2.939582586288452,5.617749214172363
1747979712462314200,13.549314208984375,-0.908674418926239,1.042074203491211,2.9958138465881348
1747979712480581000,13.5675810546875,-3.61435866355896,1.8346967697143555,0.10229317098855972
1747979712498846000,13.585845947265625,-10.252646446228027,5.504688262939453,0.049651071429252625
1747979712517107200,13.604107177734376,-4.938786029815674,3.4570305347442627,-0.06819544732570648
1747979712535372000,13.6223720703125,2.6865415573120117,1.9423737525939941,-1.3196417093276978
1747979712553643800,13.640643798828124,2.149951219558716,1.1210373640060425,-0.8153542876243591
1747979712571908000,13.658908203125,0.5778666734695435,1.1718848943710327,0.18484555184841156
1747979712590177300,13.67717724609375,-0.22432711720466614,1.1910275220870972,0.6227321028709412
1747979712608439600,13.695439453125,-0.3595215976238251,0.6370890140533447,1.3459627628326416
1747979712626706200,13.7137060546875,-0.8913264274597168,-1.1114661693572998,2.4771697521209717
1747979712644970800,13.731970703125,-1.6737794876098633,-5.944967746734619,10.491331100463867
1747979712663224600,13.750224609375,-24.675384521484375,-35.78824996948242,43.990848541259766
1747979712681502200,13.768502197265626,-4.59003210067749,-82.84310913085938,30.56950569152832
1747979712699759400,13.78675927734375,1.8634105920791626,-56.10391616821289,35.29951858520508
1747979712718033400,13.805033447265625,-19.079769134521484,-22.073190689086914,27.7824649810791
1747979712736287200,13.823287353515624,-5.843272686004639,-13.307085037231445,16.02712631225586
1747979712754564000,13.841564208984375,-1.6893328428268433,-7.738388538360596,10.29332447052002
1747979712772832000,13.85983203125,4.330410957336426,-2.5669004917144775,1.0917253494262695
1747979712791085300,13.878085205078126,6.566503524780273,-1.765903115272522,-2.3395824432373047
1747979712809361700,13.896361572265626,8.367700576782227,-1.965105652809143,-2.4562325477600098
1747979712827627300,13.914627197265625,19.228124618530273,-3.6293137073516846,-2.5471596717834473
1747979712845881900,13.9328818359375,24.15554428100586,-2.693121910095215,0.706480860710144
1747979712864148700,13.951148681640625,24.818954467773438,4.589433670043945,0.5814558863639832
1747979712882424000,13.969424072265625,18.512670516967773,9.147761344909668,-2.32761812210083
1747979712900690200,13.987690185546874,5.794219970703125,7.743174076080322,-1.5014961957931519
1747979712918956500,14.00595654296875,3.0000014305114746,-0.33858439326286316,-2.630908489227295
1747979712937221400,14.024221435546876,1.2693923711776733,-6.52044153213501,-7.428517818450928
1747979712955486700,14.04248681640625,-25.71207618713379,-11.299507141113281,-16.37887191772461
1747979712973752000,14.060751953125,-24.11606216430664,-13.069597244262695,-12.6885404586792
1747979713001147000,14.08814697265625,-6.55693244934082,-17.64467430114746,-2.4699912071228027
1747979713019416000,14.106416015625,-10.457233428955078,-22.84188461303711,-0.7016952633857727
1747979713037683000,14.124682861328125,-8.94257640838623,-46.1258430480957,-9.968499183654785
1747979713055948300,14.1429482421875,-7.040282249450684,-44.34199523925781,2.2893331050872803
1747979713074214000,14.1612138671875,6.958926677703857,-20.20319938659668,8.913862228393555
1747979713092479200,14.179479248046874,36.60420608520508,-5.5998029708862305,11.130812644958496
1747979713110744600,14.19774462890625,22.119850158691406,-5.336592674255371,4.703691005706787
1747979713129010700,14.2160107421875,12.457035064697266,-15.158531188964844,4.3208394050598145
1747979713147276000,14.234276123046875,12.65324592590332,-22.17009925842285,25.106691360473633
1747979713165541600,14.252541748046875,7.194021224975586,-28.93520736694336,35.44727325439453
1747979713183807500,14.270807373046875,14.715261459350586,-33.99483108520508,31.730623245239258
1747979713202061300,14.289061279296876,-56.551971435546875,-43.5948371887207,42.52643966674805
1747979713220339200,14.307339111328124,-27.703502655029297,-24.6682071685791,23.50290298461914
1747979713238592500,14.325592529296875,2.843869686126709,-10.787442207336426,9.4061861038208
1747979713256870400,14.343870361328126,2.6285157203674316,-5.983851432800293,8.217551231384277
1747979713275123200,14.362123291015624,0.4983053207397461,-1.4231312274932861,5.388038158416748
1747979713293402000,14.380402099609375,1.7838492393493652,2.5812573432922363,1.272383451461792
1747979713311667000,14.3986669921875,-14.432908058166504,8.385048866271973,2.988635540008545
1747979713355047400,14.44204736328125,1.795215129852295,4.214957237243652,0.5401797294616699
1747979713373312500,14.4603125,1.2855439186096191,2.4879374504089355,-0.058624155819416046
1747979713391578400,14.478578369140624,1.2418749332427979,1.4518451690673828,-0.7154539823532104
1747979713409842700,14.4968427734375,0.9655039310455322,0.7028916478157043,-1.0121639966964722
1747979713430394400,14.517394287109376,0.6448656916618347,-0.753140926361084,0.8129615187644958
1747979713448659700,14.53565966796875,-0.6346961855888367,-1.5906288623809814,0.8895317912101746
1747979713466925300,14.55392529296875,-3.806980848312378,-2.633899450302124,2.9108686447143555
1747979713485191000,14.57219091796875,-19.85384750366211,-35.21696472167969,27.030521392822266
1747979713503457500,14.59045751953125,8.776275634765625,-96.43374633789062,47.33840560913086
1747979713521721600,14.6087216796875,-21.131614685058594,-40.92564392089844,52.988460540771484
1747979713539988500,14.626988525390624,-9.365508079528809,-19.652252197265625,16.9058895111084
1747979713558248700,14.645248779296875,4.019941806793213,-12.400205612182617,8.23968505859375
1747979713585649400,14.6726494140625,5.598606586456299,-5.4556355476379395,-1.168893814086914
1747979713603920000,14.690919921875,6.5766730308532715,-2.1786649227142334,-4.5308098793029785
1747979713622183200,14.70918310546875,6.095715522766113,-1.0612168312072754,-3.1926236152648926
1747979713640449000,14.727448974609375,8.556734085083008,-2.6949164867401123,-3.7130625247955322
1747979713658714600,14.745714599609375,16.908283233642578,-2.135594129562378,0.47796630859375
1747979713676980200,14.763980224609375,26.61117935180664,1.8179470300674438,-2.7044878005981445
1747979713695236000,14.782236083984374,24.374486923217773,9.41336441040039,-10.026525497436523
1747979713713511400,14.800511474609374,11.886944770812988,16.24786376953125,-7.045666217803955
1747979713731776800,14.81877685546875,-8.764310836791992,0.04127619042992592,-5.665007591247559
1747979713750043600,14.837043701171876,-16.106088638305664,-2.772084951400757,-6.567101955413818
1747979713768308500,14.85530859375,-14.342578887939453,-3.9930226802825928,-9.119047164916992
1747979713786573600,14.873573486328125,-9.590433120727539,-4.671986103057861,-2.5920250415802
1747979713804840400,14.89184033203125,-5.127819061279297,-6.491129398345947,0.5072783827781677
1747979713823105800,14.910105712890624,-1.1024930477142334,-9.799206733703613,-2.5974090099334717
1747979713841371100,14.92837109375,-1.207179069519043,-12.471391677856445,-4.013959884643555
1747979713859624400,14.94662451171875,-1.0564311742782593,-17.72184181213379,0.3320041298866272
1747979713877890800,14.964890869140625,5.607579708099365,-23.94377899169922,-6.433701992034912
1747979713896157000,14.983156982421875,9.740582466125488,-63.687965393066406,-7.915457248687744
1747979713914434000,15.00143408203125,0.625723123550415,-47.5507698059082,3.5467612743377686
1747979713932699100,15.01969921875,1.252044439315796,-15.14477252960205,4.383651256561279
1747979713950964700,15.03796484375,10.704890251159668,-10.26341438293457,9.912267684936523
1747979713969230600,15.056230712890626,21.856042861938477,-20.587247848510742,20.748764038085938
1747979713987496200,15.07449609375,31.970502853393555,-25.920251846313477,35.802608489990234
1747979714005762000,15.092761962890625,-7.63729190826416,-32.63271713256836,55.93581771850586
1747979714024027400,15.11102734375,-59.657257080078125,-21.739990234375,25.144378662109375
1747979714042293200,15.129293212890625,-7.764111042022705,-11.034502029418945,13.401601791381836
1747979714060557600,15.1475576171875,2.775076150894165,-9.551549911499023,1.2616157531738281
1747979714078825500,15.165825439453124,4.030111312866211,-5.675775527954102,4.584050178527832
1747979714097090300,15.18409033203125,2.1858434677124023,-2.321038007736206,3.3619158267974854
1747979714115350800,15.202350830078124,1.6671991348266602,1.3746765851974487,1.3986048698425293
1747979714133620700,15.220620849609375,0.06640082597732544,4.272983074188232,2.4191436767578125
1747979714151887400,15.238887451171875,-2.7571299076080322,8.165507316589355,3.8434712886810303
1747979714170148900,15.25714892578125,-0.3332005441188812,7.387241840362549,3.914059638977051
1747979714188418300,15.275418212890624,0.10767702013254166,6.781259536743164,4.2825541496276855
1747979714206684200,15.29368408203125,0.7339983582496643,5.62672233581543,4.376472473144531
1747979714224949800,15.31194970703125,-0.32243284583091736,3.3888349533081055,4.062414646148682
1747979714243215400,15.33021533203125,-1.2951152324676514,1.3112667798995972,3.0173492431640625
1747979714261481000,15.34848095703125,-0.10827522724866867,0.20817556977272034,3.166900873184204
1747979714279746300,15.366746337890625,0.31106695532798767,-1.4895321130752563,3.370290756225586
1747979714298011600,15.38501171875,0.5880361795425415,-5.544169902801514,7.963313579559326
1747979714316265700,15.403265625,-5.685346603393555,-36.61616897583008,25.77847671508789
1747979714334542800,15.42154296875,11.408978462219238,-91.30472564697266,48.074798583984375
1747979714352806000,15.439805908203125,-15.226726531982422,-37.09473419189453,37.526039123535156
1747979714371070000,15.458070068359374,-28.12523651123047,-17.600406646728516,18.647865295410156
1747979714389339400,15.47633935546875,-11.676376342773438,-15.62812328338623,10.485946655273438
1747979714407606500,15.4946064453125,-0.9804590940475464,-12.680763244628906,3.879363775253296
1747979714425871600,15.51287158203125,7.632505893707275,-7.864011764526367,0.9457631707191467
1747979714444126200,15.531126220703126,12.652647972106934,-4.907679080963135,-1.4350954294204712
1747979714462402600,15.549402587890626,13.205987930297852,-4.323830604553223,-3.7154552936553955
1747979714480668700,15.567668701171876,15.476179122924805,-4.057629108428955,-4.811966419219971
1747979714498934000,15.58593408203125,16.744972229003906,1.893320918083191,-4.515256404876709
1747979714517200000,15.604199951171875,16.322040557861328,7.849056243896484,-7.911868095397949
1747979714535465200,15.62246533203125,2.5525436401367188,10.39083194732666,0.1950150430202484
1747979714553731300,15.6407314453125,2.2881367206573486,0.8530412912368774,-4.382454872131348
1747979714581124900,15.668124755859376,2.768495798110962,-2.496312141418457,-7.864011764526367
1747979714599395600,15.6863955078125,-4.280161380767822,-5.13739013671875,-12.948161125183105
1747979714617661400,15.704661376953124,-16.543376922607422,-7.588837146759033,-8.053643226623535
1747979714635926500,15.722926513671876,-5.767300605773926,-9.849455833435059,-4.816751956939697
1747979714654192400,15.7411923828125,-4.738387107849121,-13.258031845092773,-5.419145107269287
1747979714672454000,15.759453857421875,6.504888534545898,-18.86381721496582,-11.877373695373535
1747979714690722600,15.77772265625,-8.73619556427002,-36.793235778808594,-17.56391716003418
1747979714708989400,15.795989501953125,5.90668249130249,-33.07359313964844,-2.373081922531128
1747979714727254800,15.8142548828125,7.359724044799805,-20.548364639282227,0.30508488416671753
1747979714745521400,15.832521484375,9.787242889404297,-10.124032974243164,0.7040880918502808
1747979714763786000,15.850785888671876,21.898513793945312,-18.01675796508789,14.70210075378418
1747979714782051600,15.869051513671875,17.925830841064453,-35.361732482910156,24.4935302734375
1747979714800317400,15.8873173828125,16.6055908203125,-37.62653732299805,29.871997833251953
1747979714818583300,15.905583251953125,10.430314064025879,-34.00559997558594,37.33760452270508
1747979714836849000,15.923848876953125,-91.09416198730469,-36.4211540222168,36.644283294677734
1747979714855109400,15.942109375,-32.45265579223633,-23.01715850830078,18.72323989868164
1747979714873379800,15.9603798828125,6.433103561401367,-14.824134826660156,4.3752760887146
1747979714891630300,15.97863037109375,6.690331935882568,-9.392427444458008,2.3018953800201416
1747979714919045400,16.00604541015625,0.9900303483009338,-0.39062830805778503,4.034298896789551
1747979714962420200,16.049420166015626,-10.86580753326416,6.893722057342529,3.589832067489624
1747979714980689200,16.067689208984376,0.6071787476539612,3.0520453453063965,0.7280163168907166
1747979714998954500,16.08595458984375,1.5517455339431763,1.9262222051620483,0.29850462079048157
1747979715017220400,16.104220458984376,1.6636099815368652,2.1822543144226074,0.8392825126647949
1747979715035486500,16.122486572265625,0.6891329288482666,1.8735800981521606,0.9553344249725342
1747979715053751600,16.14075146484375,-0.13938191533088684,1.378864049911499,0.7890332937240601
1747979715072017400,16.159017333984377,-0.29790642857551575,0.8524430394172668,1.2095718383789062
1747979715090283300,16.177283203125,-0.3367897868156433,-0.6340979933738708,1.2747762203216553
1747979715108548600,16.195548583984376,-0.14117653667926788,-1.9465612173080444,1.5499508380889893
1747979715126815000,16.21381494140625,0.1537388563156128,-6.917052268981934,10.485946655273438
1747979715145061000,16.23206103515625,-14.988042831420898,-40.828731536865234,42.96432876586914
1747979715163345700,16.250345703125,17.069799423217773,-82.56912994384766,65.09375
1747979715181610200,16.2686103515625,-66.00481414794922,-41.59144592285156,37.808990478515625
1747979715199879400,16.28687939453125,-19.345970153808594,-20.344375610351562,9.854242324829102
1747979715218140400,16.305140380859374,0.46360939741134644,-15.527624130249023,7.11565637588501
1747979715236403500,16.323403564453123,11.398210525512695,-10.307682037353516,5.36769962310791
1747979715254669300,16.34166943359375,10.587641716003418,-3.4271202087402344,0.7734799385070801
1747979715272938200,16.359938232421875,7.943572998046875,-0.7459624409675598,-1.3549357652664185
1747979715291206000,16.378205810546874,7.5912299156188965,-0.40319061279296875,-3.2237303256988525
1747979715309470700,16.396470703125,9.467801094055176,-1.196411371231079,-3.8219358921051025
1747979715327736600,16.414736572265625,9.032307624816895,0.5353940725326538,-3.105883836746216
1747979715346002000,16.433001953125,13.545768737792969,6.267998695373535,-0.14715859293937683
1747979715364267300,16.451267333984376,22.8700008392334,18.061025619506836,-1.3513466119766235
1747979715382533400,16.469533447265626,8.215158462524414,11.422737121582031,-1.7258232831954956
1747979715400799000,16.487799072265624,-0.2757728099822998,-1.4207384586334229,-3.4229328632354736
1747979715419064300,16.506064208984377,-8.670990943908691,-4.784449100494385,-8.555537223815918
1747979715437329200,16.5243291015625,-15.53240966796875,-5.8343000411987305,-7.427919864654541
1747979715455597000,16.54259716796875,-8.844470977783203,-6.049055576324463,-1.679761528968811
1747979715473860900,16.56086083984375,-7.144968509674072,-9.19442081451416,3.1094729900360107
1747979715492128000,16.5791279296875,-25.593032836914062,-17.75354766845703,12.147762298583984
1747979715510388700,16.597388671875,-0.2949153780937195,-23.079971313476562,-8.982656478881836
1747979715528653800,16.61565380859375,9.131608963012695,-55.788658142089844,-9.384650230407715
1747979715546924000,16.633924072265625,3.057429075241089,-40.4859619140625,3.549154281616211
1747979715565189400,16.652189453125,7.856832981109619,-16.406986236572266,0.27816563844680786
1747979715601720800,16.688720947265626,15.580864906311035,-13.462019920349121,6.8554368019104
1747979715619987000,16.706987060546876,17.623737335205078,-29.924640655517578,22.80240249633789
1747979715638252000,16.725251953125,17.445470809936523,-36.14897155761719,37.33281707763672
1747979715656517600,16.743517578125,7.688737392425537,-37.672000885009766,43.80420684814453
1747979715674783500,16.761783447265625,-66.75137329101562,-28.93461036682129,43.35734939575195
1747979715693049300,16.78004931640625,-34.3058967590332,-10.923833847045898,21.861425399780273
1747979715711314400,16.798314453125,2.069791555404663,-5.446662425994873,5.294718265533447
1747979715729580300,16.816580322265626,6.259624004364014,-4.881956577301025,5.663811206817627
1747979715747844900,16.834844970703124,2.163709878921509,-0.5676971673965454,6.348756790161133
1747979715766108200,16.853108154296876,1.153340458869934,2.5986053943634033,2.1032910346984863
1747979715784376300,16.871376220703127,1.9465612173080444,5.330012321472168,0.11605189740657806
1747979715802644200,16.889644287109373,-2.730210542678833,5.309673309326172,0.7381857633590698
1747979715820908500,16.907908447265626,-8.283353805541992,5.6207404136657715,-0.11964113265275955
1747979715839174700,16.926174560546876,-0.2350948303937912,2.9700911045074463,0.13160525262355804
1747979715857435400,16.944435302734377,0.6879364848136902,1.2789636850357056,-0.4612165689468384
1747979715875705600,16.96270556640625,0.24466611444950104,0.5066801905632019,-0.7286145091056824
1747979715921369900,17.008369873046874,0.03888336941599846,-0.8739784955978394,1.1539387702941895
1747979715939635200,17.02663525390625,-1.3405789136886597,-3.9661035537719727,7.776673793792725
1747979715957900800,17.04490087890625,-17.763118743896484,-28.521249771118164,43.80600357055664
1747979715976166100,17.063166259765627,-6.252445697784424,-67.77790069580078,28.649864196777344
1747979715994427100,17.08142724609375,21.59402847290039,-61.826351165771484,36.21596908569336
1747979716012699000,17.099698974609375,-17.566308975219727,-25.00858497619629,29.443084716796875
1747979716030963500,17.11796337890625,-18.390636444091797,-15.391233444213867,17.06680679321289
1747979716049228500,17.136228515625,-5.309673309326172,-10.764710426330566,6.460621356964111
1747979716067489800,17.15448974609375,1.319043517112732,-6.056233882904053,3.8123645782470703
1747979716085760300,17.17276025390625,3.431307554244995,-1.8592232465744019,0.016749758273363113
1747979716104024600,17.191024658203126,5.029115200042725,-1.1174482107162476,-1.755733609199524
1747979716122292500,17.20929248046875,5.264209747314453,-2.173879384994507,-3.259622573852539
1747979716149689300,17.236689453125,7.65164852142334,-4.336990833282471,-3.544966697692871
1747979716167956000,17.2549560546875,11.148160934448242,-1.7066807746887207,-1.1335997581481934
1747979716186208500,17.27320849609375,21.755542755126953,3.0011978149414062,-4.895116806030273
1747979716204487000,17.29148681640625,14.022539138793945,5.170291423797607,-6.113661766052246
1747979716222739700,17.30973974609375,5.592624664306641,6.052644729614258,-3.300898790359497
1747979716241018400,17.328018310546874,3.8949170112609863,3.128615617752075,-5.563910961151123
1747979716259283000,17.346282958984375,0.2632105052471161,-0.3601198196411133,-5.335994720458984
1747979716277545000,17.364544921875,-14.304293632507324,-5.044668197631836,-2.479562520980835
1747979716295812900,17.382812744140626,-23.83550453186035,-10.962119102478027,5.7164530754089355
1747979716314080800,17.401080810546876,-18.018552780151367,-10.785049438476562,6.306283950805664
1747979716332347000,17.419346923828126,7.617550849914551,-11.470593452453613,-11.22652530670166
1747979716350612500,17.437612548828124,10.341779708862305,-29.75056266784668,-15.275779724121094
1747979716368878300,17.45587841796875,3.7716867923736572,-45.686161041259766,-5.953342914581299
1747979716387141400,17.474141357421875,4.387838363647461,-28.024738311767578,9.738788604736328
1747979716405403400,17.4924033203125,3.0999016761779785,-10.980663299560547,6.049654006958008
1747979716423675000,17.5106748046875,8.356932640075684,-14.45743465423584,9.720842361450195
1747979716441936100,17.52893603515625,18.72682762145996,-29.18346405029297,23.656641006469727
1747979716460209000,17.547208984375,13.668400764465332,-36.623348236083984,20.94078826904297
1747979716478471000,17.565470947265624,14.46341609954834,-25.816164016723633,29.419754028320312
1747979716496737300,17.5837373046875,-6.3738813400268555,-25.9782772064209,30.067611694335938
1747979716515001900,17.602001953125,-83.59564971923828,-14.185251235961914,23.710479736328125
1747979716533268000,17.62026806640625,0.42771705985069275,-3.0418758392333984,10.763514518737793
1747979716551532300,17.6385322265625,6.591628074645996,-0.7657032608985901,3.823132276535034
1747979716569801200,17.65680126953125,3.0652058124542236,1.3549357652664185,3.1926236152648926
1747979716588061400,17.6750615234375,1.4243277311325073,6.251847267150879,5.350949764251709
1747979716606333700,17.693333740234376,-19.563718795776367,14.663217544555664,12.037094116210938
1747979716624591000,17.711591064453124,-2.3647069931030273,6.22193717956543,4.086941242218018
1747979716642861000,17.729861083984375,0.859621524810791,0.4055834412574768,2.6177480220794678
1747979716661128000,17.7481279296875,-4.359124660491943,-3.888935089111328,-0.21355941891670227
1747979716679389200,17.76638916015625,-7.813164234161377,-11.36351490020752,1.0223335027694702
1747979716697649000,17.78464892578125,-8.585447311401367,-20.659629821777344,13.909478187561035
1747979716715925000,17.802925048828126,-6.641279220581055,-32.27080154418945,21.168106079101562
1747979716734188800,17.821188720703127,-9.06401252746582,-55.44050598144531,22.709680557250977
1747979716752456000,17.8394560546875,-1.1240284442901611,-45.16213607788086,59.1410026550293
1747979716770720800,17.857720703125,-4.243072986602783,-28.733015060424805,33.029327392578125
1747979716788987400,17.8759873046875,3.142374277114868,-14.188241958618164,14.4861478805542
1747979716807252000,17.894251953125,2.6368906497955322,-7.334599494934082,5.888138294219971
1747979716825518300,17.912518310546876,8.048258781433105,-3.857828378677368,-0.32183465361595154
1747979716843783200,17.930783203125,10.875378608703613,-3.002394199371338,-1.4219348430633545
1747979716862049800,17.9490498046875,11.230712890625,-5.54177713394165,-3.9086756706237793
1747979716880314400,17.967314453125,20.45803451538086,-1.933998942375183,3.159722328186035
1747979716898576600,17.98557666015625,22.109682083129883,1.6426727771759033,-0.5599204897880554
1747979716916844800,18.0038447265625,20.16611099243164,8.931808471679688,-6.609574317932129
1747979716935113500,18.022113525390626,13.440485000610352,10.04148006439209,-17.191831588745117
1747979716953376800,18.040376708984375,-8.549555778503418,0.50907301902771,-14.010574340820312
1747979716971640300,18.058640380859377,-24.239294052124023,-2.2707886695861816,-12.497114181518555
1747979716989911000,18.0769111328125,-22.815563201904297,-3.2506494522094727,-10.741978645324707
1747979717008171800,18.095171875,-16.58884048461914,-5.61236572265625,-0.8967102766036987
1747979717026437600,18.113437744140626,-13.62174129486084,-10.14317512512207,1.5487544536590576
1747979717044705800,18.131705810546876,-1.3627125024795532,-15.7429780960083,-4.741976261138916
1747979717062971000,18.149970947265626,7.10429048538208,-37.87240219116211,-13.965110778808594
1747979717081237200,18.1682373046875,12.406187057495117,-64.76473236083984,-2.933600664138794
1747979717099501300,18.186501220703125,24.525236129760742,-39.6616325378418,12.973286628723145
1747979717117768200,18.204768310546875,17.991634368896484,-13.335799217224121,6.453442573547363
1747979717136028700,18.223028564453124,5.497509956359863,-23.62314224243164,5.447858810424805
1747979717154298400,18.24129833984375,11.93779182434082,-33.56352615356445,15.381662368774414
1747979717172565200,18.259565185546876,13.62772274017334,-31.167112350463867,37.48236846923828
1747979717190829300,18.277829345703125,12.911670684814453,-28.267610549926758,33.15494918823242
1747979717209097000,18.296096923828124,-28.212575912475586,-26.377878189086914,40.76592254638672
1747979717227362000,18.314362060546873,-53.201419830322266,-15.0484619140625,30.046674728393555
1747979717245627000,18.332626953125,3.9320058822631836,-3.19860577583313,16.64267921447754
1747979717263893800,18.350893798828125,3.4917263984680176,-2.882154941558838,8.398807525634766
1747979717282157300,18.3691572265625,5.43290376663208,-1.2478569746017456,7.014559745788574
1747979717300410600,18.38741064453125,6.832107067108154,4.196412563323975,2.4711875915527344
1747979717318683600,18.40568359375,-0.5515456199645996,6.7208404541015625,2.916252613067627
1747979717336956700,18.423956787109375,-14.815759658813477,8.096115112304688,4.628317356109619
1747979717355220500,18.442220458984377,-4.028316974639893,4.6989054679870605,1.892722725868225
1747979717373486800,18.46048681640625,0.8141579031944275,2.823530673980713,1.6265212297439575
1747979717391746600,18.47874658203125,0.9643075466156006,2.3330020904541016,1.4626128673553467
1747979717410016800,18.497016845703126,-0.20757736265659332,1.3076776266098022,0.22971096634864807
1747979717428284000,18.515283935546876,-2.2127628326416016,-0.0849452018737793,-1.317248821258545
1747979717446537700,18.533537841796875,-2.008774518966675,-1.9764715433120728,-0.8279166221618652
1747979717464814800,18.55181494140625,0.2189432680606842,-2.8791637420654297,1.882553219795227
1747979717483079200,18.5700791015625,0.03529413416981697,-9.026923179626465,8.50289535522461
1747979717501345500,18.588345458984374,-15.211174011230469,-34.219757080078125,22.207786560058594
1747979717519612000,18.60661181640625,-10.720443725585938,-64.80481719970703,22.494327545166016
1747979717537878500,18.62487841796875,-9.54197883605957,-70.97650146484375,1.893320918083191
1747979717556141300,18.643141357421875,-10.914261817932129,-24.548564910888672,23.962324142456055
1747979717574403300,18.6614033203125,0.39541393518447876,-15.899109840393066,25.4375
1747979717592669200,18.679669189453126,-2.234896421432495,-16.827526092529297,25.13121795654297
1747979717610939000,18.69793896484375,1.4679967164993286,-11.68295669555664,11.093125343322754
1747979717629205200,18.716205322265626,4.344169616699219,-4.7371907234191895,1.0911271572113037
1747979717647465700,18.7344658203125,7.344171047210693,-2.4640090465545654,-3.331407308578491
1747979717665735700,18.752735595703125,7.927421569824219,-1.7012969255447388,-2.4610180854797363
1747979717684003600,18.771003662109376,7.772486209869385,-1.3680963516235352,-1.83828604221344
1747979717702267100,18.78926708984375,11.607583045959473,-0.625723123550415,-0.6741777658462524
1747979717720532700,18.80753271484375,16.299907684326172,4.526622295379639,2.3886351585388184
1747979717738795800,18.825795654296876,17.196619033813477,13.348361015319824,1.4428720474243164
1747979717757063700,18.844063720703126,13.518251419067383,18.013168334960938,-4.922634601593018
1747979717775330300,18.862330322265624,0.9517452120780945,0.7447660565376282,-2.8773691654205322
1747979717793595100,18.88059521484375,-16.67498207092285,-4.641477584838867,-7.987840175628662
1747979717811861000,18.898861083984375,-15.969099998474121,-6.720242500305176,-6.892525672912598
1747979717830127400,18.91712744140625,-13.298111915588379,-9.038887977600098,-0.5886343717575073
1747979717848388400,18.935388427734374,-16.04148292541504,-13.36032485961914,4.944767951965332
1747979717866657800,18.95365771484375,-5.5932230949401855,-13.034302711486816,5.477170944213867
1747979717884924400,18.97192431640625,6.723831653594971,-7.382455825805664,-3.174079179763794
1747979717903184400,18.990184326171875,8.609375953674316,-16.17308807373047,-10.116255760192871
1747979717921454000,19.0084541015625,9.836296081542969,-28.106094360351562,-8.184649467468262
1747979717939721500,19.026721435546875,3.428316593170166,-34.58226776123047,-4.463810443878174
1747979717957986800,19.04498681640625,3.7088751792907715,-23.197816848754883,3.620340585708618
1747979717976251100,19.063251220703126,4.178466320037842,-18.287147521972656,5.955735683441162
1747979717994512600,19.0815126953125,9.43609619140625,-23.621347427368164,9.260223388671875
1747979718012782800,19.099782958984374,10.53081226348877,-33.011383056640625,13.152149200439453
1747979718031049200,19.11804931640625,15.324234008789062,-27.044878005981445,20.836101531982422
1747979718049313500,19.1363134765625,8.7505521774292,-25.878376007080078,31.933414459228516
1747979718067580400,19.154580322265623,-34.572696685791016,-18.091533660888672,51.686763763427734
1747979718085844500,19.172844482421876,-29.37010383605957,-6.959524631500244,26.677579879760742
1747979718104111600,19.191111572265626,-4.6540398597717285,-2.200200319290161,12.258430480957031
1747979718122377500,19.20937744140625,3.0897321701049805,-5.098506927490234,7.693522930145264
1747979718140642600,19.227642578125,5.454439163208008,-4.7024946212768555,5.842674732208252
1747979718158902800,19.24590283203125,2.623729944229126,-1.8305093050003052,3.3756744861602783
1747979718177173000,19.264173095703125,0.6293123364448547,0.08733802288770676,0.8147560954093933
1747979718195433000,19.282432861328125,-0.3397808074951172,0.9230313301086426,-0.3397808074951172
1747979718206811600,19.293811767578124,0.19920247793197632,1.1718848943710327,-1.0432707071304321
1747979718225118700,19.31211865234375,-4.216751575469971,2.490330219268799,-0.8434699773788452
1747979718243387400,19.330387451171877,-5.8061842918396,3.373879909515381,-0.10707881301641464
1747979718261653000,19.348653076171875,-0.2727817893028259,1.7886348962783813,0.038285162299871445
1747979718279918600,19.366918701171876,0.03469592705368996,0.8925228714942932,-0.22911277413368225
1747979718298184000,19.385183837890626,-0.8237292170524597,0.6364908218383789,-0.2566302418708801
1747979718316447500,19.403447509765623,0.2835494875907898,-0.12442677468061447,1.0085747241973877
1747979718334715400,19.42171533203125,0.5276173949241638,-1.1886346340179443,1.140179991722107
1747979718352981200,19.439981201171875,-2.8677978515625,-2.0470597743988037,2.9246275424957275
1747979718371246000,19.45824609375,-20.112272262573242,-34.91128158569336,25.759334564208984
1747979718389513000,19.476512939453126,8.8438720703125,-90.7848892211914,37.22992706298828
1747979718407777800,19.49477783203125,-18.993627548217773,-47.231327056884766,42.96492385864258
1747979718426043600,19.513043701171874,-5.248656272888184,-21.45404815673828,15.87458324432373
1747979718444308700,19.531308837890624,1.6354942321777344,-10.341180801391602,10.63370418548584
1747979718462574300,19.54957421875,0.4325026869773865,-4.18983268737793,5.5692949295043945
1747979718480836000,19.567836181640626,1.5128620862960815,-1.8185452222824097,0.6879364848136902
1747979718499104800,19.586104736328124,4.197608947753906,-2.293520450592041,-2.675773859024048
1747979718517372400,19.604372314453126,4.848456859588623,-3.1555347442626953,-3.8362929821014404
1747979718535637500,19.622637451171876,6.519245147705078,-3.2679975032806396,-4.625326156616211
1747979718553902800,19.64090283203125,9.379266738891602,-4.48833703994751,-5.651846885681152
1747979718572169000,19.6591689453125,13.99382495880127,-3.6185460090637207,-6.503692150115967
1747979718599566300,19.68656640625,18.719051361083984,4.350749969482422,-12.943974494934082
1747979718617834000,19.704833984375,5.066802024841309,8.37727165222168,-2.183450698852539
1747979718636100900,19.723100830078124,-0.714257538318634,4.633102893829346,1.4368900060653687
1747979718654363600,19.74136376953125,-5.281557559967041,-2.7314071655273438,-1.9046868085861206
1747979718672629200,19.759629150390627,-15.767504692077637,-5.0255255699157715,-3.9810585975646973
1747979718690883800,19.7778837890625,-18.147167205810547,-7.921439170837402,0.10827522724866867
1747979718709156400,19.79615625,-23.191835403442383,-17.88754653930664,4.038486480712891
1747979718727426300,19.81442626953125,14.415559768676758,-18.112470626831055,-14.777474403381348
1747979718745691600,19.832691650390625,18.828523635864258,-30.47738265991211,-13.314861297607422
1747979718763958500,19.85095849609375,2.7828526496887207,-32.41377258300781,-8.523832321166992
1747979718782218000,19.869218017578124,1.4434702396392822,-24.65325164794922,2.1403799057006836
1747979718800488400,19.887488525390626,3.4019956588745117,-19.26940155029297,4.743771076202393
1747979718818754300,19.90575439453125,8.277371406555176,-23.672792434692383,4.261018753051758
1747979718837021400,19.924021484375,11.10748291015625,-30.259037017822266,17.583059310913086
1747979718855284700,19.94228466796875,7.938787460327148,-35.67997741699219,15.733407020568848
1747979718873550000,19.960550048828125,15.912270545959473,-29.620752334594727,18.232112884521484
1747979718891816700,19.978816650390623,1.170688509941101,-30.19502830505371,46.72883605957031
1747979718910084600,19.997084716796873,-75.02815246582031,-15.285350799560547,39.60599899291992
1747979718928347100,20.01534716796875,-12.640684127807617,-4.071985721588135,19.78565216064453
1747979718946613500,20.033613525390624,4.65523624420166,-5.19960355758667,9.4061861038208
1747979718964878800,20.05187890625,3.9361932277679443,-5.0087761878967285,7.019345283508301
1747979718983141400,20.070141357421875,1.1994023323059082,-1.6366907358169556,4.512265205383301
1747979719001410300,20.088410400390625,0.16749759018421173,0.9080761671066284,1.6845471858978271
1747979719019675600,20.106675537109375,1.4398809671401978,2.149951219558716,0.44745782017707825
1747979719037936600,20.1249365234375,1.4500504732131958,3.551547050476074,0.35533416271209717
1747979719056207600,20.14320751953125,0.5144568681716919,2.65423846244812,0.24287149310112
1747979719074473200,20.16147314453125,0.39960137009620667,1.5487544536590576,-0.1579262912273407
1747979719092737800,20.17973779296875,0.4815555512905121,0.8578268885612488,-0.8841479420661926
1747979719111004000,20.19800390625,0.20338992774486542,0.5258227586746216,-1.4123635292053223
1747979719129262000,20.216261962890623,-0.8620143532752991,0.17288143932819366,-1.6683956384658813
1747979719147535600,20.23453564453125,0.37926238775253296,-0.42831525206565857,0.4265206456184387
1747979719165802200,20.25280224609375,-0.9104689955711365,-1.5379867553710938,1.44945228099823
1747979719184066300,20.27106640625,-1.6510475873947144,-2.194218397140503,2.0679969787597656
1747979719202332700,20.289332763671876,-25.390241622924805,-36.67060470581055,29.654251098632812
1747979719220584200,20.307584228515626,10.223334312438965,-81.85965728759766,40.71806335449219
1747979719238852600,20.3258525390625,-7.551748275756836,-45.45585250854492,46.39922332763672
1747979719257124000,20.3441240234375,-11.334202766418457,-20.3031005859375,22.025333404541016
1747979719275395000,20.36239501953125,-2.740978240966797,-11.32522964477539,9.756733894348145
1747979719293660000,20.380659912109376,2.8965117931365967,-8.118846893310547,2.5232315063476562
1747979719311924700,20.3989248046875,5.172684192657471,-4.953741073608398,-1.6761722564697266
1747979719330191600,20.417191650390624,4.858626365661621,-2.765504837036133,-3.3511481285095215
1747979719348457700,20.435457763671874,3.9152560234069824,-1.750349760055542,-2.933600664138794
1747979719366722300,20.453722412109375,4.546961307525635,-1.1335997581481934,-3.022733211517334
1747979719384987600,20.471987548828125,9.306285858154297,-0.5030909776687622,-3.768695592880249
1747979719403253500,20.49025341796875,16.715063095092773,1.9130617380142212,-6.128018856048584
1747979719421520100,20.50852001953125,21.566511154174805,4.889134883880615,-11.982059478759766
1747979719439784400,20.526784423828126,9.799206733703613,6.557530403137207,-10.894521713256836
1747979719458050300,20.54505029296875,1.9148563146591187,6.651448726654053,-1.551147222518921
1747979719476311600,20.5633115234375,-1.3040883541107178,-0.8566305041313171,-2.1296122074127197
1747979719494582000,20.58158203125,-12.507882118225098,-4.362115859985352,-2.806182861328125
1747979719512847400,20.599847412109376,-28.947172164916992,-11.166107177734375,5.379663467407227
1747979719531108000,20.618108154296873,-12.155538558959961,-9.589835166931152,1.9950158596038818
1747979719549373400,20.63637353515625,-3.6640095710754395,-13.682758331298828,-2.699702262878418
1747979719567644400,20.65464453125,10.434501647949219,-23.061426162719727,-11.766107559204102
1747979719585908700,20.67290869140625,0.49710890650749207,-34.7808723449707,-8.0955171585083
1747979719604176400,20.69117626953125,-0.8063812255859375,-27.156742095947266,1.2675977945327759
1747979719622440700,20.709440673828126,1.8592232465744019,-19.082162857055664,3.366103172302246
1747979719640707600,20.72770751953125,9.486345291137695,-18.604793548583984,2.0476579666137695
1747979719658971600,20.7459716796875,12.836297035217285,-23.81217384338379,10.579267501831055
1747979719677237800,20.76423779296875,10.718050956726074,-28.679176330566406,17.02313804626465
1747979719695502600,20.782502685546874,7.727620601654053,-25.61516571044922,15.888341903686523
1747979719713769500,20.80076953125,17.53281021118164,-19.841882705688477,19.674983978271484
1747979719732034300,20.819034423828125,-5.8995041847229,-27.40619468688965,46.8287353515625
1747979719750299600,20.837299560546874,-59.3760986328125,-12.790833473205566,36.36552047729492
1747979719768565000,20.85556494140625,-9.578469276428223,-3.528815269470215,16.352550506591797
1747979719786833000,20.8738330078125,2.6213371753692627,-3.9038901329040527,7.020541667938232
1747979719805098200,20.89209814453125,4.902893543243408,-4.242474555969238,5.73260498046875
1747979719823361500,20.910361572265625,0.7740781307220459,-1.4829518795013428,4.8329033851623535
1747979719841628400,20.92862841796875,0.1986042857170105,1.0235298871994019,2.1445672512054443
1747979719859894800,20.946894775390625,-1.1180464029312134,2.4502503871917725,2.1996021270751953
1747979719878155300,20.9651552734375,-4.373481750488281,4.975276470184326,2.3306093215942383
1747979719896420900,20.9834208984375,-3.2279176712036133,4.081557273864746,0.5353940725326538
1747979719914689800,21.001689697265626,0.3032902777194977,1.9555343389511108,-0.3445664644241333
1747979719932957400,21.01995751953125,0.9798609018325806,0.727418065071106,-1.306481122970581
1747979719951220000,21.038219970703125,1.2598211765289307,0.5533402562141418,-1.677966833114624
1747979719969488600,21.056488525390623,0.6963114142417908,-0.19740787148475647,0.3535395562648773
1747979719987751200,21.074751220703124,-0.7250252366065979,-1.0139585733413696,1.23589289188385
1747979720006020600,21.0930205078125,-0.6921239495277405,-1.8472590446472168,3.3409786224365234
1747979720024284000,21.111283935546876,-6.045466423034668,-23.277976989746094,16.810176849365234
1747979720042549000,21.129549072265625,-2.00518536567688,-82.04510498046875,34.42912673950195
1747979720060815600,21.147815673828124,0.8805587291717529,-48.31647491455078,38.87977981567383
1747979720079081200,21.166081298828125,-16.357933044433594,-17.34676742553711,33.8010139465332
1747979720097346600,21.1843466796875,-2.885145902633667,-10.197013854980469,19.98246192932129
1747979720115611600,21.202611572265624,1.832902193069458,-10.0612211227417,5.920441627502441
1747979720133877200,21.220877197265626,3.930211305618286,-6.3116679191589355,-0.4331009089946747
1747979720152139300,21.23913916015625,6.5521464347839355,-4.1006999015808105,-3.7334015369415283
1747979720170408700,21.25740869140625,6.241677761077881,-3.142972469329834,-3.8500516414642334
1747979720188674300,21.27567431640625,8.800801277160645,-3.895515203475952,-4.009772777557373
1747979720206929200,21.29392919921875,10.767104148864746,-3.314059257507324,-2.1104695796966553
1747979720225206800,21.312206787109375,17.250455856323242,-0.5694918036460876,-1.4632110595703125
1747979720268583200,21.355583251953124,15.182459831237793,8.331808090209961,-9.168100357055664
1747979720286849800,21.373849853515626,3.896711587905884,6.7310099601745605,-1.1772687435150146
1747979720305117400,21.392117431640624,-6.419344902038574,-4.65523624420166,-3.7489547729492188
1747979720323384800,21.410384765625,-22.900508880615234,-7.424330234527588,-7.533802032470703
1747979720341647600,21.428647705078124,-22.024137496948242,-10.137192726135254,-0.37507495284080505
1747979720359912000,21.446911865234377,-27.804000854492188,-14.936596870422363,9.358927726745605
1747979720378179800,21.465179931640623,15.28774356842041,-13.244871139526367,-9.083752632141113
1747979720396451800,21.483451904296874,25.563720703125,-23.944377899169922,-10.307682037353516
1747979720414710000,21.5017099609375,0.9020941257476807,-36.7998161315918,-8.554939270019531
1747979720432970800,21.519970703125,-14.20738410949707,-36.28296661376953,9.016754150390625
1747979720451240000,21.538239990234374,2.7314071655273438,-24.003002166748047,9.078369140625
1747979720469506000,21.556506103515623,14.329418182373047,-19.306489944458008,11.833703994750977
1747979720487771000,21.57477099609375,21.531814575195312,-26.060829162597656,25.25743865966797
1747979720506041300,21.593041259765624,16.057035446166992,-29.056644439697266,13.547563552856445
1747979720524303400,21.611303466796876,8.982057571411133,-26.757740020751953,32.32404327392578
1747979720542569200,21.6295693359375,-20.610578536987305,-26.308486938476562,43.17429733276367
1747979720560833500,21.64783349609375,-58.30351638793945,-15.853048324584961,26.04408073425293
1747979720579101200,21.66610107421875,-2.888136863708496,-6.9690961837768555,10.243673324584961
1747979720597365800,21.68436572265625,5.635097503662109,-6.946363925933838,3.4432718753814697
1747979720615631600,21.702631591796877,2.664407968521118,-3.6819558143615723,5.429314613342285
1747979720633897200,21.720897216796875,0.4570291340351105,-0.9882357716560364,4.180261135101318
1747979720652162300,21.739162353515624,0.24526432156562805,0.9355936646461487,2.3611178398132324
1747979720670423800,21.757423828125,-7.189833641052246,3.8745779991149902,4.524229526519775
1747979720688690200,21.775690185546875,-4.508676052093506,5.281557559967041,3.4301111698150635
1747979720706958000,21.7939580078125,0.31345975399017334,3.8662030696868896,2.2408783435821533
1747979720725226200,21.812226318359375,0.8955138921737671,2.3234307765960693,0.5491527915000916
1747979720743488000,21.830488037109376,0.5198407173156738,0.9852447509765625,-0.3320041298866272
1747979720761759000,21.848759033203127,0.2907279431819916,0.1453639715909958,-0.8392825126647949
1747979720782302700,21.869302734375,0.6759724020957947,-1.1001001596450806,0.4827519655227661
1747979720800572400,21.887572509765626,-0.6975077986717224,-1.8065811395645142,1.189831018447876
1747979720818838800,21.9058388671875,-14.377274513244629,-14.408381462097168,15.926029205322266
1747979720837107200,21.924107177734374,-8.61057186126709,-47.57828903198242,28.901708602905273
1747979720855369200,21.942369140625,2.0889341831207275,-73.7162857055664,26.827131271362305
1747979720873635000,21.960635009765625,-18.795621871948242,-30.635906219482422,38.283966064453125
1747979720891900000,21.97889990234375,-8.00638484954834,-15.514463424682617,16.386648178100586
1747979720910168800,21.9971689453125,3.850649833679199,-9.09392261505127,10.624731063842773
1747979720928431600,22.015431640625,6.33499813079834,-5.910272121429443,7.1958160400390625
1747979720946697500,22.033697509765624,4.470989227294922,-2.193620204925537,-1.5541383028030396
1747979720964958000,22.0519580078125,3.809373617172241,-2.1308085918426514,-4.90109920501709
1747979720983228700,22.070228759765627,2.6877379417419434,-3.3541390895843506,-4.596612453460693
1747979721001494000,22.088493896484376,2.124826431274414,-2.9168508052825928,-3.22552490234375
1747979721019759900,22.106759765625,2.8809585571289062,-2.093719720840454,-1.789831280708313
1747979721038025200,22.125025146484376,4.949553489685059,-0.6382854580879211,-0.6969096064567566
1747979721056291000,22.143291015625,7.957331657409668,1.6857435703277588,-1.8095721006393433
1747979721074556200,22.16155615234375,12.466008186340332,3.6921253204345703,-7.095317363739014
1747979721092822500,22.179822509765625,9.65683364868164,2.927020311355591,-8.429914474487305
1747979721111088600,22.198088623046875,2.9030921459198,4.211966037750244,-2.104487419128418
1747979721129353200,22.216353271484376,0.5587241053581238,3.3613176345825195,0.6215356588363647
1747979721147618800,22.234618896484374,-1.103689432144165,-2.84087872505188,-1.252044439315796
1747979721165884400,22.252884521484376,-30.551559448242188,-10.716256141662598,8.908478736877441
1747979721184146400,22.271146484375,-25.56671142578125,-16.75394630432129,13.95553970336914
1747979721202415900,22.289415771484375,6.524031162261963,-16.220346450805664,-12.242279052734375
1747979721220676600,22.307676513671876,12.608979225158691,-25.02533531188965,-20.106887817382812
1747979721238946300,22.3259462890625,7.200003147125244,-25.444080352783203,-7.505686283111572
1747979721257213000,22.344212890625,5.656034469604492,-29.504100799560547,1.7461622953414917
1747979721275478300,22.362478271484374,-0.2841476798057556,-19.127626419067383,7.328617572784424
1747979721293743900,22.380743896484375,2.149951219558716,-21.246471405029297,11.928220748901367
1747979721312009200,22.39900927734375,6.20638370513916,-28.953752517700195,23.11347007751465
1747979721330274800,22.41727490234375,3.851248025894165,-30.675987243652344,16.451852798461914
1747979721348540400,22.43554052734375,13.209577560424805,-23.34856605529785,17.812171936035156
1747979721366806000,22.453805908203126,3.479762315750122,-22.099512100219727,32.51008605957031
1747979721385071600,22.472071533203124,-77.8684310913086,-17.974884033203125,31.2269344329834
1747979721403337500,22.49033740234375,-19.104894638061523,-8.927022933959961,20.761924743652344
1747979721421602300,22.508602294921875,5.4179487228393555,-6.000002861022949,7.922037601470947
1747979721439869200,22.526869140625,4.762913703918457,-4.681557655334473,6.446264266967773
1747979721458129400,22.54512939453125,0.7854440212249756,-2.038684844970703,5.662614822387695
1747979721476395000,22.56339501953125,-0.06400800496339798,0.37507495284080505,3.1136605739593506
1747979721494664700,22.581664794921874,-9.108877182006836,3.867997884750366,3.631706476211548
1747979721512931600,22.599931640625,-2.8002007007598877,2.5573291778564453,1.1318050622940063
1747979721531196400,22.618196533203125,0.5593222975730896,2.0476579666137695,0.4899304509162903
1747979721549462000,22.6364619140625,0.8937192559242249,1.4925230741500854,-0.028115665540099144
1747979721567727400,22.654727294921877,0.7178468108177185,1.1838489770889282,-0.5437689423561096
1747979721585992200,22.6729921875,0.5030909776687622,0.7806583642959595,-0.486939400434494
1747979721604258800,22.6912587890625,0.39960137009620667,0.08255238085985184,0.2877369225025177
1747979721622525700,22.709525634765626,-0.2991028428077698,-1.1461620330810547,1.0977073907852173
1747979721640790000,22.7277900390625,-1.2436695098876953,-2.1296122074127197,2.423929452896118
1747979721659055400,22.746055419921873,-29.95454978942871,-31.246076583862305,38.30490493774414
1747979721677321200,22.7643212890625,-1.6061822175979614,-84.26803588867188,35.148170471191406
1747979721695585800,22.782585693359376,-15.168102264404297,-52.79104995727539,47.70391082763672
1747979721713852700,22.800852783203126,-15.713068008422852,-20.74397850036621,25.32025146484375
1747979721732113000,22.81911279296875,0.3439682424068451,-11.827722549438477,12.485748291015625
1747979721750382800,22.8373828125,6.107081413269043,-7.228118896484375,7.079763889312744
1747979721768649700,22.855649658203124,4.037290096282959,-2.940180778503418,0.8195417523384094
1747979721786914800,22.873914794921873,3.888935089111328,-0.13459627330303192,-3.257229804992676
1747979721805180200,22.89218017578125,3.879363775253296,-0.19202402234077454,-2.9551360607147217
1747979721823445500,22.910445556640624,5.096712112426758,-0.09870393574237823,-2.799004316329956
1747979721841711400,22.92871142578125,9.619147300720215,-2.4047868251800537,-2.888735055923462
1747979721859964700,22.946964599609377,19.466211318969727,-0.9224331378936768,0.7334001660346985
1747979721878242600,22.96524267578125,20.288145065307617,1.657029628753662,-2.334796667098999
1747979721896504000,22.983504150390626,12.336795806884766,4.400999069213867,-5.516652584075928
1747979721914774000,23.00177392578125,5.938985824584961,3.731606960296631,-4.058227062225342
1747979721933038800,23.020038818359374,0.02392822690308094,0.6909275650978088,-2.8869404792785645
1747979721951305000,23.038304931640624,-13.202399253845215,-4.658227443695068,-5.36769962310791
1747979721969569500,23.056569580078126,-17.081165313720703,-6.358327865600586,-3.7770705223083496
1747979721987836700,23.074836669921876,-13.810175895690918,-8.10269546508789,0.14117653667926788
1747979722006105600,23.093105712890626,-18.27099609375,-14.062618255615234,2.1655044555664062
1747979722024367400,23.111367431640623,-0.46899324655532837,-15.166308403015137,-4.324428558349609
1747979722042632700,23.1296328125,20.94736671447754,-29.65006446838379,-10.992627143859863
1747979722060898600,23.147898681640626,0.737587571144104,-31.440492630004883,-4.081557273864746
1747979722079159000,23.166158935546875,-0.7908278703689575,-25.6235408782959,4.012763500213623
1747979722097429500,23.184429443359374,3.9768712520599365,-14.527424812316895,3.190829038619995
1747979722115695000,23.202695068359375,14.79123306274414,-16.311872482299805,5.747560024261475
1747979722133961000,23.2209609375,19.575681686401367,-26.271398544311523,22.573888778686523
1747979722152226600,23.2392265625,14.222339630126953,-35.505897521972656,18.84108543395996
1747979722170492200,23.2574921875,24.397220611572266,-26.11048126220703,31.886754989624023
1747979722188757800,23.2757578125,-5.939583778381348,-30.059833526611328,46.349571228027344
1747979722207023000,23.294023193359376,-63.95955276489258,-18.01675796508789,25.755146026611328
1747979722225288700,23.312288818359374,-4.402195453643799,-6.923034191131592,15.490535736083984
1747979722243553800,23.3305537109375,4.986044406890869,-6.099903106689453,6.31944465637207
1747979722261819100,23.348819091796877,4.801198482513428,-3.2141590118408203,6.1124653816223145
1747979722305199600,23.39219970703125,0.17587246000766754,2.3988046646118164,0.9385846853256226
1747979722323465200,23.41046533203125,-9.646066665649414,7.496115207672119,3.6406795978546143
1747979722341730000,23.42872998046875,-3.5682966709136963,7.347760200500488,2.2019951343536377
1747979722359992800,23.446992919921875,1.1730812788009644,4.692923545837402,0.98703932762146
1747979722378264300,23.465264404296875,1.090528964996338,2.555534601211548,0.10468599200248718
1747979722396523300,23.483523193359375,0.44805604219436646,1.0001999139785767,-0.45104706287384033
1747979722414793200,23.501793212890625,-0.19561325013637543,-0.4408775866031647,0.2991028428077698
1747979722426209500,23.51320947265625,0.7668996453285217,-1.9932212829589844,1.7964116334915161
