time,seconds_elapsed,z,y,x
1747234894527294000,0.0432939453125,0.020744097343087194,-0.6135885558255016,-0.540493655128777
1747234894537322800,0.05332275390625,-0.603711743324995,-0.8364391337037086,-0.756867876599729
1747234894547352800,0.063352783203125,-1.4638380420863628,-0.9380573874428868,-0.47487471633590755
1747234894557382000,0.0733818359375,-2.2931559456080195,-0.8513305594958365,0.014623130244761704
1747234894567411000,0.083410888671875,-2.738116219869256,-0.5223099097929894,0.22029446365460753
1747234894577439700,0.093439697265625,-2.7573861530065535,-0.04142988862767815,-0.016099669070728122
1747234894587468800,0.10346875,-2.570187172615528,0.35578488411828874,-0.3179983569616452
1747234894597497900,0.113497802734375,-2.1530577390879393,0.5335451511651277,-0.3758960538526997
1747234894607526700,0.123526611328125,-1.9252356564074753,0.794294813196361,-0.5008643131170422
1747234894617556000,0.133555908203125,-2.3669161783456802,0.8538657770618796,-0.4412557937201112
1747234894627585800,0.143585693359375,-2.6974095309495922,0.9441032434783876,0.20047712576761842
1747234894637614800,0.15361474609375,-1.5284031609773634,0.8245201478511095,0.9138984401550143
1747234894647644000,0.163643798828125,-1.4536755445122718,0.16643997773975133,1.834365152784437
1747234894657673000,0.1736728515625,-1.5563801321834325,-0.0012843407221138476,2.218870227691531
1747234894667702000,0.183701904296875,-1.7392793695539235,-0.1468635359365493,1.8725848471939563
1747234894677730800,0.193730712890625,-1.5797972481280564,-0.15050576489642262,1.1322168544963
1747234894687760000,0.203759765625,-1.5078566320329905,0.05221234473101794,0.7397589939538389
1747234894697790000,0.2137900390625,-1.9599965886652468,0.1694222814861685,0.8110274829410016
1747234894707818800,0.22381884765625,-2.1955723542124033,0.2648265560813248,0.6936641091898084
1747234894717847800,0.233847900390625,-2.1217828953802584,0.2956943168254569,0.4411328249275684
1747234894727876900,0.243876953125,-2.1114263365387917,0.31974483530279246,0.5339500787042081
1747234894737905700,0.25390576171875,-1.6833815412431954,0.8303099832989275,0.8197096788294613
1747234894747934700,0.263934814453125,-0.7290034258574247,1.7064029358685016,1.2744256234295666
1747234894757963800,0.2739638671875,0.371421575319767,2.291730588980019,1.9499325830295682
1747234894767992800,0.283992919921875,0.844523071438074,1.6024642763577401,2.623436824505031
1747234894778022700,0.294022705078125,0.6254290696144104,0.933309462263435,1.7706478828944265
1747234894788052000,0.304052001953125,0.4609913716077804,0.6326150355957448,0.8954150542855263
1747234894798081000,0.3140810546875,0.5065203661173582,0.37003019402660425,0.41485045574493706
1747234894808109800,0.32410986328125,0.13327800511121748,-0.33744163737185295,0.41982740390729156
1747234894818139000,0.334138916015625,-2.0013725551486012,-1.2398013231635092,1.8171236567348241
1747234894828168000,0.34416796875,-1.737169245532155,-1.9221561028316616,2.4859888402327894
1747234894838196700,0.35419677734375,0.01857318304479122,-1.1249002478726207,3.1290199097722766
1747234894848226800,0.364226806640625,0.9242682238042355,0.39534057637192305,3.706082131102681
1747234894858256000,0.374255859375,1.1482143418341875,1.1743451737169175,3.752234810468554
1747234894868285000,0.384284912109375,1.0569318964093923,1.167771567480266,3.405710068257153
1747234894878313700,0.394313720703125,0.8352168984323739,1.0786305910635738,2.5584850443840024
1747234894888342800,0.4043427734375,0.7531348275512456,0.8660456788729876,1.5278031492576003
1747234894898371800,0.414371826171875,0.7774082680642604,0.047319969579577445,0.6503562978610395
1747234894908401000,0.42440087890625,0.1792582505196333,-0.5310519461099058,-0.22208032415807247
1747234894918430700,0.4344306640625,-0.5183288773328065,-0.39505058044940233,-0.9642286244012415
1747234894928459800,0.444459716796875,-0.6011573826670646,0.3905731793070212,-1.3071117952398954
1747234894938489000,0.454489013671875,0.08757482307851314,1.2369105701580643,-1.6930828510463236
1747234894948518000,0.464517822265625,0.6326186888575553,1.5454690081991254,-1.4264474919773638
1747234894958547000,0.474546875,0.8016793704897165,1.289497081963718,-0.6221767898201942
1747234894968576000,0.484575927734375,0.8916840510636568,0.867531898842752,0.418843982360512
1747234894978604800,0.494604736328125,1.322753747138381,0.8277863831054418,1.0716671087265015
1747234894988633900,0.5046337890625,2.521998603507876,1.1743483155220746,1.389655200022459
1747234894998664000,0.514663818359375,2.824440750625729,1.2526451687760651,1.9350087162725627
1747234895008692700,0.524692626953125,2.229066043013334,0.9024272711351513,2.8552804177865383
1747234895018721800,0.5347216796875,0.3578191664248705,0.7200326953511684,3.32597689858973
1747234895028750800,0.544750732421875,-0.5733054991453885,0.8580006118442862,2.6873347116589543
1747234895038779600,0.554779541015625,1.3622054675608872,0.8216320982594043,1.4671081497982144
1747234895048808700,0.56480859375,3.0696091049045324,-0.023622136997431514,-0.21016309187114238
1747234895058838000,0.574838134765625,3.7007279105931516,-0.8523946815960108,-0.980523194989562
1747234895068867800,0.584867919921875,3.6999873213589187,-1.7399550768584011,-1.3343341486863791
1747234895078896600,0.594896728515625,3.387251743763685,-1.777527559405565,-1.140488423757255
1747234895088926000,0.604926025390625,2.644013456326723,-1.309581984745711,-1.1705384749103336
1747234895098955000,0.614955078125,1.571849503993988,-0.5712807153195142,-1.7011647429540753
1747234895108984300,0.624984375,0.5843167225033045,0.02708002236634493,-1.298441435919702
1747234895119013400,0.635013427734375,1.169166528970003,0.31360593068897724,-1.2422528079688548
1747234895129042200,0.645042236328125,1.7784189552873373,0.5099656842656434,-0.8032790607713163
1747234895139072300,0.655072265625,1.8756506645053623,1.0474641031011938,-0.11343911297954619
1747234895149101300,0.665101318359375,1.098914012092352,1.0589167866162956,1.3788079350546
1747234895159130400,0.67513037109375,-0.40385903306603427,0.45618163323849437,3.196264769266546
1747234895169159200,0.6851591796875,-1.0926841777920722,-0.4680167401999235,3.7735230976909397
1747234895179188200,0.695188232421875,-1.9089602289110421,-1.4839973252788186,1.5960698991455138
1747234895189217300,0.70521728515625,-3.0245307767719027,-2.590299401795864,-1.0216272126637398
1747234895199246000,0.71524609375,-4.090361434429884,-2.5732839695870875,-1.3813300008781253
1747234895209276200,0.725276123046875,-4.666802308991551,-1.8747526927523315,-1.2366031116440892
1747234895219305200,0.73530517578125,-4.553295756798982,-1.436472188515961,-0.5951501050762832
1747234895229334000,0.745333984375,-3.755113580775261,-0.5410078151959925,0.31001112106740475
1747234895239363000,0.755363037109375,-2.469426704749465,0.4776810789935291,0.6633351680301129
1747234895249392400,0.765392333984375,-1.042722753793001,1.1206075191147624,0.4565659563809633
1747234895259421200,0.775421142578125,-0.1930301707625389,0.9032564154356717,0.6585208996161818
1747234895269450200,0.7854501953125,-0.41758360703587527,0.3314658508978784,1.2280775676220654
1747234895279480300,0.795480224609375,-0.5537614252418279,-0.0686767919935286,0.937698783263564
1747234895289509400,0.80550927734375,-0.2811509372860193,-0.046253947783261536,0.18128011173605918
1747234895299538200,0.8155380859375,-0.34168168609440325,-0.11073314195647835,-0.2512929746389389
1747234895309567200,0.825567138671875,0.6491390310257673,-0.854310598219931,-0.7127674535885453
1747234895319596300,0.83559619140625,1.0581237365424632,-1.9763021190389989,-0.25816169136464595
1747234895329625000,0.845625,1.0978922678291796,-2.3385678896091875,-0.25897797618359325
1747234895339655200,0.8556552734375,1.465463597461581,-0.8516888714142143,0.040595337499678134
1747234895349684200,0.865684326171875,0.589929301688075,-0.24959135835282503,0.9788853646546601
1747234895359713300,0.87571337890625,0.8887965129286051,0.2879786644142121,1.5202435276582835
1747234895369742000,0.8857421875,0.9840268191963434,1.0095990673482418,2.0815102139636874
1747234895379771100,0.895771240234375,1.392555013117194,1.836285161061585,1.7655542130172253
1747234895389800200,0.90580029296875,1.4225965156376361,2.2891794431924817,1.336263801574707
1747234895399829200,0.915829345703125,-1.1681570596665143,2.0046707199111578,2.076402661691606
1747234895409859000,0.925859130859375,-4.0830981654286385,1.8450328234016895,2.3710123616181313
1747234895419888400,0.935888427734375,-7.829282005295157,2.2715929330974816,1.4231360293418167
1747234895429917400,0.94591748046875,-5.569882198816537,2.350728136871755,-1.3630039244621992
1747234895439946200,0.9559462890625,-3.717454588988423,2.9431282125875353,-2.105393047723919
1747234895449975300,0.965975341796875,-2.6244652907699346,2.87759249509871,-1.9939108409658073
1747234895460004400,0.97600439453125,-0.2582125447690487,2.195041023814678,-3.1349922621801496
1747234895470033200,0.986033203125,0.723161714091897,1.2092992173939943,-3.6235055547028776
1747234895480063200,0.996063232421875,0.996754198822379,-0.04438362386673689,-3.8861131195604797
1747234895490092300,1.00609228515625,1.7976736908555029,-0.6020287586741149,-3.228172065658867
1747234895500121000,1.01612109375,2.2588567856431006,-0.3668830551072955,-2.0152618181608615
1747234895510150100,1.026150146484375,2.8297014476329085,0.15106632138863205,0.40409781025797126
1747234895520179200,1.03617919921875,2.8675708673000333,1.6387077022582293,1.0518813350215555
1747234895530208000,1.0462080078125,0.7316571552366018,3.177422413891554,0.819047269397974
1747234895540238000,1.056238037109375,-1.4174720122307538,3.560479189686477,-0.9833036194883287
1747234895550267100,1.06626708984375,-2.0311814179569483,2.5170596858009695,-2.3164260542973873
1747234895560296200,1.076296142578125,-0.9848235225319861,1.8018334408834575,-2.600586987054348
1747234895570325200,1.0863251953125,0.8903320519328117,1.374438633929193,-3.31501068341732
1747234895580354300,1.096354248046875,1.5740210028141737,-0.37096564824581146,-3.046097296413779
1747234895590383400,1.10638330078125,1.2497136453688145,-1.5397582293368874,-2.242100881153345
1747234895600412200,1.116412109375,0.8662287072896957,-0.8539335816010832,-1.9452023396372793
1747234895610442200,1.126442138671875,0.38920331572592254,0.9511439557701349,-2.2981540461562573
1747234895620471300,1.13647119140625,-0.5035720377057791,2.614432264794409,-3.0139754804879426
1747234895630500400,1.146500244140625,-1.244227322912216,3.602605390015244,-3.678651103341579
1747234895640529200,1.156529052734375,-1.342491297787428,2.859870668186247,-3.3539141223073003
1747234895650558200,1.16655810546875,-1.0740864448279142,0.9607337680228054,-0.4597374260239303
1747234895660587300,1.176587158203125,0.18211013281941413,-0.9678767716452479,2.0766271180972455
1747234895670616000,1.186615966796875,0.32764439291357994,-1.8930122798033058,3.9238521908462047
1747234895680646100,1.196646240234375,0.7635112601369619,-1.456163269674778,3.7136274319157003
1747234895690675200,1.20667529296875,1.4253320780813694,-0.7605867509923875,2.2184059711806476
1747234895700704300,1.216704345703125,1.0278560240507126,0.23103315368145702,1.08340080114007
1747234895710733000,1.226733154296875,0.4221750264793634,1.4004764537662266,-0.47321343206018207
1747234895720762400,1.236762451171875,0.03726327046751976,1.7968612054288386,-1.1638095319814978
1747234895730791400,1.24679150390625,-0.26527064658701416,0.9443662783287465,-0.49169952134341
1747234895740821200,1.2568212890625,-0.870053234013915,-0.02763517203107476,-0.4527164413459599
1747234895750850300,1.266850341796875,-1.4619962136119604,-0.1180270983569324,-1.4943692278198897
1747234895760879400,1.27687939453125,-1.3793132542282343,-0.05761895301491022,-2.537836808630824
1747234895770908200,1.286908203125,0.39871640948057174,-0.25318302616924043,-2.2571884140394625
1747234895780937200,1.296937255859375,2.5455904914975163,0.019554010775685308,-1.5476969133816658
1747234895790966300,1.30696630859375,3.6755695039391516,-0.11224749204218387,-1.2064736385792494
1747234895800995000,1.3169951171875,3.182043643951416,-0.6690624596357345,-2.502073129071295
1747234895811025200,1.327025146484375,1.8775515296906231,-0.9963045553587376,-2.5537165148079395
1747234895821054200,1.33705419921875,2.1238824980080127,0.44426410869061944,-4.747182252129912
1747234895831083300,1.347083251953125,5.687042597341537,2.559875621959567,-8.04119515570402
1747234895841112000,1.357112060546875,7.1338465025186535,1.6805321431614457,-4.953424955686927
1747234895851141000,1.36714111328125,6.746095139166712,0.20495807057395576,-0.5766704820664599
1747234895861170200,1.377170166015625,5.613232095721363,-1.2614920537069438,1.626125722452253
1747234895871200300,1.3872001953125,4.585317619481683,-1.4812871895372868,0.900781622819975
1747234895881229000,1.39722900390625,3.3016660486757754,-0.8037623873088509,-0.19804785279408096
1747234895891258000,1.407258056640625,-0.6946347077876329,-0.5898155025826767,0.1548357569247484
1747234895901287400,1.417287353515625,-0.48902504143714903,0.16250282095391302,-0.23352307080104945
1747234895911316200,1.427316162109375,0.4549135129988193,0.8527135382868349,0.22396233851239084
1747234895921345300,1.43734521484375,0.7579822675824165,0.7570403836224228,1.2551777559936046
1747234895931374300,1.447374267578125,1.6374445504546165,0.1978668884702958,1.899008743739128
1747234895941404400,1.457404296875,2.5409786137878894,0.21165347655937075,2.4271871071740985
1747234895951433200,1.46743310546875,5.118292861804366,1.4452764033488927,1.7970070436403154
1747234895961462300,1.477462158203125,8.257182423684,2.470439096662402,1.5578586803033947
1747234895971491300,1.4874912109375,10.283495943343638,2.6253599015220996,1.3432114287555217
1747234895981520100,1.49752001953125,10.866264267361164,2.7026778267413376,1.4575854114323854
1747234895991549200,1.507549072265625,10.60047281177044,3.0656700118899343,3.6722447434306145
1747234896001578200,1.517578125,10.070993010348081,3.5994273445010183,6.081021456906199
1747234896011608000,1.527608154296875,8.731704892516136,4.677840420356393,7.717630725580453
1747234896021637000,1.53763720703125,8.030832751643658,6.1968678502231835,6.8619701740562915
1747234896031666200,1.547666259765625,7.127417930775881,8.197879170843958,6.431555142498016
1747234896041695200,1.5576953125,4.844623804706335,10.097865819704532,5.895094396147131
1747234896051724300,1.567724365234375,3.1098662964910266,11.262312918937205,4.340274352887272
1747234896061753300,1.57775341796875,2.1888152811676265,11.70541207550168,2.3396792118519545
1747234896071783400,1.587783447265625,1.7582605488777159,11.783320660090446,-0.6780664348244667
1747234896081812200,1.597812255859375,0.7644364852230996,11.172743122649193,-4.086165151783824
1747234896091841300,1.60784130859375,-0.5154501070261002,10.360549956929683,-7.780944967627525
1747234896101870300,1.617870361328125,-2.57217863869369,10.770254208892583,-11.08511160094738
1747234896111898400,1.6278984375,-7.397910111403465,10.31165703894496,-12.512950108891724
1747234896121927400,1.637927490234375,-10.709475622802973,9.918645563107729,-13.105544245874881
1747234896131957500,1.64795751953125,-10.436296979570388,10.090940404355525,-15.43072439225316
1747234896141986300,1.657986328125,-6.856409032797813,9.72751508848667,-17.213379377675057
1747234896152015400,1.668015380859375,-4.20789095852822,6.364654274135828,-19.330083946877718
1747234896162044400,1.67804443359375,-2.030096253068745,1.5842393222287297,-24.40686581764221
1747234896172073500,1.688073486328125,0.576300004786253,-1.292378482618928,-24.441815550470352
1747234896182102500,1.6981025390625,2.8915114225968717,-1.567403338240087,-18.93555622125864
1747234896192131600,1.708131591796875,4.253149027141928,-1.2512573676794767,-14.04541452795863
1747234896202161700,1.71816162109375,3.9160955853700634,-1.7621335909187792,-11.95660918855071
1747234896212190500,1.7281904296875,1.3185038346089422,-2.5280723704636094,-11.612415811896323
1747234896222219500,1.738219482421875,0.004479775762557983,-3.4937557237178085,-8.784311862587929
1747234896232248600,1.74824853515625,5.053763398748636,-3.4032594602346418,-8.333494678992032
1747234896242277400,1.75827734375,4.507639921039343,-4.803630700060725,-8.93298734331727
1747234896252306400,1.768306396484375,1.996086139178276,-5.648382319557666,-9.42245662139058
1747234896262335500,1.77833544921875,4.653092348068952,-14.497971248698233,-12.030264791870117
1747234896272365600,1.788365478515625,19.198360769993066,-3.221087368094921,-15.68335942915082
1747234896282394400,1.798394287109375,11.157254461616278,-0.7807406273573636,-7.7187319648206225
1747234896292423400,1.80842333984375,-2.3858523494839665,-2.2590414945602415,1.543454599636793
1747234896302452500,1.818452392578125,-5.848805523180961,1.5712252346158027,5.02063211351931
1747234896312481300,1.828481201171875,-7.33025637884736,4.97635808750689,4.900315296790003
1747234896322510600,1.838510498046875,-8.542608554071187,3.951117798912525,3.8571342778354882
1747234896332540400,1.84854052734375,-7.124865323683619,1.7075129429370164,4.038662811374664
1747234896342569500,1.858569580078125,-4.7015357687205075,-2.7910248032361267,2.3233090918093917
1747234896352598500,1.8685986328125,-1.3818530018389223,-1.1302210045039653,2.641579507178068
1747234896362627600,1.878627685546875,0.7559511270809918,0.6353916607022285,2.3370815965741873
1747234896372656600,1.88865673828125,1.647870667400956,-0.23094226052761077,2.2177257338315246
1747234896382685400,1.898685546875,2.520596920016408,-1.3450181859165429,3.187655054092407
1747234896392714500,1.908714599609375,1.4869722494363784,-0.5600158094614743,3.8344641808658837
1747234896402744600,1.91874462890625,-1.5458774428695439,-0.5474345603078603,3.4378187324404714
1747234896412773400,1.9287734375,-1.3327287593163548,-0.6532359449505806,0.019929858350753782
1747234896422802400,1.938802490234375,0.04905570733100176,-1.5117641608655452,-1.8447399779349565
1747234896432831500,1.94883154296875,-2.1640999421060085,-2.290969249218702,-1.8026462185710668
1747234896442860300,1.9588603515625,-2.2619453993082046,-1.3758885404765606,-2.7505490004628896
1747234896452889300,1.968889404296875,-1.7302268790483473,0.3952496101528406,-2.8942233119040726
1747234896462919400,1.97891943359375,-1.6111317130684852,-0.6222925251543522,-2.3964012160271406
1747234896472948500,1.988948486328125,1.4088260566994546,-0.5466045392245054,-2.6831962966799736
1747234896482977300,1.998977294921875,4.646648286496102,0.4003770361691713,-3.438699606928229
1747234896493006600,2.009006591796875,2.8352418383643028,0.46470250108540057,-3.388477486166358
1747234896503035600,2.01903564453125,0.2534776252016425,-0.5992798983573914,-4.084937655815482
1747234896513064400,2.029064453125,-0.7316513100177049,-0.6613993776619433,-4.648577500993013
1747234896523094500,2.039094482421875,-0.5119847690030932,0.2764484586834907,-4.1782764492481945
1747234896533123600,2.04912353515625,0.4816723405867815,-0.3436006714582443,-4.664460714301467
1747234896543152600,2.059152587890625,2.9591815217658874,-1.2659335432857275,-5.463450699576735
1747234896553181400,2.069181396484375,4.879662969383597,-3.1904403008967637,-6.390394280070066
1747234896563210500,2.07921044921875,5.209367801958322,-3.7021488833069798,-7.444215935504436
1747234896573239600,2.089239501953125,4.084630489562452,-4.953886143457889,-8.542468268817663
1747234896583268400,2.099268310546875,1.825421529480815,-6.178704417023062,-9.799933843487501
1747234896593298400,2.10929833984375,2.892879788340628,-4.573546517667174,-5.453996058011055
1747234896603327500,2.119327392578125,2.1629186233669517,-2.99669116820991,-2.6094465853363276
1747234896613356500,2.1293564453125,0.7105465626686811,-2.0839251661509275,-2.5973785464018584
1747234896623385300,2.13938525390625,2.8471508873447773,-0.35034137789011,0.8644301334351301
1747234896633414400,2.149414306640625,0.6082017482206225,0.6527864476174116,2.032790606719255
1747234896643443700,2.159443603515625,-0.026436463765799997,2.379253681871295,4.65921463034153
1747234896653473300,2.169473388671875,-0.17083412104547022,3.2415970721602436,6.858710879999399
1747234896663502300,2.17950244140625,-0.595252250276506,2.843834017881751,7.0194725198417895
1747234896673531600,2.18953173828125,0.0683507749095559,1.8435317711889743,7.258178984630107
1747234896683560400,2.199560546875,0.8760422452956438,0.14006371972858905,6.195693545746803
1747234896693589500,2.209589599609375,1.1767810956269502,-0.44092239704728126,5.591929195451736
1747234896703618600,2.21961865234375,0.975220996928215,-0.37514439523518084,5.549596366634964
1747234896713647400,2.2296474609375,-0.5788067269101739,0.26237550966739653,5.174692209896445
1747234896723677400,2.239677490234375,-1.4756693496555089,0.1587923855960369,3.835690507790446
1747234896733706500,2.24970654296875,-2.718037308436632,2.0502391696482896,4.750682953727245
1747234896743735600,2.259735595703125,-2.461974050655961,1.9216981299310922,5.165431045076251
1747234896753764400,2.269764404296875,-1.2307964711919426,1.4929904868125914,4.846407765513658
1747234896763793400,2.27979345703125,0.44478111830204725,-0.533193853509426,2.548271108883619
1747234896773822500,2.289822509765625,1.310962771579623,-2.5142490122944117,1.8878233328580856
1747234896783852500,2.2998525390625,1.2869693170517682,-3.5650901906132697,2.4344787254869935
1747234896793881300,2.30988134765625,1.7563932937011122,-3.7113428281098604,4.079081915524601
1747234896803910400,2.319910400390625,1.6230945380628108,-3.2788544974088665,5.706162892875075
1747234896813939500,2.329939453125,0.4573214509233832,-2.9725761331290004,5.1920922575086355
1747234896823968500,2.339968505859375,-0.29446809949874875,-2.999854600676894,3.454543072748184
1747234896833997600,2.34999755859375,0.153400463424623,-3.306514073228836,1.2258306654781101
1747234896844027400,2.36002734375,0.08523439743220805,-4.074495172256231,-1.6166402473568915
1747234896854056400,2.370056396484375,0.4641676635563373,-5.454073799422383,-4.467350580748915
1747234896864085500,2.38008544921875,0.36966947095543146,-5.853740641495585,-6.996158279749751
1747234896874114600,2.390114501953125,0.35245325547754763,-5.0999026341110465,-9.36945626808703
1747234896884143600,2.4001435546875,-0.41365766576379537,-2.7520617431133982,-9.56145768032372
1747234896894172400,2.41017236328125,0.6894914996802807,-0.10170505523979663,-7.297017541590333
1747234896904202500,2.420202392578125,1.016458139462769,0.997813644747436,-7.564526322492957
1747234896914231600,2.4302314453125,2.2932804487705227,0.10904460434764623,-9.207519154724478
1747234896924260400,2.44026025390625,1.279465955684334,-3.079093557086587,-15.888387496221064
1747234896934289400,2.450289306640625,-0.03579845861196518,-1.6889613872021436,-16.12329281516075
1747234896944318500,2.460318359375,1.085902408697456,0.7668503414317965,-6.804283708763122
1747234896954347300,2.47034716796875,-0.9926705827705562,4.826779812718928,0.7898428022235632
1747234896964376600,2.48037646484375,-4.640195457094907,7.438541396999359,2.7412539333730934
1747234896974406400,2.490406494140625,-4.7407916743099685,6.894904475408792,3.6275030999064444
1747234896984435500,2.500435546875,-2.4349860904872416,6.697533645093441,4.945411160579323
1747234896994464500,2.510464599609375,-1.9387620774567127,6.766634653848409,7.19291770016849
1747234897004493600,2.52049365234375,-1.6164350801736116,6.358880951431393,7.569918536925315
1747234897014522600,2.530522705078125,1.2814222043186425,4.3975551599889995,6.651038435900211
1747234897024551400,2.540551513671875,6.889619813004136,3.005382716448605,6.10703618812859
1747234897034581500,2.55058154296875,11.390922932237386,3.321290202078223,3.9260774656802413
1747234897044610600,2.560610595703125,10.389945562762021,2.131767113777995,3.5418583681076763
1747234897054639600,2.5706396484375,7.019390686777234,6.525223606276512,7.091482694041728
1747234897064668400,2.58066845703125,2.766747271069884,8.513692256188392,5.191887674847245
1747234897074697500,2.590697509765625,-4.549911959579586,7.819532180175185,5.369492312940955
1747234897084726500,2.6007265625,-7.776998275828361,6.0612850753009315,6.107944535145164
1747234897094756400,2.61075634765625,-1.895316318961978,7.403944715392589,11.619474498236178
1747234897104785400,2.620785400390625,-3.108817664220929,5.523614953160286,13.919383425235747
1747234897114815000,2.63081494140625,-0.564943913513422,-0.20972674628049134,11.361478226566314
1747234897124844000,2.640843994140625,-2.120658859786391,1.2458730442926287,-2.4247698168992993
1747234897134872800,2.650872802734375,0.032623920229077334,0.30664719759225845,-5.345502365544438
1747234897144902000,2.66090185546875,-2.241661320692301,0.513656209346652,-10.112750085103512
1747234897154931000,2.670930908203125,-4.439044231458008,-1.367166889360547,-8.3224220808357
1747234897164960800,2.680960693359375,-7.393598677945136,-3.1190982352167365,-5.318693853595852
1747234897174989800,2.69098974609375,-7.012581591284275,-2.260299385666847,-4.29397203591764
1747234897185019100,2.70101904296875,-4.661442243263125,-0.7590969508260488,-2.778101608777046
1747234897195048000,2.7110478515625,-3.3765547009214756,-0.27460370759963987,-3.845299463135004
1747234897205077000,2.721076904296875,-2.3008880011647936,-0.2460112348437309,-7.226829322120547
1747234897215106000,2.73110595703125,-0.7893541419237852,-0.21013269673287868,-8.931395690211653
1747234897225136000,2.74113623046875,1.809811287894845,-1.2242927883863448,-10.487685806024073
1747234897235165000,2.7511650390625,4.104044507345557,-1.8937591526478528,-8.714290816378593
1747234897245194000,2.761194091796875,3.7913697200268506,-3.63670581253767,-3.433871456119418
1747234897255223000,2.77122314453125,7.767897270005941,-1.2556558948993681,-0.8055553351402283
1747234897265251800,2.781251953125,8.30520615761876,3.6379584429472684,1.8813924230277537
1747234897275281000,2.791281005859375,5.294193618589639,5.055836697891355,4.9244730019688605
1747234897285311000,2.80131103515625,2.9839848313719033,4.327891256654262,6.841695447790622
1747234897295340000,2.811340087890625,1.1282817070044577,2.3406430884480476,7.19601332809627
1747234897305368800,2.821368896484375,-0.6129957044988871,0.3920347397595644,6.681728173196316
1747234897315398000,2.83139794921875,-2.170719067984819,-1.6104127511441706,5.33742427302897
1747234897325427000,2.841427001953125,-3.4206875648975372,-0.9239338772833346,2.6463001059591766
1747234897335456000,2.8514560546875,-3.4709131927907464,-1.087572533866763,1.5804372995972633
1747234897345485000,2.861485107421875,-3.375554291707277,-1.6145219400286674,1.7822288689643144
1747234897355515000,2.871514892578125,-3.993218572539091,-0.7137491581022739,0.8097118702977896
1747234897365544200,2.881544189453125,-4.010231666660308,1.084189321169257,-1.3143506604522466
1747234897375573000,2.891572998046875,-2.6040473566412925,3.5861855856120584,-3.4371523774862287
1747234897385602000,2.90160205078125,-0.7802969752430915,2.7845138139069077,-4.412627641436457
1747234897395631000,2.911631103515625,0.2691279065370559,0.7215753216832875,-4.359129275482893
1747234897405660000,2.921659912109375,0.7376805802445858,-1.1631026988863944,-3.780066820245981
1747234897415690000,2.93168994140625,0.835518073336035,-2.3455910662442445,-2.3711101229041813
1747234897425719000,2.941718994140625,0.988086396785453,-2.5833926911473273,-1.1843635135799646
1747234897435747800,2.951747802734375,1.3711387156009673,-2.4508926846712824,0.04254910191595554
1747234897445777000,2.96177685546875,1.6137106236457823,-1.934143185484409,1.306335696300864
1747234897455806000,2.971805908203125,1.786593493914604,-0.872998055294156,1.4865893875986336
1747234897465834800,2.981834716796875,2.0400188044071195,0.01822714608609676,1.1218109035551547
1747234897475864800,2.99186474609375,2.5324235514104365,1.2482289597690104,0.5925222407907247
1747234897485894000,3.001893798828125,3.4743770695090292,1.4919208117544651,-1.3083803538709877
1747234897495923000,3.0119228515625,3.72260831848979,-0.7835919251352548,-4.419493435552716
1747234897505952000,3.021951904296875,2.9569886878967284,-2.5096225215375423,-6.467942799174785
1747234897515981000,3.03198095703125,2.2677682602427898,-2.968084082406759,-7.479053440129756
1747234897526010000,3.042010009765625,2.6919267156243323,-1.6849907300055027,-8.061622442182898
1747234897536039000,3.052038818359375,2.256458784590661,0.39288054293394087,-6.774113026905059
1747234897546069000,3.062069091796875,0.8835163805685937,2.3861469485163687,-5.3837885493189095
1747234897556098000,3.07209814453125,-0.4495405877888202,3.7933150088757275,-4.334633132129907
1747234897566127000,3.082127197265625,-0.30429069759398697,4.447291543060541,-1.4772867217242718
1747234897576156000,3.092156005859375,-1.2653472678303719,3.8282191489964723,1.3423141876548528
1747234897586185000,3.10218505859375,-2.8646760226413606,2.6396535075515506,2.667452784103155
1747234897596214000,3.112214111328125,-4.099670822305977,2.186594682508707,4.528993090191483
1747234897606244000,3.122244140625,-4.630438909973204,2.0429004973232745,6.263966871505976
1747234897616273000,3.13227294921875,-4.554945277571678,1.8676807085394858,7.359523389863967
1747234897626302000,3.142302001953125,-4.20093573256284,0.7183943535596132,7.424323486554623
1747234897636331000,3.1523310546875,-3.8143855616942046,-0.8936936373203992,6.9398933716923
1747234897646359800,3.16235986328125,-3.2265316049754618,-2.3643676629066466,6.087500882053375
1747234897656389000,3.17238916015625,-2.5257988725736737,-3.333946270033717,5.5263814952641725
1747234897666418200,3.182418212890625,-2.5092136484757064,-3.514264258739352,5.010553787097335
1747234897676447700,3.19244775390625,-2.671739959903061,-3.9772722308665514,4.234761722058058
1747234897686477000,3.20247705078125,-2.665846810211241,-4.264430299612879,2.815402288645506
1747234897696506000,3.212506103515625,-2.8573057861343023,-3.0173785669296977,0.9816191735327243
1747234897706535000,3.222534912109375,-3.4614053597331047,-0.34207390028238294,-0.8498743693381547
1747234897716564000,3.23256396484375,-3.2616803675070405,1.8532570463895797,-3.2102415644317865
1747234897726593000,3.242593017578125,-0.05034603940248489,0.9304127179086208,-4.164206130580604
1747234897736623000,3.252623046875,1.660603307723999,-0.4017109151214361,-3.1327912450045345
1747234897746652000,3.26265185546875,1.1167758319973944,-0.671747168675065,-1.632160180310905
1747234897756681000,3.272680908203125,0.8510169635020196,-1.210886778846383,-0.663572922308743
1747234897766710000,3.2827099609375,0.43287126560397443,-2.0748440340727567,-0.4529797684572637
1747234897776738800,3.29273876953125,0.06904021847844123,-2.937912231504917,-0.22487448492124676
1747234897786768000,3.302767822265625,0.66535951346457,-3.542407234162092,-0.6085724812291562
1747234897796797000,3.312796875,1.5130144531875849,-3.465195984187722,-1.758791148623079
1747234897806827000,3.322826904296875,1.8880285000413655,-2.016330470305681,-2.8767788406282664
1747234897816855800,3.332855712890625,2.8638854567855594,0.18782500333487986,-3.37193084051311
1747234897826884900,3.342884765625,5.0762657379359,3.309703224658966,-2.920324552366137
1747234897836914200,3.3529140625,6.897618995064496,6.343714946481585,-3.16524126997143
1747234897846943000,3.36294287109375,8.302565287721157,6.598551877337694,-4.592833986461162
1747234897856972000,3.372971923828125,8.361103401407599,6.3372401975095265,-4.695825282119214
1747234897867002000,3.383002197265625,6.122415543568134,7.871078827539086,-1.5444555933728814
1747234897877031200,3.39303125,1.6484744785130023,8.782941158756612,4.104601264445483
1747234897887060000,3.40306005859375,-1.3769669833630322,9.7581013654083,7.008218135377764
1747234897897089000,3.413089111328125,-2.971687659856677,9.664085695627332,7.646145452037453
1747234897907118000,3.4231181640625,-4.021615814983845,6.483213433542847,6.216853822675347
1747234897917147000,3.43314697265625,-4.452036691761017,2.349565815094113,3.6226971609294414
1747234897927176000,3.443176025390625,-4.450436855348944,-0.43274785842001434,1.9635840917631984
1747234897937206000,3.4532060546875,-2.9630162776231765,-1.645168422704935,0.8593577986069023
1747234897947234800,3.46323486328125,-1.275275956648588,-1.3613093955039977,0.050598698989301916
1747234897957264000,3.473263916015625,-0.5961410158097744,-1.1100690278351306,-0.23310966769456862
1747234897967293000,3.48329296875,-0.2961246345341205,0.2795253819108009,-0.34046368860676884
1747234897977322000,3.493322021484375,1.0617711531341076,1.8649843090623617,-0.563774577473104
1747234897987351000,3.50335107421875,6.291640475851297,3.341235257998109,-0.9305915816068648
1747234897997380000,3.513380126953125,11.443007339739799,3.7602258092224594,-0.8862989970244467
1747234898007410200,3.52341015625,12.124261756950617,4.162498449879885,-0.373089289336279
1747234898017439000,3.53343896484375,9.961718981158732,4.486758461052179,0.03168795455321669
1747234898027468000,3.543468017578125,5.680428147637843,3.979066128545999,0.8025421247988939
1747234898037497000,3.5534970703125,1.6501589244686066,3.5516701525479553,1.516764014979452
1747234898047526000,3.56352587890625,-1.3143294715337455,3.019334961694479,1.8947388113349675
1747234898057555000,3.573554931640625,-3.739587510341406,2.733425431704521,2.132383930502087
1747234898067585000,3.5835849609375,-4.995280814641713,2.4497312396764754,1.9465125454530119
1747234898077614000,3.593614013671875,-5.42483542997837,2.2883815708130597,1.9001663893416523
1747234898087643000,3.603642822265625,-5.502904173564911,2.2435335443049667,2.024215962858498
1747234898097672000,3.613671875,-4.239993192970752,2.0661533626168964,1.4499799048647284
1747234898107701000,3.623700927734375,-1.7991762043729422,1.683255284515023,0.6491947798009962
1747234898117730300,3.633730224609375,-0.009509002101421356,1.4745318700581789,0.260104934386909
1747234898127759400,3.64375927734375,0.8583987443163991,1.2490741784214974,-0.24776962281838058
1747234898137789400,3.65378955078125,0.9623182607352733,1.261010699930787,-1.0736311022758482
1747234898147818200,3.663818359375,0.9161240803152322,1.4241431605577468,-1.504857304086536
1747234898157847300,3.673847412109375,0.7618547251015901,1.5217378578692673,-1.1106909591257572
1747234898167876600,3.683876708984375,0.2610062671408057,1.3521727338463068,-0.46780295131877064
1747234898177905400,3.693905517578125,-0.06420885279923677,0.8005763776838779,-0.48428661473840473
1747234898187934500,3.7039345703125,-0.3931000309035182,0.46853579563796516,-0.6006459260135889
1747234898197964500,3.713964599609375,-1.2659297438934445,0.4021481374949217,-0.07644274981990457
1747234898207993600,3.72399365234375,-2.3136691568046808,0.1930003601461649,0.1796370207041502
1747234898218022400,3.7340224609375,-2.924586301463842,-0.20620237154662607,-0.014866291350871324
1747234898228051500,3.744051513671875,-3.6406659483402963,-0.61269175311625,0.10754399052634835
1747234898238080500,3.75408056640625,-4.081178011021017,-1.030684525474906,0.718193278029561
1747234898248109300,3.764109375,-3.9399434939473865,-1.3330898477137088,1.6180791941188275
1747234898258138400,3.774138427734375,-3.9765754807740445,-1.6930279059886932,2.601541511300206
1747234898268168400,3.78416845703125,-3.788820035544038,-2.1989105587244033,3.415732572838664
1747234898278197200,3.794197265625,-3.6377415853261947,-2.863838110512495,3.6503774872764945
1747234898288226300,3.804226318359375,-3.7752462682217356,-3.595961129695177,3.7274411454737186
1747234898298255400,3.81425537109375,-4.067940343785286,-4.280177319321036,3.5713705860570073
1747234898308284200,3.8242841796875,-4.2232232599556445,-4.8859787284016605,3.348638519991934
1747234898318313500,3.8343134765625,-4.148233193162083,-5.220570163974165,3.2678806834518905
1747234898328343300,3.84434326171875,-4.0973616685807706,-5.294418659517168,3.12006211181283
1747234898338372400,3.854372314453125,-3.8453579153239725,-5.148582786127925,3.1485476170629263
1747234898348401400,3.8644013671875,-3.56182563585937,-4.956286190336942,3.154024879430234
1747234898358430500,3.874430419921875,-3.3047932407855987,-4.807262919083238,3.1929321177124974
1747234898368459500,3.88445947265625,-2.278729360848665,-4.675397703379392,3.179947548455
1747234898378488300,3.89448828125,-0.9986474652230739,-4.4779070460766555,2.975513355624676
1747234898388517400,3.904517333984375,1.5092960171863437,-4.100069173973798,2.8479025824949145
1747234898398547500,3.91454736328125,5.679537336277962,-2.983949760058522,2.740346463139355
1747234898408576500,3.924576416015625,7.477919467663765,-0.12717968823611736,2.6259593287199734
1747234898418605300,3.934605224609375,3.6074931620568034,4.967309688654542,2.0819654103852807
1747234898428634400,3.94463427734375,-4.5581195236936205,9.689036012488604,0.18690964205563068
1747234898438663400,3.954663330078125,-7.34914929536581,13.329111009198426,-1.6298542414560913
1747234898448692200,3.964692138671875,-4.658919154526293,14.673160642343758,-3.4594098020017143
1747234898458722300,3.974722412109375,1.580551281365752,11.748299615591764,-6.518181286549567
1747234898468751400,3.98475146484375,2.7557003918766974,5.254649543708562,-5.478493370407819
1747234898478780400,3.994780517578125,1.1022957634851336,0.5143219797790051,-2.3971061494261026
1747234898488809500,4.0048095703125,-0.2679030409172177,-2.20173204588592,-0.7873314039245247
1747234898498838500,4.014838623046875,-1.301170714753121,-3.995845998433232,0.36120121007859707
1747234898508867600,4.02486767578125,-1.288245328336954,-4.817045477429032,0.8107286461248994
1747234898518897400,4.0348974609375,-0.19059870583191513,-4.902417822027206,0.8905755052998662
1747234898528926500,4.044926513671875,0.9213583277069032,-4.24337348305881,0.970351345065236
1747234898538955500,4.05495556640625,-0.3732676415778696,-2.6375521513581273,1.631279598084092
1747234898548984300,4.064984375,-1.9688215540252625,-0.6936246539622545,1.9468056831806897
1747234898559013400,4.075013427734375,-2.2659984740912913,1.1215315020918846,1.321481535245478
1747234898569042400,4.08504248046875,-1.942928695616871,2.740934199899435,0.20473171447217464
1747234898579071200,4.0950712890625,-1.7009271348059176,3.818438928738236,-1.1578677208423613
1747234898589101300,4.105101318359375,-1.4180198553718626,4.2560394878864285,-2.5986092572405934
1747234898599130400,4.11513037109375,-0.7053226905405521,3.7410967458605766,-3.635420448902249
1747234898609159400,4.125159423828125,0.1890532299555838,1.6397838070571422,-3.3024121908679605
1747234898619188200,4.135188232421875,0.3556359771668911,-0.44771980210244655,-1.9888275463521479
1747234898629217300,4.14521728515625,-0.20799261596426366,-1.632818059697747,-0.8244599420964718
1747234898639246300,4.155246337890625,-0.7413631412148475,-2.156726198467612,-0.09993278487026691
1747234898649276400,4.1652763671875,-0.8297850095767527,-2.356412904509902,0.10894903501868247
1747234898659305200,4.17530517578125,-0.833338829600811,-2.2689169918864964,0.03783142574429512
1747234898669334500,4.18533447265625,-0.8994517624557018,-1.718580864918232,-0.13098726382553577
1747234898679363600,4.195363525390625,-0.847054051220417,-0.8655904093861579,-0.36560207538604733
1747234898689392400,4.205392333984375,-0.7526888373494148,-0.02460018824934959,-0.5686562120348215
1747234898699421400,4.21542138671875,-0.6226818167328834,0.6590642127126455,-0.6064601652503013
1747234898709451500,4.225451416015625,-0.3340367242991924,0.8290385020583868,-0.48377574260681866
1747234898719480300,4.235480224609375,0.07970540487766266,0.5275631541460752,-0.14216653722673653
1747234898729509400,4.24550927734375,0.42696109171211716,-0.04218085312545299,0.15056290191113947
1747234898739538400,4.255538330078125,0.5200421109914779,-0.43774610509872436,0.12681143944561482
1747234898749567500,4.2655673828125,0.5955927342772483,-0.6836585557430982,-0.027264585153013467
1747234898759596300,4.27559619140625,0.578258153116703,-0.9625614218413829,-0.25949220931604505
1747234898769625300,4.285625244140625,0.42498369069192554,-1.0132774636000395,-0.4329471803843975
1747234898779655400,4.295655517578125,0.1445931433191523,-0.6776829884648322,-0.5959273730590939
1747234898789684200,4.305684326171875,-0.11012224351651966,-0.08690846812427043,-0.8535397599779069
1747234898799713300,4.31571337890625,-0.5315841532904655,0.39474224515259265,-1.1677701061755419
1747234898809742300,4.325742431640625,-0.7230244245130568,0.44655192736685273,-1.2579841917164623
1747234898819771400,4.335771484375,-0.19028342933766543,-0.056848260903358455,-0.8925631719857454
1747234898829801200,4.34580126953125,0.9375514837473631,-0.5262129085808992,-0.5781712054856121
1747234898839830300,4.355830322265625,2.0543933667182923,-0.8624076876968145,-0.33192002440616486
1747234898849859600,4.365859619140625,2.414575170621276,-0.9796586871147155,-0.3340462227798998
1747234898859888400,4.375888427734375,0.03342588426172733,-0.7899111912846565,-1.4114986369095741
1747234898869917400,4.38591748046875,-2.734846404418349,-0.36956279571056366,-1.2546676145143807
1747234898879946500,4.395946533203125,-2.634361830884218,0.01445756441950798,-0.28918124513700605
1747234898889975300,4.405975341796875,0.5093155497938394,0.4406120159238577,0.18027224986776708
1747234898900005400,4.41600537109375,3.262979467406869,0.9980419005453586,1.6172560411676764
1747234898910034400,4.426034423828125,3.6479730564832686,1.2986632619768381,2.432367870812863
1747234898920063500,4.4360634765625,2.7484827155828473,1.3239572777092457,1.9816836659468708
1747234898930092300,4.44609228515625,1.5378059262253343,1.3442910406857729,0.6534205077372491
1747234898940121300,4.456121337890625,0.41132337759733195,1.625373004388809,-0.7252011109650135
1747234898950150400,4.466150390625,0.3025983605928719,1.8791870219379663,-1.6929980953723192
1747234898960180200,4.47618017578125,1.2152215931802988,1.919096423000097,-2.3083758727021513
1747234898970209300,4.486209228515625,2.249734737032652,1.682100853782892,-2.6898452331751583
1747234898980238300,4.49623828125,2.6666312385872004,1.4299538926631212,-3.086504710125923
1747234898990267400,4.506267333984375,2.503111824469268,1.3277186760693789,-3.666741469839215
1747234899000296400,4.51629638671875,2.0371685295425355,1.5194330880582332,-4.200933686736226
1747234899010325500,4.526325439453125,1.7367390374213456,1.8180331727951764,-4.664915764592588
1747234899020355600,4.53635546875,1.6183740854121744,2.1068325790077447,-5.149556599596142
1747234899030384400,4.54638427734375,1.707325311410427,2.53933552275598,-5.579746005704998
1747234899040413400,4.556413330078125,2.298703642863035,3.0407039129376408,-5.796890042504668
1747234899050442500,4.5664423828125,3.1810552174359557,3.507651562601328,-6.002766835358739
1747234899060471300,4.57647119140625,4.058380488279462,4.241898149809241,-6.42481385154426
1747234899070500400,4.586500244140625,4.730786997646093,4.783780336686968,-6.408966878592968
1747234899080530400,4.596530517578125,5.132917599484324,4.197621785709262,-5.332562804472446
1747234899090559500,4.6065595703125,5.0336412326961755,2.5082699378848075,-3.508992455816269
1747234899100588300,4.61658837890625,4.440106015470624,1.2297276729166506,-2.0738319344207645
1747234899110617300,4.626617431640625,3.942337695607543,0.7744055791169404,-0.8544226802922785
1747234899120645600,4.636645751953125,3.68857219337523,0.9783364986002445,0.22074425324872135
1747234899130674700,4.6466748046875,3.9722529413998124,1.821703970262408,0.9211609054386615
1747234899140704500,4.65670458984375,4.614760571587086,2.7738223240226505,1.4166617187611759
1747234899150733800,4.66673388671875,4.896356330031156,3.00366685244143,1.2807606716699897
1747234899160762600,4.6767626953125,4.719889171534777,2.495710316041112,1.000915848546475
1747234899170791700,4.686791748046875,3.686715167331695,1.944099346831441,0.9539574057556688
1747234899180820700,4.69682080078125,1.694214485424757,1.6192197424560784,0.6614800416827201
1747234899190849500,4.706849609375,-0.8656862709760665,1.5126789376229046,0.2747616746403277
1747234899200879600,4.716879638671875,-3.776939628136158,1.1290484535932541,0.34901524385288357
1747234899210908700,4.72690869140625,-6.503972728455066,0.7640794154137373,0.13854220924973487
1747234899220937700,4.736937744140625,-7.555949632805586,1.2341682857125997,-0.08760171108543872
1747234899230966500,4.746966552734375,-7.368306415778398,1.2320762818694113,0.18583558308333156
1747234899240995600,4.75699560546875,-6.968491105145215,1.1448235303521155,0.5375792289867997
1747234899251024600,4.767024658203125,-7.012395713323354,1.183264027905464,0.6010352175921201
1747234899261054700,4.7770546875,-6.954023019331693,0.9263590586036443,0.9751745274379849
1747234899271083500,4.78708349609375,-6.529070929354429,0.6586895341813563,1.1732596435025333
1747234899281112600,4.797112548828125,-5.791545758867263,0.47501931243836876,1.0945692608863116
1747234899291141600,4.8071416015625,-1.85861798890084,0.4094271885871887,0.9484890573471784
1747234899301170700,4.817170654296875,11.04396710513234,1.5881395445376634,-0.25311405258625747
1747234899311199700,4.82719970703125,9.847525615745782,2.4562100803017617,2.0408675301909445
1747234899321229800,4.837229736328125,5.873079548215865,2.0543384216606615,3.088961163367331
1747234899331258600,4.847258544921875,1.3535162574097512,1.1445873835086822,3.419393433433771
1747234899341287700,4.85728759765625,-2.7453590306043623,0.42132337808609005,3.2217569379195568
1747234899351316700,4.867316650390625,-4.196062573568523,0.13450140942633151,1.7394941813483833
1747234899361345500,4.877345458984375,-2.5443431217849253,0.40361587195992465,0.7657517325401306
1747234899371374600,4.88737451171875,-1.3365294667735694,0.5154623819857835,0.9685559860810636
1747234899381404700,4.89740478515625,-2.066772371298075,0.24376082556843756,0.8203931310489774
1747234899391433700,4.907433837890625,-3.177153826083243,-0.03569616728127002,0.5088485168039798
1747234899401462500,4.917462646484375,-4.371335553844273,-0.4686135370492935,-0.2263262911647558
1747234899411491600,4.92749169921875,-3.2530151227533817,-0.8384475509166717,0.27178981922268863
1747234899421520600,4.937520751953125,-1.4265359009131788,-0.8688906199753283,1.6792875499278306
1747234899431549400,4.947549560546875,-0.9119239982768893,-0.9900742826670408,2.458195701161027
1747234899441579500,4.95757958984375,-1.0936831257015467,-1.04701431350708,3.060359046000242
1747234899451608600,4.967608642578125,-1.1267916145771741,-1.0904437053889036,3.5303409487932917
1747234899461637600,4.9776376953125,-1.1486375356823206,-1.2180272982507943,3.7694708996906874
1747234899471666700,4.987666748046875,-1.3189035014510153,-1.2737035927653313,3.7163603640109297
1747234899481695700,4.99769580078125,-1.707248739042878,-1.2805962748885154,3.367446973097324
1747234899491724800,5.007724853515625,-2.0816496224343775,-1.2318249374568462,3.097150022780895
1747234899501754600,5.017754638671875,-2.3502993900656697,-1.1830641214191913,2.883455834174156
1747234899511783700,5.02778369140625,-2.7015073216572403,-1.155471765616536,2.562665544939041
1747234899521812700,5.037812744140625,-2.9668320365190506,-1.041851816177368,2.4176959329903123
1747234899531841800,5.047841796875,-3.0381968985527754,-0.953122562366724,2.3356962796956298
1747234899541870600,5.05787060546875,-3.1051871987640856,-1.0201707302451133,2.128600174179673
1747234899551899600,5.067899658203125,-3.0629543231904504,-1.2024649874597788,1.8580986412018536
1747234899561929700,5.0779296875,-2.7489024022996422,-1.3712433450192212,1.7012521289765834
1747234899571958500,5.08795849609375,-2.339895484951138,-1.4449240827798842,1.8913316332399843
1747234899581987600,5.097987548828125,-2.026065682378411,-1.3891279612779617,2.196803649573028
1747234899592016600,5.1080166015625,-2.3874533549398183,-1.440118728324771,2.4787299551457167
1747234899602045400,5.11804541015625,-2.6788018611133095,-1.8056249421209096,2.5114234334796666
1747234899612075500,5.128075439453125,-2.8200428079277273,-2.2078946601688862,2.751376391197741
1747234899622104600,5.1381044921875,-2.785300580370426,-2.572733349967003,3.153335435861349
1747234899632133600,5.148133544921875,-2.5250655898630616,-2.904198762473464,3.719557114225626
1747234899642162700,5.15816259765625,-2.0348300035923717,-3.1587112836807965,4.29285267649889
1747234899652191700,5.168191650390625,-1.6301783588439225,-3.1592239093780514,4.781877425675094
1747234899662220800,5.178220703125,-1.6403721283391117,-2.865049824389815,5.080801043277979
1747234899672250600,5.188250732421875,-1.6714619708687066,-2.418760347351432,5.3581596025437115
1747234899682279700,5.19827978515625,-0.8345221941664814,-2.0591700796008108,5.4404024169445035
1747234899692308700,5.208308837890625,0.2968015108823776,-1.682880605983734,4.848816580221056
1747234899702337800,5.218337890625,0.8927218696787953,-1.357806355819106,3.815593768440187
1747234899712366600,5.22836669921875,1.1001754103302954,-0.6073351945191622,2.8519243853569027
1747234899722396700,5.238396728515625,2.0680726402416822,1.3347954825878143,2.4672896927207706
1747234899732425700,5.24842578125,-1.4774658776834606,5.022079974240064,1.7229346762135624
1747234899742454500,5.25845458984375,-4.0349595729425545,9.284079831835626,0.13215192369073628
1747234899752483600,5.268483642578125,-3.673728259986639,13.693941515690087,-3.7091526245892044
1747234899762512600,5.2785126953125,-0.20202946977615355,17.146393169116973,-10.621637180352211
1747234899772541400,5.28854150390625,2.2337178143419325,15.671733288764953,-12.970468251430988
1747234899782570500,5.298570556640625,1.9710477056421338,8.10690243036747,-7.2567778856605285
1747234899792600600,5.3086005859375,0.8837024046599864,2.051885183289647,-1.881767101559043
1747234899802629600,5.318629638671875,0.3723636784754693,-1.4309510870069264,0.35070027433037754
1747234899812658400,5.328658447265625,0.5962416997052729,-3.8662335300922392,1.0669821657806635
1747234899822687700,5.338687744140625,0.23640301015153525,-5.647454098796844,1.4195482339829206
1747234899832716800,5.348716796875,0.646857788220793,-6.493356641894579,1.0200953269213437
1747234899842746600,5.35874658203125,0.8182651060443371,-6.147829970809817,0.39500264965444803
1747234899852775700,5.368775634765625,0.5393710808396339,-4.997646959251165,0.11032850667834282
1747234899862804700,5.3788046875,0.08679222133345901,-3.494940549588203,-0.02673310862481594
1747234899872833800,5.388833740234375,-0.3620014936108142,-1.9564578931450842,-0.17995616965591907
1747234899882862600,5.398862548828125,-0.7896013946831226,-0.3875485342562198,-0.59505818900913
1747234899892891600,5.4088916015625,-1.155241975448653,1.5001894584059714,-1.1157485347762703
1747234899902921700,5.418921630859375,-1.5418892500162125,3.4022716182410715,-1.575971260099113
1747234899912950800,5.42895068359375,-1.6654489941895008,4.4779210746020075,-1.7072539997398852
1747234899922979600,5.4389794921875,-1.4492530518949032,3.7526498210102317,-1.2587772417902945
1747234899933008600,5.449008544921875,-1.0109878913581372,1.5860983940988778,-0.2389841126859188
1747234899943037700,5.45903759765625,-0.641843613320589,-0.1826613369613886,0.7082634201675653
1747234899953066500,5.46906640625,-0.3701134153306484,-1.0158896919250489,1.1612114783123135
1747234899963096600,5.4790966796875,0.0220119618544355,-1.3507149362534283,1.2191855283752082
1747234899973125600,5.489125732421875,0.40580782904624935,-1.3476397665917872,1.1199375108987093
1747234899983154400,5.499154541015625,0.5955962414085865,-1.0667992104291915,1.0594771969780326
1747234899993183500,5.50918359375,0.6087374625325203,-0.4091360966861248,0.9262538446635007
1747234900003212800,5.519212890625,0.5622258867263794,0.2683288651138544,0.7759425794258713
1747234900013242600,5.52924267578125,0.5568319187283516,0.7626672105282545,0.6145166304558515
1747234900023271700,5.539271728515625,0.5533382313936949,0.9518407058626412,0.524684091578424
1747234900033300700,5.54930078125,0.4933726787200197,0.7317886726617813,0.448923624934256
1747234900043329800,5.559329833984375,0.3117272773355245,0.3895025909334421,0.402153105930984
1747234900053358600,5.569358642578125,-0.006699753366969525,-0.026224574580788612,0.2943304445937276
1747234900063387600,5.5793876953125,-0.301422138154041,-0.4597223745852709,0.09965542923361062
1747234900073417700,5.589417724609375,-0.5398614581724629,-0.8030442291021347,-0.1314943365648389
1747234900083446800,5.59944677734375,-0.7613070280909537,-0.8921177663058042,-0.34496669911444183
1747234900093475600,5.6094755859375,-0.962406523540616,-0.6843424463540315,-0.6328145036906003
1747234900103504600,5.619504638671875,-1.1090250717401504,-0.4141963026851415,-0.892269157475233
1747234900113533700,5.62953369140625,-1.3126456101000308,-0.2439940498024225,-1.1033417654067277
1747234900123563800,5.639563720703125,-1.61751995280087,-0.1793272241026163,-1.3054235498920082
1747234900133592800,5.6495927734375,-1.6119763471990822,-0.2095212868362665,-1.3941332222193479
1747234900143622000,5.659621826171875,-1.2547002016097306,-0.43203941788971423,-1.458015035021305
1747234900153650700,5.669650634765625,-1.0049993915330617,-0.6967728888601065,-1.6055772938117383
1747234900163679700,5.6796796875,-0.7340987762350588,-0.8969529313772916,-1.7440436613462864
1747234900173708800,5.689708740234375,-0.40729777534306044,-0.9060872549474239,-1.7456576724141835
1747234900183739000,5.69973876953125,-0.02069733559191227,-0.9834709388792514,-1.5164032188430427
1747234900193767700,5.709767578125,0.6263140357553959,-1.0908376731425524,-1.2416019428446887
1747234900203796700,5.719796630859375,1.304831867609173,-1.0655921727269888,-0.8195793304480612
1747234900213826000,5.729825927734375,2.118503873709589,-0.7854279083907604,-0.1563943845435977
1747234900223854800,5.739854736328125,2.6627000366181135,-0.4960726218611002,0.40885859491899607
1747234900233885000,5.749885009765625,2.341296583920717,-0.39552141283154485,0.6556754470571875
1747234900243914000,5.7599140625,1.2414369615413248,-0.45219840882122514,0.5656940012283623
1747234900253943000,5.769943115234375,-0.2551179397545755,-0.4155108924150467,0.5679514247663319
1747234900263971800,5.779971923828125,-1.3499345995306968,-0.27878829980790615,0.7616765920557081
1747234900274001000,5.7900009765625,-1.2410089453876019,-0.2827332380414009,0.6250869781784713
1747234900284030000,5.800030029296875,-0.3512000405460596,-0.4474421542048454,0.33980829343795776
1747234900294059800,5.810059814453125,0.45790436537787316,-0.5077256502538919,0.26539953366369007
1747234900304088800,5.8200888671875,0.9550181668549775,-0.23343173925578592,0.22187004240825772
1747234900314118000,5.830117919921875,0.9947356986068189,0.24845570538640022,0.16089286500662564
1747234900324146700,5.840146728515625,0.9919570276737213,0.6258294671088457,-0.09772153856158255
1747234900334175700,5.85017578125,0.8388193068385124,0.7564864760667085,-0.29892507890760894
1747234900344205800,5.860205810546875,0.44009193757250903,0.7404080324470996,-0.5008183550834655
1747234900354235000,5.87023486328125,0.053895402447134255,0.7729086185574531,-0.9591095278218388
1747234900364263700,5.880263671875,-0.41861952595487234,0.8121247766584158,-1.4685907895714043
1747234900374292700,5.890292724609375,-0.6449111841976642,0.8006599643141031,-1.7660976722441613
1747234900384322000,5.900322021484375,-0.3351249579273164,0.9285662132591008,-1.8938320717535913
1747234900394350800,5.910350830078125,0.2994640080899,1.252470835122466,-2.1292190367303787
1747234900404380700,5.920380615234375,0.8033943577140569,1.6078613130956887,-2.4788027281209826
1747234900414410000,5.930409912109375,1.092490701046586,2.1799258722692727,-3.0552295741572975
1747234900424439000,5.94043896484375,1.3627929120600222,2.641031225645542,-3.64006272175014
1747234900434467800,5.9504677734375,1.7792559906333685,2.7913866222858426,-4.138474892474711
1747234900444497000,5.960496826171875,2.1674181267432866,2.8495810371011494,-4.363052586406469
1747234900454527000,5.97052685546875,2.4583044222325086,2.8047271653741594,-4.216363603319228
1747234900464555800,5.9805556640625,2.7556308337718245,2.811882297825813,-4.187356996804476
1747234900474584800,5.990584716796875,2.9082950918763872,3.070125822255015,-4.388028037708997
1747234900484614000,6.00061376953125,2.866003764113784,3.1886294520825147,-4.598037692584097
1747234900494642700,6.010642578125,2.816522817108035,2.7312895887196063,-4.614127534380555
1747234900504671700,6.020671630859375,2.663070038974285,1.419370539328456,-3.8921062224954364
1747234900514701800,6.030701904296875,2.361275688240677,0.19162907179296015,-2.6390759999245406
1747234900524731000,6.04073095703125,2.321874090570211,-0.23195348339676855,-1.467138837197423
1747234900534759700,6.050759765625,2.5520114644557235,0.0040355391263961786,-0.4874586689032614
1747234900544788700,6.060788818359375,2.8845062200099227,0.8863654863893985,0.5148625163964927
1747234900554817800,6.07081787109375,3.6343566190630194,2.1007453680485484,1.6722588203348219
1747234900564847900,6.080847900390625,4.837625908643007,3.245774650105834,2.555812025782466
1747234900574876700,6.090876708984375,5.984144552475214,3.6700019329398867,2.937131894782185
1747234900584906000,6.100906005859375,6.334739612865448,2.9209622657477854,2.0332231529176235
1747234900594935000,6.11093505859375,5.711228944092989,1.8156787186235188,0.7191026479594409
1747234900604963800,6.1209638671875,4.431040080961584,1.4342454523772001,-0.27385025888383385
1747234900614993000,6.130992919921875,2.582766668203473,1.3008219013154505,-1.171626489342749
1747234900625023000,6.14102294921875,0.07598843474772293,1.17409580206573,-1.7534380971573291
1747234900635052000,6.151052001953125,-1.9011679675996302,1.1990846973717213,-1.7693848772212861
1747234900645080800,6.161080810546875,-3.3296365901410576,1.0661293483436107,-1.5675762105889617
1747234900655110000,6.17110986328125,-4.185064501953125,0.8496119190096855,-1.453641934503615
1747234900665139000,6.181138916015625,-4.908964467191696,0.43156420159339903,-0.8588793674401939
1747234900675168800,6.191168701171875,-5.7115644596576685,0.0724795452773571,-0.31194793434888124
1747234900685197800,6.20119775390625,-5.569241562825441,-0.1342325293570757,-0.5275286673545837
1747234900695227000,6.211226806640625,-5.128065483278036,0.02580722595155239,-0.7038137472823262
1747234900705255700,6.221255615234375,-5.156094476932287,-0.08691255977749825,-0.27690497027933597
1747234900715284700,6.23128466796875,-4.937556939947605,-0.2003711811751127,0.020899580165743826
1747234900725313800,6.241313720703125,-3.4461376479744907,0.1427320621550083,-0.009558101940155028
1747234900735343900,6.25134375,0.5728875659942627,0.8415127837061882,-0.2730900881662965
1747234900745372700,6.26137255859375,6.26647680850029,1.3839818305611609,-0.7153519171237945
1747234900755401700,6.271401611328125,8.564463827526568,1.4679729499340057,-0.2868573322340846
1747234900765431000,6.28143115234375,7.110690667858719,1.4236077385067938,0.7782116934016347
1747234900775459800,6.2914599609375,3.8310198856309055,1.5848632993459701,1.7980381402537227
1747234900785490000,6.301489990234375,-0.34528526354432104,1.5576643267750738,2.4410563503116367
1747234900795519000,6.31151904296875,-4.249589873355627,1.2865759338200091,2.7660081431403754
1747234900805548000,6.321548095703125,-5.625708715456724,0.9383744905680418,2.159542717193067
1747234900815576800,6.331576904296875,-4.345769735433161,0.549624763828516,1.9876067723855375
1747234900825606000,6.34160595703125,-2.8742028526604173,-0.00933539910018444,1.8143179516643284
1747234900835636000,6.351635986328125,-2.027554167370498,-0.4816407764047384,1.3968512490063905
1747234900845664800,6.361664794921875,-1.7298425559058785,-0.8834212496310472,0.3605407003432512
1747234900855693800,6.37169384765625,-1.2615446606770158,-0.8076555222898721,0.7131281035944819
1747234900865723000,6.381722900390625,-0.19701397970169782,-0.23164953201413152,2.308508413040638
1747234900875751700,6.391751708984375,0.23551789788007735,0.05075345115959644,3.2433374860867854
1747234900885780700,6.40178076171875,-0.2739341377750039,-0.007253332129120826,3.2171070662871
1747234900895810800,6.411810791015625,-0.7757797900795936,-0.2490221070975065,2.9864924302786586
1747234900905839900,6.42183984375,-1.2105448335409164,-0.49557753182053565,2.7030858230203387
1747234900915868700,6.43186865234375,-1.5861626915067433,-0.6088496907353401,2.4144027366638183
1747234900925897700,6.441897705078125,-1.7309227523580193,-0.4820452655524015,2.364794363886118
1747234900935927000,6.451927001953125,-2.105953750346601,-0.3803402103126049,2.1063737293243405
1747234900945956900,6.461956787109375,-2.5573250606939193,-0.26023089885413647,1.5759177763462067
1747234900955985700,6.471985595703125,-2.9293375876441594,-0.13570669356286524,1.0085650481253863
1747234900966015000,6.482014892578125,-3.198782012784481,-0.00654079994559288,0.7353034027844667
1747234900976044000,6.4920439453125,-3.4341049726143478,0.030005846685171124,0.7401192786335945
1747234900986072800,6.50207275390625,-3.4163872373551127,-0.13135785070359707,0.712667208084464
1747234900996103000,6.51210302734375,-3.235274298879504,-0.43475043041408057,1.150255492272973
1747234901006132000,6.522132080078125,-3.0508471212893724,-0.8102507994800806,1.9048972172558307
1747234901016161000,6.5321611328125,-2.792676662096381,-1.3775854075223206,2.5383546950250864
1747234901026189800,6.54218994140625,-2.6686978157281875,-1.986757169818878,3.2171126192450523
1747234901036219000,6.552218994140625,-2.715288886511326,-2.5071435642033815,3.5626921895608303
1747234901046248000,6.562248046875,-2.8109043927043675,-2.8388497997283935,3.82664707737416
1747234901056277800,6.57227783203125,-2.980177255782485,-2.95780584949851,4.16640364062488
1747234901066306800,6.582306884765625,-3.1969729175359007,-2.9517110397547484,4.515027693203091
1747234901076335900,6.5923359375,-3.341730348038673,-2.9341788901954886,5.045048761895298
1747234901086364700,6.60236474609375,-3.603078268224001,-2.9989117668688294,5.435804567760229
1747234901096393700,6.612393798828125,-3.6110844645470377,-3.1352754630357027,5.818318614980578
1747234901106423800,6.622423828125,-2.7164585148125884,-3.3552140989899635,6.144882226920127
1747234901116452600,6.63245263671875,-1.7518267164379357,-3.4775358258008957,6.296965470266342
1747234901126481700,6.642481689453125,0.9525818796187638,-3.3039690649211404,6.066259941104054
1747234901136510700,6.6525107421875,6.486512475088238,-2.316751925250888,4.884889471860229
1747234901146539800,6.662539794921875,14.23394972538948,0.3770283092856407,1.3852178020969033
1747234901156569600,6.672569580078125,10.86129115512371,5.60122776967287,-7.4251616909444325
1747234901166599000,6.682598876953125,-5.769350878193974,13.428529999327658,-13.134904780393837
1747234901176627700,6.692627685546875,-11.142214713394642,16.89019021060467,-8.71366070178151
1747234901186656800,6.70265673828125,-5.365250437587499,12.62706164124012,-4.411519972455501
1747234901196685800,6.712685791015625,3.0522420827791095,6.331480903330445,-3.410587026643753
1747234901206716000,6.7227158203125,3.7207644441887733,1.3781483021020888,-3.0417674505159256
1747234901216744700,6.73274462890625,0.6553776331543922,-0.9988333431839942,-1.3015589834183454
1747234901226773800,6.742773681640625,-2.2173814504384994,-1.9524515801131723,0.9618921442776918
1747234901236802800,6.752802734375,-3.451237893722951,-2.096990399429202,2.905365760426223
1747234901246831600,6.76283154296875,-3.5202854187250137,-1.4363859715372322,4.40776471157521
1747234901256861700,6.77286181640625,-3.255537626968324,-0.6542717177391052,4.84356874269545
1747234901266890800,6.782890869140625,-2.2429914002522824,0.09612228667140006,4.2282928183048964
1747234901276919800,6.792919921875,-0.5769521850846707,0.47271629619300365,2.7074749978899955
1747234901286948600,6.802948486328125,1.2718925978206097,0.7367085934072732,0.7177683306157588
1747234901296977700,6.812977783203125,2.5173300271749497,1.0821189446359871,-1.083879816828668
1747234901307006700,6.8230068359375,2.21755768378824,1.4009282891869543,-1.95334209921211
1747234901317036500,6.83303662109375,0.822170954376459,1.6637281617462634,-1.6598691482305525
1747234901327065600,6.843065673828125,-0.21587803545184434,1.633342375832796,-1.156055702984333
1747234901337094700,6.8530947265625,-0.7247300593871623,1.1238701741725206,-0.8941615470930934
1747234901347123700,6.863123779296875,-0.9036790247619152,0.3211024239242077,-0.7351829912751913
1747234901357152800,6.87315283203125,-0.9043826429866254,-0.5036287363290787,-0.6829264420762657
1747234901367182800,6.883182861328125,-0.8060650382280349,-1.2759732912629842,-0.5715726840034127
1747234901377212000,6.8932119140625,-0.7615887676417827,-1.9079431608229875,-0.3312666750639677
1747234901387240700,6.90324072265625,-0.8347591447275131,-2.3142583548694846,-0.1843646337479353
1747234901397269800,6.913269775390625,-0.8967150309681892,-2.4136194773316384,-0.12229600784778594
1747234901407298800,6.923298828125,-0.9045149641294031,-2.2862580027878283,-0.29318945786505934
1747234901417329000,6.933328857421875,-0.8934429504949599,-1.9683856468260288,-0.46034752074629065
1747234901427357700,6.943357666015625,-0.8973322860836982,-1.506535028040409,-0.6037967912599445
1747234901437386800,6.95338671875,-0.8304781794726848,-1.0624731639236211,-0.8259782377049326
1747234901447415800,6.963415771484375,-0.7724328177392482,-0.6610632775753736,-1.2312997445389628
1747234901457444600,6.973444580078125,-0.6899696385860443,-0.3338409094661474,-1.8053584001392124
1747234901467474700,6.983474609375,-0.5021791220426559,-0.09102525579333305,-2.388193944174051
1747234901477503700,6.993503662109375,-0.3406348073899746,-0.0419669181138277,-2.78941502995193
1747234901487532500,7.003532470703125,-0.23039222542941568,-0.2752612947255373,-2.8988506794437763
1747234901497561600,7.0135615234375,-0.07964578364491462,-0.6919055750846862,-2.7580338032603264
1747234901507590700,7.023590576171875,-0.00868015006184578,-1.2075362993746994,-2.455800914978981
1747234901517620700,7.033620849609375,-0.0345861602127552,-1.7008447172194718,-1.987876236976683
1747234901527649500,7.0436494140625,-0.12345858535375445,-1.9439473711401223,-1.466385388481617
1747234901537678600,7.0536787109375,0.04364504392649978,-1.8552473434239625,-1.058667049638927
1747234901547708000,7.0637080078125,0.2602103675227612,-1.551378962895274,-0.6597083558350801
1747234901557736700,7.07373681640625,0.3242845610916614,-1.1139461615294217,-0.28313597362339493
1747234901567766800,7.083766845703125,0.25116664484553036,-0.44869829174578185,-0.0169663323700428
1747234901577795800,7.0937958984375,-0.0377232891947031,0.08173661844432353,0.1525168124578893
1747234901587825000,7.103824951171875,-0.6555565699178725,0.38509061971008773,0.13144494446516036
1747234901597853700,7.113853759765625,-1.6278969699084758,0.4792313771754503,0.20812281821519135
1747234901607882800,7.1238828125,-2.4185797300875187,0.3458341295987367,0.1038239470899105
1747234901617912800,7.133912841796875,-1.8358021998502314,0.2737263402432203,0.6658806147292256
1747234901627941600,7.143941650390625,-1.1186223366469144,0.17648410963118075,1.5675057757012545
1747234901637970700,7.153970703125,-0.7694558477550745,0.09073884006738663,1.8715178024843333
1747234901647999700,7.163999755859375,0.33116438373327256,0.26153438266813755,2.43649459535405
1747234901658028800,7.17402880859375,2.270647322810441,0.7707225066900253,2.805329515181482
1747234901668058600,7.18405859375,2.662310745039582,1.0252566552072764,2.5412954246520996
1747234901678087700,7.194087646484375,1.410347274917364,1.132962996688485,1.9256075584597885
1747234901688116700,7.20411669921875,0.26189225619509815,0.9912456645339727,1.5698048464238643
1747234901698145500,7.2141455078125,0.1215530805259943,0.5025877028435468,0.8233530037678778
1747234901708174600,7.224174560546875,0.49766851275041696,0.04285188425481319,0.0691452862881124
1747234901718204700,7.23420458984375,0.38154841705858705,-0.10056991373002529,-0.5577110396504402
1747234901728233700,7.244233642578125,-0.006067775606364011,-0.09708557874560356,-1.031841440425068
1747234901738262500,7.254262451171875,0.24470599746406077,0.035061376509070395,-1.4026491216301917
1747234901748291800,7.264291748046875,0.4385562524378299,0.4412129044264555,-1.0834949091643093
1747234901758321000,7.27432080078125,0.2955272531628608,1.104739941766858,-0.6329511356823146
1747234901768350700,7.284350830078125,0.2317033080279827,1.6561539270997045,0.13987375011444092
1747234901778379800,7.2943798828125,0.13962240570187567,2.0583996797502038,0.6671798607595264
1747234901788408800,7.304408935546875,0.032325375673919916,2.3887509935349223,0.05633665811941027
1747234901798438000,7.31443798828125,0.14928689062595366,2.629218038254976,-1.18947734946236
1747234901808466700,7.324466796875,0.3354031903468072,2.740167307180166,-2.3166956650190054
1747234901818496800,7.334496826171875,0.317191826351732,2.6434488081812857,-3.32470848608911
1747234901828525800,7.34452587890625,0.5047444424860179,2.606079154729843,-4.108175323539972
1747234901838554600,7.3545546875,0.8881628912001848,2.9899545534312724,-4.95847230220437
1747234901848583700,7.364583740234375,1.7848995494782924,3.2988498222112654,-4.8904000519752495
1747234901858612700,7.37461279296875,2.494394557267427,3.285472454243898,-4.038202792647481
1747234901868642800,7.384642822265625,2.5999983735114336,3.72527549187243,-3.542774898430705
1747234901878671600,7.394671630859375,2.1750777015857397,4.77297954120934,-3.484912199787795
1747234901888700700,7.40470068359375,1.6431868934988973,5.49676903181076,-3.4288854844003915
1747234901898729700,7.414729736328125,1.6343834093183278,4.827146600204706,-3.0474352670192717
1747234901908758500,7.424758544921875,2.381572041816264,3.1981542362749575,-2.2563787050917745
1747234901918788600,7.43478857421875,3.3269138871788977,1.6469272490710019,-1.3011656001865863
1747234901928817700,7.444817626953125,4.19092842555046,0.4719470653861761,-0.7541601520109922
1747234901938846700,7.4548466796875,4.64574724600315,-0.2839946362793445,-0.4273481182683259
1747234901948875800,7.464875732421875,4.684206448256969,-0.5323989037394523,-0.46582726733163
1747234901958905600,7.474905517578125,4.504818433877825,-0.4173772708088159,-0.7978092510581016
1747234901968934700,7.4849345703125,4.177039016407728,-0.23327274930179118,-1.1665988704390824
1747234901978963700,7.494963623046875,4.025771181097626,-0.07305413029491901,-1.5576657880797982
1747234901988992800,7.50499267578125,3.939869844189286,-0.05492576840817928,-1.8854696093387902
1747234901999021800,7.515021728515625,3.510325750246644,-0.3654764031797647,-2.252557977759838
1747234902009052000,7.525052001953125,2.5708055967748162,-0.6472194611400366,-2.4659131436705586
1747234902019080700,7.535080810546875,1.0480851576089858,-0.7227876200824975,-2.5631892765522
1747234902029109800,7.54510986328125,-0.8156687328755855,-0.6970452760607003,-2.2871057056583464
1747234902039138800,7.555138916015625,-2.648362299185991,-0.7312380530416965,-1.6525870283983646
1747234902049167600,7.565167724609375,-4.4219209549605845,-1.0360662185132503,-0.9597440263330936
1747234902059197700,7.57519775390625,-4.893863928693532,-0.8363479482889175,-1.1753344039499758
1747234902069226800,7.585226806640625,-5.716639278703927,-0.35079321331083774,-1.069729272531718
1747234902079255800,7.595255859375,-6.070386081123352,0.21528817979991435,-0.6374458167530596
1747234902089284600,7.60528466796875,-6.136477971190214,0.2696282572746277,-0.13007920906990766
1747234902099313700,7.615313720703125,-6.190581317299604,-0.005246668481826782,0.42614802176356315
1747234902109343700,7.62534375,-5.758272434818744,-0.4272603669196367,0.966406991353631
1747234902119372800,7.635372802734375,-4.924937112349271,-0.8291986610561609,1.2906784007027745
1747234902129401900,7.64540185546875,-2.6211083815574643,-0.7781891893088817,1.292693539917469
1747234902139431000,7.655430908203125,3.1552222725212573,0.04581774832308292,1.4443781393349169
1747234902149459700,7.665459716796875,8.135133668595552,1.0496002383470535,1.9665327124357221
1747234902159489800,7.67548974609375,7.442573428994416,1.4105629634946584,2.4242104294508695
1747234902169518800,7.685518798828125,4.9862557966649526,1.233257600608468,2.2576579312473535
1747234902179548000,7.6955478515625,1.9860650959014892,1.3186515725165604,2.444780631531775
1747234902189577000,7.705576904296875,-0.7957144707359373,1.0388257463544606,2.8279852913647887
1747234902199606000,7.71560595703125,-2.693984232676029,0.5008358907401561,2.377377074344456
1747234902209636000,7.725635986328125,-2.875376572614908,0.18228607390820978,1.2231629075735806
1747234902219665000,7.735664794921875,-1.6021674853682517,0.03674363050758839,-0.018713760559260845
1747234902229694000,7.74569384765625,-0.7886240740835666,0.015261282017827033,-0.23146745344549416
1747234902239723000,7.755722900390625,-1.1549226073011756,-0.046378889337182046,0.4630576564878225
1747234902249753000,7.765753173828125,-1.55856682857275,-0.29177696071863174,0.4397922239735722
1747234902259782000,7.775781982421875,-1.2650573449730873,-0.4295996235221624,0.15095570062100885
1747234902269811000,7.78581103515625,-0.6760892895326018,-0.07004501160681248,0.7738423922762274
1747234902279840000,7.795840087890625,-0.47484044874012465,0.49114744041860103,1.3913988288193941
1747234902289868800,7.805868896484375,-0.5434750090271234,0.7501461671292782,1.4633052503839135
1747234902299899000,7.81589892578125,-0.25754940468519927,0.700283527329564,1.3654127391695976
1747234902309928000,7.825927978515625,0.23147300640344617,0.5323614943385124,0.9553466681569814
1747234902319956700,7.835956787109375,0.4407175221249461,0.47949908820092674,0.7522814255923033
1747234902329985800,7.84598583984375,0.043829789376258844,0.41483460058867927,0.6297866803020239
1747234902340014800,7.856014892578125,-0.7966799547672271,0.49273558639287945,0.6185585993230343
1747234902350045000,7.866044921875,-1.5155512781888245,0.7188052724480628,0.7878413992732762
1747234902360073700,7.87607373046875,-1.9607848164334891,0.9193260912269353,1.1241665267705916
1747234902370102800,7.886102783203125,-2.3308541003614662,1.058909333962202,1.4161264428406952
1747234902380131800,7.8961318359375,-2.635633165994286,1.0078110148876904,1.4992600686013697
1747234902390162000,7.906161865234375,-2.7677666772454974,0.7893611561864614,1.60215170327723
1747234902400190700,7.916190673828125,-2.8129589871466156,0.356279535767436,1.5013994187176227
1747234902410220000,7.926219970703125,-2.7570523910075426,-0.12663199122548102,1.4017799375802278
1747234902420249000,7.9362490234375,-2.5933365775346755,-0.6083908410519361,1.3747580751419066
1747234902430278000,7.94627783203125,-2.3109265800982715,-1.0127256749361753,1.6550971115231512
1747234902440308000,7.956307861328125,-2.200418040677905,-1.3312901048153638,2.3352321693152187
1747234902450337000,7.9663369140625,-2.344191136318445,-1.598364001432061,3.0740409498721357
1747234902460365800,7.97636572265625,-2.482847327336669,-1.830302287259698,3.8423552263766525
1747234902470395000,7.986394775390625,-2.6739322092503306,-2.057238234755397,4.521485491040349
1747234902480424000,7.996423828125,-2.9538667564839125,-2.27582954775393,5.0194922958344215
1747234902490454000,8.0064541015625,-3.22172274338901,-2.4899101053297517,5.3783332065224645
1747234902500482800,8.01648291015625,-3.513583875259757,-2.625314601075649,5.577349465957283
1747234902510511900,8.026511962890625,-3.7179829967767,-2.6986720982313153,5.618043879917264
1747234902520541000,8.036541015625,-3.7504964423686262,-2.804178299319744,5.53503884897232
1747234902530571000,8.046571044921874,-3.602020283603668,-2.9921120237261056,5.376762011682987
1747234902540599800,8.056599853515625,-3.4431074864983557,-3.1926649912089107,5.153025152489542
1747234902550628900,8.06662890625,-3.4016596238225696,-3.3458979891121388,5.113792627775669
1747234902560658000,8.076657958984375,-3.1529502359360455,-3.4571202297598123,5.203363593107461
1747234902570686700,8.086686767578126,-1.8417618389070034,-3.482624088850617,5.1708209214210505
1747234902580716800,8.096716796875,-0.18504618627130984,-3.255560131061077,4.808665479357541
1747234902590745900,8.106745849609375,3.6892625137269497,-2.5682956597805022,3.8717794737815856
1747234902600775000,8.11677490234375,9.477949960553646,-0.3186673057317734,1.5943980204105377
1747234902610804000,8.126803955078126,10.583187330448627,4.828266544145346,-5.44404515736103
1747234902620833800,8.136833740234374,-2.898605472511053,13.856371965527533,-12.942815689873695
1747234902630862800,8.14686279296875,-8.70827491708994,22.11826154398918,-14.543424839884041
1747234902640892000,8.156891845703125,-0.47907297174334523,22.15792953751087,-14.38727098609805
1747234902650921000,8.1669208984375,5.899540854161978,11.889257069289684,-7.110738598653674
1747234902660950000,8.176949951171874,2.9504183695957065,2.5564631831675766,-2.6232138294041154
1747234902670980000,8.18697998046875,1.0416589239537715,-1.5517325986385344,-0.6509516334056854
1747234902681009000,8.1970087890625,-0.3509758764013648,-4.292601332086324,1.5165210000038145
1747234902691038000,8.207037841796875,-2.7469778639778495,-5.610481920230388,3.0635581343024967
1747234902701067000,8.21706689453125,-3.876746740800142,-5.9059513057261706,4.3311943898528815
1747234902711095800,8.227095703125,-3.727674954229593,-5.255448585131764,5.585149910575151
1747234902721126000,8.2371259765625,-2.6879893761754032,-3.469737719270587,6.1789037389874455
1747234902731155000,8.247155029296875,-1.6060428654968737,-1.2537269726634024,5.582582105913758
1747234902741184000,8.25718408203125,-1.1525380502521991,0.7045879465252161,4.470476311554014
1747234902751212800,8.267212890625,-0.9050795392096042,2.307390807187557,3.0767420255243776
1747234902761243000,8.277242919921875,-0.45370596383996303,3.615879297608137,1.0460442994311452
1747234902771272000,8.28727197265625,0.4454582138460129,4.55520188268125,-1.5044646515071392
1747234902781300700,8.29730078125,1.3447721022009849,4.497533537566661,-3.5810257186308503
1747234902791329800,8.307329833984374,1.311529027160257,2.9155010777324435,-3.866558524262905
1747234902801358800,8.31735888671875,0.5048376006621867,0.8535515965461731,-2.366690260635316
1747234902811389000,8.327388916015625,-0.074478537074849,-0.3171750213474035,-1.0378317668810486
1747234902821417700,8.337417724609375,-0.403721012834832,-1.03580552175045,-0.3521346910476684
1747234902831446800,8.34744677734375,-0.5742412456255406,-1.689587410145998,-0.08373977496027946
1747234902841475800,8.357475830078124,-0.72586045165658,-2.262186806848645,0.009733458507061005
1747234902851506000,8.367505859375,-0.9170061238467693,-2.658724703246355,-0.13471212956756354
1747234902861534700,8.37753466796875,-0.9295826968252658,-2.745820218375325,-0.3922869609549641
1747234902871564000,8.38756396484375,-0.902381386166811,-2.625271346455812,-0.5957438331857323
1747234902881593000,8.397593017578124,-0.8795043684482574,-2.2679092761486768,-0.7422606745764613
1747234902891622000,8.407621826171875,-0.6758966895699501,-1.7083160760134457,-0.7809162761852144
1747234902901652000,8.41765185546875,-0.2816834367275238,-1.014229649758339,-0.6471256453767419
1747234902911681000,8.427680908203126,0.14897884759008884,-0.28949264917373657,-0.4495598770111799
1747234902921709800,8.437709716796874,0.6086164665013551,0.2802490200102329,-0.2165036930695176
1747234902931739000,8.44773876953125,1.0413643249213695,0.5869891565829515,0.04261106123626232
1747234902941769000,8.45776904296875,1.2630834145516157,0.5280407085299491,0.23462533295452592
1747234902951798000,8.467798095703126,1.1506167268007994,0.14342939676940442,0.2615218154475093
1747234902961826800,8.477826904296874,0.8798894953083246,-0.36202480142116544,0.19113807340562342
1747234902971856000,8.48785595703125,0.552481906825304,-0.9602823709934949,0.20430121410042046
1747234902981886000,8.497885986328125,0.3672556878119707,-1.4768781409233807,0.21501666938215494
1747234902991915000,8.5079150390625,0.23674130219519138,-1.640959280577302,0.1634261828765273
1747234903001943800,8.51794384765625,0.11825813063383102,-1.3801327539175747,-0.10436959827393293
1747234903011972900,8.527972900390624,-0.2671872938632965,-0.9901017551958561,-0.6873676393941044
1747234903022002000,8.538001953125,-0.7173317658293992,-0.496938298779726,-1.6605612221479416
1747234903032031700,8.54803173828125,-0.7296219230819493,-0.17196458638012407,-2.4891759458363056
1747234903042060800,8.558060791015626,-1.2779957370012998,-0.3778811267226934,-3.112835083168745
1747234903052089900,8.56808984375,-1.8735218357831238,-0.8943564851433038,-3.2406367026954888
1747234903062119000,8.578118896484375,-1.9428287423737347,-1.2193985866039991,-2.9293156680732966
1747234903072148700,8.588148681640625,-0.7570464480370283,-1.3390852887362241,-2.4101161453858015
1747234903082177800,8.598177734375,1.317913905891776,-1.094268232113123,-1.3188614158749579
1747234903092206800,8.608206787109374,2.622662040740251,-0.46540860352814195,-0.5922241346269845
1747234903102236000,8.61823583984375,2.6176053418725727,0.6645838529169559,0.22083003183603286
1747234903112265000,8.628264892578125,1.2514064207613467,1.896834322309494,2.461912091335654
1747234903122295000,8.638294921875,0.7627813384272157,2.232130106759071,3.8329292263835666
1747234903132324000,8.648323974609376,1.148907000273466,1.5642220778554676,3.3003511666849255
1747234903142353400,8.658353515625,1.255217065090686,0.5357078821569681,2.1988559059277177
1747234903152382200,8.66838232421875,1.5296300724238157,-0.1592284389257431,1.2624509618669748
1747234903162412300,8.678412353515625,2.099811886590719,-0.3834808464258909,-0.13709960922598838
1747234903172441300,8.68844140625,2.0868110968507825,-0.3597480886608362,-1.0762050444170832
1747234903182470400,8.698470458984374,1.8633377108991145,-0.30604221743643284,-1.9790502487033605
1747234903192499200,8.708499267578125,1.2450953379184007,-0.28785832597017286,-2.361505843734741
1747234903202529300,8.718529296875,0.5625508808970451,-0.23293489564955233,-2.011935450217128
1747234903212558300,8.728558349609376,0.25149565760418774,-0.1436772340506315,-1.0762243336394428
1747234903222587100,8.738587158203124,0.13658566835448144,0.0951058031052351,0.012873802359402178
1747234903232616200,8.7486162109375,-0.15696180916801095,0.547796963879466,0.41157209166139364
1747234903242646300,8.758646240234375,-0.5515156921416521,1.1094313144534826,0.3669435531228781
1747234903252675300,8.76867529296875,-0.6833667331896722,1.608615930855274,0.14845160884559153
1747234903262704000,8.7787041015625,-0.5536870448313653,2.164462345677614,-0.31841260031834245
1747234903272733200,8.788733154296875,-0.5337187541663646,2.658204478764534,-0.7608258204452693
1747234903282762200,8.79876220703125,-0.3289923003911972,2.8916625215053555,-1.1880695284910499
1747234903292792300,8.808792236328125,0.08946122134700417,2.7138363496154545,-1.41857968121171
1747234903302821000,8.818821044921876,0.3062742726266384,2.2969705354601144,-2.0326000525832173
1747234903312850200,8.82885009765625,0.14181845444142818,1.663559234920144,-3.000867577111721
1747234903322879200,8.838879150390625,0.7014741984188556,1.7694564811527729,-3.2128461939722297
1747234903332909000,8.848908935546875,1.9190579906858503,2.930561868742108,-2.2191829469025133
1747234903342938000,8.858938232421876,2.000547940892726,4.460974031454325,-1.8925350176803766
1747234903352967200,8.86896728515625,1.352087978172302,5.928378241589665,-2.7835487682670355
1747234903362996200,8.878996337890625,0.5314776972413062,6.79731328522861,-3.7151483578726645
1747234903373026000,8.889026123046875,0.7915585201002657,6.569170884552598,-3.6326983304619787
1747234903383055000,8.89905517578125,2.2740824118256566,5.3027539416641,-2.5769135582610962
1747234903393084200,8.909084228515624,3.643807168975472,4.081201391896605,-2.127418417049199
1747234903403113200,8.91911328125,4.236891135302185,3.2534330559045075,-2.633567173375189
1747234903413143000,8.92914306640625,4.368507929202914,2.193305578324199,-3.1582296376436947
1747234903423172400,8.93917236328125,4.450213567987084,1.092865379577875,-3.2620360490769147
1747234903433201400,8.949201416015624,4.548657575604319,0.19427344882190226,-3.366587725919485
1747234903443230200,8.959230224609374,4.437890092986822,-0.3786404206573963,-3.4540631802767514
1747234903453259300,8.96925927734375,4.230037031623721,-0.5421919834792613,-3.485442068880796
1747234903463289300,8.979289306640625,4.1766438796103,-0.5136591319561005,-3.664960139380395
1747234903473318400,8.989318359375,4.258167732086777,-0.4084890309542417,-3.713188163715601
1747234903483347200,8.99934716796875,3.8990859983801838,-0.4465963510304689,-3.482930378320813
1747234903493376300,9.009376220703125,2.606507609274983,-0.5898778637617826,-3.100951460890472
1747234903503406300,9.01940625,0.6572153699755668,-0.7399275554537773,-2.4041914315119386
1747234903513435100,9.02943505859375,-1.1333797607958316,-0.9417729008346796,-1.7231700924046336
1747234903523464200,9.039464111328124,-2.538110949397087,-1.139007537549734,-0.8234811601921915
1747234903533493200,9.0494931640625,-3.6996740176260468,-1.3460878609746694,0.02937602434903383
1747234903543523300,9.0595234375,-5.222447063761949,-1.4009247820556163,0.5904010108530521
1747234903553552100,9.06955224609375,-5.588914231544733,-0.495216881814599,0.7115586623206734
1747234903563581200,9.079581298828124,-5.0899265990197655,-0.09913549701273441,1.269647887633741
1747234903573610200,9.0896103515625,-4.961536365950107,-0.17732056045532227,1.8077789052844047
1747234903583640300,9.099640380859375,-5.172733477044106,-0.45507717912793155,2.3364672640681263
1747234903593669000,9.109669189453125,-5.015106628096103,-0.7944096717476844,2.5819483375579115
1747234903603698200,9.1196982421875,-4.4809237635493275,-1.0091372950553894,2.508957627888024
1747234903613727200,9.129727294921874,-3.235714443862438,-0.9704553899616003,2.33813899667263
1747234903623757000,9.139757080078125,-0.848767869400978,-0.4950082074999809,2.0318144551634787
1747234903633786000,9.1497861328125,3.5125545322120186,0.30007191085517404,1.485561213594675
1747234903643815200,9.159815185546876,5.574287155777216,0.9896265388995409,1.3657365642964838
1747234903653844200,9.16984423828125,4.600943935419619,1.3161007189899683,1.7599492326170205
1747234903663874000,9.1798740234375,2.5171231064260002,1.4539368257969616,2.3758742685660716
1747234903673903000,9.189903076171875,0.6943406932771206,1.3878981272220612,2.951069526980817
1747234903683932400,9.199932373046876,-0.8690133695721626,1.1590467014938592,2.737221024595201
1747234903693961200,9.209961181640624,-2.095537570272386,0.9079571404725313,1.5721411804169416
1747234903703990300,9.219990234375,-2.668355285900831,0.7511936303555965,0.3460784597486257
1747234903714020400,9.230020263671875,-2.49065040230304,0.8322983806371689,-0.2873965536773205
1747234903724049400,9.24004931640625,-1.6224164926707743,0.8763497038096189,0.08315934472382068
1747234903734078200,9.250078125,-0.5782140217140317,0.6612468174487351,0.17807050203979014
1747234903744107300,9.260107177734374,-0.05394640198200941,0.5698889687001705,0.49706221742033957
1747234903754137300,9.270137451171875,-0.2766644395217299,0.7216998248457909,1.525131007438898
1747234903764166100,9.280166259765625,-0.6358183616816997,0.749730572065711,2.009444802445173
1747234903774195200,9.2901953125,-0.899145472985506,0.7814683571100235,2.3413275635808706
1747234903784224300,9.300224365234374,-1.0861422088027,0.67930971288383,2.464277066901326
1747234903794254300,9.31025439453125,-0.939575098529458,0.37981940130889413,2.1487913138151167
1747234903804283100,9.320283203125,-0.8437307520166039,0.1953133132636547,1.8967735320329664
1747234903814312200,9.330312255859376,-1.1974860300034285,0.12595160774588585,1.9205992287784814
1747234903824341200,9.34034130859375,-1.8021674951434135,0.021822540229558943,1.8711498459547757
1747234903834371300,9.350371337890625,-2.2095757451236246,-0.10706804357767105,1.9110949028521775
1747234903844400000,9.360400146484375,-2.6532018481716513,-0.3867699510991573,2.1511101121515033
1747234903854429200,9.37042919921875,-3.218278740414977,-0.6759662476748227,2.430341479551792
1747234903864458200,9.380458251953126,-3.6923341762572526,-0.8384294307380914,2.5926784058868884
1747234903874488000,9.390488037109375,-3.8146100180998443,-0.9685790746957064,2.7351100237905976
1747234903884517000,9.40051708984375,-3.7517844363525508,-1.2191501648008822,2.982942044320702
1747234903894546200,9.410546142578125,-3.5407442693859337,-1.6477917569458485,3.127793582847714
1747234903904575200,9.4205751953125,-3.1369407658994195,-2.270993213638663,3.308728826668858
1747234903914605000,9.43060498046875,-2.9219425089567896,-2.733220264521241,3.719560036835074
1747234903924634000,9.440634033203125,-2.962732784506678,-2.901561399707198,4.364370098745822
1747234903934663200,9.4506630859375,-3.0721003371983766,-2.923288662868738,4.941989369437098
1747234903944692200,9.460692138671876,-3.2986160134553906,-2.8362790724575517,5.203583373337984
1747234903954722000,9.47072216796875,-3.5300542408064004,-2.7713591487795113,5.257144867655635
1747234903964751400,9.48075146484375,-3.631913025303185,-2.8019676375329494,5.281126631745696
1747234903974780400,9.490780517578125,-3.434587495434284,-2.9231565609216688,5.564156222385168
1747234903984809200,9.500809326171876,-2.842460975962877,-3.1383804433137175,5.918665825870633
1747234903994839300,9.51083935546875,-1.588748031824827,-3.2390795363813636,6.318611484885215
1747234904004868400,9.520868408203125,-0.2639154325857758,-3.2202491637051103,6.394111839288473
1747234904014897200,9.530897216796875,3.65792015774101,-3.0949153955966233,6.108881523734331
1747234904024926200,9.54092626953125,11.277632068622111,-1.729858630257845,5.256841500794887
1747234904034956300,9.550956298828124,15.121195501744745,2.418821137627959,0.5765437504142522
1747234904044985300,9.5609853515625,0.37517683620005843,10.721277119755744,-10.197634353923798
1747234904055014100,9.57101416015625,-10.345948600125313,21.06073051264286,-15.213028566789626
1747234904065043200,9.581043212890625,-4.385261787866056,23.269816428422928,-14.648978971767425
1747234904075073300,9.5910732421875,4.120619794571399,12.890115196299552,-9.166421420660614
1747234904085102300,9.601102294921875,3.0569910308718677,2.9440795219630003,-4.082677601929008
1747234904095131100,9.611131103515625,1.6651064643621443,-1.1283972962081432,-1.3317860716387628
1747234904105160200,9.62116015625,-0.43692309827804565,-3.1983728474617004,0.9735130239665508
1747234904115189500,9.631189453125,-3.8472491358980534,-4.562310837903619,2.2828403032988307
1747234904125218300,9.64121826171875,-5.0917959000229835,-5.045975229090452,3.470646650809049
1747234904135247400,9.651247314453125,-4.802922844052315,-4.669512152472138,4.584484675788879
1747234904145276700,9.661276611328125,-3.8473569801867007,-3.5831332123041153,4.908053782087564
1747234904155306500,9.671306396484376,-3.1388989142298698,-1.9942384654849767,4.207642244464159
1747234904165335300,9.681335205078126,-2.426574820494652,-0.3164589820325374,3.4644898817449805
1747234904175364600,9.691364501953124,-1.5534090074181557,0.8947218113243579,2.752422393119335
1747234904185393700,9.7013935546875,-0.3880160787027329,2.085600990408659,1.2586091917470097
1747234904195423500,9.711423583984375,1.5640215868473053,3.2567338510155674,-1.3743757978260516
1747234904205452500,9.72145263671875,3.2654829746603964,3.5631484088957306,-3.620567747685313
1747234904215481600,9.731481689453124,2.8339444920301435,2.4332459688216446,-3.747576755529642
1747234904225510400,9.741510498046875,1.5317898808062076,0.7755266921013593,-2.4494793107420203
1747234904235540500,9.75154052734375,0.8174702293395996,-0.5048381121188402,-1.3442194367542861
1747234904245569500,9.761569580078126,0.5219827601978555,-1.2258242357373237,-0.5913298161357641
1747234904255598600,9.7715986328125,0.34261399850845337,-1.7237509610325097,-0.07762889086455106
1747234904265628700,9.781628662109375,0.12131402933942154,-2.0708090794682503,0.3000958762526512
1747234904275657500,9.791657470703125,-0.08894203804479911,-2.23416541197896,0.48016865802556274
1747234904285686500,9.8016865234375,-0.2537853759765625,-2.195660032495856,0.4184302869930863
1747234904295715600,9.811715576171874,-0.35807810962200165,-2.0003934809833765,0.22466449543237685
1747234904305745400,9.821745361328125,-0.43140521163940426,-1.7209575309216976,0.011815233217179774
1747234904315774500,9.8317744140625,-0.41391690122187136,-1.3106027060955763,-0.2107721636801958
1747234904325803500,9.841803466796875,-0.3277759103387594,-0.8964712853401898,-0.4159861087113619
1747234904335832300,9.851832275390626,-0.20101296794367954,-0.6060889938503503,-0.6536182222664356
1747234904345862400,9.8618623046875,-0.06848726077079773,-0.4455062177062034,-0.8942845889508724
1747234904355891500,9.871891357421875,0.026284853400662538,-0.41737668628692626,-1.0522723801657556
1747234904365920500,9.88192041015625,0.06104458008203655,-0.5677881970286369,-1.1542775873959064
1747234904375949300,9.89194921875,0.0792757082235068,-0.770566439345479,-1.1663652078136801
1747234904385979400,9.9019794921875,0.09999817825667559,-0.7727057894617319,-1.219852175590396
1747234904396008400,9.912008544921875,0.09374277112372219,-0.594388619184494,-1.3351719146847725
1747234904406037500,9.92203759765625,0.06610182693898678,-0.29564941823780533,-1.5462842701047659
1747234904416066300,9.93206640625,0.33061551767885683,-0.09161386933624743,-1.699704899534583
1747234904426096400,9.942096435546874,0.6744201872766018,0.018572598522901534,-1.9955746825248002
1747234904436125400,9.95212548828125,0.9798007259339093,0.039248891326785086,-2.172079542683065
1747234904446154200,9.962154296875,0.741269033190608,-0.1545452495455742,-2.0799431107774375
1747234904456183600,9.97218359375,0.15435411088764667,-0.41233518498837946,-1.894340751928091
1747234904466213400,9.98221337890625,-0.5115442586939781,-0.5323591562509536,-1.5947238913640378
1747234904476242400,9.992242431640625,-1.0337323687382043,-0.42398762885928154,-1.117276767256856
1747234904486271500,10.002271484375,-1.327224170550704,-0.19358663560152053,-0.7492527254208922
1747234904496300500,10.012300537109375,-1.398963126593828,0.003534603866934776,-0.41243981440663335
1747234904506330400,10.022330322265624,-0.8910217877626418,0.25813655692338944,0.45496845805644986
1747234904516359700,10.032359619140625,-0.7601986284576356,0.2223439435303211,1.336813836672902
1747234904526388500,10.042388427734375,0.7065284130685031,0.7174012508690357,3.0085812202289697
1747234904536418600,10.05241845703125,2.528178168925643,1.3062158693134784,3.6612352736383675
1747234904546447600,10.062447509765626,1.4627913095124065,1.4901999793112277,3.381229706995189
1747234904556476400,10.072476318359374,-0.14813319054618476,1.357339907351136,2.408269056214392
1747234904566505500,10.08250537109375,0.28137553982213137,0.7602946361780166,1.055190605700016
1747234904576535600,10.09253564453125,1.104253035032749,0.2633095756471157,-0.11740239058732986
1747234904586564600,10.102564697265626,1.2711837188988924,-0.3373047861844301,-0.6890931480124592
1747234904596593400,10.112593505859374,0.9304683936186134,-0.7153641920834779,-1.6149229220449923
1747234904606622500,10.12262255859375,0.25018077561333774,-0.8051672126054763,-1.953604841801524
1747234904616652500,10.132652587890625,-0.34085400309860703,-0.7880594259381294,-1.4625512171462178
1747234904626681600,10.142681640625,-0.5780979941189289,-0.6090928518414497,-0.6077668639346957
1747234904636710400,10.15271044921875,-0.5976657411590218,-0.18037585637271403,0.18353461266458032
1747234904646739500,10.162739501953125,-0.36783056509047746,0.6059656597316265,0.8199328200608491
1747234904656769500,10.17276953125,0.03346636240258813,1.42911685731709,1.0981748841628431
1747234904666798600,10.182798583984376,0.08946984304487705,2.0947212854534385,0.8627887959688901
1747234904676827400,10.192827392578126,0.00964694926738739,2.35624923838079,0.7051585860200226
1747234904686857500,10.202857421875,0.11174889487028121,2.4966134023606776,-0.016982698982954025
1747234904696886500,10.212886474609375,0.08264744967892766,2.7768103999227285,-0.8304149049781262
1747234904706915300,10.222915283203125,0.17858312773704527,3.2309540975928304,-1.7013748785734175
1747234904716944400,10.2329443359375,0.31078911970257755,3.7968262318670747,-2.9937831718087193
1747234904726974500,10.242974365234375,0.2154848714157939,4.232211453053355,-4.362023243358731
1747234904737003500,10.25300341796875,0.02876607575714588,3.976407138469815,-5.957627132427692
1747234904747032300,10.2630322265625,0.1900502781689167,3.2727228627860545,-6.4137792473107575
1747234904757061400,10.273061279296876,1.8039017715901136,2.7801731543540953,-5.0229456511586905
1747234904767091500,10.283091552734374,4.158905978345871,2.798540001171827,-2.6165932422205804
1747234904777120500,10.29312060546875,4.69729740049839,3.735205934256315,-1.8632228523477912
1747234904787149300,10.3031494140625,4.17636447814703,4.883074239131808,-1.8325367683134972
1747234904797178600,10.3131787109375,3.645053369644284,5.063074247929453,-1.5453949200496078
1747234904807208400,10.32320849609375,3.835354992225766,3.7086207096695896,-1.5024902826942503
1747234904817237500,10.333237548828125,3.926920930767059,1.8446371020823715,-1.8036749770969152
1747234904827266600,10.3432666015625,3.615832535856962,0.35419396166503425,-2.1609728961266574
1747234904837296400,10.35329638671875,3.2175241226553917,-0.5443570525586605,-2.3943159341856837
1747234904847325400,10.363325439453124,2.9288065495073794,-1.0081500375837087,-2.698270823954046
1747234904857354500,10.3733544921875,2.604641230881214,-1.1600631850600243,-3.024325317327678
1747234904867383600,10.383383544921875,2.3640566972613333,-1.2998527640223503,-3.275886587513983
1747234904877413600,10.39341357421875,2.181212404948473,-1.5955203024387359,-3.6320047952398657
1747234904887442700,10.403442626953124,1.8891525356352328,-1.9861229635685682,-3.7915427385061977
1747234904897471500,10.413471435546874,1.0869669691890478,-2.3732553182393312,-3.5469799489051104
1747234904907500500,10.42350048828125,0.07455397693123668,-2.622015559530258,-3.2058173182487484
1747234904917530600,10.433530517578125,-0.6598147388190031,-2.7507939151346683,-2.9209529133975503
1747234904927559400,10.443559326171876,-1.1609165870189666,-2.6900124064356086,-2.64429928753078
1747234904937588500,10.45358837890625,-1.583077000451088,-2.4537346300989387,-2.379086070219427
1747234904947618600,10.46361865234375,-2.0819114882409573,-2.0189614033311605,-2.050660756061226
1747234904957647600,10.473647705078125,-2.466775897979736,-1.3973375712186098,-1.7389255876801908
1747234904967676400,10.483676513671876,-2.7341443936288354,-0.6353858154833316,-1.113251749524474
1747234904977705500,10.49370556640625,-2.9749089599907395,0.12493278609216213,-0.012391571800410747
1747234904987735600,10.503735595703125,-3.0831191593408582,0.6817670429080724,1.2835747061774134
1747234904997764600,10.5137646484375,-3.2040251741349697,0.9550672666937112,2.644557353945076
1747234905007793400,10.52379345703125,-3.277457490092516,1.0078028315812348,3.6389933389529583
1747234905017822500,10.533822509765624,-3.1849370273053643,0.8454472005456686,4.406547444739937
1747234905027852500,10.5438525390625,-2.966899841058254,0.4764227494955063,4.972402627879381
1747234905037881300,10.55388134765625,-2.3479143946252763,0.03597439970076084,5.491807610011101
1747234905047910400,10.563910400390625,-1.2773942639768123,-0.23865561138391495,5.9299172877252095
1747234905057940500,10.5739404296875,0.2879460042536259,-0.3673655779272318,6.1787622846901415
1747234905067969500,10.583969482421875,2.1338439200520516,-0.42762803118824955,5.989834288549423
1747234905077998300,10.593998291015625,3.6499709523022172,-0.549596706777811,4.929142162823677
1747234905088027400,10.60402734375,3.7332115455687043,-0.5227005165457725,3.373148399609327
1747234905098057500,10.614057373046874,2.903694320082664,-0.3843231424689293,2.4804510798498987
1747234905108086500,10.62408642578125,1.949167736136913,-0.4002905269294977,2.3718328842207788
1747234905118116000,10.6341162109375,1.0267688133358954,-0.6140069273680449,2.485097736611962
1747234905128146200,10.644146240234376,0.05871303186193108,-0.8283160330027342,2.641901578739285
1747234905138175200,10.65417529296875,-0.8680700973726808,-0.9777917241990566,2.628990366978943
1747234905148204300,10.664204345703125,-1.5259645356535911,-1.0940730018019675,2.3690827087298034
1747234905158233000,10.674233154296875,-1.8416344131350517,-1.1536503954082726,2.157111982914805
1747234905168263200,10.68426318359375,-1.8100668700911104,-1.1335475185781716,2.103519508937001
1747234905178292200,10.694292236328126,-1.51627330885306,-0.9979483770430088,2.148466319644451
1747234905188321000,10.704321044921874,-0.9831905145026743,-0.7663245639920234,2.217366837391257
1747234905198350000,10.71435009765625,-0.39897374524250623,-0.3268430134028196,1.9956202752321957
1747234905208380200,10.724380126953125,0.06978577614873648,0.16119477056264878,1.5135001908779144
1747234905218409200,10.7344091796875,0.42504444443583483,0.6086170510232448,1.0155743423655628
1747234905228438000,10.74443798828125,0.5675029503464698,0.9551742341995239,0.5810191422626376
1747234905238468000,10.754468017578125,0.6245525790408253,1.0699030216634273,0.4957905900493264
1747234905248497200,10.7644970703125,0.3283747530147433,0.9411866253793238,0.8790078171029686
1747234905258526200,10.774526123046876,-0.3310650150120258,0.6178028125196695,1.461265853510797
1747234905268555300,10.78455517578125,-1.0255986005127429,0.24948738652169702,2.1545973697453737
1747234905278585000,10.794585205078125,-1.565139192700386,-0.10725041440725326,2.851403868614137
1747234905288614400,10.804614501953125,-1.8827321471989154,-0.4191910422325134,3.444451886844635
1747234905298643200,10.814643310546876,-1.947267017082125,-0.633977117729187,3.8432776019185777
1747234905308672300,10.82467236328125,-1.792977349732816,-0.7260358082234859,3.9943031529054043
1747234905318702300,10.834702392578125,-1.5446975854352116,-0.7748901477634906,3.87651731595844
1747234905328731400,10.8447314453125,-1.2639604896470904,-0.8739946651160716,3.35323461561054
1747234905338760200,10.85476025390625,-1.0510045521870255,-0.9364134196281433,2.6240774604961277
1747234905348790300,10.864790283203124,-1.027444520640373,-0.9674842651963234,1.7944158581033347
1747234905358819300,10.8748193359375,-1.108853368435055,-1.0106453615307807,1.0803677170544863
1747234905368848400,10.884848388671875,-1.165084228092432,-1.1152245109021663,0.5742345966890454
1747234905378877200,10.894877197265625,-1.255044485002756,-1.3761702800273894,0.2232911612525582
1747234905388907300,10.9049072265625,-1.4458080260075628,-1.761440347957611,0.09503039978146552
1747234905398936300,10.914936279296874,-1.6154666735328733,-2.155288274618983,0.23048574893176554
1747234905408965000,10.924965087890625,-1.6451614084422588,-2.518009826132655,0.41841567394584417
1747234905418995200,10.9349951171875,-1.546920960573107,-2.6965853550851344,0.5935857783690095
1747234905429024300,10.945024169921876,-1.5105506934225559,-2.6590613878548144,0.5825210712581873
1747234905439053300,10.95505322265625,-1.4395361061312257,-2.435406946247816,0.4281324735790491
1747234905449082000,10.96508203125,-1.0991139185786247,-2.2255460521936414,0.16385814455300568
1747234905459112200,10.9751123046875,-0.5024142459727824,-2.0631763926327227,-0.2983101618796587
1747234905469141200,10.985141357421876,0.3093944504737854,-1.6380495306104421,-1.060486958542466
1747234905479170300,10.99517041015625,1.3802689475178718,-0.9495546407520771,-2.2948639185696837
1747234905489200000,11.0052001953125,2.2345020965874194,0.006527940464019775,-3.7802334089845417
1747234905499229200,11.015229248046875,2.641200736993551,0.9273720350384712,-5.286074025020003
1747234905509258200,11.02525830078125,3.041884647154808,1.5016367346048354,-6.721290952777863
1747234905519287000,11.035287109375,3.905367270606756,1.4547130708664655,-7.843125237208604
1747234905529317000,11.045317138671875,5.076835646778345,0.6977478713721037,-8.279622803550959
1747234905539346200,11.05534619140625,6.275474353948235,-0.5502180535465478,-7.9778458423435685
1747234905549375200,11.065375244140625,7.137625436535477,-1.9339958859682083,-7.000045350316166
1747234905559405300,11.0754052734375,7.135413605704903,-2.4254016850620506,-5.832968487101793
1747234905569434000,11.08543408203125,6.361570921167731,0.2715706235140562,-5.523472914341092
1747234905579463200,11.095463134765625,4.706871284529567,5.064755917406082,-5.190257443296909
1747234905589492200,11.1054921875,1.932075147038698,7.349686470982432,-3.3496678630396723
1747234905599522000,11.11552197265625,-0.22290506627811119,6.474460218244791,-1.143280392563343
1747234905609551000,11.125551025390624,-1.1492138742655515,4.262483841720223,1.3543629373669623
1747234905619580200,11.135580078125,-1.8672785574793815,3.217352857741713,4.009318643468618
1747234905629610200,11.1456103515625,-2.1174498346120116,3.2728409362077713,5.868751748144626
1747234905639639000,11.15563916015625,-1.8521593142807482,3.825123521068692,6.35314270004034
1747234905649668000,11.165668212890624,-1.5863357099860906,3.5936978609383106,6.142803667080402
1747234905659697400,11.175697509765625,-1.0059751046974212,2.3880419684827325,5.896816982156038
1747234905669727200,11.185727294921875,-0.20763335419781506,0.6634545566260814,5.375977583307027
1747234905679756300,11.19575634765625,0.5406564444750547,-1.13148064917624,4.846032794721424
1747234905689785300,11.205785400390624,0.8470726828556507,-2.6120442006140947,4.140110092461109
1747234905699815200,11.215815185546875,0.7976040838748216,-3.625629707249999,3.3050580292016267
1747234905709844200,11.22584423828125,0.6652741732686758,-4.113790825334191,2.847554207448661
1747234905719873300,11.235873291015626,0.37111068273968995,-3.9158869110554453,2.7913369379252195
1747234905729902300,11.24590234375,-0.19176124680526555,-2.870911409899592,2.845004815226793
1747234905739932400,11.255932373046875,-0.7718798600316047,-1.4112375017553567,3.107951987302303
1747234905749961200,11.265961181640625,-1.1476707364767789,0.07306465168893336,3.2011396818265316
1747234905759990300,11.275990234375,-1.4016940128624438,1.2740800248622894,2.9073110492751
1747234905770020400,11.286020263671874,-1.5738099904119967,2.010450180095434,2.3629002207025884
1747234905780049400,11.29604931640625,-1.7115356225818394,2.3389976593285797,1.8791151257455347
1747234905790078200,11.306078125,-1.7461077542692423,2.33584474825561,1.3560051516160367
1747234905800107300,11.316107177734375,-1.6884762340337036,2.084046746703982,0.861916397048533
1747234905810137300,11.326137451171874,-1.5211784704208373,1.5653712478905915,0.6533399898469447
1747234905820166100,11.336166259765625,-1.2011942368716,0.8841179997235536,0.6626175212800502
1747234905830195200,11.3461953125,-0.8825982428103685,0.3684574648171663,0.7646832265257835
1747234905840225300,11.356225341796875,-0.6421293714594095,0.02935994999706745,0.6093859895691275
1747234905850254300,11.36625439453125,-0.4192973521512002,-0.11104746860265731,0.03169774529486894
1747234905860283100,11.376283203125,-0.3434749261867255,-0.15091829122006892,-0.6590256342679262
1747234905870312200,11.386312255859375,-0.3220125975716859,-0.25524901878833767,-1.43624101010859
1747234905880342300,11.39634228515625,-0.2739035234410316,-0.35018063437044616,-2.161535936836898
1747234905890371300,11.406371337890626,-0.14207557100765406,-0.4599386476844549,-2.7671760178759692
1747234905900400000,11.416400146484374,0.3265595933515578,-0.6081178693294524,-3.3126620744645594
1747234905910430200,11.42643017578125,0.8422491351567208,-0.7932704385846853,-3.4136350160375235
1747234905920459300,11.436459228515625,1.2598515930235386,-1.0027379494071007,-2.9008836465761063
1747234905930488000,11.446488037109376,1.5305008639089763,-1.1088345176041126,-2.0632772226586935
1747234905940517000,11.45651708984375,1.6702099249809979,-1.1223802278757096,-1.5385788102939724
1747234905950547200,11.466547119140625,1.6996644213937222,-1.0971259596318006,-1.1810574577718973
1747234905960576300,11.476576171875,1.48053973217085,-0.9964414796113967,-1.1510285224720835
1747234905970605000,11.48660498046875,1.061708609291911,-0.724765642157197,-1.2447370260000228
1747234905980635100,11.49663525390625,0.7412750245399773,-0.3119154933840036,-0.972404770463705
1747234905990664200,11.506664306640625,0.4948993402980268,-0.06806406692266463,-0.4206766046151519
1747234906000693200,11.516693359375,0.27863383989855645,0.050093525946140284,0.1121066222667694
1747234906010722000,11.52672216796875,0.09824994634985923,0.11777882268428802,0.6392302159518003
1747234906020752100,11.536752197265624,0.0000393090970814228,0.17591770792007444,0.9609610009074211
1747234906030781200,11.54678125,0.0751549019664526,0.2236468428224325,1.0567010102629661
1747234906040810000,11.55681005859375,0.3060492316991091,0.2394067220121622,1.0772191898956893
1747234906050840000,11.566840087890625,0.5116460385680198,0.2065454858958721,1.1493141197696328
1747234906060869000,11.576869140625,0.6758779848694801,0.051797991776466365,1.2706406980633735
1747234906070898200,11.586898193359374,0.8298618011400103,-0.1387590668708086,1.4173153603643178
1747234906080928300,11.59692822265625,0.9837167303338646,-0.3327683117985725,1.5459981466397643
1747234906090957000,11.60695703125,1.1191516212180257,-0.41640988708138466,1.6877981886416673
1747234906100986400,11.616986328125,1.2236786020107566,-0.3526023085594177,1.80266813814193
1747234906111015400,11.627015380859374,1.3119794012762604,-0.14651274973750114,1.4964026333436369
1747234906121045000,11.637044921875,1.28648606357947,0.03129705553948879,0.7862076605916023
1747234906131074000,11.647073974609375,1.1846506599582731,0.18993395831286905,-0.05979892740249634
1747234906141102800,11.657102783203126,0.9563082066655159,0.2826683561116457,-0.8190741574048995
1747234906151133000,11.6671328125,0.6298924787640571,0.278382057094574,-1.347431384538114
1747234906161162000,11.677161865234375,0.31545594246983527,0.08960720568895339,-1.4979326193898916
1747234906171190800,11.687190673828125,0.1454249545007944,-0.2047322989940643,-1.4386328736811875
1747234906181219800,11.6972197265625,0.01808043109178543,-0.34106033932566643,-1.4649942263841629
1747234906191250000,11.70725,0.3052665568888187,-0.18963935928046702,-1.5408224975675344
1747234906201279000,11.717279052734375,0.7304065706536174,0.10910627140700817,-1.498321618707478
1747234906211307800,11.727307861328125,1.2098059978723525,0.3570294773519039,-1.4053534121528266
1747234906221337900,11.737337890625,1.794642652596533,0.3228957370817661,-1.382549459670484
1747234906231367000,11.747366943359374,2.6631922040492295,0.01306932493150234,-1.456954127791524
1747234906241396000,11.75739599609375,4.04663276734054,0.04248597355186939,-1.6568460010170936
1747234906251425800,11.76742578125,5.882579782488942,0.796107707837224,-2.288444991438091
1747234906261454800,11.777454833984375,7.760857872888446,1.9081430673092603,-3.228649912303686
1747234906271484000,11.78748388671875,7.863908497518301,2.8484581705510617,-4.0083118045136334
1747234906281512700,11.7975126953125,5.97040594998002,3.629108197015524,-4.253290481439232
1747234906291542800,11.807542724609375,4.3602667550802225,4.022197998785972,-3.7882907509729264
1747234906301571800,11.81757177734375,4.1890369127154345,3.8944127458721396,-2.6809961562871933
1747234906311601000,11.827600830078126,5.0571588864058254,3.440184877049923,-0.8639221839129925
1747234906321631000,11.837630859375,6.063962770077586,3.5996769353479143,0.9872466580256819
1747234906331659800,11.84765966796875,6.001524141821265,4.479020560276508,2.8273122144088148
1747234906341688800,11.857688720703125,4.555996832451224,5.477966131663322,4.462872558552027
1747234906351719000,11.867718994140626,2.133223742327094,6.4385080303758375,5.874978075313567
1747234906361747700,11.877747802734374,-0.09608489553676917,7.433631997647881,6.817274123239517
1747234906371776800,11.88777685546875,-1.8876000454962252,7.75036862757802,7.620242364495992
1747234906381805800,11.897805908203125,-3.286213628000021,6.904567206767201,8.07396345283985
1747234906391836000,11.9078359375,-3.857141876620054,5.396743307960033,7.772444850307703
1747234906401864700,11.91786474609375,-3.974059114038944,3.5513615249902006,7.179766542172431
1747234906411893800,11.927893798828125,-4.044668189269304,2.087271553969383,6.533871023112535
1747234906421923800,11.937923828125,-4.11146150560379,1.0445645822674035,6.045352177631854
1747234906431953000,11.947952880859376,-4.526242037917673,0.29932313831448554,5.417284576207399
1747234906441981700,11.957981689453124,-5.021550397408008,0.06325754342377185,4.692298861558735
1747234906452011800,11.96801171875,-5.291832150155305,0.07683072622418403,4.2049037594109775
1747234906462040800,11.978040771484375,-5.219109443771839,-0.057714522343873975,3.4692025894805787
1747234906472069600,11.988069580078125,-4.955293672168255,-0.23087913216352463,2.329838201317191
1747234906482099000,11.998098876953126,-3.9265193642288443,-0.35324469811618325,0.7213745384141802
1747234906492128800,12.008128662109375,-2.601284321668744,-0.38391397714614867,-0.9953396558493375
1747234906502157800,12.01815771484375,-1.707864240592718,-0.45307285356819627,-2.647604758816957
1747234906512187000,12.028186767578125,-1.0180313801288605,-0.782168614333868,-3.6673277452945707
1747234906522216700,12.038216796875,-1.0817100715741514,-1.3483318405091762,-3.836276490984857
1747234906532245800,12.048245849609375,-1.5973437184736132,-1.9461451734453439,-3.1700106763303277
1747234906542275000,12.058275146484375,-2.3417598175182937,-2.4081787475824354,-2.1113295981660483
1747234906552304600,12.0683046875,-2.520180155909061,-2.726224706545472,-0.7026479183733463
1747234906562333700,12.078333740234376,-1.8839900383055208,-2.729139717209339,1.1248732137352226
1747234906572363000,12.088363037109374,-0.8928981030285358,-2.382685409885645,2.7556480771675704
1747234906582391800,12.098391845703125,-0.28223376408666373,-1.7889058625102041,3.8923859162196517
1747234906592422000,12.108421875,-0.31911344206407666,-1.3443939165383576,4.48924530943185
1747234906602451000,12.118450927734376,-0.5513897276744246,-1.1542197197288273,5.036611188417673
1747234906612480000,12.12847998046875,-0.8369079202592372,-1.1057517491579054,5.236051226222515
1747234906622510000,12.138510009765625,-1.2718708243802188,-1.1477765349388123,5.334784572175145
1747234906632539000,12.148538818359375,-1.6430375481560826,-1.3766127630978822,5.311345828920603
1747234906642568000,12.15856787109375,-1.8418217524006961,-1.754219164532423,5.19398493938744
1747234906652598000,12.168597900390624,-1.8651427144944668,-2.1792337983518837,5.018891991853714
1747234906662626800,12.178626708984375,-1.901345662254095,-2.4720254890710116,4.834975394134223
1747234906672656000,12.18865576171875,-1.9989865367949007,-2.5977438725829125,4.602355848044157
1747234906682686000,12.19868603515625,-2.142821299494803,-2.6677602426171303,4.282926033507287
1747234906692715000,12.208715087890624,-2.3379075260043143,-2.700477101826668,3.7899478705301877
1747234906702743800,12.218743896484375,-2.442794280020147,-2.6767309000581503,3.023406156656146
1747234906712772900,12.22877294921875,-2.391384410778433,-2.3829548744767903,2.0543007199987766
1747234906722803000,12.238802978515626,-2.196587668734789,-1.7678274186462164,0.897052884620428
1747234906732832000,12.24883203125,-1.7055052563764155,-0.7249123571515083,-0.41661242391616105
1747234906742860800,12.25886083984375,-0.7220201428413391,0.604377513757348,-2.398970481993258
1747234906752891000,12.268890869140625,0.9085551794309169,2.020314571505785,-5.2137634065687655
1747234906762920000,12.278919921875,2.7931214832544327,3.1719267390847206,-8.398650164991617
1747234906772948700,12.28894873046875,4.397463390052319,3.6444109800875184,-11.329777266401052
1747234906782978800,12.298978759765625,5.967858603584766,3.0144173790365456,-13.211883975178003
1747234906793007900,12.3090078125,7.272150226837396,1.2665005295187235,-14.458140758091211
1747234906803037000,12.319036865234375,8.094138810384273,-0.6075882924973964,-15.706159289979933
1747234906813067000,12.32906689453125,8.311558741515874,-0.9909200858414172,-16.059686312168836
1747234906823095800,12.339095703125,7.203200609251857,0.5626128402173519,-14.900434443491697
1747234906833124900,12.349124755859375,3.4992297712147233,3.132160545885563,-10.73404073973894
1747234906843154000,12.35915380859375,0.043676133184507485,4.37983596342504,-0.9751894327461719
1747234906853183700,12.369183837890626,-0.794440724473074,5.240435140395165,4.451262784779072
1747234906863212800,12.379212890625,-0.8134604091763495,5.4288908428490155,2.844410356464982
1747234906873241900,12.389241943359375,-0.5808242042124271,3.5881191840231415,1.3587491896271704
1747234906883272000,12.39927197265625,0.035059622943401335,1.0105535915941,2.6107459774971007
1747234906893300700,12.40930078125,0.06896539967656135,-0.5163216291636228,4.169414512878656
1747234906903329800,12.419329833984374,-0.02219846086986363,-0.9669856680244207,5.4878913133502
1747234906913360000,12.42935986328125,0.04442958190031349,-0.7791179945915937,6.085818628054857
1747234906923389000,12.439388916015625,0.34131796734854575,-0.4991051214247942,6.341499608519673
1747234906933417700,12.449417724609376,0.4875280808776617,-0.3518815930694341,6.356241835099459
1747234906943447800,12.45944775390625,0.35643691828623414,-0.17836802368164062,5.945076862934231
1747234906953476900,12.469476806640625,0.036865211060643194,-0.10699614738523959,5.330168602812289
1747234906963505700,12.479505615234375,-0.17715294880345464,-0.3237684282630682,4.348245477896929
1747234906973535700,12.48953564453125,-0.40536878004185856,-0.2553717683851719,3.8020255540758368
1747234906983564800,12.499564697265624,-0.9304700010538101,0.16002397321760653,3.933505277593434
1747234906993593900,12.50959375,-1.5035744246691465,0.799716545984149,4.471364200304448
1747234907003622700,12.51962255859375,-1.958288031181693,1.41097037525177,5.013384626609087
1747234907013652700,12.52965283203125,-2.206912809524685,1.562082143217325,5.578567609575391
1747234907023681800,12.539681884765624,-1.8669991560161112,1.1951117020875215,5.373720159769058
1747234907033710800,12.5497109375,-1.2781262315131723,0.701660076379776,4.4765521243363615
1747234907043740700,12.55974072265625,-0.8803205071367323,0.2927618801027536,3.7233886552125215
1747234907053769700,12.569769775390625,-0.603720438088104,0.0376186597764492,3.2426328449487682
1747234907063798800,12.579798828125,-0.4146718843076378,-0.014033786049485205,2.8601602987825867
1747234907073828900,12.589828857421875,-0.2750818465054035,0.1531324601382017,2.68558991381824
1747234907083857700,12.599857666015625,-0.2176708371527493,0.37740006520748137,2.3685993091270325
1747234907093887000,12.609886962890625,-0.14785831912755965,0.5344271946966648,1.9574235233068464
1747234907103916800,12.619916748046874,-0.12505904282033442,0.6231944424301386,1.4340034603148697
1747234907113945900,12.62994580078125,-0.11957505845129489,0.6955752035081386,0.8648626796334982
1747234907123974700,12.639974609375,-0.156865143860504,0.7531476870328188,0.24468027850091456
1747234907134004500,12.65000439453125,-0.262682383659482,0.8665069397091865,-0.3953466407865286
1747234907144033500,12.660033447265626,-0.3618716566860676,0.9298287805408239,-1.0627867599174379
1747234907154062600,12.6700625,-0.3917336379211396,0.8532318630725145,-1.6526611165478824
1747234907164091600,12.680091552734375,-0.46432095442190763,0.7058698030292987,-2.1001208064094183
1747234907174121500,12.69012158203125,-0.44350145375505085,0.3921089740395546,-2.446770636305213
