time,seconds_elapsed,z,y,x
1751119140588385000,0.313385009765625,9.520543098449707,-1.249474048614502,-0.7957727909088135
1751119140608275200,0.333275146484375,9.23323917388916,-1.2614450454711914,-0.867598831653595
1751119140618220300,0.34322021484375,9.197325706481934,-1.2183493375778198,-0.9298480749130249
1751119140628165400,0.353165283203125,9.32421875,-1.1321581602096558,-0.9442132711410522
1751119140638110500,0.3631103515625,9.455899238586426,-0.9717466235160828,-1.004068374633789
1751119140648055600,0.3730556640625,9.592369079589844,-0.8304887413978577,-1.0447697639465332
1751119140658000600,0.383000732421875,9.66419506072998,-0.8280945420265198,-0.9609727263450623
1751119140667945700,0.39294580078125,9.666589736938477,-0.9071031808853149,-0.8580220341682434
1751119140677891000,0.40289111328125,9.747992515563965,-0.9837176203727722,-0.7598597407341003
1751119140687836200,0.412836181640625,9.86770248413086,-1.0459668636322021,-0.6952162981033325
1751119140697781200,0.42278125,10.052056312561035,-1.0770914554595947,-0.7047930955886841
1751119140707726300,0.432726318359375,10.222043991088867,-1.0890624523162842,-0.826897382736206
1751119140717671400,0.44267138671875,10.372879028320312,-1.1393407583236694,-0.8628104329109192
1751119140727616500,0.452616455078125,10.408791542053223,-1.146523356437683,-0.8556278347969055
1751119140737561600,0.4625615234375,10.38724422454834,-1.1680711507797241,-0.8005611896514893
1751119140747506700,0.472506591796875,10.356119155883789,-1.1321581602096558,-0.685639500617981
1751119140757451800,0.48245166015625,10.356119155883789,-1.0339958667755127,-0.6209960579872131
1751119140767396900,0.49239697265625,10.382455825805664,-0.8927379846572876,-0.6425438523292542
1751119140777342000,0.502342041015625,10.26513957977295,-0.8496423363685608,-0.5587468147277832
1751119140787287000,0.512287109375,10.176554679870605,-0.7873930931091309,-0.4629787504673004
1751119140797232000,0.522232177734375,9.90361499786377,-0.6988075971603394,-0.3696048855781555
1751119140807177200,0.53217724609375,9.494206428527832,-0.62458735704422,-0.2858078181743622
1751119140817122300,0.542122314453125,9.29309368133545,-0.6006453633308411,-0.2858078181743622
1751119140827067400,0.5520673828125,9.245209693908691,-0.540790319442749,-0.29299044609069824
1751119140837012700,0.5620126953125,9.159018516540527,-0.540790319442749,-0.2762310206890106
1751119140846957800,0.571957763671875,9.170989990234375,-0.5551555156707764,-0.22595278918743134
1751119140856903700,0.581903564453125,9.226056098937988,-0.5383961200714111,-0.1637035459280014
1751119140866848300,0.59184814453125,9.077615737915039,-0.62458735704422,-0.04638765752315521
1751119140876792600,0.60179248046875,9.02254867553711,-0.6581062078475952,0.027832595631480217
1751119140886737200,0.611737060546875,8.651448249816895,-0.7131728529930115,0.1355716735124588
1751119140896682000,0.621681884765625,8.057685852050781,-0.8233060836791992,0.31034839153289795
1751119140906627000,0.631626953125,7.4567413330078125,-0.9932944178581238,0.5713163614273071
1751119140916572400,0.641572509765625,7.248445510864258,-1.1321581602096558,0.894533634185791
1751119140926517800,0.651517822265625,8.301894187927246,-1.1561001539230347,0.937629222869873
1751119140936463600,0.661463623046875,8.993818283081055,-0.9071031808853149,0.40611645579338074
1751119140946409200,0.6714091796875,9.546878814697266,-0.7969698905944824,0.30555999279022217
1751119140956355000,0.68135498046875,9.77672290802002,-0.9382277727127075,0.05656301602721214
1751119140966300400,0.691300537109375,10.183736801147461,-1.0986392498016357,-0.12539631128311157
1751119140976245500,0.70124560546875,10.099940299987793,-1.412279725074768,-0.40551790595054626
1751119140986190600,0.711190673828125,10.001777648925781,-1.53438401222229,-0.5874772667884827
1751119140996135700,0.7211357421875,9.877279281616211,-1.393126130104065,-0.297778844833374
1751119141006080800,0.731080810546875,10.068815231323242,-1.148917555809021,0.14036007225513458
1751119141016025900,0.74102587890625,10.547656059265137,-0.8280945420265198,0.5497685670852661
1751119141025971000,0.750970947265625,10.528501510620117,-0.7059902548789978,0.6790554523468018
1751119141035916000,0.760916015625,10.583568572998047,-0.8999205827713013,0.40372225642204285
1751119141045861000,0.770861083984375,10.473435401916504,-1.335665225982666,0.17627310752868652
1751119141055806200,0.78080615234375,10.310629844665527,-1.9844939708709717,-0.24989479780197144
1751119141065751300,0.790751220703125,10.985794067382812,-1.757044792175293,-0.7694365978240967
1751119141075696400,0.8006962890625,11.84770679473877,-1.0339958667755127,-0.9753379225730896
1751119141085641500,0.810641357421875,11.950657844543457,-0.054767362773418427,-1.3440449237823486
1751119141095586600,0.820586669921875,11.924321174621582,0.7975684404373169,-1.7893664836883545
1751119141105532000,0.830531982421875,11.670536041259766,1.3530232906341553,-2.2083518505096436
1751119141115477000,0.84047705078125,11.438298225402832,1.3506290912628174,-2.2801778316497803
1751119141125422000,0.850422119140625,11.170147895812988,0.6802525520324707,-2.1245546340942383
1751119141135367200,0.8603671875,10.81580638885498,-0.4091092050075531,-1.8276736736297607
1751119141145312300,0.870312255859375,10.370484352111816,-1.1561001539230347,-1.777395486831665
1751119141155257300,0.88025732421875,10.351330757141113,-1.192013144493103,-2.3352444171905518
1751119141165202400,0.890202392578125,10.581174850463867,-0.9023147821426392,-3.4916439056396484
1751119141175147500,0.9001474609375,10.837353706359863,-0.39953240752220154,-4.624101161956787
1751119141185092600,0.910092529296875,10.918756484985352,0.07212532311677933,-5.158008098602295
1751119141195037700,0.92003759765625,11.165359497070312,0.16310499608516693,-5.0143561363220215
1751119141204982800,0.929982666015625,11.768698692321777,0.309151291847229,-4.5498809814453125
1751119141214928000,0.939927978515625,12.376825332641602,0.3546411395072937,-4.185962200164795
1751119141224873000,0.949873046875,12.719196319580078,-0.09068039059638977,-3.9106292724609375
1751119141234818000,0.959818115234375,12.044032096862793,-1.1752537488937378,-3.367145299911499
1751119141244763100,0.96976318359375,10.90678596496582,-2.104203939437866,-2.6464908123016357
1751119141254708200,0.979708251953125,9.898826599121094,-2.2789807319641113,-2.174833059310913
1751119141264653600,0.989653564453125,9.470264434814453,-0.8496423363685608,-1.8252794742584229
1751119141274598700,0.9995986328125,8.799888610839844,0.1966238170862198,-1.6169840097427368
1751119141284543700,1.009543701171875,8.414422035217285,1.0441712141036987,-1.6313492059707642
1751119141294488800,1.01948876953125,9.510966300964355,1.604414463043213,-2.3831284046173096
1751119141304434200,1.02943408203125,10.571598052978516,0.8909423351287842,-3.17321515083313
1751119141314379300,1.039379150390625,10.013748168945312,-0.3612251877784729,-3.5107975006103516
1751119141324324600,1.04932470703125,8.383296966552734,-1.2949638366699219,-3.5514988899230957
1751119141334269700,1.059269775390625,7.073668956756592,-1.7187376022338867,-3.5754408836364746
1751119141344215000,1.069215087890625,6.621164798736572,-1.4218565225601196,-3.283348321914673
1751119141354160000,1.07916015625,6.391321659088135,-0.8687959313392639,-3.151667356491089
1751119141364105500,1.08910546875,7.183802127838135,-0.4378396272659302,-3.0032267570495605
1751119141374050600,1.099050537109375,8.028955459594727,-0.19602526724338531,-2.7422587871551514
1751119141383996000,1.108995849609375,8.335412979125977,-0.11701660603284836,-2.222717046737671
1751119141393941000,1.11894091796875,8.498218536376953,-0.2486976981163025,-1.6385318040847778
1751119141403886300,1.12888623046875,8.759186744689941,-0.42108023166656494,-1.0519523620605469
1751119141413831400,1.13883154296875,8.881291389465332,-0.44262802600860596,-0.5156511664390564
1751119141423776500,1.148776611328125,8.924386978149414,-0.32770636677742004,-0.19243396818637848
1751119141433721900,1.158721923828125,9.068038940429688,-0.10504560172557831,-0.19482816755771637
1751119141443667000,1.1686669921875,9.113529205322266,0.10803835093975067,-0.3767874836921692
1751119141453612300,1.1786123046875,9.118317604064941,0.17507599294185638,-0.5850830674171448
1751119141463557400,1.188557373046875,9.147047996520996,-0.002094926545396447,-0.8556278347969055
1751119141473502700,1.198502685546875,9.032125473022461,-0.23193828761577606,-1.1237784624099731
1751119141483447800,1.20844775390625,9.23323917388916,-0.3827729821205139,-1.6169840097427368
1751119141493393200,1.21839306640625,9.50857162475586,-0.3133411407470703,-2.1413140296936035
1751119141503338200,1.228338134765625,9.558850288391113,-0.1289876103401184,-2.5435400009155273
1751119141513283300,1.238283447265625,9.491812705993652,0.002693476853892207,-2.663250207901001
1751119141523228400,1.248228515625,9.537302017211914,-0.011671733111143112,-2.4932618141174316
1751119141533173500,1.258173583984375,9.702502250671387,0.005087678786367178,-2.107795238494873
1751119141543118600,1.26811865234375,9.649829864501953,0.09606734663248062,-1.6624737977981567
1751119141553063700,1.278063720703125,9.530119895935059,0.10803835093975067,-1.3608044385910034
1751119141563008800,1.2880087890625,9.443928718566895,0.0769137293100357,-1.1788450479507446
1751119141572953900,1.297953857421875,9.50617790222168,0.03860650211572647,-1.1429320573806763
1751119141582899000,1.30789892578125,9.592369079589844,-0.03321954980492592,-1.2985551357269287
1751119141592844000,1.317843994140625,9.649829864501953,-0.12180501222610474,-1.6624737977981567
1751119141602789000,1.3277890625,10.796652793884277,-0.320523738861084,-2.158073663711548
1751119141612734200,1.337734130859375,10.739192008972168,-0.14814123511314392,-2.6057891845703125
1751119141622679300,1.34767919921875,10.044873237609863,0.4097077548503876,-2.747047185897827
1751119141632624400,1.357624267578125,10.322600364685059,0.3737947344779968,-2.8045079708099365
1751119141642569500,1.367569580078125,10.344148635864258,0.1966238170862198,-2.6967689990997314
1751119141652514800,1.377514892578125,10.162189483642578,-0.02124853990972042,-2.5459342002868652
1751119141662460000,1.3874599609375,10.260351181030273,-0.28700491786003113,-2.636914014816284
1751119141672405000,1.397405029296875,10.401609420776367,-0.8759785294532776,-2.725499391555786
1751119141682350000,1.40735009765625,9.989806175231934,-1.1513117551803589,-2.9146413803100586
1751119141692295200,1.417295166015625,9.874884605407715,-0.7514800429344177,-3.697545289993286
1751119141702240300,1.427240234375,10.430339813232422,-0.30137014389038086,-3.4293947219848633
1751119141712185300,1.437185302734375,9.980229377746582,-0.2702455222606659,-3.635296106338501
1751119141722130400,1.44713037109375,9.850942611694336,-0.09546878933906555,-3.6640264987945557
1751119141732075500,1.457075439453125,10.269927978515625,0.6108207106590271,-3.5562872886657715
1751119141742020600,1.4670205078125,10.550049781799316,0.9460089206695557,-3.3575685024261475
1751119141751965700,1.476965576171875,10.42315673828125,0.7688380479812622,-2.9361891746520996
1751119141761910800,1.486910888671875,10.336965560913086,0.1942296177148819,-2.6464908123016357
1751119141771856100,1.496856201171875,10.126276016235352,-0.2439092993736267,-2.8021137714385986
1751119141781801200,1.50680126953125,9.695320129394531,-0.2654571235179901,-3.170820951461792
1751119141791746600,1.51674658203125,8.797493934631348,-0.37319618463516235,-3.3168671131134033
1751119141801691600,1.526691650390625,8.29710578918457,-0.48811787366867065,-3.166032552719116
1751119141811637000,1.536636962890625,8.301894187927246,0.18465280532836914,-3.2019455432891846
1751119141821582000,1.54658203125,7.976283073425293,0.5581482648849487,-3.259406328201294
1751119141831527400,1.55652734375,8.105569839477539,0.8286930918693542,-3.1756093502044678
1751119141841472500,1.566472412109375,8.20612621307373,0.7233482003211975,-2.5435400009155273
1751119141851417900,1.57641796875,8.079233169555664,0.4743511974811554,-2.0072388648986816
1751119141861363000,1.586363037109375,7.4351935386657715,0.5940613150596619,-1.3320739269256592
1751119141871308300,1.596308349609375,8.419210433959961,1.3099275827407837,-1.7079635858535767
1751119141881253400,1.60625341796875,7.684190273284912,1.25725519657135,-1.7486650943756104
1751119141891198700,1.61619873046875,7.892486095428467,1.1471219062805176,-1.8492215871810913
1751119141901143800,1.626143798828125,7.767987251281738,0.9699509739875793,-1.921047568321228
1751119141911089000,1.6360888671875,7.851784706115723,0.8478466868400574,-1.8061258792877197
1751119141921034200,1.6460341796875,8.38569164276123,0.694617748260498,-1.5954362154006958
1751119141930979300,1.655979248046875,9.314641952514648,0.735319197177887,-1.559523105621338
1751119141940924700,1.665924560546875,9.884461402893066,0.8574234843254089,-1.6074072122573853
1751119141950869800,1.675869873046875,9.886856079101562,0.87897127866745,-1.6265608072280884
1751119141960815000,1.685815185546875,9.99459457397461,0.8047510385513306,-1.5882534980773926
1751119141970760200,1.69576025390625,10.404003143310547,0.6754641532897949,-1.5882534980773926
1751119141980705500,1.70570556640625,10.712855339050293,0.6012439131736755,-1.7247231006622314
1751119141990650600,1.715650634765625,10.820594787597656,0.6634931564331055,-2.002450466156006
1751119142000596000,1.725595947265625,10.81580638885498,0.7688380479812622,-2.1820156574249268
1751119142010541000,1.735541015625,10.734403610229492,0.8286930918693542,-2.2346880435943604
1751119142020486100,1.745486083984375,10.684124946594238,0.8262988328933716,-2.2346880435943604
1751119142030431200,1.75543115234375,10.432733535766602,0.7209540009498596,-2.0790648460388184
1751119142040376300,1.765376220703125,10.049661636352539,0.591667115688324,-1.8348562717437744
1751119142050321400,1.7753212890625,9.872490882873535,0.5318120718002319,-1.5954362154006958
1751119142060266500,1.7852666015625,9.822212219238281,0.5844845175743103,-1.415871024131775
1751119142070211600,1.795211669921875,9.616311073303223,0.5796960592269897,-1.3009493350982666
1751119142080156700,1.80515673828125,9.534908294677734,0.5629366636276245,-1.3560160398483276
1751119142090101800,1.815101806640625,9.554061889648438,0.6227917075157166,-1.4517840147018433
1751119142100046600,1.825046630859375,9.427168846130371,0.6922235488891602,-1.4853029251098633
1751119142109991700,1.83499169921875,9.434351921081543,0.7808090448379517,-1.5260043144226074
1751119142119936800,1.844936767578125,9.510966300964355,0.7472901940345764,-1.458966612815857
1751119142129881900,1.8548818359375,9.625887870788574,0.6036381125450134,-1.3033435344696045
1751119142139827000,1.864826904296875,9.625887870788574,0.5413888692855835,-1.1979986429214478
1751119142149772000,1.87477197265625,9.575610160827637,0.3522469103336334,-1.0351929664611816
1751119142159717000,1.884717041015625,9.745597839355469,0.25408464670181274,-1.068711757659912
1751119142169662200,1.894662109375,9.654618263244629,0.2852092683315277,-1.1884218454360962
1751119142179607300,1.904607177734375,9.77672290802002,0.24450784921646118,-1.291372537612915
1751119142189552400,1.914552490234375,9.819818496704102,0.45519760251045227,-1.679233193397522
1751119142199497500,1.92449755859375,9.702502250671387,0.5557540655136108,-1.7175405025482178
1751119142209442600,1.934442626953125,9.805453300476074,0.5342062711715698,-1.822885274887085
1751119142219387600,1.9443876953125,9.556455612182617,0.5892729163169861,-1.8731635808944702
1751119142229332700,1.954332763671875,9.621099472045898,0.4767454266548157,-1.7319056987762451
1751119142239278000,1.964278076171875,9.45111083984375,0.46238020062446594,-1.6912041902542114
1751119142249223200,1.97422314453125,9.45111083984375,0.4743511974811554,-1.5690999031066895
1751119142259168500,1.98416845703125,9.604340553283691,0.4240729808807373,-1.5044565200805664
1751119142269113600,1.994113525390625,9.71926212310791,0.3785831332206726,-1.4326304197311401
1751119142279059000,2.004058837890625,9.819818496704102,0.3354875147342682,-1.3392565250396729
1751119142289004000,2.014004150390625,9.877279281616211,0.3115454912185669,-1.269824743270874
1751119142298949400,2.023949462890625,9.963470458984375,0.27802667021751404,-1.2099696397781372
1751119142308894500,2.03389453125,9.941922187805176,0.2397194504737854,-1.171662449836731
1751119142318839800,2.04383984375,9.927556991577148,0.25408464670181274,-1.1860276460647583
1751119142328785000,2.053784912109375,9.872490882873535,0.34027591347694397,-1.2315175533294678
1751119142338730200,2.063730224609375,9.750386238098145,0.3833715617656708,-1.2410943508148193
1751119142348675300,2.07367529296875,9.764751434326172,0.400130957365036,-1.2602479457855225
1751119142358620700,2.08362060546875,9.738415718078613,0.41449618339538574,-1.2578537464141846
1751119142368565800,2.093565673828125,9.714473724365234,0.39055415987968445,-1.2219406366348267
1751119142378511000,2.103510986328125,9.707290649414062,0.3306991159915924,-1.2099696397781372
1751119142388456200,2.113456298828125,9.740809440612793,0.27802667021751404,-1.2363059520721436
1751119142398401300,2.1234013671875,9.939528465270996,0.2397194504737854,-1.190816044807434
1751119142408346600,2.1333466796875,10.104728698730469,0.20380641520023346,-1.1860276460647583
1751119142418291700,2.143291748046875,10.095151901245117,0.18944120407104492,-1.1764508485794067
1751119142428237000,2.153237060546875,9.985017776489258,0.1463455855846405,-1.1860276460647583
1751119142438182100,2.16318212890625,9.922768592834473,0.09127894043922424,-1.1740566492080688
1751119142448127500,2.17312744140625,9.84376049041748,0.05776011571288109,-1.1620856523513794
1751119142458072600,2.183072509765625,9.712079048156738,0.04578910768032074,-1.1884218454360962
1751119142468018000,2.193017822265625,9.551667213439941,0.0769137293100357,-1.1812392473220825
1751119142477963000,2.202962890625,9.391256332397461,0.1463455855846405,-1.1572972536087036
1751119142487908400,2.212908447265625,9.386467933654785,0.1726817935705185,-1.1165958642959595
1751119142497853400,2.222853515625,9.460687637329102,0.18225860595703125,-1.0758943557739258
1751119142507798500,2.232798583984375,9.4822359085083,0.18465280532836914,-1.0375871658325195
1751119142517743600,2.24274365234375,9.654618263244629,0.2157774269580841,-1.0974421501159668
1751119142527689000,2.25268896484375,9.791088104248047,0.218171626329422,-1.1788450479507446
1751119142537634000,2.262634033203125,9.819818496704102,0.15592238306999207,-1.1644798517227173
1751119142547579100,2.2725791015625,9.84615421295166,0.09127894043922424,-1.15011465549469
1751119142557524200,2.282524169921875,9.939528465270996,0.13676877319812775,-1.2291233539581299
1751119142567469300,2.29246923828125,9.939528465270996,0.2397194504737854,-1.2770073413848877
1751119142577414400,2.302414306640625,9.917980194091797,0.12000936269760132,-1.1429320573806763
1751119142587359500,2.312359375,9.855731010437012,0.06494271755218506,-1.2865841388702393
1751119142597304600,2.3223046875,9.728838920593262,0.09846154600381851,-1.171662449836731
1751119142607249700,2.332249755859375,10.023324966430664,0.127191960811615,-1.2315175533294678
1751119142617194800,2.34219482421875,10.308235168457031,-0.061949968338012695,-1.107019066810608
1751119142627139800,2.352139892578125,9.949105262756348,0.0314238965511322,-1.3464391231536865
1751119142637085000,2.3620849609375,9.587580680847168,0.2636614739894867,-1.1740566492080688
1751119142647030000,2.372030029296875,9.831789016723633,0.07212532311677933,-0.8891466856002808
1751119142656975000,2.38197509765625,9.654618263244629,0.15352818369865417,-1.0830769538879395
1751119142666920200,2.391920166015625,9.611522674560547,0.1247977614402771,-0.6042366623878479
1751119142676865500,2.401865478515625,9.71926212310791,0.11761515587568283,-0.6138134598731995
1751119142686810600,2.411810546875,9.412803649902344,0.1678933948278427,-0.33848026394844055
1751119142696755700,2.421755615234375,9.434351921081543,-0.02843114547431469,0.0014963760040700436
1751119142706700800,2.43170068359375,9.317035675048828,-0.10983400046825409,-0.12060791254043579
1751119142716646000,2.44164599609375,9.32421875,-0.10265139490365982,-0.08469488471746445
1751119142726591000,2.451591064453125,9.336189270019531,-0.21278467774391174,-0.22116437554359436
1751119142736536300,2.461536376953125,9.068038940429688,-0.5072714686393738,-0.3241150677204132
1751119142746481400,2.4714814453125,8.608352661132812,-0.7323264479637146,-0.5060743689537048
1751119142756426800,2.4814267578125,8.11514663696289,-1.005265474319458,-0.5898714661598206
1751119142766371800,2.491371826171875,8.110358238220215,-1.1991957426071167,-0.6664859056472778
1751119142776317200,2.501317138671875,8.677783966064453,-1.2087725400924683,-0.8532336354255676
1751119142786262300,2.51126220703125,9.273940086364746,-1.091456651687622,-0.8556278347969055
1751119142796207600,2.52120751953125,9.281123161315918,-1.3476362228393555,-1.2387001514434814
1751119142806152700,2.531152587890625,9.59715747833252,-1.0531494617462158,-1.7175405025482178
1751119142816098000,2.54109814453125,10.17416000366211,-0.784998893737793,-1.657685399055481
1751119142826043100,2.551043212890625,11.306617736816406,-1.09385085105896,-0.4653729498386383
1751119142835988500,2.560988525390625,11.739968299865723,-0.8376713395118713,0.07092822343111038
1751119142845933600,2.57093359375,10.945093154907227,-0.04040215536952019,-0.5731120109558105
1751119142855879000,2.58087890625,9.367314338684082,1.0250176191329956,-1.9569605588912964
1751119142865824000,2.590823974609375,7.933187484741211,1.357811689376831,-2.926612377166748
1751119142875769000,2.60076904296875,7.394492149353027,0.29718029499053955,-2.9122471809387207
1751119142885714400,2.61071435546875,8.093599319458008,-1.0794856548309326,-2.3879168033599854
1751119142895659500,2.620659423828125,9.19972038269043,-1.3476362228393555,-2.311302423477173
1751119142905604900,2.63060498046875,11.036072731018066,-0.6748656034469604,-3.019986152648926
1751119142915550000,2.640550048828125,12.901155471801758,0.1942296177148819,-4.178779602050781
1751119142925495300,2.650495361328125,12.410344123840332,0.44083237648010254,-4.988019943237305
1751119142935440400,2.6604404296875,12.802993774414062,-0.1505354344844818,-5.629665851593018
1751119142945385700,2.6703857421875,6.721721172332764,-0.784998893737793,-5.5865702629089355
1751119142955330800,2.680330810546875,3.843890905380249,-0.9932944178581238,-4.961683750152588
1751119142965276200,2.690276123046875,4.823119163513184,-0.176871657371521,-5.593752861022949
1751119142975221200,2.70022119140625,7.736862659454346,0.694617748260498,-6.1396307945251465
1751119142985166600,2.71016650390625,9.946710586547852,0.0146644851192832,-6.513126373291016
1751119142995111700,2.720111572265625,11.280281066894531,-1.6397289037704468,-5.823596477508545
1751119143005057000,2.73005712890625,11.194089889526367,-2.135328531265259,-4.739023208618164
1751119143015002000,2.740002197265625,9.932345390319824,-1.1776479482650757,-3.3791165351867676
1751119143024947500,2.749947509765625,9.065644264221191,-0.08828619122505188,-2.725499391555786
1751119143034892500,2.759892578125,9.716867446899414,-1.3955203294754028,-2.308908224105835
1751119143044837600,2.769837646484375,9.647436141967773,-2.484882116317749,-1.976114273071289
1751119143054783000,2.779782958984375,9.850942611694336,-2.2741923332214355,-3.740640878677368
1751119143064728000,2.78972802734375,9.137471199035645,-1.9557634592056274,-5.471648693084717
1751119143074673200,2.799673095703125,8.35456657409668,-1.558326005935669,-6.522703170776367
1751119143084618200,2.8096181640625,7.710526466369629,-1.457769513130188,-6.702268600463867
1751119143094563300,2.819563232421875,7.272387504577637,-1.3404536247253418,-6.546645164489746
1751119143104508400,2.82950830078125,7.289146900177002,-1.3213000297546387,-6.5586161613464355
1751119143114453500,2.83945361328125,7.428010940551758,-1.4888942241668701,-6.489184379577637
1751119143124398600,2.849398681640625,7.6985554695129395,-1.778592586517334,-6.2976484298706055
1751119143134343700,2.85934375,7.9858598709106445,-1.855207085609436,-6.024709224700928
1751119143144288800,2.869288818359375,8.378508567810059,-1.8121113777160645,-5.493196487426758
1751119143154233900,2.87923388671875,8.309077262878418,-1.733102798461914,-5.040692329406738
1751119143164179000,2.889178955078125,8.53652572631836,-1.5870563983917236,-4.755782604217529
1751119143174124300,2.899124267578125,8.785523414611816,-1.5487492084503174,-4.830002784729004
1751119143184069400,2.9090693359375,8.941145896911621,-1.4457985162734985,-4.889857769012451
1751119143194014500,2.919014404296875,8.945934295654297,-1.3189058303833008,-4.892251968383789
1751119143203959600,2.92895947265625,8.53413200378418,-1.292569637298584,-4.784512996673584
1751119143213904600,2.938904541015625,7.870938301086426,-1.091456651687622,-5.023932933807373
1751119143223849700,2.948849609375,7.344213485717773,-0.9861118197441101,-5.414187908172607
1751119143233794800,2.958794921875,7.150283336639404,-1.0220248699188232,-5.658396244049072
1751119143243740000,2.968739990234375,7.2987236976623535,-1.069908857345581,-5.507561683654785
1751119143253685200,2.978685302734375,7.708132266998291,-0.9358335733413696,-5.344756126403809
1751119143263630300,2.98863037109375,7.715314865112305,-0.9358335733413696,-5.459677696228027
1751119143273575700,2.99857568359375,7.940370082855225,-1.0603320598602295,-5.579387664794922
1751119143283520800,3.008520751953125,8.239645004272461,-1.0986392498016357,-5.708674907684326
1751119143293466000,3.018466064453125,8.854954719543457,-0.966958224773407,-5.579387664794922
1751119143303411200,3.0284111328125,8.71369743347168,-1.316511631011963,-5.2154693603515625
1751119143313356500,3.0383564453125,8.644265174865723,-1.213560938835144,-4.762965202331543
1751119143323301600,3.048301513671875,8.768763542175293,-1.2973580360412598,-4.305672645568848
1751119143333247000,3.0582470703125,8.845377922058105,-1.268627643585205,-4.475660800933838
1751119143343192000,3.068192138671875,9.089587211608887,-1.2590508460998535,-4.64325475692749
1751119143353137400,3.078137451171875,8.47906494140625,-1.04836106300354,-4.928164958953857
1751119143363082500,3.08808251953125,8.043320655822754,-0.9789292216300964,-5.201103687286377
1751119143373027600,3.098027587890625,7.7631988525390625,-1.0579378604888916,-5.093364715576172
1751119143382973000,3.107972900390625,7.696161270141602,-1.2063783407211304,-4.95928955078125
1751119143392918000,3.11791796875,7.691372871398926,-1.271021842956543,-5.193921089172363
1751119143402863400,3.12786328125,8.076839447021484,-1.1896189451217651,-5.222651958465576
1751119143412808400,3.137808349609375,8.491036415100098,-1.1130045652389526,-5.201103687286377
1751119143422753800,3.14775390625,8.723274230957031,-1.2231377363204956,-5.3686981201171875
1751119143432699000,3.157698974609375,8.704120635986328,-1.314117431640625,-5.576993465423584
1751119143442644200,3.167644287109375,8.51258373260498,-1.2829928398132324,-5.814019680023193
1751119143452589300,3.17758935546875,8.158242225646973,-1.2758102416992188,-5.950489044189453
1751119143462534700,3.18753466796875,7.82305383682251,-1.350030541419983,-6.000767230987549
1751119143472479700,3.197479736328125,7.691372871398926,-1.3955203294754028,-5.948094844818115
1751119143482425000,3.207425048828125,7.902062892913818,-1.4410101175308228,-5.730222702026367
1751119143492370200,3.2173701171875,8.20373249053955,-1.457769513130188,-5.450100898742676
1751119143502315500,3.2273154296875,8.220491409301758,-1.4266449213027954,-5.2154693603515625
1751119143512260600,3.237260498046875,8.249221801757812,-1.3596073389053345,-5.155613899230957
1751119143522206000,3.2472060546875,8.239645004272461,-1.311723232269287,-5.136460304260254
1751119143532151000,3.257151123046875,8.234856605529785,-1.3284826278686523,-5.08378791809082
1751119143542096100,3.26709619140625,8.196549415588379,-1.3763667345046997,-5.081393718719482
1751119143552041500,3.27704150390625,8.3306245803833,-1.3093290328979492,-5.110124111175537
1751119143561986600,3.286986572265625,8.759186744689941,-1.170465350151062,-5.234622955322266
1751119143571932000,3.296931884765625,9.14225959777832,-1.1656769514083862,-5.603329658508301
1751119143581877000,3.306876953125,9.26675796508789,-1.215955138206482,-5.9433064460754395
1751119143591822300,3.316822265625,8.828619003295898,-1.414673924446106,-5.866692066192627
1751119143601767400,3.326767333984375,8.122329711914062,-1.5631144046783447,-5.682338237762451
1751119143611712800,3.336712646484375,7.59560489654541,-1.3811551332473755,-5.8523268699646
1751119143621657900,3.346657958984375,7.552509307861328,-1.1441291570663452,-6.23539924621582
1751119143631603200,3.356603271484375,7.5453267097473145,-1.1656769514083862,-6.637624740600586
1751119143641548300,3.36654833984375,7.384915351867676,-1.2614450454711914,-7.080552101135254
1751119143651493600,3.37649365234375,7.528567314147949,-1.338059425354004,-7.60488224029541
1751119143661438700,3.386438720703125,8.723274230957031,-0.928650975227356,-8.229768753051758
1751119143671383800,3.3963837890625,8.277952194213867,-1.0124480724334717,-8.069357872009277
1751119143681329000,3.406328857421875,8.653841972351074,-0.784998893737793,-7.810783863067627
1751119143691274000,3.41627392578125,9.080010414123535,-0.8783727288246155,-7.762899875640869
1751119143701219000,3.426218994140625,8.613141059875488,-0.966958224773407,-7.451653480529785
1751119143711164200,3.4361640625,7.961917877197266,-0.966958224773407,-7.34391450881958
1751119143721109200,3.446109130859375,7.717709064483643,-1.2398972511291504,-7.473201274871826
1751119143731054600,3.4560546875,8.167819023132324,-1.4649521112442017,-7.695862293243408
1751119143740999700,3.465999755859375,8.593987464904785,-1.5750854015350342,-7.7964186668396
1751119143750944800,3.47594482421875,8.80467700958252,-1.4673463106155396,-7.9304938316345215
1751119143760889900,3.485889892578125,8.740033149719238,-1.0316016674041748,-7.997531414031982
1751119143770835000,3.4958349609375,8.419210433959961,-0.6389525532722473,-7.9304938316345215
1751119143780780000,3.505780029296875,7.9212164878845215,-0.48572367429733276,-7.731775283813477
1751119143790725000,3.51572509765625,7.171831130981445,-0.5886743664741516,-7.34391450881958
1751119143800670200,3.525670166015625,6.226121425628662,-0.6485294103622437,-6.702268600463867
1751119143810615300,3.535615234375,5.48152494430542,-0.540790319442749,-6.024709224700928
1751119143820560400,3.545560302734375,4.590881824493408,-0.6964133977890015,-5.699097633361816
1751119143830505700,3.555505615234375,4.06894588470459,-0.4043208062648773,-6.046257019042969
1751119143840450800,3.565450927734375,4.224568843841553,-0.1074398010969162,-6.551433563232422
1751119143850396200,3.575396240234375,4.526238441467285,-0.3636193871498108,-6.821978569030762
1751119143860341200,3.58534130859375,5.459977149963379,-0.4785410761833191,-6.795642375946045
1751119143870286300,3.595286376953125,6.357802391052246,-0.7275380492210388,-6.613682746887207
1751119143880231700,3.605231689453125,7.236474514007568,-0.8328829407691956,-6.359897613525391
1751119143890176800,3.6151767578125,7.727285861968994,-0.6341641545295715,-6.168361186981201
1751119143900122000,3.6251220703125,7.55011510848999,-0.35164836049079895,-5.861903667449951
1751119143910067200,3.635067138671875,6.999448776245117,-0.2247556895017624,-5.205892086029053
1751119143920012500,3.645012451171875,6.5493388175964355,-0.18644845485687256,-4.559457778930664
1751119143929957600,3.65495751953125,6.254851818084717,0.03381809964776039,-4.090194225311279
1751119143939903000,3.664903076171875,6.664260387420654,0.3546411395072937,-3.8866872787475586
1751119143949848000,3.67484814453125,6.539762020111084,0.713771402835846,-4.1955389976501465
1751119143959793400,3.68479345703125,4.784811973571777,0.8765770792961121,-4.712686538696289
1751119143969738500,3.694738525390625,3.9659950733184814,0.7377133965492249,-4.956895351409912
1751119143979683800,3.704683837890625,4.985925197601318,0.8454524874687195,-5.995978832244873
1751119143989629000,3.71462890625,7.032967567443848,0.48392802476882935,-7.1116766929626465
1751119143999574300,3.72457421875,8.076839447021484,-0.07152677327394485,-7.686285495758057
1751119144009519400,3.734519287109375,8.323442459106445,-0.23912090063095093,-7.55939245223999
1751119144019464700,3.744464599609375,8.852560997009277,0.6227917075157166,-6.697480201721191
1751119144029409800,3.754409912109375,9.252392768859863,0.6826467514038086,-4.966472148895264
1751119144039355000,3.76435498046875,8.687360763549805,0.7664438486099243,-3.6664206981658936
1751119144049300200,3.77430029296875,7.542932510375977,1.2931681871414185,-3.350385904312134
1751119144059245300,3.784245361328125,6.951564788818359,1.3961188793182373,-3.527556896209717
1751119144069190700,3.794190673828125,6.599617004394531,1.4056956768035889,-4.097376823425293
1751119144079135700,3.8041357421875,6.388927459716797,1.2213420867919922,-5.58178186416626
1751119144089081000,3.8140810546875,6.269217014312744,1.0489596128463745,-7.348702907562256
1751119144099026200,3.824026123046875,5.859808444976807,0.5940613150596619,-8.835501670837402
1751119144108971500,3.833971435546875,5.388150691986084,0.2636614739894867,-9.343072891235352
1751119144118916600,3.84391650390625,4.887762546539307,0.23014263808727264,-9.132383346557617
1751119144128862000,3.853862060546875,5.007472991943359,0.2421136498451233,-8.672696113586426
1751119144138807000,3.86380712890625,5.287594318389893,0.28042086958885193,-8.038232803344727
1751119144148752400,3.87375244140625,5.43603515625,0.17507599294185638,-7.303213119506836
1751119144158697500,3.883697509765625,5.232527732849121,0.11282675713300705,-8.098088264465332
1751119144168642800,3.893642822265625,6.264428615570068,0.18944120407104492,-9.783605575561523
1751119144178588000,3.903587890625,7.334636688232422,0.1487397849559784,-10.197802543640137
1751119144188533000,3.913532958984375,7.12155294418335,-0.06913257390260696,-9.900921821594238
1751119144198478300,3.923478271484375,6.5948286056518555,-0.13377602398395538,-9.29997730255127
1751119144208423400,3.93342333984375,6.159083843231201,-0.13856442272663116,-8.359055519104004
1751119144218368800,3.94336865234375,5.6658782958984375,-0.14335282146930695,-8.004714012145996
1751119144228313900,3.95331396484375,5.21097993850708,0.0146644851192832,-8.248922348022461
1751119144238259200,3.96325927734375,4.909310817718506,-0.01885433867573738,-8.478766441345215
1751119144248204300,3.973204345703125,4.456806659698486,-0.1744774430990219,-8.5194673538208
1751119144258149600,3.983149658203125,3.9205052852630615,0.23253683745861053,-8.687061309814453
1751119144278040000,4.0030400390625,4.157531261444092,0.1726817935705185,-8.854655265808105
1751119144287985200,4.012985107421875,5.634753704071045,0.17986440658569336,-10.145130157470703
1751119144297930500,4.022930419921875,6.824671745300293,0.3354875147342682,-9.87458610534668
1751119144307875600,4.03287548828125,6.803123950958252,-0.07152677327394485,-7.655160427093506
1751119144317821000,4.042821044921875,6.4415998458862305,0.0146644851192832,-7.006331920623779
1751119144327766000,4.05276611328125,6.1519012451171875,0.43843817710876465,-6.719027996063232
1751119144337711400,4.06271142578125,5.613205909729004,0.6634931564331055,-6.814795970916748
1751119144347656400,4.072656494140625,5.428852558135986,0.5270236730575562,-7.104494094848633
1751119144357601800,4.082601806640625,5.476736545562744,0.4240729808807373,-7.439682483673096
1751119144367546000,4.092546142578125,4.456806659698486,0.8023568391799927,-6.431723594665527
1751119144377490700,4.10249072265625,4.753687381744385,0.6395511031150818,-7.11885929107666
1751119144387435300,4.112435302734375,5.488707542419434,0.25647884607315063,-9.034220695495605
1751119144397380000,4.122380126953125,5.778405666351318,0.1942296177148819,-9.984719276428223
1751119144407325200,4.1323251953125,5.1583075523376465,-0.3157353401184082,-8.952817916870117
1751119144417270800,4.142270751953125,4.155137062072754,-0.5048772692680359,-7.8634562492370605
1751119144427216400,4.15221630859375,4.162319660186768,-0.1074398010969162,-7.451653480529785
1751119144437162200,4.162162353515625,4.839878559112549,0.30196869373321533,-7.324760913848877
1751119144447108000,4.172108154296875,6.889315605163574,0.43843817710876465,-6.6687493324279785
1751119144457053700,4.1820537109375,7.241262912750244,0.4025251567363739,-5.426158905029297
1751119144466999000,4.1919990234375,6.707355976104736,0.10564415156841278,-4.5714287757873535
1751119144476944100,4.201944091796875,6.321889400482178,-0.3660135865211487,-4.071040630340576
1751119144486889200,4.21188916015625,6.070498466491699,-0.8999205827713013,-3.9752726554870605
1751119144496834300,4.221834228515625,5.895721912384033,-1.4745290279388428,-4.360739231109619
1751119144506779400,4.231779296875,5.900510311126709,-1.8432360887527466,-3.764582872390747
1751119144516724500,4.241724365234375,5.019443988800049,-1.8719664812088013,-3.8866872787475586
1751119144526669600,4.251669677734375,1.294066071510315,-1.3452420234680176,-5.179555892944336
1751119144536615000,4.261614990234375,3.535038709640503,-0.8280945420265198,-8.380603790283203
1751119144546560000,4.27156005859375,5.653907299041748,-1.04836106300354,-9.173084259033203
1751119144556505000,4.281505126953125,6.918045997619629,-1.800140380859375,-8.773252487182617
1751119144566450200,4.2914501953125,7.600393295288086,-2.8488006591796875,-7.4875664710998535
1751119144576395300,4.301395263671875,7.430405139923096,-4.199130535125732,-5.773318290710449
1751119144586340400,4.31134033203125,7.2556281089782715,-4.9461212158203125,-5.201103687286377
1751119144596285400,4.321285400390625,6.953958988189697,-4.426579475402832,-6.240187644958496
1751119144606230500,4.33123046875,6.35301399230957,-3.8926727771759033,-8.59847640991211
1751119144616175600,4.341175537109375,5.531803131103516,-3.6029741764068604,-9.146748542785645
1751119144626120700,4.35112060546875,4.887762546539307,-3.6460700035095215,-8.495525360107422
1751119144636066000,4.361066162109375,4.7824177742004395,-3.8376059532165527,-7.767688274383545
1751119144646011100,4.37101123046875,5.060145378112793,-4.105756759643555,-7.26490592956543
1751119144655956500,4.38095654296875,5.122394561767578,-4.527136325836182,-6.886621952056885
1751119144665901600,4.390901611328125,4.552574634552002,-4.847959041595459,-7.082946300506592
1751119144675847000,4.400846923828125,3.621230125427246,-5.089773654937744,-7.671920299530029
1751119144685792000,4.4107919921875,2.3953988552093506,-5.266944408416748,-7.889792442321777
1751119144695737300,4.4207373046875,1.1791443824768066,-5.470451831817627,-7.1811089515686035
1751119144705682400,4.430682373046875,-0.08499415963888168,-5.690718173980713,-6.395810604095459
1751119144715627800,4.440627685546875,-0.3148375153541565,-5.640439987182617,-6.213851451873779
1751119144725572900,4.45057275390625,0.6739677786827087,-6.174346923828125,-6.4508771896362305
1751119144735518200,4.460518310546875,2.2254104614257812,-7.778461933135986,-6.15878438949585
1751119144745463300,4.47046337890625,3.1663317680358887,-8.949226379394531,-5.318419933319092
1751119144755408600,4.48040869140625,3.9228994846343994,-8.913313865661621,-5.055057525634766
1751119144765353700,4.490353759765625,5.586869716644287,-8.300397872924805,-6.575375556945801
1751119144775299000,4.500299072265625,7.995436668395996,-7.460033416748047,-9.240121841430664
1751119144785244200,4.510244140625,11.644200325012207,-6.001964569091797,-12.891280174255371
1751119144795189200,4.520189208984375,14.663288116455078,-4.522347927093506,-14.945505142211914
1751119144805134600,4.530134521484375,15.532383918762207,-3.1600470542907715,-14.538490295410156
1751119144815079700,4.54007958984375,17.086219787597656,-2.377142906188965,-12.896068572998047
1751119144825025000,4.55002490234375,15.075091361999512,-2.50642991065979,-10.05654525756836
1751119144834970000,4.55997021484375,11.888408660888672,-2.7841572761535645,-7.832331657409668
1751119144844915500,4.56991552734375,8.99860668182373,-1.5319898128509521,-8.737339973449707
1751119144864806000,4.589805908203125,13.530831336975098,-0.9094973802566528,-6.750152587890625
1751119144874751000,4.5997509765625,14.265851020812988,-1.733102798461914,-4.724658012390137
1751119144884696300,4.6096962890625,11.988965034484863,-1.8887258768081665,-5.18673849105835
1751119144894641400,4.619641357421875,9.475052833557129,-2.0539257526397705,-6.163572788238525
1751119144904586800,4.629586669921875,9.520543098449707,-1.879149079322815,-6.347926616668701
1751119144914531800,4.63953173828125,10.9091796875,-2.310105323791504,-3.8004958629608154
1751119144924477200,4.649477294921875,10.621875762939453,-2.104203939437866,-1.877951979637146
1751119144934422300,4.65942236328125,9.65222454071045,-1.9581576585769653,-1.0088567733764648
1751119144944367600,4.66936767578125,9.41519832611084,-1.4960768222808838,-2.4142532348632812
1751119144954312700,4.679312744140625,8.177395820617676,-1.8528128862380981,-4.372710227966309
1751119144964257800,4.6892578125,9.240421295166016,-3.1600470542907715,-6.3407440185546875
1751119144974203100,4.699203125,10.789469718933105,-2.331653118133545,-10.082880973815918
1751119144984148200,4.709148193359375,9.443928718566895,-3.526359796524048,-7.801207065582275
1751119144994093600,4.719093505859375,6.965929985046387,-4.931756019592285,-4.595370769500732
1751119145013984000,4.73898388671875,-2.1128830909729004,-5.75057315826416,-2.5794529914855957
1751119145023929000,4.74892919921875,-2.84790301322937,-5.259761810302734,-5.045480728149414
1751119145063710000,4.7887099609375,7.12155294418335,-0.8233060836791992,-2.3184850215911865
1751119145093545700,4.818545654296875,8.072051048278809,-2.949357271194458,-4.95928955078125
1751119145103490800,4.82849072265625,4.58848762512207,-5.142446041107178,-4.616918563842773
1751119145123381200,4.84838134765625,5.280411720275879,-1.8887258768081665,-6.039074420928955
1751119145133326300,4.858326416015625,4.533421039581299,-1.8336591720581055,-4.3535566329956055
1751119145173107200,4.898107177734375,4.751293182373047,6.3880295753479,-17.619827270507812
1751119145222833400,4.94783349609375,10.664971351623535,-4.067449569702148,-6.359897613525391
1751119145282504700,5.007504638671875,8.304288864135742,1.039382815361023,-12.292729377746582
1751119145302395000,5.027394775390625,11.170147895812988,1.0322002172470093,-9.58249282836914
1751119145342175700,5.06717578125,7.650671482086182,1.0417770147323608,-9.702202796936035
1751119145352121600,5.07712158203125,8.744821548461914,0.8143278360366821,-8.859443664550781
1751119145420010800,5.1450107421875,3.9205052852630615,-1.919850468635559,-1.1309610605239868
1751119145429956000,5.1549560546875,6.582857608795166,-2.6285340785980225,-2.8212673664093018
1751119145439901200,5.164901123046875,7.138312339782715,-4.235043525695801,-5.191526889801025
1751119145469737000,5.194737060546875,3.400963544845581,-4.191947937011719,-7.652766227722168
1751119145479682000,5.20468212890625,2.1966800689697266,-3.4712932109832764,-10.317512512207031
1751119145489627100,5.214627197265625,4.059369087219238,-0.3372831642627716,-13.250410079956055
1751119145499572200,5.224572265625,3.4368765354156494,-1.371578335762024,-16.762704849243164
1751119145509517600,5.234517578125,3.111265182495117,-1.5080478191375732,-16.73876190185547
1751119145519462700,5.244462646484375,1.4903905391693115,-0.08589198440313339,-17.22478485107422
1751119145529407700,5.25440771484375,3.336320161819458,0.9579799771308899,-15.273510932922363
1751119145539353000,5.26435302734375,5.704185485839844,-1.1082161664962769,-16.20724868774414
1751119145549298200,5.274298095703125,8.735244750976562,-1.577479600906372,-15.335760116577148
1751119145559243300,5.2842431640625,9.11113452911377,-0.8951321840286255,-11.24646282196045
1751119145569188400,5.294188232421875,6.922834396362305,-1.8145055770874023,-8.869020462036133
1751119145599023900,5.32402392578125,6.075286865234375,-1.9485808610916138,-9.642348289489746
1751119145608969000,5.333968994140625,5.65151309967041,-1.6660650968551636,-6.656778335571289
1751119145618914300,5.343914306640625,5.146336555480957,-3.435380220413208,-4.310461044311523
1751119145638804500,5.363804443359375,6.755239963531494,-4.323628902435303,-8.955212593078613
1751119145648749600,5.37374951171875,5.855020046234131,-2.1472997665405273,-7.78444766998291
1751119145668640000,5.393639892578125,2.103306293487549,1.6810288429260254,-1.801337480545044
1751119145678585000,5.403585205078125,4.23893404006958,0.8023568391799927,-0.623390257358551
1751119145688530400,5.413530517578125,6.731297969818115,0.39294835925102234,-0.9944915175437927
1751119145698475500,5.4234755859375,7.451952934265137,0.9675567746162415,-1.7678186893463135
1751119145718366000,5.443365966796875,7.715314865112305,1.889324426651001,-5.857115268707275
1751119145728311000,5.45331103515625,6.865373611450195,0.9531915783882141,-8.780435562133789
1751119145738256100,5.463256103515625,5.510255336761475,-0.7419032454490662,-12.400468826293945
1751119145748201500,5.473201416015625,5.799953460693359,-0.5312135219573975,-13.118728637695312
1751119145758146600,5.483146484375,5.855020046234131,0.6443395614624023,-12.352584838867188
1751119145768092000,5.493091796875,5.438429355621338,0.5725134611129761,-12.003030776977539
1751119145778037000,5.503037109375,5.2564697265625,1.34823477268219,-11.823465347290039
1751119145787982300,5.512982421875,4.198232650756836,1.8174983263015747,-12.022184371948242
1751119145797927400,5.522927490234375,5.43603515625,1.8246809244155884,-13.171401023864746
1751119145817817900,5.54281787109375,8.244433403015137,2.0760722160339355,-15.484200477600098
1751119145827763200,5.55276318359375,10.772710800170898,0.83348149061203,-12.943952560424805
1751119145837708300,5.562708251953125,11.66574764251709,-2.334047317504883,-11.030984878540039
1751119145847653600,5.572653564453125,10.638635635375977,-3.6221280097961426,-9.7883939743042
1751119145857598700,5.5825986328125,8.280346870422363,-5.8750715255737305,-5.464466094970703
1751119145877489400,5.602489501953125,2.493561029434204,-6.746561050415039,-0.8436568379402161
1751119145887434500,5.6124345703125,-0.48961424827575684,-8.424896240234375,1.0884639024734497
1751119145897379800,5.6223798828125,-1.9261353015899658,-7.450456619262695,1.3374608755111694
1751119145907325200,5.6323251953125,-0.4920084476470947,-5.503970623016357,-0.6976104974746704
1751119145917270300,5.642270263671875,5.467159748077393,-4.4170026779174805,-2.0599112510681152
1751119145927215600,5.652215576171875,7.416039943695068,-4.381089687347412,-4.004003047943115
1751119145937161000,5.662160888671875,8.254010200500488,-3.6867713928222656,-6.781277179718018
1751119145947106000,5.67210595703125,8.426392555236816,-5.683535575866699,-6.956053733825684
1751119145957051400,5.682051513671875,8.457517623901367,-4.354753494262695,-8.045415878295898
1751119145966996700,5.691996826171875,7.483077526092529,-0.21039047837257385,-9.525032043457031
1751119145976941800,5.70194189453125,6.98508358001709,2.2795794010162354,-9.283217430114746
1751119145986887200,5.71188720703125,7.334636688232422,-0.6078279614448547,-4.358345031738281
1751119145996832500,5.72183251953125,8.021772384643555,-2.5016415119171143,-1.312920331954956
1751119146006777600,5.731777587890625,7.332242488861084,-1.0459668636322021,-1.6959925889968872
1751119146016723000,5.741722900390625,2.828749418258667,1.724124550819397,-5.883451461791992
1751119146026668300,5.751668212890625,9.884461402893066,1.769614338874817,-8.945635795593262
1751119146036613400,5.76161328125,11.66335391998291,0.8981249332427979,-9.070134162902832
1751119146046558700,5.771558837890625,12.582727432250977,1.467944860458374,-8.208221435546875
1751119146056504000,5.781504150390625,9.66419506072998,3.165433883666992,-8.835501670837402
1751119146066449200,5.79144921875,10.653000831604004,5.8086323738098145,-11.500248908996582
1751119146076394500,5.80139453125,8.531737327575684,4.408024787902832,-9.304765701293945
1751119146086339800,5.81133984375,8.364143371582031,3.277961492538452,-6.8052191734313965
1751119146096285000,5.821284912109375,8.886079788208008,1.9826983213424683,-6.314407825469971
1751119146106230300,5.831230224609375,8.400056838989258,0.6443395614624023,-6.094141006469727
1751119146116175600,5.841175537109375,6.247669219970703,-0.6317699551582336,-6.750152587890625
1751119146126120700,5.85112060546875,6.513425827026367,-0.8735843300819397,-6.836343765258789
1751119146136066000,5.861066162109375,5.6658782958984375,-1.754650592803955,-6.11329460144043
1751119146146011100,5.87101123046875,3.3435027599334717,-2.106598138809204,-5.1460371017456055
1751119146155956200,5.880956298828125,2.895787000656128,-2.0371663570404053,-5.5219268798828125
1751119146165901600,5.890901611328125,4.617218017578125,-2.568679094314575,-6.771700382232666
1751119146185792000,5.9107919921875,6.372167587280273,-2.2574329376220703,-6.671143531799316
1751119146195737000,5.920737060546875,5.989095687866211,-0.988506019115448,-6.50833797454834
1751119146205682400,5.930682373046875,5.519832134246826,0.2612672746181488,-7.25293493270874
1751119146215627500,5.94062744140625,5.65151309967041,1.470339059829712,-8.134000778198242
1751119146225572900,5.95057275390625,5.52701473236084,3.0313587188720703,-8.572139739990234
1751119146235518000,5.96051806640625,5.8191070556640625,3.567659854888916,-6.699874401092529
1751119146245463300,5.97046337890625,7.954735279083252,3.744830846786499,-3.790919065475464
1751119146255408400,5.980408447265625,11.139023780822754,4.18536376953125,-4.770147800445557
1751119146265353700,5.990353759765625,10.825383186340332,3.3545758724212646,-6.896198749542236
1751119146275298800,6.000298828125,7.428010940551758,2.2723968029022217,-7.2912421226501465
1751119146285244200,6.010244140625,5.986701488494873,1.6092028617858887,-6.204274654388428
1751119146295189200,6.020189208984375,6.446388244628906,2.7560253143310547,-6.079775810241699
1751119146305134600,6.030134521484375,7.135918140411377,4.542099952697754,-7.059004306793213
1751119146315079700,6.04007958984375,7.384915351867676,5.305850028991699,-8.268075942993164
1751119146325024800,6.050024658203125,5.613205909729004,3.0074167251586914,-10.295965194702148
1751119146334970000,6.05997021484375,9.350554466247559,2.8901007175445557,-11.67502498626709
1751119146344915200,6.069915283203125,10.183736801147461,4.3984479904174805,-12.062886238098145
1751119146354860500,6.079860595703125,9.72165584564209,3.5078048706054688,-10.985495567321777
1751119146364805600,6.0898056640625,7.933187484741211,1.5349825620651245,-9.36701488494873
1751119146374751000,6.0997509765625,6.700173377990723,0.9124901294708252,-7.827543258666992
1751119146384696000,6.109696044921875,5.4240641593933105,1.305139183998108,-6.699874401092529
1751119146394641400,6.119641357421875,6.381744861602783,1.0322002172470093,-7.846696853637695
1751119146404586500,6.12958642578125,6.867767810821533,0.8023568391799927,-9.156325340270996
1751119146414531800,6.13953173828125,1.7106571197509766,0.6658873558044434,-12.975076675415039
1751119146424477000,6.149476806640625,-2.3092074394226074,-1.9126678705215454,-16.0013484954834
1751119146434422300,6.15942236328125,-2.0027496814727783,-2.089838743209839,-15.275904655456543
1751119146444367400,6.169367431640625,-1.1097124814987183,-2.3196821212768555,-12.64467716217041
1751119146454312700,6.179312744140625,-0.1759738177061081,-4.893448829650879,-8.672696113586426
1751119146464257800,6.1892578125,3.7696704864501953,-2.2574329376220703,-6.185120582580566
1751119146474203100,6.199203125,5.309142112731934,-0.39234980940818787,-6.1396307945251465
1751119146484148200,6.209148193359375,2.1775264739990234,-1.8935142755508423,-7.674314498901367
1751119146494093300,6.21909326171875,0.9828197956085205,-2.9110500812530518,-8.040627479553223
1751119146504038700,6.22903857421875,3.068169593811035,-2.417844533920288,-7.762899875640869
1751119146513983700,6.238983642578125,6.831854343414307,-0.7897872924804688,-7.511508464813232
1751119146523929000,6.24892919921875,10.44470500946045,-0.784998893737793,-4.999990940093994
1751119146533874200,6.258874267578125,8.831012725830078,-1.800140380859375,-2.24665904045105
1751119146543819500,6.268819580078125,4.267664432525635,-3.0307600498199463,-0.9106944799423218
1751119146553764600,6.2787646484375,1.9979612827301025,-5.269338607788086,-1.4446014165878296
1751119146563710000,6.2887099609375,1.5119383335113525,-4.603750705718994,-3.453336715698242
1751119146573655000,6.298655029296875,2.960430383682251,-3.6053683757781982,-5.337573528289795
1751119146583600400,6.308600341796875,7.4998369216918945,-1.0627262592315674,-5.36630392074585
1751119146593545500,6.31854541015625,9.068038940429688,-1.0339958667755127,-5.545868873596191
1751119146603490800,6.32849072265625,5.299565315246582,-0.5383961200714111,-5.454889297485352
1751119146613436000,6.338435791015625,1.9117701053619385,-1.1608885526657104,-9.924863815307617
1751119146623381200,6.34838134765625,0.2454056739807129,0.39534255862236023,-11.466730117797852
1751119146633326300,6.358326416015625,-2.100912094116211,2.818274736404419,-9.776423454284668
1751119146643271700,6.368271728515625,-1.6388310194015503,4.6594157218933105,-3.371933937072754
1751119146653216800,6.378216796875,8.344989776611328,2.2963387966156006,-1.6433202028274536
1751119146663161900,6.388161865234375,6.257246017456055,2.5357589721679688,-8.406940460205078
1751119146673107200,6.398107177734375,8.503006935119629,4.3984479904174805,-14.421175003051758
1751119146683052300,6.40805224609375,4.36343240737915,4.36492919921875,-16.281469345092773
1751119146692997600,6.41799755859375,-4.763264179229736,-0.9118915796279907,-16.353296279907227
1751119146702942700,6.427942626953125,-7.787140846252441,-2.8320412635803223,-10.051756858825684
1751119146712888000,6.43788818359375,-1.1480196714401245,-0.5072714686393738,-7.896975040435791
1751119146722833200,6.447833251953125,6.01303768157959,-2.106598138809204,-17.41632080078125
1751119146732778500,6.457778564453125,5.433640956878662,-3.3300352096557617,-19.11141586303711
1751119146742723600,6.4677236328125,4.873397350311279,-5.587767601013184,-19.647716522216797
1751119146752669000,6.4776689453125,3.9636008739471436,-5.338770389556885,-17.739538192749023
1751119146762614000,6.487614013671875,-3.400963544845581,-4.232649326324463,-12.64467716217041
1751119146772559400,6.497559326171875,7.746439456939697,-2.1018097400665283,-9.94401741027832
1751119146782504400,6.50750439453125,2.8215668201446533,-1.213560938835144,-7.099705696105957
1751119146792449800,6.51744970703125,1.6268600225448608,0.5581482648849487,-11.253645896911621
1751119146802395000,6.527394775390625,-0.19033902883529663,0.6682815551757812,-10.523414611816406
1751119146812340200,6.53734033203125,-0.5374982953071594,-0.3660135865211487,-7.722198486328125
1751119146822285300,6.547285400390625,0.010773907415568829,-1.105821967124939,-4.741417407989502
1751119146832230400,6.55723046875,2.1942858695983887,0.6395511031150818,-3.8483798503875732
1751119146842175700,6.56717578125,6.57806921005249,2.179022789001465,-5.684732437133789
1751119146852120800,6.577120849609375,7.8541789054870605,1.7983447313308716,-6.5825581550598145
1751119146862066200,6.587066162109375,5.8622026443481445,1.470339059829712,-6.841132164001465
1751119146872011300,6.59701123046875,3.58292293548584,0.773626446723938,-6.924929141998291
1751119146881956600,6.60695654296875,3.3267433643341064,0.9867103695869446,-7.8419084548950195
1751119146891901700,6.616901611328125,3.9875428676605225,2.0952258110046387,-9.297582626342773
1751119146901847000,6.626846923828125,4.274847030639648,2.665045738220215,-11.200973510742188
1751119146911792000,6.636792236328125,4.657919406890869,1.1279683113098145,-11.184213638305664
1751119146921737500,6.646737548828125,5.270834922790527,-1.8815432786941528,-9.857826232910156
1751119146931682600,6.6566826171875,3.731363296508789,-3.5838205814361572,-9.738116264343262
1751119146941628000,6.6666279296875,4.018667697906494,-3.96449875831604,-9.230545043945312
1751119146951573000,6.676572998046875,6.446388244628906,-3.4210150241851807,-9.505878448486328
1751119146961518300,6.686518310546875,7.542932510375977,-2.1209633350372314,-8.41891098022461
1751119146971463400,6.69646337890625,6.331466197967529,-1.8504186868667603,-7.205050945281982
1751119146981408800,6.70640869140625,5.057751178741455,-2.130540132522583,-5.687126636505127
1751119146991353900,6.716353759765625,5.031414985656738,-1.0244190692901611,-6.367080211639404
1751119147001299000,6.726298828125,4.751293182373047,0.12000936269760132,-8.737339973449707
1751119147011244300,6.736244384765625,4.622006416320801,0.47913962602615356,-10.635941505432129
1751119147021189400,6.746189453125,5.740098476409912,-0.8592191338539124,-10.073304176330566
1751119147031134700,6.756134765625,4.138377666473389,-1.1680711507797241,-8.988731384277344
1751119147041079800,6.766079833984375,3.092111587524414,-1.2805986404418945,-8.45003604888916
1751119147051025200,6.776025146484375,-0.19033902883529663,-2.176030158996582,-7.956830024719238
1751119147060970200,6.78597021484375,0.9253589510917664,-4.1536407470703125,-7.865850448608398
1751119147070915600,6.79591552734375,5.467159748077393,-3.392284631729126,-6.616076946258545
1751119147080860700,6.805860595703125,5.938817501068115,-2.1185691356658936,-7.669526100158691
1751119147090806000,6.815805908203125,5.021838188171387,-3.1169512271881104,-7.128436088562012
1751119147100751000,6.825751220703125,4.942829608917236,-4.012382984161377,-7.805995464324951
1751119147110696400,6.835696533203125,5.445611953735352,-2.2526445388793945,-9.374197006225586
1751119147120641500,6.8456416015625,5.692214488983154,-0.20799627900123596,-9.431658744812012
1751119147130587000,6.8555869140625,5.814318656921387,0.21338322758674622,-8.727763175964355
1751119147140532000,6.865531982421875,6.841431140899658,1.2165536880493164,-9.06295108795166
1751119147150477000,6.87547705078125,7.890091896057129,4.678569316864014,-9.584887504577637
1751119147160422400,6.88542236328125,6.18302583694458,1.5828665494918823,-8.332719802856445
1751119147170367500,6.895367431640625,3.3482911586761475,-2.41545033454895,-6.711845397949219
1751119147180312800,6.905312744140625,-0.8008604645729065,-2.6979660987854004,-7.214627742767334
1751119147190258000,6.9152578125,-2.321178436279297,-1.2997522354125977,-8.184279441833496
1751119147200203300,6.925203369140625,0.6859387755393982,-1.6852186918258667,-8.837896347045898
1751119147210148400,6.9351484375,4.528632640838623,-3.36594820022583,-8.737339973449707
1751119147220093700,6.94509375,6.9707183837890625,-4.974852085113525,-9.663895606994629
1751119147230038800,6.955038818359375,5.9771246910095215,-4.65402889251709,-12.635100364685059
1751119147239984000,6.964984130859375,2.191891670227051,-2.245461940765381,-12.580033302307129
1751119147249929200,6.97492919921875,-0.243011474609375,-0.8496423363685608,-10.413281440734863
1751119147259874600,6.98487451171875,1.1097124814987183,-1.7235260009765625,-9.651925086975098
1751119147269819600,6.994819580078125,2.7234044075012207,-1.6301521062850952,-9.99908447265625
1751119147279765000,7.004764892578125,2.230198860168457,-0.5168482661247253,-10.820295333862305
1751119147289710000,7.0147099609375,2.2852654457092285,-0.6796540021896362,-11.90965747833252
1751119147299655400,7.024655517578125,2.0219032764434814,0.07451952993869781,-13.384485244750977
1751119147309600500,7.0346005859375,0.7697358727455139,3.5149874687194824,-13.389273643493652
1751119147319545600,7.044545654296875,0.6332663297653198,5.822998046875,-12.173019409179688
1751119147339436000,7.06443603515625,0.707486629486084,6.3209919929504395,-10.365397453308105
1751119147349381400,7.07438134765625,0.7314286231994629,4.0872015953063965,-9.5130615234375
1751119147369271800,7.094271728515625,-1.169567584991455,-1.5607202053070068,-7.583334445953369
1751119147379217000,7.104216796875,-0.08499415963888168,-2.815281867980957,-9.376591682434082
1751119147389162200,7.114162353515625,0.1472434103488922,-1.8049287796020508,-10.09245777130127
1751119147399107300,7.124107421875,0.18794482946395874,-0.5503671169281006,-10.171466827392578
1751119147409052700,7.134052734375,0.5494692921638489,-0.12659341096878052,-10.140341758728027
1751119147418997800,7.143997802734375,0.3124433159828186,-1.3979145288467407,-8.830713272094727
1751119147428943000,7.153943115234375,0.365115761756897,-3.5072062015533447,-8.608053207397461
1751119147438888200,7.16388818359375,1.169567584991455,-4.79049825668335,-7.805995464324951
1751119147448833500,7.17383349609375,2.3810336589813232,-4.543895721435547,-8.052597999572754
1751119147458778600,7.183778564453125,2.515108823776245,-3.3108816146850586,-8.835501670837402
1751119147468724000,7.193723876953125,2.5797524452209473,-0.39474400877952576,-8.282441139221191
1751119147478669000,7.2036689453125,2.1535844802856445,-1.433827519416809,-8.907328605651855
1751119147488614100,7.2136142578125,1.2270283699035645,-2.3388357162475586,-10.52101993560791
1751119147498559500,7.2235595703125,1.1504138708114624,-2.5351603031158447,-10.695796966552734
1751119147508504600,7.233504638671875,1.0785878896713257,-1.3955203294754028,-10.707767486572266
1751119147518450000,7.243449951171875,1.0761936902999878,-1.7498621940612793,-9.127594947814941
1751119147528395000,7.25339501953125,2.3930046558380127,-2.159270763397217,-8.488343238830566
1751119147538340400,7.26334033203125,2.1559786796569824,-1.7666215896606445,-7.339126110076904
1751119147548285400,7.273285400390625,2.7305870056152344,-2.2550387382507324,-6.55382776260376
1751119147558230800,7.283230712890625,2.78086519241333,-1.6947954893112183,-6.920140743255615
1751119147568175900,7.29317578125,2.0889410972595215,-1.9030910730361938,-8.21300983428955
1751119147588066300,7.31306640625,0.7098808288574219,-0.9358335733413696,-9.915287017822266
1751119147607956700,7.332956787109375,0.8678981065750122,-0.04519055783748627,-10.762834548950195
1751119147617902000,7.342902099609375,1.2270283699035645,-0.3109469413757324,-10.688613891601562
1751119147627847200,7.35284716796875,1.6508020162582397,-0.5767033100128174,-10.315118789672852
1751119147637792500,7.36279248046875,1.9333178997039795,-1.103427767753601,-9.723751068115234
1751119147647737600,7.372737548828125,2.007538080215454,-1.8192939758300781,-8.761281967163086
1751119147657682700,7.3826826171875,2.9077579975128174,-1.7115548849105835,-7.8634562492370605
1751119147667628000,7.3926279296875,2.721010208129883,-0.1984194666147232,-7.588122844696045
1751119147677573000,7.402572998046875,1.8303672075271606,1.6929998397827148,-9.970354080200195
1751119147687518500,7.4125185546875,2.8838160037994385,0.6898293495178223,-10.755651473999023
1751119147697463600,7.422463623046875,4.552574634552002,-1.6924012899398804,-10.954370498657227
1751119147707409000,7.432408935546875,5.400122165679932,-2.0970213413238525,-10.006266593933105
1751119147717354000,7.44235400390625,5.050568580627441,-1.857601284980774,-9.058162689208984
1751119147727299300,7.45229931640625,4.3610382080078125,-1.634940505027771,-8.646360397338867
1751119147737244400,7.462244384765625,3.9157168865203857,-0.3372831642627716,-9.101258277893066
1751119147747189800,7.472189697265625,3.5494039058685303,-0.14574703574180603,-8.909722328186035
1751119147757134800,7.482134765625,2.977189779281616,-0.4330512285232544,-8.869020462036133
1751119147767080200,7.492080078125,3.2549171447753906,-0.62458735704422,-8.854655265808105
1751119147777025300,7.502025390625,4.013879299163818,-1.1106103658676147,-8.035839080810547
1751119147786970600,7.511970703125,4.696226596832275,-0.9813234210014343,-6.745364189147949
1751119147796915700,7.521915771484375,3.558980941772461,-3.234267234802246,-9.57052230834961
1751119147806861000,7.531861083984375,2.874239206314087,-2.532766103744507,-9.419687271118164
1751119147816806100,7.54180615234375,2.409764051437378,-0.4354454278945923,-9.742904663085938
1751119147826751200,7.551751220703125,3.2094273567199707,1.0968436002731323,-10.037391662597656
1751119147836696600,7.561696533203125,4.528632640838623,0.5222352743148804,-8.90254020690918
1751119147846641700,7.5716416015625,4.55496883392334,-0.5216367244720459,-7.839514255523682
1751119147856587000,7.5815869140625,3.930082082748413,-0.21757307648658752,-7.609670639038086
1751119147866532000,7.591531982421875,4.059369087219238,0.6203975081443787,-7.549815654754639
1751119147876477400,7.6014775390625,2.2469582557678223,0.5270236730575562,-8.672696113586426
1751119147886422500,7.611422607421875,2.1990742683410645,0.7975684404373169,-9.905710220336914
1751119147896367900,7.621367919921875,2.958036184310913,0.7999626398086548,-9.726144790649414
1751119147906313000,7.63131298828125,2.1368250846862793,-0.13377602398395538,-9.556157112121582
1751119147916258300,7.64125830078125,4.940435409545898,4.161421775817871,-5.17476749420166
1751119147926203400,7.651203369140625,-1.404199242591858,3.4048540592193604,-3.5371336936950684
1751119147936148700,7.661148681640625,-0.5494692921638489,-4.187159538269043,-7.770082473754883
1751119147946094000,7.671093994140625,9.649829864501953,-12.262802124023438,-11.902474403381348
1751119147956039200,7.6810390625,4.660313606262207,-4.359541893005371,-16.530466079711914
1751119147965984500,7.690984619140625,2.9053637981414795,-2.3172879219055176,-14.876072883605957
1751119147975929900,7.700929931640625,6.139930248260498,-5.870283126831055,-11.184213638305664
1751119147985875000,7.710875,7.779958248138428,-5.776909351348877,-10.058938980102539
1751119147995820300,7.7208203125,6.566098213195801,-4.005200386047363,-9.201814651489258
1751119148005765600,7.730765625,4.856637954711914,-4.158429145812988,-8.002320289611816
1751119148015710700,7.740710693359375,3.271676540374756,-5.731419563293457,-6.671143531799316
1751119148025656000,7.750656005859375,3.0633809566497803,-5.755361557006836,-5.735011100769043
1751119148035601400,7.760601318359375,3.5398271083831787,-4.2182841300964355,-4.724658012390137
1751119148045546500,7.77054638671875,4.5406036376953125,-2.202366352081299,-4.425382614135742
1751119148055491800,7.780491943359375,5.476736545562744,-0.6748656034469604,-3.881898880004883
1751119148065437200,7.790437255859375,5.378573894500732,0.21098902821540833,-3.5395278930664062
1751119148075382300,7.80038232421875,4.047398090362549,1.2740145921707153,-4.521150588989258
1751119148085327600,7.81032763671875,3.1256303787231445,0.5054758191108704,-5.706280708312988
1751119148095274000,7.82027392578125,5.280411720275879,-0.8280945420265198,-6.436511993408203
1751119148105218600,7.830218505859375,10.202890396118164,-1.8097171783447266,-7.066186904907227
1751119148115163400,7.840163330078125,9.127894401550293,0.39055415987968445,-7.980772018432617
1751119148125108000,7.85010791015625,4.918887615203857,1.4200608730316162,-8.521862030029297
1751119148135052500,7.860052490234375,4.911705017089844,-1.9868881702423096,-10.408493041992188
1751119148144997400,7.869997314453125,5.898116111755371,-4.795286655426025,-11.895292282104492
1751119148154942200,7.879942138671875,5.455188751220703,-5.93253231048584,-12.539332389831543
1751119148164887000,7.889886962890625,4.911705017089844,-5.068225860595703,-13.2001314163208
1751119148174832000,7.89983203125,4.219780445098877,-4.141669750213623,-12.850578308105469
1751119148184777200,7.909777099609375,4.298789024353027,-3.653252601623535,-11.18660831451416
1751119148194722600,7.91972265625,4.243722438812256,-3.856759548187256,-9.39095687866211
1751119148204668000,7.92966796875,4.54299783706665,-4.625298500061035,-7.839514255523682
1751119148214613500,7.939613525390625,5.285200119018555,-4.230255126953125,-7.015908718109131
1751119148224558800,7.949558837890625,5.218162536621094,-3.9932291507720947,-6.407781600952148
1751119148234504400,7.95950439453125,5.014655590057373,-3.2725744247436523,-5.679944038391113
1751119148244450000,7.969449951171875,4.954800605773926,-2.0922329425811768,-5.881057262420654
1751119148254395600,7.979395751953125,5.524620532989502,-1.148917555809021,-5.988796234130859
1751119148264341500,7.989341552734375,6.161478042602539,0.22774843871593475,-6.223428249359131
1751119148274287000,7.999287109375,6.3266777992248535,1.831863522529602,-6.386233806610107
1751119148284232400,8.009232421875,6.546944618225098,2.442384958267212,-7.2242045402526855
1751119148294177800,8.019177734375,6.53257942199707,2.0593128204345703,-7.240963935852051
1751119148304123000,8.029122802734374,5.112817764282227,-0.9071031808853149,-7.1547722816467285
1751119148314068200,8.039068115234375,4.416105270385742,-2.66444730758667,-7.176320552825928
1751119148324013300,8.049013427734375,5.536591529846191,-0.8927379846572876,-6.759729385375977
1751119148333958700,8.058958740234376,6.01303768157959,-0.34685996174812317,-6.996755123138428
1751119148343903700,8.06890380859375,5.170278549194336,0.938826322555542,-7.985560417175293
1751119148353849000,8.07884912109375,4.262876033782959,1.6522984504699707,-8.48355484008789
1751119148363794200,8.088794189453125,5.0050787925720215,2.2939445972442627,-8.852261543273926
1751119148373739500,8.098739501953125,5.582081317901611,1.9635447263717651,-8.93605899810791
1751119148383684600,8.1086845703125,5.603629112243652,1.8055273294448853,-9.12041187286377
1751119148393630000,8.1186298828125,5.196614742279053,1.3961188793182373,-9.702202796936035
1751119148403575000,8.128574951171874,4.993107795715332,0.9914987683296204,-10.418069839477539
1751119148413520100,8.13852001953125,4.902127742767334,0.4695627987384796,-10.858602523803711
1751119148423465500,8.148465576171875,4.9619832038879395,-0.44502225518226624,-10.240898132324219
1751119148433410600,8.15841064453125,4.9164934158325195,-0.7131728529930115,-9.58249282836914
1751119148443356000,8.16835595703125,5.3115363121032715,-0.5575497150421143,-8.720580101013184
1751119148453301000,8.178301025390626,5.234921932220459,-0.7299322485923767,-8.318354606628418
1751119148463246300,8.188246337890625,5.067327976226807,-0.5431845188140869,-8.155549049377441
1751119148473191400,8.19819140625,4.9380412101745605,-0.37798458337783813,-8.162731170654297
1751119148483136800,8.20813671875,4.899733543395996,-0.2439092993736267,-8.189067840576172
1751119148493081900,8.218081787109375,4.882974147796631,-0.18884265422821045,-8.157942771911621
1751119148503027200,8.228027099609376,4.873397350311279,-0.3109469413757324,-8.205826759338379
1751119148512972300,8.23797216796875,5.187037944793701,-0.289399117231369,-8.323143005371094
1751119148522917600,8.247917724609374,5.2229509353637695,-0.37559038400650024,-8.3399019241333
1751119148532862700,8.25786279296875,5.208585739135742,-0.5336077213287354,-8.33032512664795
1751119148542808000,8.26780810546875,5.443217754364014,-0.41629183292388916,-8.426094055175781
1751119148552753200,8.277753173828126,5.536591529846191,-0.4067150056362152,-8.366238594055176
1751119148562698500,8.287698486328125,5.38096809387207,-0.5383961200714111,-8.177096366882324
1751119148572643600,8.2976435546875,5.112817764282227,-0.2247556895017624,-8.409334182739258
1751119148582588700,8.307588623046875,4.957194805145264,0.08649053424596786,-8.569746017456055
1751119148592534000,8.317533935546875,5.009867191314697,0.06015431880950928,-8.497920036315918
1751119148602479000,8.32747900390625,5.254075527191162,-0.3372831642627716,-8.390180587768555
1751119148612424400,8.337424560546875,5.38096809387207,-0.5958569645881653,-8.397363662719727
1751119148622369500,8.34736962890625,5.357026100158691,-0.3875614106655121,-8.464401245117188
1751119148632315000,8.35731494140625,5.357026100158691,-0.1792658567428589,-8.380603790283203
1751119148642260000,8.367260009765625,5.438429355621338,-0.21757307648658752,-8.258499145507812
1751119148652205300,8.377205322265626,5.419275760650635,-0.3564367890357971,-8.141183853149414
1751119148662150400,8.387150390625,5.457582950592041,-0.37319618463516235,-8.172307968139648
1751119148672095700,8.397095703125,5.445611953735352,-0.2486976981163025,-8.351873397827148
1751119148682040800,8.407040771484375,5.541379928588867,-0.30615854263305664,-8.380603790283203
1751119148691986200,8.416986083984375,5.426458358764648,-0.46417585015296936,-8.232163429260254
1751119148701931300,8.42693115234375,4.8686089515686035,-0.4354454278945923,-8.191461563110352
1751119148711876600,8.436876708984375,5.036203384399414,-0.2965817451477051,-8.30398941040039
1751119148731767000,8.45676708984375,5.455188751220703,-0.3181295394897461,-8.21300983428955
1751119148741712100,8.466712158203125,5.538985729217529,-0.28700491786003113,-8.205826759338379
1751119148751657200,8.4766572265625,5.546168327331543,-0.27742812037467957,-8.157942771911621
1751119148761602600,8.4866025390625,5.5341973304748535,-0.30137014389038086,-8.098088264465332
1751119148771547600,8.496547607421874,5.471948146820068,-0.32291796803474426,-8.117241859436035
1751119148781493000,8.506492919921875,5.433640956878662,-0.3396773636341095,-8.157942771911621
1751119148791438000,8.51643798828125,5.416881561279297,-0.3636193871498108,-8.169914245605469
1751119148801383400,8.526383544921876,5.390544891357422,-0.380378782749176,-8.172307968139648
1751119148811328500,8.53632861328125,5.361814498901367,-0.37798458337783813,-8.14836597442627
1751119148821273900,8.54627392578125,5.337872505187988,-0.3684077858924866,-8.102876663208008
1751119148831219000,8.556218994140625,5.313930511474609,-0.3181295394897461,-8.09090518951416
1751119148841164300,8.566164306640625,5.316324710845947,-0.2750339210033417,-8.131607055664062
1751119148851109400,8.576109375,5.313930511474609,-0.25588029623031616,-8.2034330368042
1751119148861054700,8.5860546875,5.287594318389893,-0.23433248698711395,-8.277652740478516
1751119148870999800,8.595999755859374,5.2564697265625,-0.24151510000228882,-8.342296600341797
1751119148880945200,8.605945068359375,5.213374137878418,-0.2463034987449646,-8.409334182739258
1751119148890890200,8.61589013671875,5.146336555480957,-0.23433248698711395,-8.442852973937988
1751119148900835600,8.625835693359376,5.081693172454834,-0.2008136659860611,-8.457218170166016
1751119148910780700,8.63578076171875,5.079298973083496,-0.1984194666147232,-8.45003604888916
1751119148920725800,8.645725830078124,5.108029365539551,-0.22954408824443817,-8.41651725769043
1751119148930671000,8.655671142578125,5.103240966796875,-0.2510918974876404,-8.41891098022461
1751119148940616200,8.6656162109375,5.0697221755981445,-0.267851322889328,-8.457218170166016
1751119148960506600,8.685506591796875,5.0481743812561035,-0.33010056614875793,-8.517073631286621
1751119148970452000,8.695451904296876,5.08648157119751,-0.3444657623767853,-8.514678955078125
1751119148980397000,8.70539697265625,5.167884349822998,-0.35164836049079895,-8.471583366394043
1751119148990342400,8.71534228515625,5.239710330963135,-0.32770636677742004,-8.423699378967285
1751119149000287500,8.72528759765625,5.318718910217285,-0.3109469413757324,-8.385392189025879
1751119149010232800,8.73523291015625,5.383362293243408,-0.2941875457763672,-8.323143005371094
1751119149020178000,8.745177978515626,5.426458358764648,-0.2941875457763672,-8.253710746765137
1751119149030123300,8.755123291015625,5.433640956878662,-0.30376434326171875,-8.191461563110352
1751119149040068400,8.765068359375,5.38096809387207,-0.30615854263305664,-8.153154373168945
1751119149050013700,8.775013671875,5.3115363121032715,-0.3109469413757324,-8.14836597442627
1751119149059958800,8.784958740234375,5.294776916503906,-0.3109469413757324,-8.153154373168945
1751119149069904100,8.794904052734376,5.309142112731934,-0.3157353401184082,-8.186673164367676
1751119149079849200,8.80484912109375,5.357026100158691,-0.28700491786003113,-8.217798233032227
1751119149089794300,8.814794189453124,5.431246757507324,-0.2630629241466522,-8.224980354309082
1751119149099739600,8.82473974609375,5.500678539276123,-0.2630629241466522,-8.186673164367676
1751119149109684700,8.834684814453125,5.510255336761475,-0.2702455222606659,-8.136395454406738
1751119149119630000,8.844630126953126,5.462371349334717,-0.27982231974601746,-8.122030258178711
1751119149129575200,8.8545751953125,5.371391296386719,-0.289399117231369,-8.095693588256836
1751119149139520500,8.8645205078125,5.299565315246582,-0.28221651911735535,-8.122030258178711
1751119149149465600,8.874465576171875,5.2229509353637695,-0.2726397216320038,-8.167519569396973
1751119149159411000,8.884410888671875,5.17746114730835,-0.26066872477531433,-8.205826759338379
1751119149169356000,8.89435595703125,5.215768337249756,-0.25827449560165405,-8.251317024230957
1751119149179301400,8.90430126953125,5.299565315246582,-0.267851322889328,-8.277652740478516
1751119149189246500,8.91424658203125,5.330689907073975,-0.27742812037467957,-8.30398941040039
1751119149209137000,8.934136962890625,5.287594318389893,-0.3396773636341095,-8.323143005371094
1751119149219082200,8.944082275390626,5.239710330963135,-0.3636193871498108,-8.335113525390625
1751119149229027300,8.95402734375,5.249287128448486,-0.3827729821205139,-8.349478721618652
1751119149238972700,8.96397265625,5.230133533477783,-0.3684077858924866,-8.32793140411377
1751119149248917800,8.973917724609375,5.21097993850708,-0.32291796803474426,-8.332719802856445
1751119149268808200,8.99380810546875,5.246892929077148,-0.267851322889328,-8.385392189025879
1751119149288698600,9.01369873046875,5.313930511474609,-0.28700491786003113,-8.371026992797852
1751119149298643700,9.023643798828125,5.3330841064453125,-0.3109469413757324,-8.414122581481934
1751119149308589000,9.033589111328125,5.390544891357422,-0.380378782749176,-8.471583366394043
1751119149318534100,9.0435341796875,5.522226333618164,-0.5120598673820496,-8.366238594055176
1751119149328479500,9.0534794921875,5.629965305328369,-0.5695207118988037,-8.292017936706543
1751119149338424600,9.063424560546874,5.586869716644287,-0.56233811378479,-8.234557151794434
1751119149348370000,9.073369873046875,5.428852558135986,-0.4569932520389557,-8.174702644348145
1751119149358315000,9.08331494140625,5.129577159881592,-0.3444657623767853,-8.02147388458252
1751119149368260400,9.09326025390625,4.8255133628845215,-0.19363106787204742,-7.885004043579102
1751119149378205400,9.103205322265625,4.703409194946289,-0.04040215536952019,-7.849091053009033
1751119149388150800,9.11315087890625,4.784811973571777,0.11043255031108856,-8.081328392028809
1751119149398096000,9.123095947265625,4.9380412101745605,0.23493103682994843,-8.421305656433105
1751119149408041000,9.133041015625,5.002684593200684,0.1942296177148819,-8.514678955078125
1751119149417986300,9.142986328125,5.146336555480957,0.009876081719994545,-8.612841606140137
1751119149427931400,9.152931396484375,5.213374137878418,-0.1553238332271576,-8.629600524902344
1751119149437876700,9.162876708984374,5.285200119018555,-0.27742812037467957,-8.629600524902344
1751119149447821800,9.17282177734375,5.3546319007873535,-0.3348889648914337,-8.586504936218262
1751119149457767200,9.18276708984375,5.34744930267334,-0.37798458337783813,-8.409334182739258
1751119149467712300,9.192712158203125,5.345055103302002,-0.37080198526382446,-8.282441139221191
1751119149477657600,9.20265771484375,5.263652324676514,-0.3181295394897461,-8.217798233032227
1751119149487602700,9.212602783203126,5.122394561767578,-0.2726397216320038,-8.217798233032227
1751119149497548000,9.222548095703125,5.064933776855469,-0.3348889648914337,-8.315959930419922
1751119149507493000,9.2324931640625,5.155913352966309,-0.4378396272659302,-8.409334182739258
1751119149517438500,9.2424384765625,5.321113109588623,-0.48572367429733276,-8.464401245117188
1751119149527383600,9.252383544921875,5.4695539474487305,-0.4545990526676178,-8.430882453918457
1751119149537329000,9.262328857421876,5.479130744934082,-0.380378782749176,-8.347084999084473
1751119149547274000,9.27227392578125,5.352237701416016,-0.3109469413757324,-8.244133949279785
1751119149557219300,9.28221923828125,5.148730754852295,-0.26066872477531433,-8.217798233032227
1751119149567164400,9.292164306640625,4.971560001373291,-0.2486976981163025,-8.27047061920166
1751119149577109500,9.302109619140625,4.844666957855225,-0.2750339210033417,-8.385392189025879
1751119149587054800,9.312054931640626,4.813542366027832,-0.3133411407470703,-8.50989055633545
1751119149597000000,9.322,4.854243755340576,-0.32291796803474426,-8.615235328674316
1751119149606945300,9.3319453125,4.957194805145264,-0.30137014389038086,-8.677484512329102
1751119149616890400,9.341890380859375,5.052962779998779,-0.2654571235179901,-8.670302391052246
1751119149626835700,9.351835693359375,5.127182960510254,-0.23193828761577606,-8.617630004882812
1751119149636780800,9.36178076171875,5.163095951080322,-0.23672668635845184,-8.536227226257324
1751119149646726100,9.37172607421875,5.17746114730835,-0.2510918974876404,-8.459612846374512
1751119149656671200,9.381671142578124,5.160701751708984,-0.27742812037467957,-8.39496898651123
1751119149666616600,9.391616455078125,5.139153957366943,-0.28461071848869324,-8.368632316589355
1751119149676561700,9.401561767578125,5.122394561767578,-0.2654571235179901,-8.359055519104004
1751119149686507000,9.411507080078126,5.1152119636535645,-0.2486976981163025,-8.373420715332031
1751119149696452000,9.4214521484375,5.12000036239624,-0.23912090063095093,-8.406940460205078
1751119149706397400,9.4313974609375,5.127182960510254,-0.23672668635845184,-8.438064575195312
1751119149716342500,9.441342529296875,5.151124954223633,-0.2463034987449646,-8.45003604888916
1751119149726288000,9.451287841796875,5.167884349822998,-0.267851322889328,-8.442852973937988
1751119149736233000,9.46123291015625,5.182249546051025,-0.30855274200439453,-8.41651725769043
1751119149746178000,9.471177978515625,5.191826343536377,-0.33010056614875793,-8.373420715332031
1751119149756123400,9.481123291015624,5.215768337249756,-0.34685996174812317,-8.301594734191895
1751119149766068500,9.491068359375,5.234921932220459,-0.3636193871498108,-8.23695182800293
1751119149776013800,9.501013916015625,5.258863925933838,-0.380378782749176,-8.196249961853027
1751119149785959000,9.510958984375,5.2564697265625,-0.37798458337783813,-8.167519569396973
1751119149795904300,9.520904296875,5.280411720275879,-0.37319618463516235,-8.177096366882324
1751119149805849300,9.530849365234374,5.294776916503906,-0.3684077858924866,-8.2034330368042
1751119149815794700,9.540794677734375,5.304353713989258,-0.37798458337783813,-8.234557151794434
1751119149825739800,9.55073974609375,5.313930511474609,-0.37080198526382446,-8.27047061920166
1751119149835685000,9.56068505859375,5.313930511474609,-0.3684077858924866,-8.289624214172363
1751119149845630200,9.570630126953125,5.318718910217285,-0.3684077858924866,-8.275259017944336
1751119149855575600,9.580575439453124,5.309142112731934,-0.37559038400650024,-8.251317024230957
1751119149865520600,9.590520751953125,5.304353713989258,-0.3684077858924866,-8.234557151794434
1751119149875466000,9.600466064453125,5.292382717132568,-0.3612251877784729,-8.220191955566406
1751119149885411000,9.6104111328125,5.280411720275879,-0.35404258966445923,-8.232163429260254
1751119149895356400,9.6203564453125,5.275623321533203,-0.3324947655200958,-8.234557151794434
1751119149915246600,9.64024658203125,5.2564697265625,-0.28221651911735535,-8.284835815429688
1751119149925192000,9.65019189453125,5.242104530334473,-0.2654571235179901,-8.335113525390625
1751119149935137000,9.660136962890626,5.218162536621094,-0.2510918974876404,-8.385392189025879
1751119149945082400,9.670082275390625,5.194220542907715,-0.2439092993736267,-8.423699378967285
1751119149955027500,9.68002734375,5.16549015045166,-0.23672668635845184,-8.438064575195312
1751119149964972800,9.689972900390625,5.163095951080322,-0.23193828761577606,-8.41891098022461
1751119149974918000,9.69991796875,5.143942356109619,-0.23433248698711395,-8.387785911560059
1751119149984863200,9.70986328125,5.129577159881592,-0.23912090063095093,-8.3614501953125
1751119149994808300,9.719808349609375,5.129577159881592,-0.24151510000228882,-8.349478721618652
1751119150004753700,9.729753662109376,5.129577159881592,-0.2510918974876404,-8.3399019241333
1751119150014698800,9.73969873046875,5.117606163024902,-0.2654571235179901,-8.366238594055176
1751119150024644000,9.74964404296875,5.093664169311523,-0.2726397216320038,-8.390180587768555
1751119150044534500,9.769534423828125,5.081693172454834,-0.25827449560165405,-8.45003604888916
1751119150064425000,9.789425048828125,5.108029365539551,-0.22714988887310028,-8.457218170166016
1751119150074370000,9.7993701171875,5.124788761138916,-0.2247556895017624,-8.440459251403809
1751119150084315100,9.809315185546875,5.153519153594971,-0.21757307648658752,-8.414122581481934
1751119150094260500,9.819260498046875,5.172672748565674,-0.22954408824443817,-8.392574310302734
1751119150104205600,9.82920556640625,5.167884349822998,-0.24151510000228882,-8.366238594055176
1751119150114151000,9.83915087890625,5.182249546051025,-0.2630629241466522,-8.349478721618652
1751119150124096000,9.849095947265624,5.175066947937012,-0.2750339210033417,-8.349478721618652
1751119150134041300,9.859041259765625,5.175066947937012,-0.27742812037467957,-8.347084999084473
1751119150143986400,9.868986328125,5.170278549194336,-0.2702455222606659,-8.359055519104004
1751119150153931800,9.878931884765626,5.184643745422363,-0.25348609685897827,-8.344690322875977
1751119150163876900,9.888876953125,5.206191539764404,-0.2510918974876404,-8.337508201599121
1751119150173822200,9.898822265625,5.220556735992432,-0.23433248698711395,-8.323143005371094
1751119150183767300,9.908767333984375,5.242104530334473,-0.21996727585792542,-8.318354606628418
1751119150193712600,9.918712646484375,5.232527732849121,-0.21996727585792542,-8.311171531677246
1751119150203657700,9.92865771484375,5.230133533477783,-0.2247556895017624,-8.311171531677246
1751119150213603000,9.93860302734375,5.225345134735107,-0.2247556895017624,-8.30398941040039
1751119150223548200,9.948548095703124,5.218162536621094,-0.2223614901304245,-8.296806335449219
1751119150233493500,9.958493408203125,5.218162536621094,-0.22954408824443817,-8.296806335449219
1751119150243438600,9.9684384765625,5.220556735992432,-0.23912090063095093,-8.30638313293457
1751119150253383700,9.9783837890625,5.208585739135742,-0.24151510000228882,-8.320748329162598
1751119150263329000,9.9883291015625,5.213374137878418,-0.24151510000228882,-8.320748329162598
1751119150273274000,9.998274169921874,5.213374137878418,-0.2486976981163025,-8.313566207885742
1751119150283219500,10.008219482421875,5.220556735992432,-0.22954408824443817,-8.313566207885742
1751119150293164500,10.01816455078125,5.2229509353637695,-0.23672668635845184,-8.313566207885742
1751119150332945400,10.0579453125,5.182249546051025,-0.2486976981163025,-8.356661796569824
1751119150342890800,10.067890869140625,5.141548156738281,-0.2510918974876404,-8.356661796569824
1751119150352835800,10.0778359375,5.112817764282227,-0.22954408824443817,-8.375815391540527
1751119150362781200,10.08778125,5.12000036239624,-0.22714988887310028,-8.39496898651123
1751119150372726300,10.097726318359374,5.143942356109619,-0.21278467774391174,-8.387785911560059
1751119150382671600,10.107671630859375,5.163095951080322,-0.18884265422821045,-8.378209114074707
1751119150392616700,10.11761669921875,5.170278549194336,-0.18166005611419678,-8.380603790283203
1751119150402562000,10.12756201171875,5.17746114730835,-0.18166005611419678,-8.373420715332031
1751119150412507100,10.137507080078125,5.203797340393066,-0.1744774430990219,-8.351873397827148
1751119150422452200,10.1474521484375,5.215768337249756,-0.16729484498500824,-8.32793140411377
1751119150432397600,10.1573974609375,5.2229509353637695,-0.16250644624233246,-8.325536727905273
1751119150442342700,10.1673427734375,5.2229509353637695,-0.18405425548553467,-8.347084999084473
1751119150452288000,10.1772880859375,5.2014031410217285,-0.1984194666147232,-8.387785911560059
1751119150462233000,10.187233154296875,5.160701751708984,-0.21278467774391174,-8.411728858947754
1751119150472178400,10.197178466796874,5.146336555480957,-0.22954408824443817,-8.423699378967285
1751119150482123500,10.20712353515625,5.143942356109619,-0.23912090063095093,-8.411728858947754
1751119150492068900,10.21706884765625,5.153519153594971,-0.2439092993736267,-8.392574310302734
1751119150502014000,10.227013916015625,5.172672748565674,-0.2486976981163025,-8.373420715332031
1751119150511959300,10.236959228515625,5.1798553466796875,-0.2510918974876404,-8.359055519104004
1751119150521904400,10.246904296875,5.17746114730835,-0.25348609685897827,-8.356661796569824
1751119150531849700,10.256849609375,5.163095951080322,-0.27742812037467957,-8.371026992797852
1751119150541794800,10.266794921875,5.153519153594971,-0.2702455222606659,-8.382997512817383
1751119150551740200,10.276740234375,5.153519153594971,-0.2654571235179901,-8.382997512817383
1751119150561685200,10.286685302734375,5.151124954223633,-0.25827449560165405,-8.392574310302734
1751119150571630300,10.29663037109375,5.1583075523376465,-0.2463034987449646,-8.392574310302734
1751119150581575700,10.30657568359375,5.163095951080322,-0.24151510000228882,-8.382997512817383
1751119150591520800,10.316520751953124,5.167884349822998,-0.24151510000228882,-8.387785911560059
1751119150601466000,10.326466064453125,5.1798553466796875,-0.22714988887310028,-8.387785911560059
1751119150611411200,10.3364111328125,5.175066947937012,-0.21278467774391174,-8.390180587768555
1751119150621356500,10.3463564453125,5.184643745422363,-0.20560206472873688,-8.387785911560059
1751119150631301600,10.356301513671875,5.187037944793701,-0.18884265422821045,-8.385392189025879
1751119150641247000,10.3662470703125,5.2014031410217285,-0.17208324372768402,-8.36384391784668
1751119150651192000,10.376192138671875,5.203797340393066,-0.15771803259849548,-8.344690322875977
1751119150661137400,10.386137451171875,5.218162536621094,-0.14095862209796906,-8.315959930419922
1751119150671082500,10.39608251953125,5.242104530334473,-0.13617022335529327,-8.30398941040039
1751119150681027800,10.40602783203125,5.2564697265625,-0.1313818246126175,-8.282441139221191
1751119150690973000,10.415972900390624,5.270834922790527,-0.11941081285476685,-8.263287544250488
1751119150700918300,10.425918212890625,5.285200119018555,-0.1313818246126175,-8.251317024230957
1751119150710863400,10.43586328125,5.287594318389893,-0.14574703574180603,-8.232163429260254
1751119150720808700,10.44580859375,5.266046524047852,-0.1744774430990219,-8.241740226745605
1751119150730753800,10.45575390625,5.251681327819824,-0.203207865357399,-8.258499145507812
1751119150740699000,10.465698974609374,5.2444987297058105,-0.21757307648658752,-8.263287544250488
1751119150750644200,10.475644287109375,5.237316131591797,-0.20560206472873688,-8.253710746765137
1751119150760589300,10.48558935546875,5.258863925933838,-0.19602526724338531,-8.253710746765137
1751119150770534700,10.49553466796875,5.254075527191162,-0.19363106787204742,-8.265682220458984
1751119150780479700,10.505479736328125,5.242104530334473,-0.19602526724338531,-8.289624214172363
1751119150790425000,10.515425048828124,5.2229509353637695,-0.21039047837257385,-8.318354606628418
1751119150800370200,10.5253701171875,5.208585739135742,-0.21757307648658752,-8.335113525390625
1751119150810315500,10.5353154296875,5.2014031410217285,-0.21517887711524963,-8.32793140411377
1751119150820260600,10.545260498046876,5.220556735992432,-0.20560206472873688,-8.318354606628418
1751119150830206000,10.5552060546875,5.232527732849121,-0.2008136659860611,-8.30638313293457
1751119150840151000,10.565151123046874,5.242104530334473,-0.18166005611419678,-8.292017936706543
1751119150850096400,10.575096435546875,5.249287128448486,-0.18166005611419678,-8.299201011657715
1751119150860041500,10.58504150390625,5.2444987297058105,-0.19123685359954834,-8.30398941040039
1751119150869986800,10.59498681640625,5.227739334106445,-0.18884265422821045,-8.313566207885742
1751119150889877200,10.614877197265624,5.21097993850708,-0.18405425548553467,-8.32793140411377
1751119150899822300,10.624822265625,5.220556735992432,-0.18405425548553467,-8.3399019241333
1751119150909767400,10.634767333984374,5.215768337249756,-0.1792658567428589,-8.351873397827148
1751119150919712800,10.644712646484376,5.218162536621094,-0.176871657371521,-8.351873397827148
1751119150929658400,10.654658447265625,5.220556735992432,-0.16968904435634613,-8.356661796569824
1751119150939603700,10.664603759765624,5.21097993850708,-0.17208324372768402,-8.349478721618652
1751119150949549300,10.67454931640625,5.196614742279053,-0.176871657371521,-8.356661796569824
1751119150959494700,10.68449462890625,5.191826343536377,-0.16968904435634613,-8.375815391540527
1751119150969439700,10.694439697265626,5.1798553466796875,-0.16490064561367035,-8.373420715332031
1751119150979385000,10.704385009765625,5.17746114730835,-0.16968904435634613,-8.382997512817383
1751119150989330200,10.714330078125,5.1798553466796875,-0.17208324372768402,-8.387785911560059
1751119150999275500,10.724275634765625,5.182249546051025,-0.17208324372768402,-8.399757385253906
1751119151009220600,10.734220703125,5.184643745422363,-0.1792658567428589,-8.397363662719727
1751119151019166000,10.744166015625,5.194220542907715,-0.18884265422821045,-8.366238594055176
1751119151029111000,10.754111083984375,5.199008941650391,-0.19602526724338531,-8.351873397827148
1751119151039056100,10.76405615234375,5.199008941650391,-0.18405425548553467,-8.335113525390625
1751119151049001500,10.77400146484375,5.196614742279053,-0.17208324372768402,-8.337508201599121
1751119151058946600,10.783946533203125,5.196614742279053,-0.16250644624233246,-8.347084999084473
1751119151068891600,10.7938916015625,5.2014031410217285,-0.16968904435634613,-8.373420715332031
1751119151088782000,10.813781982421874,5.172672748565674,-0.18884265422821045,-8.41651725769043
1751119151098727200,10.82372705078125,5.175066947937012,-0.19123685359954834,-8.414122581481934
1751119151108672500,10.833672607421875,5.184643745422363,-0.18884265422821045,-8.387785911560059
1751119151118617600,10.84361767578125,5.2014031410217285,-0.17208324372768402,-8.351873397827148
1751119151128562700,10.853562744140625,5.215768337249756,-0.16250644624233246,-8.313566207885742
1751119151138507800,10.8635078125,5.225345134735107,-0.15771803259849548,-8.282441139221191
1751119151148453000,10.873453125,5.2229509353637695,-0.16250644624233246,-8.280047416687012
1751119151158398200,10.883398193359374,5.227739334106445,-0.16490064561367035,-8.296806335449219
1751119151168343300,10.89334326171875,5.230133533477783,-0.16250644624233246,-8.308777809143066
1751119151178288400,10.903288330078125,5.239710330963135,-0.16011223196983337,-8.318354606628418
1751119151188233700,10.913233642578126,5.2444987297058105,-0.16011223196983337,-8.311171531677246
1751119151208124000,10.9331240234375,5.270834922790527,-0.1744774430990219,-8.280047416687012
1751119151218069000,10.943069091796875,5.266046524047852,-0.18884265422821045,-8.258499145507812
1751119151228014300,10.953014404296875,5.2564697265625,-0.18644845485687256,-8.251317024230957
1751119151237959400,10.96295947265625,5.266046524047852,-0.1984194666147232,-8.248922348022461
1751119151247904500,10.972904541015625,5.263652324676514,-0.21278467774391174,-8.260893821716309
1751119151267795000,10.992794921875,5.249287128448486,-0.2247556895017624,-8.308777809143066
1751119151277740000,11.002739990234375,5.237316131591797,-0.21278467774391174,-8.315959930419922
1751119151287685000,11.01268505859375,5.227739334106445,-0.19602526724338531,-8.320748329162598
1751119151297630500,11.02263037109375,5.215768337249756,-0.16968904435634613,-8.337508201599121
1751119151307575600,11.032575439453124,5.199008941650391,-0.16011223196983337,-8.354267120361328
1751119151317520600,11.042520751953125,5.175066947937012,-0.14574703574180603,-8.392574310302734
1751119151327466000,11.052466064453125,5.160701751708984,-0.1505354344844818,-8.426094055175781
1751119151337411000,11.0624111328125,5.146336555480957,-0.15771803259849548,-8.45242977142334
1751119151347356400,11.0723564453125,5.146336555480957,-0.14814123511314392,-8.447641372680664
1751119151357301500,11.082301513671876,5.151124954223633,-0.13617022335529327,-8.423699378967285
1751119151367246600,11.09224658203125,5.155913352966309,-0.14335282146930695,-8.373420715332031
1751119151377192000,11.10219189453125,5.167884349822998,-0.14814123511314392,-8.335113525390625
1751119151387137000,11.112136962890625,5.196614742279053,-0.15771803259849548,-8.30638313293457
1751119151407027500,11.13202734375,5.242104530334473,-0.1744774430990219,-8.258499145507812
1751119151416972800,11.141972900390625,5.261258125305176,-0.176871657371521,-8.241740226745605
1751119151426918000,11.15191796875,5.258863925933838,-0.18644845485687256,-8.256105422973633
1751119151436863200,11.16186328125,5.254075527191162,-0.18884265422821045,-8.27286434173584
1751119151446808300,11.171808349609375,5.2564697265625,-0.18644845485687256,-8.263287544250488
1751119151456753700,11.181753662109376,5.2564697265625,-0.18166005611419678,-8.258499145507812
1751119151466698800,11.19169873046875,5.263652324676514,-0.19602526724338531,-8.263287544250488
1751119151476644000,11.20164404296875,5.254075527191162,-0.2008136659860611,-8.299201011657715
1751119151486589200,11.211589111328125,5.232527732849121,-0.20799627900123596,-8.33032512664795
1751119151506479600,11.231479736328126,5.225345134735107,-0.19123685359954834,-8.349478721618652
1751119151516425000,11.241425048828125,5.220556735992432,-0.18405425548553467,-8.359055519104004
1751119151526370000,11.2513701171875,5.203797340393066,-0.18166005611419678,-8.359055519104004
1751119151536315100,11.261315185546875,5.196614742279053,-0.18644845485687256,-8.36384391784668
1751119151546260500,11.271260498046875,5.191826343536377,-0.18884265422821045,-8.366238594055176
1751119151556205600,11.28120556640625,5.187037944793701,-0.21278467774391174,-8.36384391784668
1751119151566151000,11.29115087890625,5.167884349822998,-0.20799627900123596,-8.378209114074707
1751119151576096000,11.301095947265624,5.151124954223633,-0.21039047837257385,-8.390180587768555
1751119151586041300,11.311041259765625,5.1367597579956055,-0.1984194666147232,-8.397363662719727
1751119151595986400,11.320986328125,5.13197135925293,-0.176871657371521,-8.387785911560059
1751119151605931800,11.330931884765626,5.148730754852295,-0.1553238332271576,-8.375815391540527
1751119151615876900,11.340876953125,5.155913352966309,-0.13856442272663116,-8.373420715332031
1751119151625822200,11.350822265625,5.151124954223633,-0.13856442272663116,-8.385392189025879
1751119151635767300,11.360767333984375,5.155913352966309,-0.14095862209796906,-8.385392189025879
1751119151645712600,11.370712646484375,5.1367597579956055,-0.16011223196983337,-8.347084999084473
1751119151655657700,11.38065771484375,5.117606163024902,-0.16490064561367035,-8.284835815429688
1751119151665603000,11.39060302734375,5.112817764282227,-0.18884265422821045,-8.191461563110352
1751119151675548200,11.400548095703124,5.1367597579956055,-0.2223614901304245,-8.14836597442627
1751119151685493500,11.410493408203125,5.16549015045166,-0.2486976981163025,-8.160337448120117
1751119151695438600,11.4204384765625,5.1583075523376465,-0.2941875457763672,-8.191461563110352
1751119151705383700,11.4303837890625,5.117606163024902,-0.32291796803474426,-8.244133949279785
1751119151715329000,11.4403291015625,5.093664169311523,-0.3636193871498108,-8.201038360595703
1751119151725274000,11.450274169921874,5.117606163024902,-0.3851672112941742,-8.107665061950684
1751119151735219500,11.460219482421875,5.117606163024902,-0.28221651911735535,-8.189067840576172
1751119151745164500,11.47016455078125,5.263652324676514,-0.07152677327394485,-8.471583366394043
1751119151755110000,11.48010986328125,5.285200119018555,0.06494271755218506,-8.763675689697266
1751119151765055000,11.490054931640625,5.282805919647217,0.20141221582889557,-9.1539306640625
1751119151775000300,11.500000244140624,5.129577159881592,0.002693476853892207,-9.232939720153809
1751119151784945400,11.5099453125,4.918887615203857,-0.289399117231369,-9.048585891723633
1751119151794890800,11.519890869140625,4.909310817718506,-0.44262802600860596,-8.806771278381348
1751119151804835800,11.5298359375,4.988319396972656,-0.411503404378891,-8.61044692993164
1751119151814781200,11.53978125,5.0266265869140625,-0.2917933464050293,-8.476371765136719
1751119151824726300,11.549726318359374,4.993107795715332,-0.1529296338558197,-8.3614501953125
1751119151834671600,11.559671630859375,4.973954200744629,-0.02843114547431469,-8.311171531677246
1751119151844616700,11.56961669921875,5.0290207862854,-0.07631517946720123,-8.232163429260254
1751119151854562000,11.57956201171875,5.151124954223633,-0.19123685359954834,-8.224980354309082
1751119151864507100,11.589507080078125,5.234921932220459,-0.29897594451904297,-8.30638313293457
1751119151874452200,11.5994521484375,5.2444987297058105,-0.3420715630054474,-8.315959930419922
1751119151884397600,11.6093974609375,5.328295707702637,-0.30615854263305664,-8.265682220458984
1751119151894342700,11.6193427734375,5.479130744934082,-0.23912090063095093,-8.227375030517578
1751119151904288000,11.6292880859375,5.586869716644287,-0.21278467774391174,-8.167519569396973
1751119151914233000,11.639233154296875,5.5772929191589355,-0.21996727585792542,-8.066963195800781
1751119151924178400,11.649178466796876,5.524620532989502,-0.21517887711524963,-8.03344440460205
1751119151934123500,11.65912353515625,5.440823554992676,-0.26066872477531433,-8.043021202087402
1751119151944068900,11.66906884765625,5.361814498901367,-0.34925416111946106,-8.076539993286133
1751119151954014000,11.679013916015625,5.330689907073975,-0.39953240752220154,-8.14597225189209
1751119151963959300,11.688959228515625,5.325901508331299,-0.40192660689353943,-8.21540355682373
1751119151973904400,11.698904296875,5.306747913360596,-0.3636193871498108,-8.23695182800293
1751119151983849700,11.708849609375,5.304353713989258,-0.3133411407470703,-8.210615158081055
1751119151993794800,11.718794921875,5.337872505187988,-0.25827449560165405,-8.193856239318848
1751119152003740200,11.728740234375,5.361814498901367,-0.23672668635845184,-8.21540355682373
1751119152013685200,11.738685302734375,5.342660903930664,-0.2439092993736267,-8.268075942993164
1751119152023630300,11.74863037109375,5.273229122161865,-0.28221651911735535,-8.30638313293457
1751119152033575700,11.75857568359375,5.21097993850708,-0.3109469413757324,-8.318354606628418
1751119152043520800,11.768520751953124,5.172672748565674,-0.30376434326171875,-8.284835815429688
1751119152053466000,11.778466064453125,5.151124954223633,-0.2630629241466522,-8.260893821716309
1751119152063411200,11.7884111328125,5.098452568054199,-0.16011223196983337,-8.30638313293457
1751119152073356500,11.7983564453125,5.08648157119751,-0.25348609685897827,-8.138789176940918
1751119152083301600,11.808301513671875,5.242104530334473,-0.18884265422821045,-8.311171531677246
1751119152093247000,11.8182470703125,5.232527732849121,-0.1289876103401184,-8.476371765136719
1751119152103192000,11.828192138671875,5.184643745422363,-0.16729484498500824,-8.466794967651367
1751119152113137400,11.838137451171875,5.184643745422363,-0.22954408824443817,-8.404545783996582
1751119152133027800,11.85802783203125,5.17746114730835,-0.2510918974876404,-8.299201011657715
1751119152142973000,11.867972900390624,5.139153957366943,-0.2223614901304245,-8.280047416687012
1751119152152918300,11.877918212890625,5.110423564910889,-0.18644845485687256,-8.30398941040039
1751119152162863400,11.88786328125,5.117606163024902,-0.19602526724338531,-8.344690322875977
1751119152172808700,11.89780859375,5.112817764282227,-0.21278467774391174,-8.387785911560059
1751119152182753800,11.90775390625,5.108029365539551,-0.2439092993736267,-8.45242977142334
1751119152192699000,11.917698974609374,5.079298973083496,-0.2750339210033417,-8.495525360107422
1751119152202644200,11.927644287109375,5.057751178741455,-0.28700491786003113,-8.526650428771973
1751119152212589300,11.93758935546875,5.050568580627441,-0.27982231974601746,-8.529044151306152
1751119152222534700,11.94753466796875,5.064933776855469,-0.2630629241466522,-8.524255752563477
1751119152232479700,11.957479736328125,5.072116374969482,-0.24151510000228882,-8.514678955078125
1751119152242425000,11.967425048828124,5.062539577484131,-0.25348609685897827,-8.48594856262207
1751119152252370200,11.9773701171875,5.055356979370117,-0.2630629241466522,-8.464401245117188
1751119152262315500,11.9873154296875,5.062539577484131,-0.26066872477531433,-8.438064575195312
1751119152272260600,11.997260498046876,5.07451057434082,-0.25827449560165405,-8.430882453918457
1751119152282206000,12.0072060546875,5.0697221755981445,-0.2463034987449646,-8.426094055175781
1751119152292151000,12.017151123046874,5.064933776855469,-0.2510918974876404,-8.426094055175781
1751119152302096400,12.027096435546875,5.0697221755981445,-0.25827449560165405,-8.387785911560059
1751119152312041500,12.03704150390625,5.100846767425537,-0.2630629241466522,-8.359055519104004
1751119152321986800,12.04698681640625,5.160701751708984,-0.2247556895017624,-8.323143005371094
1751119152331932000,12.056931884765625,5.225345134735107,-0.16011223196983337,-8.30638313293457
1751119152341877200,12.066877197265624,5.261258125305176,-0.11462240666151047,-8.313566207885742
1751119152351822300,12.076822265625,5.287594318389893,-0.08828619122505188,-8.342296600341797
1751119152361767400,12.086767333984374,5.2899885177612305,-0.0834977850317955,-8.387785911560059
1751119152371712800,12.096712646484375,5.254075527191162,-0.10265139490365982,-8.421305656433105
1751119152381657900,12.106657958984375,5.215768337249756,-0.14814123511314392,-8.435670852661133
1751119152391603200,12.116603271484376,5.17746114730835,-0.1984194666147232,-8.402152061462402
1751119152401548300,12.12654833984375,5.1583075523376465,-0.2247556895017624,-8.347084999084473
1751119152411493600,12.13649365234375,5.143942356109619,-0.2223614901304245,-8.30398941040039
1751119152421438700,12.146438720703125,5.160701751708984,-0.22714988887310028,-8.265682220458984
1751119152431384000,12.156384033203125,5.194220542907715,-0.23433248698711395,-8.260893821716309
1751119152441329200,12.1663291015625,5.213374137878418,-0.2463034987449646,-8.27286434173584
1751119152451274200,12.176274169921875,5.199008941650391,-0.23433248698711395,-8.323143005371094
1751119152461219300,12.18621923828125,5.148730754852295,-0.21757307648658752,-8.387785911560059
1751119152471164700,12.19616455078125,5.105635166168213,-0.21996727585792542,-8.45242977142334
1751119152481109800,12.20610986328125,5.072116374969482,-0.23912090063095093,-8.50749683380127
1751119152491054800,12.216054931640626,5.052962779998779,-0.2702455222606659,-8.531438827514648
1751119152501000000,12.226,5.055356979370117,-0.289399117231369,-8.536227226257324
1751119152510945300,12.2359453125,5.103240966796875,-0.27982231974601746,-8.493131637573242
1751119152520890400,12.245890380859375,5.160701751708984,-0.26066872477531433,-8.423699378967285
1751119152530835500,12.25583544921875,5.215768337249756,-0.22954408824443817,-8.354267120361328
1751119152540780500,12.265780517578126,5.249287128448486,-0.20799627900123596,-8.320748329162598
1751119152550726000,12.275725830078125,5.246892929077148,-0.20560206472873688,-8.318354606628418
1751119152560671000,12.2856708984375,5.239710330963135,-0.22954408824443817,-8.337508201599121
1751119152570616000,12.295615966796875,5.239710330963135,-0.26066872477531433,-8.349478721618652
1751119152580561400,12.3055615234375,5.227739334106445,-0.28221651911735535,-8.351873397827148
1751119152590506500,12.315506591796876,5.220556735992432,-0.28461071848869324,-8.318354606628418
1751119152600451600,12.32545166015625,5.230133533477783,-0.27742812037467957,-8.268075942993164
1751119152610396700,12.335396728515626,5.263652324676514,-0.2630629241466522,-8.217798233032227
1751119152620342000,12.345342041015625,5.287594318389893,-0.2439092993736267,-8.177096366882324
1751119152630287000,12.355287109375,5.297171115875244,-0.23193828761577606,-8.172307968139648
1751119152640232200,12.365232177734375,5.280411720275879,-0.21757307648658752,-8.191461563110352
1751119152650177300,12.37517724609375,5.234921932220459,-0.19602526724338531,-8.234557151794434
1751119152660122600,12.38512255859375,5.2014031410217285,-0.18405425548553467,-8.280047416687012
1751119152670067700,12.395067626953125,5.189432144165039,-0.18405425548553467,-8.33032512664795
1751119152680012800,12.4050126953125,5.167884349822998,-0.176871657371521,-8.378209114074707
1751119152689958000,12.4149580078125,5.134365558624268,-0.16729484498500824,-8.411728858947754
1751119152699903200,12.4249033203125,5.117606163024902,-0.18166005611419678,-8.411728858947754
1751119152709848300,12.434848388671876,5.105635166168213,-0.2008136659860611,-8.414122581481934
1751119152719793400,12.44479345703125,5.098452568054199,-0.16968904435634613,-8.447641372680664
1751119152729738800,12.45473876953125,5.084087371826172,-0.16968904435634613,-8.447641372680664
1751119152739683800,12.464683837890625,5.076904773712158,-0.18166005611419678,-8.45242977142334
1751119152749629000,12.47462890625,5.079298973083496,-0.19123685359954834,-8.454824447631836
1751119152759574000,12.484573974609376,5.0697221755981445,-0.18644845485687256,-8.445247650146484
1751119152769519400,12.494519287109375,5.076904773712158,-0.16968904435634613,-8.428487777709961
1751119152779464400,12.50446435546875,5.100846767425537,-0.16968904435634613,-8.428487777709961
1751119152789409500,12.514409423828125,5.122394561767578,-0.18405425548553467,-8.457218170166016
1751119152799354600,12.524354736328124,5.12000036239624,-0.18405425548553467,-8.500313758850098
1751119152809300000,12.534300048828126,5.098452568054199,-0.20799627900123596,-8.517073631286621
1751119152819245000,12.5442451171875,5.081693172454834,-0.22714988887310028,-8.493131637573242
1751119152829190400,12.5541904296875,5.093664169311523,-0.23433248698711395,-8.45003604888916
1751119152839135500,12.564135498046875,5.117606163024902,-0.22954408824443817,-8.406940460205078
1751119152849080800,12.574080810546874,5.134365558624268,-0.21757307648658752,-8.368632316589355
1751119152859026000,12.58402587890625,5.153519153594971,-0.21757307648658752,-8.3399019241333
1751119152868971300,12.59397119140625,5.172672748565674,-0.21996727585792542,-8.318354606628418
1751119152878916400,12.603916259765626,5.17746114730835,-0.2247556895017624,-8.301594734191895
1751119152888861400,12.613861328125,5.184643745422363,-0.2247556895017624,-8.292017936706543
1751119152898806800,12.623806884765624,5.199008941650391,-0.2223614901304245,-8.30638313293457
1751119152908752000,12.633751953125,5.194220542907715,-0.22714988887310028,-8.344690322875977
1751119152918697200,12.643697265625,5.196614742279053,-0.2439092993736267,-8.397363662719727
1751119152928642300,12.653642333984376,5.189432144165039,-0.2510918974876404,-8.435670852661133
1751119152938587600,12.663587646484375,5.167884349822998,-0.2654571235179901,-8.442852973937988
1751119152948532700,12.67353271484375,5.143942356109619,-0.25348609685897827,-8.428487777709961
1751119152958478000,12.68347802734375,5.139153957366943,-0.22954408824443817,-8.387785911560059
1751119152968423200,12.693423095703125,5.160701751708984,-0.203207865357399,-8.332719802856445
1751119152978368500,12.703368408203126,5.189432144165039,-0.18644845485687256,-8.311171531677246
1751119152988313600,12.713313720703125,5.196614742279053,-0.18644845485687256,-8.320748329162598
1751119152998259000,12.723259033203124,5.2014031410217285,-0.18405425548553467,-8.332719802856445
1751119153008204000,12.7332041015625,5.2014031410217285,-0.19363106787204742,-8.351873397827148
1751119153018149400,12.7431494140625,5.196614742279053,-0.21517887711524963,-8.368632316589355
1751119153028094500,12.753094482421876,5.189432144165039,-0.24151510000228882,-8.385392189025879
1751119153038039800,12.763039794921875,5.184643745422363,-0.2463034987449646,-8.39496898651123
1751119153047985000,12.77298486328125,5.189432144165039,-0.23672668635845184,-8.385392189025879
1751119153057930000,12.782929931640625,5.203797340393066,-0.23433248698711395,-8.351873397827148
1751119153067875300,12.792875244140625,5.21097993850708,-0.21996727585792542,-8.301594734191895
1751119153087765800,12.812765869140625,5.230133533477783,-0.2247556895017624,-8.268075942993164
1751119153097710800,12.8227109375,5.225345134735107,-0.22714988887310028,-8.275259017944336
1751119153107656200,12.83265625,5.220556735992432,-0.2247556895017624,-8.308777809143066
1751119153117601300,12.842601318359375,5.208585739135742,-0.2223614901304245,-8.344690322875977
1751119153127546600,12.852546630859376,5.194220542907715,-0.23433248698711395,-8.380603790283203
1751119153137491700,12.86249169921875,5.184643745422363,-0.23672668635845184,-8.380603790283203
1751119153147437000,12.87243701171875,5.1798553466796875,-0.2510918974876404,-8.366238594055176
1751119153157382100,12.882382080078125,5.170278549194336,-0.2630629241466522,-8.356661796569824
1751119153167327500,12.892327392578125,5.175066947937012,-0.2726397216320038,-8.337508201599121
1751119153177272600,12.9022724609375,5.184643745422363,-0.2726397216320038,-8.332719802856445
1751119153187218000,12.912218017578125,5.213374137878418,-0.2750339210033417,-8.337508201599121
1751119153197163000,12.9221630859375,5.234921932220459,-0.27742812037467957,-8.349478721618652
1751119153207108000,12.932108154296875,5.215768337249756,-0.25827449560165405,-8.354267120361328
1751119153226998500,12.95199853515625,5.172672748565674,-0.23433248698711395,-8.332719802856445
1751119153236944000,12.96194384765625,5.17746114730835,-0.2247556895017624,-8.315959930419922
1751119153246889000,12.971888916015626,5.172672748565674,-0.21517887711524963,-8.294412612915039
1751119153256834300,12.981834228515625,5.187037944793701,-0.2008136659860611,-8.294412612915039
1751119153266779400,12.991779296875,5.194220542907715,-0.21039047837257385,-8.301594734191895
1751119153276724700,13.001724853515626,5.2014031410217285,-0.22714988887310028,-8.313566207885742
1751119153286669800,13.011669921875,5.2229509353637695,-0.2510918974876404,-8.332719802856445
1751119153296615200,13.021615234375,5.225345134735107,-0.26066872477531433,-8.373420715332031
1751119153306560300,13.031560302734375,5.230133533477783,-0.25827449560165405,-8.390180587768555
1751119153316505600,13.041505615234374,5.234921932220459,-0.25827449560165405,-8.382997512817383
1751119153326450700,13.05145068359375,5.239710330963135,-0.25348609685897827,-8.354267120361328
1751119153336396000,13.06139599609375,5.237316131591797,-0.23672668635845184,-8.30638313293457
1751119153346341000,13.071341064453126,5.237316131591797,-0.21996727585792542,-8.256105422973633
1751119153356286500,13.081286376953125,5.227739334106445,-0.21757307648658752,-8.23695182800293
1751119153366231600,13.0912314453125,5.208585739135742,-0.2247556895017624,-8.265682220458984
1751119153376176600,13.1011767578125,5.2014031410217285,-0.23912090063095093,-8.320748329162598
1751119153386121700,13.111121826171875,5.203797340393066,-0.26066872477531433,-8.36384391784668
1751119153396067000,13.121067138671876,5.196614742279053,-0.25827449560165405,-8.41651725769043
1751119153406012200,13.13101220703125,5.167884349822998,-0.2486976981163025,-8.471583366394043
1751119153415957200,13.140957275390624,5.1152119636535645,-0.22714988887310028,-8.512285232543945
1751119153425902300,13.15090234375,5.050568580627441,-0.21757307648658752,-8.493131637573242
1751119153435847700,13.16084765625,5.017049789428711,-0.21278467774391174,-8.440459251403809
1751119153445792800,13.170792724609376,5.019443988800049,-0.203207865357399,-8.380603790283203
1751119153455737900,13.18073779296875,5.0697221755981445,-0.203207865357399,-8.32793140411377
1751119153465683000,13.190682861328124,5.117606163024902,-0.1792658567428589,-8.311171531677246
1751119153475628300,13.200628173828125,5.139153957366943,-0.18166005611419678,-8.347084999084473
1751119153485573400,13.210573486328125,5.146336555480957,-0.1792658567428589,-8.406940460205078
1751119153495518500,13.2205185546875,5.143942356109619,-0.13856442272663116,-8.464401245117188
1751119153505463800,13.2304638671875,5.117606163024902,-0.10504560172557831,-8.469189643859863
1751119153515409000,13.240408935546874,5.112817764282227,-0.0834977850317955,-8.433276176452637
1751119153525354000,13.25035400390625,5.122394561767578,-0.10265139490365982,-8.373420715332031
1751119153535299000,13.260299072265624,5.129577159881592,-0.1505354344844818,-8.323143005371094
1751119153545244400,13.270244384765626,5.148730754852295,-0.18644845485687256,-8.296806335449219
1751119153555189500,13.280189453125,5.182249546051025,-0.2008136659860611,-8.289624214172363
1751119153565134600,13.290134521484376,5.2444987297058105,-0.22954408824443817,-8.299201011657715
1751119153575079700,13.30007958984375,5.280411720275879,-0.25348609685897827,-8.311171531677246
1751119153585025000,13.31002490234375,5.306747913360596,-0.27982231974601746,-8.320748329162598
1751119153594970000,13.31997021484375,5.309142112731934,-0.30376434326171875,-8.332719802856445
1751119153604915200,13.329915283203125,5.306747913360596,-0.3372831642627716,-8.318354606628418
1751119153614860300,13.3398603515625,5.2684407234191895,-0.3372831642627716,-8.277652740478516
1751119153624805600,13.3498056640625,5.2444987297058105,-0.28221651911735535,-8.23695182800293
1751119153634750700,13.359750732421874,5.2564697265625,-0.2439092993736267,-8.198644638061523
1751119153644695800,13.36969580078125,5.242104530334473,-0.21996727585792542,-8.191461563110352
1751119153654641200,13.37964111328125,5.2229509353637695,-0.20560206472873688,-8.222586631774902
1751119153664586200,13.389586181640626,5.208585739135742,-0.203207865357399,-8.280047416687012
1751119153674531300,13.39953125,5.1798553466796875,-0.1984194666147232,-8.366238594055176
1751119153684476400,13.409476318359374,5.13197135925293,-0.18884265422821045,-8.454824447631836
1751119153694421800,13.419421875,5.093664169311523,-0.16011223196983337,-8.512285232543945
1751119153704366800,13.429366943359375,5.067327976226807,-0.13856442272663116,-8.555380821228027
1751119153714312000,13.43931201171875,5.045780181884766,-0.11701660603284836,-8.538620948791504
1751119153724257000,13.449257080078125,5.0266265869140625,-0.12419921159744263,-8.48355484008789
1751119153734202400,13.459202392578124,5.031414985656738,-0.14814123511314392,-8.41891098022461
1751119153744147500,13.4691474609375,5.045780181884766,-0.16011223196983337,-8.375815391540527
1751119153754092500,13.479092529296874,5.067327976226807,-0.17208324372768402,-8.354267120361328
1751119153764037600,13.48903759765625,5.117606163024902,-0.2008136659860611,-8.349478721618652
1751119153773983000,13.49898291015625,5.163095951080322,-0.22714988887310028,-8.36384391784668
1751119153783928000,13.508927978515626,5.196614742279053,-0.23433248698711395,-8.414122581481934
1751119153793873200,13.518873046875,5.189432144165039,-0.19363106787204742,-8.48355484008789
1751119153803818500,13.528818603515624,5.167884349822998,-0.176871657371521,-8.502708435058594
1751119153813763600,13.538763671875,5.163095951080322,-0.21039047837257385,-8.442852973937988
1751119153833653800,13.55865380859375,5.203797340393066,-0.21278467774391174,-8.282441139221191
1751119153843599000,13.56859912109375,5.172672748565674,-0.22714988887310028,-8.220191955566406
1751119153853544200,13.578544189453124,5.175066947937012,-0.2510918974876404,-8.205826759338379
1751119153863489300,13.5884892578125,5.196614742279053,-0.267851322889328,-8.256105422973633
