time,seconds_elapsed,z,y,x
1747228976912670200,0.036670166015625,-3.01036255068779,-0.02512552729770541,0.6457761304639279
1747228976922701000,0.046701171875,-3.0057097564458846,-0.040556320663541555,0.7264654318124055
1747228976932732200,0.056732177734375,-2.885046902757883,-0.04605301838368177,0.9590052637297659
1747228976942763300,0.06676318359375,-2.825948232579231,0.02362798221632838,1.2372124757140874
1747228976952794400,0.07679443359375,-2.865387678042054,0.2203469244942069,1.5836610839493572
1747228976962824200,0.08682421875,-2.908132010269165,0.49942353972420095,1.8755118405565618
1747228976972855300,0.096855224609375,-2.9205250433742997,0.8158603099249303,2.059255858188122
1747228976982886400,0.106886474609375,-2.9511732796162367,1.118851323097199,2.0610070857696234
1747228976992917200,0.116917236328125,-2.8599031091511247,1.3591354124657808,1.9389381646759807
1747228977002948400,0.1269482421875,-2.6403870825231075,1.532165728381276,1.7663059081673622
1747228977012979200,0.136979248046875,-2.269671609646082,1.5586708734691141,1.5295608065798878
1747228977023010300,0.14701025390625,-1.6750111877828835,1.4973070348374544,1.2656459585160016
1747228977033041200,0.157041259765625,-1.0133692335367201,1.398094965457171,1.0497545521259308
1747228977043072300,0.167072265625,-0.32089491865336894,1.2013431438229978,0.8254770832497627
1747228977053102300,0.177102294921875,0.36183658537268637,0.9119934102512895,0.6513024196047336
1747228977063133200,0.18713330078125,1.0066191747546196,0.6439559292994439,0.587338335346803
1747228977073164300,0.197164306640625,1.4903782584875822,0.4244378568448126,0.5957876723274588
1747228977083195100,0.207195068359375,1.7553484608232974,0.26681685311570763,0.6291803849719464
1747228977093226200,0.217226318359375,1.8960855497688054,0.15389043889865278,0.7492536022037267
1747228977103257000,0.227257080078125,1.8907815981417893,0.04936112001836299,0.9080877811148762
1747228977113288200,0.2372880859375,1.8338783921808004,-0.014233254144340752,1.0829173284720628
1747228977123319000,0.247319091796875,1.6950895146936178,-0.11875614328384398,1.2219896260105072
1747228977133350100,0.25735009765625,1.5176608176887034,-0.18229279590994119,1.40653151602149
1747228977143380200,0.267380126953125,1.359247786799073,-0.2087286751538515,1.5105249744594096
1747228977153411000,0.2774111328125,1.3271131113916634,-0.14700725525617597,1.5588630350403487
1747228977163442200,0.287442138671875,1.4056091404795645,-0.06741670892983674,1.5003060705229638
1747228977173473000,0.29747314453125,1.6175263825416564,-0.015088555799424648,1.2680243780851363
1747228977183504100,0.307504150390625,1.9245880061537026,0.005970306581258774,0.9232814777892082
1747228977193535200,0.31753515625,2.2405635885834694,0.012785831815004348,0.5991773878309875
1747228977203566300,0.32756640625,2.5394857448816297,-0.015458558155596255,0.34863398945033547
1747228977213597200,0.33759716796875,2.7337235378682614,-0.07431348270624875,0.13949585671275852
1747228977223628300,0.347628173828125,2.771124755501747,-0.16329057379812,-0.016893851655721662
1747228977233658400,0.357658447265625,2.4151743055582044,-0.2563271694138646,-0.08447546882368624
1747228977243689200,0.367689208984375,1.8245453311681747,-0.37190146779119965,-0.040837914083898065
1747228977253720300,0.37772021484375,1.2982383145630358,-0.4214320991575718,0.06491232489347458
1747228977263751200,0.387751220703125,0.9526888471245765,-0.4453080647855997,0.20912929184399545
1747228977273782300,0.3977822265625,0.7310223644644022,-0.42262364702969785,0.35365167148187754
1747228977283813000,0.407813232421875,0.6749509331524371,-0.4255360273450613,0.4022223717749119
1747228977293844200,0.41784423828125,0.7248200026929378,-0.3928536549270153,0.4714443765610456
1747228977303875300,0.427875244140625,0.7930459821790456,-0.41461745070666073,0.45005752433501184
1747228977313906200,0.43790625,0.7528899128794669,-0.48122488908022637,0.30076551914252336
1747228977323936300,0.447936279296875,0.6801981861561537,-0.5329056842178106,0.1644334602229297
1747228977333967000,0.457967041015625,0.581425092715025,-0.5137935719907284,0.04866685414388776
1747228977343998200,0.467998291015625,0.5339221677839756,-0.5035331670001149,-0.06953728128038346
1747228977354029000,0.478029052734375,0.57298576567173,-0.5143821855336428,-0.129889750912413
1747228977364060200,0.48806005859375,0.681217592331767,-0.49575814908444876,-0.24513737461864946
1747228977374091300,0.49809130859375,0.7649597053796052,-0.5203074839293956,-0.4279940880216658
1747228977384122000,0.5081220703125,0.7686971383422613,-0.5510717477664351,-0.6064445292897522
1747228977394153200,0.5181533203125,0.613070523300767,-0.5957935175463557,-0.7184416267674416
1747228977404184000,0.52818408203125,0.3333084100246429,-0.602654343226552,-0.7063361784320324
1747228977414214100,0.538214111328125,-0.053338206955790515,-0.5988257248491049,-0.6035791299212724
1747228977424245000,0.548244873046875,-0.4226765462607145,-0.559151301586628,-0.41976518885865804
1747228977434276000,0.558276123046875,-0.8058125247716903,-0.4912243050470948,-0.19838965196907518
1747228977444307200,0.56830712890625,-1.0868652623802424,-0.4507257059201598,-0.11367343319207429
1747228977454338300,0.57833837890625,-1.306335696300864,-0.4460293647974729,-0.2944641905086115
1747228977464369400,0.588369384765625,-1.4914935262531042,-0.48129795431643724,-0.6896840996429324
1747228977474400300,0.598400146484375,-1.6548656408548355,-0.45268443877249953,-1.175689354867488
1747228977484431400,0.608431396484375,-1.7649305281609295,-0.28053981965035196,-1.5556141162469983
1747228977494462200,0.618462158203125,-1.8210002059072254,0.07079904484450816,-1.6144401069641112
1747228977504493300,0.628493408203125,-1.8762959766715763,0.5536193864226341,-1.445955763915181
1747228977514523400,0.6385234375,-1.9495231254458427,0.9618895139291882,-1.2834005186542867
1747228977524554200,0.64855419921875,-2.0214695867598054,1.1158961265534162,-1.2237817701242863
1747228977534585300,0.65858544921875,-2.1530852116167543,1.032808678022027,-1.2927391326248645
1747228977544616400,0.668616455078125,-2.2842250356554983,0.9234601222917437,-1.3557828871674835
1747228977554647600,0.6786474609375,-2.2500620692908764,1.0092936546608806,-1.3064553771577774
1747228977564678400,0.688678466796875,-1.9121324292063713,1.0934186295464634,-1.2100769237682223
1747228977574709500,0.69870947265625,-1.437554430794716,1.0257412238538264,-1.1969484159953891
1747228977584740400,0.708740234375,-0.9545201542049646,0.789585612592101,-1.2577683570086955
1747228977594771500,0.718771484375,-0.4822469256043434,0.5344710338383912,-1.1241196188889444
1747228977604801500,0.728801513671875,-0.08133329834043979,0.3939131008520722,-0.7464436593495309
1747228977614832400,0.738832275390625,0.17076397841870783,0.32279052314162254,-0.37564248095043
1747228977624863500,0.748863525390625,0.2543003397613764,0.2750049818769097,-0.10533933835523203
1747228977634894300,0.758894287109375,0.14210311660170555,0.27529811960458755,0.06577665010523051
1747228977644925400,0.768925537109375,-0.07135024898648262,0.36690380563437935,0.146246536549367
1747228977654956300,0.778956298828125,-0.20838556080460546,0.48644963799118995,0.19221516458522528
1747228977664987400,0.7889873046875,-0.18746026167571544,0.5579150377899408,0.17493156469324603
1747228977675018200,0.799018310546875,0.09793488905131817,0.5580708128735423,0.18279354850631205
1747228977685049300,0.80904931640625,0.5672387464523315,0.4789721417173743,0.2669104314169846
1747228977695080200,0.819080078125,1.1289391479998827,0.3729670511960983,0.3343170756105333
1747228977705110300,0.8291103515625,1.6227508391916752,0.2900193033963442,0.3286271568732336
1747228977715141400,0.839141357421875,2.0515075821489095,0.19815905808359383,0.31445527752730995
1747228977725172200,0.849172119140625,2.3318197305232284,0.10936901399642228,0.16655483629107473
1747228977735203300,0.859203369140625,2.4659996529102326,0.06772796683609485,-0.05386007540542632
1747228977745234200,0.869234130859375,2.46529471951127,0.09484919799566269,-0.2575753793766722
1747228977755265300,0.879265380859375,2.4035323830813167,0.09899988793432712,-0.37527090769167987
1747228977765296400,0.88929638671875,2.3483757285267113,0.05707125600427389,-0.44418581929001955
1747228977775327500,0.899327392578125,2.265668803745508,-0.02530044547319412,-0.409931886706315
1747228977785358300,0.9093583984375,2.2286381729900837,-0.15014116936773061,-0.27873923650179055
1747228977795389400,0.919389404296875,2.1755191617429257,-0.27078590287715193,-0.1287375121373683
1747228977805419500,0.92941943359375,2.0437609135448933,-0.33144203163087366,0.033719971837475896
1747228977815450400,0.939450439453125,1.8756757989466188,-0.3257107945024967,0.18050819578180088
1747228977825481500,0.9494814453125,1.7455583036929367,-0.31523177832514043,0.3523403696876019
1747228977835512300,0.95951220703125,1.6133353605926035,-0.32816227930784225,0.4626231009954586
1747228977845543400,0.96954345703125,1.4368272855639457,-0.3484019342601299,0.5083928454583511
1747228977855574300,0.97957421875,1.2659282825887201,-0.3471685930728912,0.48584473090060054
1747228977865605400,0.98960546875,1.1168629257589577,-0.39895723249912257,0.45379568795002995
1747228977875636200,0.99963623046875,1.0045505517870188,-0.4895335754811764,0.35338012453150003
1747228977885667300,1.009667236328125,0.8494839087158441,-0.5585565505638719,0.19261729737902059
1747228977895698400,1.019698486328125,0.5839572415411471,-0.5988453063324094,0.05504889246434904
1747228977905728300,1.029728271484375,0.30235505335628987,-0.6122250123873353,0.062228090778179465
1747228977915759400,1.03975927734375,0.07690905215740203,-0.520038311599195,0.22993014260930938
1747228977925790200,1.049790283203125,-0.1022077440649271,-0.43044045826047656,0.37990996566917745
1747228977935821300,1.0598212890625,-0.30989538573324676,-0.394058939063549,0.4142704638998955
1747228977945852200,1.06985205078125,-0.5108756387174129,-0.3070250909939408,0.38953744305111465
1747228977955883300,1.07988330078125,-0.7598188353598118,-0.11002397077381611,0.26940540830418463
1747228977965914400,1.089914306640625,-0.9105921651512384,0.19513474182635546,0.2403589629693888
1747228977975945200,1.0999453125,-1.093536995229125,0.46541620231270786,0.23148752811914308
1747228977985976600,1.1099765625,-1.2624036155939102,0.5947139056161046,0.24803894127905368
1747228977996007400,1.12000732421875,-1.2947802830636501,0.5065077988967299,0.1852862421048805
1747228978006037200,1.130037353515625,-1.4545219322085379,0.3672586104214191,0.009736317184427752
1747228978016068400,1.140068359375,-1.720559471514821,0.2912320401869714,-0.20213636421672998
1747228978026099500,1.150099365234375,-1.8699843093067408,0.25738150077238675,-0.27107564307134596
1747228978036130300,1.16013037109375,-2.1235434753119944,0.29998963939920065,-0.19628391186147928
1747228978046161400,1.170161376953125,-2.5740035160332915,0.411892117395997,-0.006904180764732882
1747228978056192500,1.180192626953125,-2.861684147349,0.5835770100519061,0.3465628091994673
1747228978066223400,1.190223388671875,-2.8686341126173733,0.7210347850657999,0.7442797593139111
1747228978076254500,1.20025439453125,-2.8236756114721295,0.7888711807124317,1.0867450700666754
1747228978086285300,1.210285400390625,-2.6002614083617925,0.7351179632149636,1.536912338386476
1747228978096316400,1.22031640625,-2.346694059050083,0.7599753410957754,1.877661273675412
1747228978106346500,1.230346435546875,-2.3245927018791437,0.823713507643342,2.017407305756956
1747228978116377300,1.24037744140625,-2.599620187848806,1.1911486436754464,1.9083944117218254
1747228978126408400,1.250408447265625,-2.848902991709113,1.6440779971197246,1.6882979548573493
1747228978136439300,1.260439208984375,-2.488475688612461,1.7135399481415747,1.012364440408349
1747228978146470400,1.270470458984375,-1.7728887936890125,1.4764743824280797,0.4047741020843386
1747228978156501200,1.280501220703125,-0.9442559498220682,1.090861492409557,0.12026251099249348
1747228978166532400,1.290532470703125,-0.045188802769780156,1.0241754358418285,0.1938042421412654
1747228978176563200,1.300563232421875,0.8057055572658777,1.138034308603406,0.2088092843757011
1747228978186594300,1.31059423828125,1.4978735826790333,1.0690342760048805,-0.18526594823552295
1747228978196625200,1.320625244140625,1.960166100013256,0.7499914149589836,-0.6643206719361245
1747228978206655200,1.3306552734375,1.9892963329076765,0.5724923561315983,-0.7679628327183425
1747228978216686300,1.340686279296875,1.8451275159478187,0.4758065172933042,-0.6501081683188676
1747228978226717200,1.35071728515625,1.6526017875760792,0.2655910376477986,-0.29880883211679754
1747228978236748500,1.36074853515625,1.1912643790096045,-0.11032817788477986,0.015451799621246754
1747228978246779400,1.370779296875,0.3283084097802639,-0.5697600450908765,0.34120928280968216
1747228978256810500,1.380810546875,-1.6069792695641516,-1.0302460609924047,0.733816744423285
1747228978266841300,1.39084130859375,-2.090654766666889,-0.766316088424623,0.971600029952079
1747228978276872400,1.40087255859375,-1.1023439865410327,-0.4615520376978442,1.0457714007738976
1747228978286903300,1.4109033203125,0.03352934463620186,-0.4272179890826344,1.4179717784464358
1747228978296934400,1.420934326171875,0.7598094830095767,-0.17453655575998125,1.827444852001965
1747228978306965200,1.43096533203125,1.6238193452060221,0.09241064573712647,1.6961211958289146
1747228978316995300,1.440995361328125,2.5184412032872436,0.36920989061966536,0.7942206519816071
1747228978327026400,1.4510263671875,2.6702052976816892,0.5865345446832477,-0.34708741759546097
1747228978337057300,1.461057373046875,1.9704203675240277,0.46871232124865053,-1.654271474353969
1747228978347088400,1.47108837890625,1.0828834992676972,0.022556699723005294,-2.818775564470887
1747228978357119200,1.481119140625,1.1439771426558494,-0.25208982410505415,-3.109753776027262
1747228978367150300,1.491150390625,2.4597931994855404,-0.11758768402636051,-2.258996486374736
1747228978377181200,1.50118115234375,3.5754660386770962,0.3568653728313744,-1.326767366693914
1747228978387212300,1.51121240234375,3.836964180988073,0.3048476008243859,-0.49268012987859544
1747228978397243100,1.5212431640625,3.152341748648882,-0.47719899456501,0.4869146982196718
1747228978407274200,1.531274169921875,1.9426912335991857,-1.2798920721419156,1.4775947647601366
1747228978417304300,1.54130419921875,0.8055097424328327,-1.4682650647483766,2.2572626483194527
1747228978427335200,1.551335205078125,-0.0056575873702764505,-1.1043651171050965,2.352232550085336
1747228978437366300,1.5613662109375,-0.6319903278261423,-0.9207005944505333,1.7841800030320882
1747228978447397000,1.571397216796875,-0.7495897022902965,-0.8686712781362235,0.8669020034413785
1747228978457428500,1.581428466796875,-0.23969138417243957,-0.8028602508373558,-0.0750556793756783
1747228978467459300,1.591459228515625,0.45528117726743217,-0.6152272629432379,-0.7051198614448309
1747228978477490400,1.601490478515625,1.1619979525148867,-0.3437967785522342,-0.9827991770975291
1747228978487521500,1.611521484375,1.6728683305352925,-0.04390840757042169,-1.169981644745171
1747228978497552400,1.621552490234375,1.8246663271993397,0.14264672195911407,-1.3773108283646405
1747228978507583500,1.63158349609375,1.6071937890976666,0.2030607125200331,-1.534852337116748
1747228978517614300,1.6416142578125,1.2985907812625168,0.17687150151357053,-1.4742846172988413
1747228978527644400,1.65164453125,0.99421620477736,0.09117372435331345,-1.3107663722246885
1747228978537675300,1.66167529296875,0.7146843931257725,-0.005240092610567808,-1.0171125847835094
1747228978547705900,1.671705810546875,0.47352176735699175,0.02379208673685789,-0.7165863542895764
1747228978557737000,1.681737060546875,-0.5780407109737395,-0.676183982078731,1.0187018998015671
1747228978567767800,1.691767822265625,-2.281463169726729,-2.277355149886012,5.136271001565456
1747228978577799000,1.701798828125,-1.4345593406319617,-4.51336092903465,9.030926324021816
1747228978587829800,1.711829833984375,-1.3491186069726944,-4.504606252431869,2.1146685333304105
1747228978597860900,1.72186083984375,-0.6920511210352182,-3.0026965461045503,-0.9220774357616901
1747228978607891700,1.7318916015625,-0.1906640261530876,-0.46029798251613974,-1.8055818336315452
1747228978617922800,1.7419228515625,-0.1584001714080572,1.816948300167918,-2.49653449190557
1747228978627953000,1.751952880859375,-1.177911560961604,2.9873674595475195,-2.5058488482177257
1747228978637983700,1.761983642578125,-3.082959000343084,2.9812042607426643,-2.1612645725496114
1747228978648014800,1.772014892578125,-4.896785369098186,2.311461563757807,-1.6522794237539171
1747228978658045700,1.782045654296875,-5.595251617872715,1.7164434144981204,-0.9435175525449215
1747228978668076800,1.792076904296875,-4.551532838779687,1.2542577185392378,0.015586431452119721
1747228978678107600,1.802107666015625,-2.980221679446101,0.7342028941966593,0.7632346351526678
1747228978688138800,1.812138671875,-1.6834201196879148,0.3219648859724402,0.6946220675017685
1747228978698169900,1.822169921875,-0.7672118682205676,0.23904388004913923,0.06548122452234384
1747228978708201000,1.832200927734375,-0.04190671235918998,0.4112073500022292,-0.46229858174882826
1747228978718231800,1.842231689453125,0.5420610505759715,0.6737026866570115,-0.831840261606127
1747228978728262000,1.852261962890625,0.7502741774231195,0.985985844309628,-1.2630804919421672
1747228978738293000,1.86229296875,0.6953285352706908,1.2730033355414867,-1.7266240322507918
1747228978748323800,1.87232373046875,0.8091074746638536,1.4874942274838685,-1.7769630573906003
1747228978758355000,1.88235498046875,1.0705027411222456,1.565879197412729,-1.5127394356384873
1747228978768385800,1.8923857421875,1.5314035118371248,1.5621540394097566,-0.7437177415169776
1747228978778417000,1.9024169921875,2.225106491732597,1.0847899174109101,1.0945921303052455
1747228978788447700,1.91244775390625,2.3349942689061165,0.2718712138958275,2.287604302830249
1747228978798478800,1.922478759765625,1.9480127208828926,-0.41872766250446436,1.6619373328067362
1747228978808510000,1.932510009765625,1.6285411130309104,-0.6892630977518857,0.4664123737432062
1747228978818540800,1.942540771484375,1.5983073028087615,-0.49250280055031176,-0.4014859837917611
1747228978828572000,1.952572021484375,1.6721324174761771,-0.2075128696233034,-1.1589175221562384
1747228978838601700,1.962601806640625,1.8823241509199142,-0.2330043076239526,-1.0172404489468783
1747228978848632800,1.9726328125,1.4225199432700872,0.1330485802695155,-0.8800197706244886
1747228978858663700,1.98266357421875,0.7845943801760673,0.7557388725697993,-1.4772596875868738
1747228978868694800,1.99269482421875,0.01478957285284996,1.0804857904762029,-2.4679595548063515
1747228978878726000,2.002725830078125,-0.5396843845725059,0.583111876758188,-3.036884646910429
1747228978888756700,2.0127568359375,0.0664233139783144,-0.2516128542430699,-2.9238498038828373
1747228978898787800,2.022787841796875,1.612741486352682,-1.2130547705352306,-0.7832198769524693
1747228978908819000,2.03281884765625,3.649482876524329,-2.1423481290251014,2.876117454110086
1747228978918850000,2.04285009765625,4.0941374458372595,-2.6836457940131426,4.834080783382058
1747228978928881000,2.052880859375,1.7689777577251196,-3.5974013916313647,4.210587358005345
1747228978938912000,2.062912109375,-0.563869562280178,-3.259716666218638,1.1457262513455002
1747228978948941800,2.07294189453125,-1.1684919907093048,-1.5912458399899303,-1.2148274792961775
1747228978958973000,2.082972900390625,-0.6083300507754087,-0.34065628856942054,-1.5739949915900826
1747228978969004000,2.093004150390625,0.2718202143609524,-0.3272445799410343,-1.2018276394043117
1747228978979035000,2.103034912109375,0.7627864529937505,-0.7488114113941788,-1.622208402878046
1747228978989066000,2.11306591796875,0.39186522841155524,-0.6716681120894848,-2.0067510333165526
1747228978999096800,2.123096923828125,-1.0722171438246966,0.4179872194007039,-1.8285037134051323
1747228979009128000,2.1331279296875,-3.2450720547944307,0.9280807678297162,-0.08853358510807156
1747228979019158800,2.14315869140625,-3.979982658869028,0.06218669932186603,1.5798939865007995
1747228979029190000,2.15318994140625,-2.622562087497115,-1.1793392556771636,1.9624816834792493
1747228979039220700,2.163220703125,-0.854344208228588,-2.088982157279551,2.1701060506530103
1747228979049251800,2.173251953125,0.5706231281936168,-2.105282426956296,1.5056296036332846
1747228979059282000,2.183281982421875,0.5143851081430911,-1.8589383068963885,0.03313932240530848
1747228979069312800,2.193312744140625,-0.5835282024741173,-1.6520044062048196,-0.2047059224437922
1747228979079343900,2.20334375,-1.8105922091394662,-1.253612114112079,-0.013403963713347912
1747228979089374700,2.213374755859375,-2.421894553723931,-1.22501964135617,0.26823614532910284
1747228979099405800,2.22340576171875,-2.2154829233407973,-1.2871882204994558,0.42724107769727704
1747228979109436700,2.233436767578125,-1.3671961154550314,-1.071252098184824,0.2953500699650496
1747228979119467800,2.2434677734375,-0.14821721556782722,-0.6385422336876392,-0.5825268434118479
1747228979129499000,2.253498779296875,0.5723042131483554,-0.2362237080618739,-1.7670600875355302
1747228979139530000,2.263530029296875,0.4879477675944566,0.4197878390818834,-2.2918881176292896
1747228979149560800,2.273560791015625,-0.5111567937463521,1.1171154392153024,-2.5577222433179614
1747228979159592000,2.283592041015625,-1.822834435597062,1.720259027263522,-2.4587521660000085
1747228979169622800,2.293622802734375,-2.8650679445683953,2.5675638383746144,-2.093661255006492
1747228979179652900,2.30365283203125,-4.461041835993528,4.8020256029516455,-3.289575213387608
1747228979189684000,2.31368408203125,-5.100637962648272,5.148991951450705,-2.66728414953798
1747228979199714800,2.32371484375,-4.100125288075208,5.131242944270372,-1.5400222871005533
1747228979209746000,2.333745849609375,-3.022497225117683,5.314524458956718,-1.6653361814647911
1747228979219776800,2.34377685546875,-1.997770146742463,5.058190567541122,-1.7133745284467934
1747228979229807900,2.353807861328125,-1.1318038897812366,3.950105114738643,-0.5571712336853146
1747228979239838700,2.363838623046875,-0.3767395554721355,3.422371280200779,0.08511632401049136
1747228979249869800,2.373869873046875,0.06612579233646393,3.689662911221385,-0.15202654472291469
1747228979259901000,2.38390087890625,0.10609598367512225,3.3167551889970897,-0.16617548158466816
1747228979269931800,2.393931884765625,-0.12166121707558632,2.977319528263807,-0.14825813210010527
1747228979279963000,2.403962890625,0.713939127716422,1.8933350820168853,3.562167581164837
1747228979289992700,2.41399267578125,2.0011913533627985,-0.27221535115838047,6.37391953060925
1747228979300023800,2.42402392578125,3.1305443428605795,-1.7775792895928024,1.994528388342261
1747228979310054700,2.4340546875,3.821438110554218,-0.9780448221772908,-1.2679793698996304
1747228979320085800,2.444085693359375,3.8271851297736164,0.8720856166243552,-2.9413030429869886
1747228979330116900,2.454116943359375,3.660694590890407,2.116843393151462,-3.2467034553885457
1747228979340147700,2.464147705078125,3.1989240516036745,2.0871087646231055,-2.629980839321017
1747228979350179000,2.474178955078125,8.685480901479721,1.5800956465527414,-2.211842521011829
1747228979360210000,2.4842099609375,10.523199017953871,0.4736757888749242,0.026674071913957594
1747228979370241000,2.494240966796875,7.2535127463847395,0.7207777415648102,3.4373411780565974
1747228979380271900,2.50427197265625,3.5309400837302207,0.651713265427947,1.6126210748434067
1747228979390303000,2.514302978515625,1.3453496098279951,2.4882471405535935,0.5524953508287668
1747228979400333800,2.524333740234375,3.00150295240581,4.503546221984923,1.6413146698862313
1747228979410364000,2.534364013671875,1.8192133224904536,2.944693562208116,1.3630734825670718
1747228979420395000,2.54439501953125,-2.1117185974836348,-0.43775107353478665,0.5406406623840332
1747228979430425900,2.55442578125,-3.8762954899013042,-1.5046598818182944,-0.2538467507749796
1747228979440457000,2.56445703125,-3.5834009233295916,-0.6239458453193306,-2.7024749976456164
1747228979450487800,2.57448779296875,-1.6035370201557875,-0.5080348623335361,-5.297786674645542
1747228979460519000,2.584518798828125,0.3153448833107948,-1.4249047925800085,-6.437765687575936
1747228979470549800,2.5945498046875,1.0593851347804069,-1.5875000775903463,-6.103354869267344
1747228979480580900,2.604580810546875,1.725531414708495,0.17817659276276826,-5.2740065706074235
1747228979490611700,2.61461181640625,3.2868741377353667,1.6220453212708235,-4.508272958245874
1747228979500642800,2.624642822265625,4.632575045219063,1.791492956393957,-4.9611131721019746
1747228979510673700,2.634673583984375,4.063692038691044,1.1866124615505338,-5.991233633953333
1747228979520703700,2.644703857421875,1.7107909416943787,0.670611442643404,-6.986096904462576
1747228979530734800,2.65473486328125,1.752057602584362,0.7996617470569908,-7.030357486471534
1747228979540765700,2.664765625,7.706567479774355,1.2840822173081337,-5.137990664964914
1747228979550797800,2.6747978515625,4.93383587359786,1.3440456876225768,-2.828810636273026
1747228979560828700,2.68482861328125,-0.6236626444637775,2.665132816722989,-3.8507846165478226
1747228979570859800,2.69485986328125,1.3448983589291572,4.32645011793524,-2.781424615719914
1747228979580890600,2.704890625,2.849585128754377,5.005938402256369,-1.6426649154514072
1747228979590921700,2.714921630859375,1.3118185116261243,5.088263049721718,-2.7821535145163536
1747228979600952800,2.724952880859375,-0.055693245649337766,4.945668934732676,-2.6117671372383833
1747228979610984000,2.73498388671875,-0.4401064044892788,5.238113419449329,-2.112936156579852
1747228979621014800,2.745014892578125,-0.9950666841268538,5.315498272424936,-1.5428963812321423
1747228979631046000,2.7550458984375,-2.2302269034862516,4.8735985547780984,-0.29557927561104297
1747228979641076000,2.765075927734375,-3.567631691789627,4.203802520170807,0.7365864283323288
1747228979651106800,2.77510693359375,-4.678569903674721,3.6906682888716458,1.6063023932158946
1747228979661138000,2.785137939453125,-5.495896925151348,3.5117347402617334,2.9582541777878997
1747228979671168800,2.795168701171875,-4.873039167329669,3.6980186516344546,3.769495741870999
1747228979681199900,2.805199951171875,-3.49888198069036,5.409034049734473,3.7656180236548185
1747228979691230700,2.815230712890625,-2.0700164677858353,5.404025281661749,4.257520666354894
1747228979701261800,2.82526171875,-1.212990473127365,4.090113012626767,4.526592458790541
1747228979711292700,2.835292724609375,-1.5451923832148313,3.6055142631992694,5.250455599150062
1747228979721323800,2.84532373046875,-1.0938719262719154,4.316205495035648,5.31278667537868
1747228979731354600,2.855354736328125,-1.9120903436303138,4.584234500420093,5.486601858061552
1747228979741385700,2.8653857421875,-1.477832665169239,3.2841385752916334,5.722890155792236
1747228979751415800,2.875415771484375,-0.10580606081783771,1.3314862119093536,4.811889994361996
1747228979761446700,2.88544677734375,-0.03226560831069946,0.6617875001966953,4.033714249056578
1747228979771477800,2.895477783203125,-0.7613152113974094,1.267366790959239,5.3464709183156485
1747228979781508600,2.905508544921875,-0.8180822237581015,2.2227561292141673,6.011629940772056
1747228979791539700,2.915539794921875,-0.12876491160094738,2.8349568839430805,5.512186965695023
1747228979801570600,2.925570556640625,0.37610710278749465,2.578769707521796,4.712148348149657
1747228979811602000,2.935601806640625,0.9025830462187528,1.6244751787662506,3.8817198530375956
1747228979821632800,2.9456328125,1.1765268286049366,1.0187193623930215,3.1923142780750986
1747228979831663900,2.955663818359375,0.34114451047778127,0.5829921959012746,3.068762717208266
1747228979841694700,2.96569482421875,-0.9410767352640629,-0.26183833405077456,2.705835998511314
1747228979851725800,2.975725830078125,-1.5088637632489204,-1.285115798139572,2.0404443363428113
1747228979861757000,2.9857568359375,-1.849412645921111,-1.9272581021457909,2.2271908967912197
1747228979871786800,2.995786865234375,-2.0401444766134023,-2.186129403084516,3.18069281386435
1747228979881817900,3.00581787109375,-2.374406241840124,-2.0238684645950795,4.0342864959865805
1747228979891848700,3.0158486328125,-2.451897477799654,-1.9659201334953307,4.01485289672017
1747228979901879800,3.0258798828125,-1.7621368057891726,-2.468348846384883,4.217670886525512
1747228979911910700,3.03591064453125,-2.481864161518216,-3.3749867209523914,3.7862159905254837
1747228979921941800,3.045941650390625,-2.0789926781848074,-4.14614995714724,2.5302789405971766
1747228979931972900,3.055972900390625,-4.486462692975998,-4.513529563599825,1.8489707473725079
1747228979942003700,3.066003662109375,-1.0645859182938933,-3.6683401372075077,1.478347628954053
1747228979952034800,3.076034912109375,0.5189844186320901,-3.465048684671521,2.204011681255698
1747228979962065700,3.086065673828125,2.257318908551335,-2.7430291263520714,3.1338714414566753
1747228979972096800,3.0960966796875,0.650187663295865,-1.818559827017784,4.806095628869533
1747228979982127600,3.106127685546875,0.3242147107258439,-1.1780126832485198,6.032743455949426
1747228979992157700,3.11615771484375,1.0485270561575888,-0.3231751385450363,5.270750783681869
1747228980002188800,3.126188720703125,1.1552151605069636,-0.7195926234334706,6.098399877208471
1747228980012219600,3.1362197265625,1.4099609059482812,-3.992052451369166,5.617676800170541
1747228980022250800,3.146250732421875,0.13470014686882495,-4.786531096699834,2.959292288663983
1747228980032281900,3.15628173828125,-2.2111383182652293,-2.4163006792396304,0.857650848558545
1747228980042313000,3.16631298828125,-3.5298178017020225,-1.3679548248678446,0.2909884406894445
1747228980052343800,3.17634375,-4.567973685970903,-2.4948925699174405,1.7146680753886698
1747228980062375000,3.186375,-6.722361212357878,-3.5186253765583038,2.9759178447723387
1747228980072405800,3.19640576171875,-9.49103272948861,-3.813637081414461,1.590303444573283
1747228980082436900,3.206436767578125,-9.703422265237569,-3.6086417475700374,0.4008610202938318
1747228980092467700,3.2164677734375,-10.073592963713407,-2.7632372171223163,-0.35484453452825543
1747228980102498800,3.226498779296875,-7.644802805256843,-2.3929233107835053,0.8226414944976568
1747228980112529000,3.23652880859375,-3.691989892864227,-2.5112615209162232,1.6419617356181144
1747228980122559700,3.246559814453125,1.9307108729481697,-1.2058248192816972,1.1985054361790417
1747228980132590800,3.2565908203125,-5.693613792425394,0.924119755244255,0.30069968736469743
1747228980142621700,3.26662158203125,-5.865635077428817,1.409213302451372,-0.05103869784176349
1747228980152652800,3.27665283203125,-4.07923564478159,1.9428081379771232,-0.4522346491783857
1747228980162683600,3.28668359375,-3.5016859321951865,2.169347195109725,-0.05003448923528194
1747228980172714800,3.29671484375,-2.2401788270495833,1.5191133545845745,1.9115543370574712
1747228980182745600,3.30674560546875,-0.4400773245252669,0.7895698305010795,2.629091781526804
1747228980192776700,3.316776611328125,0.3360788976512849,0.41127661584615705,2.7041455612063405
1747228980202807600,3.3268076171875,1.0923730660162865,0.35389351741373537,4.1869332184344525
1747228980212838700,3.336838623046875,1.3409808932244778,0.5613420896291732,5.970812777215242
1747228980222868700,3.34686865234375,-0.08416881402730941,0.6368775153458118,5.583039786553383
1747228980232899600,3.356899658203125,-2.63372470202446,-0.28192075261473654,3.837390297445655
1747228980242930700,3.3669306640625,-4.414328015613556,-2.0603888077408072,2.1137164933025834
1747228980252961800,3.3769619140625,-3.882879544466734,-2.001124133345485,1.1960726560741661
1747228980262993000,3.386992919921875,-3.8883427783086892,0.047291912528872486,-0.3761965346366167
1747228980273023700,3.397023681640625,-3.7558605997502803,1.4149848715901374,-2.5106752454608676
1747228980283054800,3.407054931640625,-2.0246904485024513,1.90467451441586,-3.817860836589336
1747228980293085700,3.417085693359375,0.6466624117791653,2.7934388786405324,-3.419108186751604
1747228980303116800,3.42711669921875,1.9237047935783862,2.9333599750280377,-0.9075333621025085
1747228980313148000,3.43714794921875,1.730363657170534,1.4329600887417793,3.6940842347949743
1747228980323178800,3.4471787109375,2.7341373793661594,-0.38369244334995745,6.454812099444866
1747228980333208800,3.457208740234375,2.9714661260604855,-0.4625739646241069,3.7101018881380554
1747228980343239700,3.46723974609375,4.760189617741108,0.36349428945183754,1.5316279682427645
1747228980353270800,3.477270751953125,6.404294210606813,0.3197945561960339,-1.8486866697341202
1747228980363301600,3.487301513671875,7.378883923894167,1.5525696339845656,-3.631189094942808
1747228980373332700,3.497332763671875,6.889307093793153,1.7528139739096165,-3.127618810802698
1747228980383363800,3.50736376953125,4.800432780802249,0.7318760586842894,-5.028101134225726
1747228980393394700,3.517394775390625,2.0907786853075025,-1.1581819013580679,-6.05850859632492
1747228980403425800,3.52742578125,-1.0621382328808306,-1.543493762603402,-6.45040246630907
1747228980413456600,3.53745654296875,-1.29630939232707,-0.6970598891079426,-5.8866527310162775
1747228980423487700,3.54748779296875,-0.2224795526087284,-0.044509003812074656,-5.306335891804099
1747228980433518600,3.5575185546875,1.4517337627947329,1.3314806589514017,-6.424781118318438
1747228980443550000,3.567550048828125,2.6996657854437824,1.786558130340278,-6.456418950119614
1747228980453579800,3.577579833984375,3.0313480555713177,1.6696566750124096,-4.892036713266372
1747228980463610600,3.587610595703125,2.436259179162979,-1.0256620211377738,-3.4845173552513122
1747228980473642000,3.59764208984375,2.288619471222162,-3.2342905485391613,-3.7595857577532525
1747228980483672800,3.6076728515625,3.363665116471052,0.5997825871825218,-3.4665596737563606
1747228980493704000,3.617703857421875,3.9416999822258947,2.217531672564149,-2.9268741201400754
1747228980503734800,3.62773486328125,3.5821664130985735,1.3409370540827512,-2.4818589008212086
1747228980513766000,3.637765869140625,3.2144600589096544,0.46962475991845126,-1.2297972310215235
1747228980523796700,3.647796630859375,1.0495242505013942,-0.2616916190564632,-0.38650574720501896
1747228980533827800,3.657827880859375,-0.29794498182907697,-0.6955395476728677,0.036948213168978686
1747228980543858200,3.667858154296875,-1.1103589506924152,0.19140753799676893,0.8278782261073588
1747228980553889300,3.67788916015625,-3.643826458197832,-1.4045996711760758,0.03177460992336273
1747228980563919400,3.68791943359375,-5.02190111054182,-3.3306589189261198,0.4671715215474367
1747228980573950200,3.6979501953125,-2.987480272272229,-1.5989841791570185,0.5213420876741409
1747228980583981300,3.707981201171875,0.9157831579230725,1.3427227684557437,0.013966566032171248
1747228980594012200,3.71801220703125,1.435039817625284,2.85239609452188,0.16361410666406154
1747228980604043300,3.728043212890625,1.056539828351885,2.9101410120040176,-0.6212210965305567
1747228980614074000,3.73807421875,1.1583014360845088,1.8240490720838307,-2.64308640460968
1747228980624105200,3.748105224609375,0.21593758361935614,1.760045094206929,-1.6397323691308496
1747228980634136300,3.75813623046875,-1.3752769844494759,1.7459651309281587,-0.0558440522968769
1747228980644167200,3.768167236328125,-1.127850037588924,1.6960796947747467,1.4648498494774103
1747228980654198300,3.7781982421875,0.2768552859187126,0.15845394742190838,1.3340174839526413
1747228980664229000,3.78822900390625,-0.7091418104372919,-0.3901753756284714,0.3921364465683698
1747228980674259200,3.79825927734375,-2.4065106682397426,-0.36977731524407864,1.7658967428445815
1747228980684290000,3.8082900390625,-2.9682196914851664,0.08441957391798496,5.8028767156988375
1747228980694321200,3.818321044921875,-1.7606828075885772,-0.0723749158591032,7.832884413701295
1747228980704352300,3.828352294921875,-2.5614731202840804,-0.8939993422687054,7.172513210043311
1747228980714383000,3.838383056640625,-3.963997154229879,-1.3149813595712183,6.162209793817997
1747228980724414200,3.848414306640625,-3.7354900118947025,-0.8644710499674081,5.651898803246021
1747228980734445300,3.8584453125,-2.888351789522171,-0.8926876751482486,7.288099491119384
1747228980744476400,3.868476318359375,-3.042809360784292,-1.7659715616464613,10.385451758474112
1747228980754507300,3.87850732421875,-2.345297051733732,-3.578620118793845,10.94751047194004
1747228980764538400,3.888538330078125,-1.5011761313557623,-4.7402568367809055,10.94610995749235
1747228980774569200,3.8985693359375,-2.0793793394148348,-4.67264109814763,12.224687293773888
1747228980784600300,3.908600341796875,-0.9495686692774296,-3.0990695926666256,10.145441225349902
1747228980794630400,3.91863037109375,0.06478257016711868,-0.4957686704784631,5.307797781050205
1747228980804661200,3.9286611328125,2.657001532715559,1.8985832118034363,-2.0272043310195205
1747228980814692400,3.9386923828125,3.480468956643343,3.159341982799768,-6.596030834427475
1747228980824723200,3.94872314453125,1.3721031767189502,4.154209344962239,-3.4525890160709616
1747228980834754300,3.95875439453125,1.296725571912527,3.86322908757925,-0.9922808528006076
1747228980844785200,3.96878515625,-0.21609423548579215,1.7833423831641673,-1.5594161388784646
1747228980854816300,3.978816162109375,-0.7261246555507183,-0.1233960780441761,-2.6600422155857086
1747228980864847000,3.98884716796875,-0.10259645112156868,-2.718374577566981,-2.1716420280486344
1747228980874878200,3.998878173828125,2.163880746397376,-2.1747394095420836,-2.6625188348323103
1747228980884909000,4.008908935546875,1.2511305264294146,0.8495482061237096,-4.123357695102691
1747228980894940200,4.018940185546875,-1.9806576838999985,2.275348486238718,-3.7487083899080753
1747228980904970200,4.02897021484375,-1.2165309222131966,3.0939433356940746,-3.810544960618019
1747228980915001000,4.0390009765625,4.994714997452498,4.491408332684636,-5.590812758642435
1747228980925032200,4.0490322265625,12.053639822238683,7.618636682865024,-7.523561274898052
1747228980935063000,4.05906298828125,13.82249190775752,8.531140234595536,-4.424892664247751
1747228980945094100,4.06909423828125,7.299640291309356,6.091331253996491,2.8298791422873735
1747228980955125200,4.079125244140625,-4.370261494871974,3.715039344540238,5.789176107126474
1747228980965156400,4.08915625,-13.188728725039958,2.1812503988713026,6.017397418257594
1747228980975187200,4.099187255859375,-6.317659298726916,1.9018606260389088,7.162429622924328
1747228980985218300,4.10921826171875,-2.7076316497564314,2.064011089891195,7.338479432791471
1747228980995249200,4.119249267578125,-2.791770068645477,1.8947405649006366,3.878444192367792
1747228981005279200,4.129279296875,-3.1161475687175986,-0.1082329957038164,3.3360996486753223
1747228981015310300,4.139310302734375,-2.325234653044492,-1.9134622165054083,4.544250280556082
1747228981025341200,4.149341064453125,-1.0095908840417862,-0.8546049049913883,6.927777986484766
1747228981035372300,4.159372314453125,0.6095336544115096,1.153217264688015,6.649376055645942
1747228981045403100,4.169403076171875,2.602844995114207,3.526777995614707,5.899942420700192
1747228981055434200,4.179434326171875,4.163288723474741,4.294032533933222,6.9573495334059
1747228981065465000,4.189465087890625,5.930146420305967,2.1982032872378823,-0.15017770198583602
1747228981075496200,4.19949609375,3.785059221705794,-2.1580124388858675,-21.238373729181287
1747228981085527300,4.20952734375,-1.7402774406805634,-1.152099951095879,-20.243959371483324
1747228981095558100,4.21955810546875,-1.277588909766078,-0.055861149562150235,-14.811590623390673
1747228981105589200,4.22958935546875,0.5659559401001781,1.4992637218631804,-10.686387008160352
1747228981115619000,4.239619140625,2.105188903453946,1.672720884888619,-7.077257769334316
1747228981125650200,4.249650146484375,2.9226123710423706,0.08518149820119142,-5.762158336341381
1747228981135681300,4.259681396484375,3.465315226653218,-0.5067874926209449,-5.243368855759501
1747228981145712000,4.269712158203125,1.0250795450747012,0.3652731356926262,-6.383516795516014
1747228981155743200,4.2797431640625,-1.964462920424342,0.9341250164300203,-8.255295587024092
1747228981165774000,4.289774169921875,-3.1911475723832843,1.2809542945459484,-9.036087652307748
1747228981175805400,4.299805419921875,-2.501547351631522,0.5771908161461353,-9.625265258845687
1747228981185836300,4.309836181640625,-1.8417390425533056,-1.2581161475330591,-9.74452350643277
1747228981195867400,4.319867431640625,-2.3197850093364716,-2.1053468704946336,-8.399162206166983
1747228981205898200,4.329898193359375,-2.0841556139059363,-2.0738602837324143,-6.393009431004524
1747228981215929300,4.339929443359375,-0.894319806394726,-2.1648966454416514,-3.2418723819702864
1747228981225959400,4.34995947265625,-1.9940601863086223,-0.9727756496027111,-2.329272968649864
1747228981235990300,4.359990234375,-2.274627186226845,-0.1917886462688446,-2.0492028123378754
1747228981246021400,4.370021484375,-1.3856710988223553,0.2815291229486465,-0.39358664537668225
1747228981256052200,4.38005224609375,-0.9246966783493756,0.5889890982285142,1.5051929657816887
1747228981266083300,4.390083251953125,-1.5749895555853843,1.2357757209092377,3.5103900476545093
1747228981276114200,4.4001142578125,-2.4297113649547097,1.4907044217020273,4.039652406933904
1747228981286145300,4.410145263671875,-2.7720558988720176,1.2953864322632551,5.368882656610012
1747228981296176000,4.420176025390625,-2.145646586048603,0.3283075329974294,5.230976991698146
1747228981306207200,4.430207275390625,0.05788231665883213,-0.09030746291279793,6.850742677599191
1747228981316238000,4.440238037109375,-0.10405771931316703,0.31580227168947456,11.638397809892892
1747228981326269200,4.450269287109375,-2.2566408631592987,1.3008292078390717,14.07647017595768
1747228981336299300,4.46029931640625,-2.110367767396569,1.116948558215797,10.570769747424125
1747228981346330000,4.470330078125,-0.5281407348383218,-0.19624533341675995,6.0449254766523834
1747228981356361200,4.480361328125,0.23569332751221952,-1.7298203440740703,3.8113995316207405
1747228981366392000,4.49039208984375,1.0196228871040045,-3.1426237799718972,1.6208721858382225
1747228981376423200,4.500423095703125,2.083172301957011,-4.2337806020662185,2.52277484857738
1747228981386454000,4.5104541015625,1.2197119634021072,-3.608417583425343,6.1784109870344395
1747228981396485400,4.5204853515625,-1.2682628630161286,-1.1371019961893558,7.646061865407228
1747228981406516200,4.53051611328125,-2.374318563556671,1.6173708997189997,5.0299838792324065
1747228981416547300,4.54054736328125,-1.647702909618616,3.24916633837074,-0.33806817177236076
1747228981426578200,4.550578125,-1.0080933389604092,3.6571249157100914,-4.871580785214901
1747228981436609300,4.560609375,-0.35427407769653946,4.14253235117197,-7.747530773803591
1747228981446639400,4.570639404296875,1.207646700946614,6.006709435504675,-9.682724929645657
1747228981456670200,4.580670166015625,4.135623302435874,7.251841598302126,-9.864559752655028
1747228981466701300,4.590701416015625,5.783149686443806,5.545616357088089,-7.769680061769485
1747228981476732200,4.600732177734375,4.985120655155182,3.3369740934222936,-6.183578745061158
1747228981486763300,4.61076318359375,2.2486907809376717,1.5664143272027373,-4.773336099562049
1747228981496794000,4.620794189453125,4.588480467426777,-0.7256628832578659,-6.260055835542082
1747228981506825200,4.6308251953125,6.851483851355314,-1.3748305558562277,-1.3926941293269395
1747228981516856300,4.640856201171875,4.626058210670948,1.94613348300755,7.222037411668897
1747228981526887200,4.65088720703125,3.631127135622501,3.5877240472257137,11.791072589391469
1747228981536918300,4.660918212890625,3.827615337884426,2.999737696298957,11.598831523180007
1747228981546948000,4.670947998046875,2.845038717496395,0.8780050698012113,6.717326725322008
1747228981556979200,4.680979248046875,1.8218565304756162,-1.72067345328331,1.9757009382754562
1747228981567010000,4.691010009765625,0.9853379017949103,-3.5821962237149476,-0.20389584816992282
1747228981577041200,4.701041259765625,-0.26723412867970764,-4.103130899631977,0.047800446572899814
1747228981587072300,4.711072265625,-0.892619870609045,-3.0234353827506304,-0.456409889036417
1747228981597103400,4.721103271484375,-1.4475906716406344,-2.0183423946499826,-3.3912177247852084
1747228981607134500,4.731134521484375,-2.000468884307146,-2.022142371454835,-4.780734977641702
1747228981617165300,4.741165283203125,-2.620214063066244,-2.6574130361258983,-5.04221149264276
1747228981627196400,4.751196533203125,-2.8462931014716624,-3.006659604516625,-4.7798920970767735
1747228981637227300,4.761227294921875,-1.8609400021076201,-3.630409342741966,-5.2255298322081565
1747228981647258400,4.77125830078125,-0.7432769389469176,-3.8130788630098102,-5.440082098948955
1747228981657288200,4.7812880859375,0.22043716006092726,-3.360910264804959,-5.2924125803917645
1747228981667319300,4.7913193359375,0.7623708579301833,-3.974501012587547,-5.225606989097595
1747228981677350400,4.801350341796875,0.7875709848340601,-4.84357049626112,-5.449295917496085
1747228981687381200,4.81138134765625,0.9888917948842048,-4.887407299900055,-5.320984594881534
1747228981697412400,4.821412353515625,0.8731973772585392,-4.76773754890263,-4.827472178897262
1747228981707443200,4.831443115234375,0.7183657119870186,-4.588463516291975,-4.639093633332848
1747228981717474300,4.841474365234375,0.6589442395947873,-4.1690275593876835,-4.48453727787137
1747228981727505200,4.851505126953125,0.2705905264355242,-3.8761961211800573,-3.7269957397937774
1747228981737536300,4.861536376953125,0.23150194023698567,-3.311210122090578,-3.8798376925528046
1747228981747567000,4.871567138671875,0.3411560547851026,-3.034575200924277,-3.9471646773725744
1747228981757598200,4.88159814453125,0.13151640226617456,-2.9394910251289605,-3.6645465901434418
1747228981767628300,4.891628173828125,0.06531681404113769,-3.126563164269924,-3.4444361047536134
1747228981777659100,4.9016591796875,0.5537364369310438,-3.086144644641876,-2.731336642731726
1747228981787690200,4.911690185546875,1.2742227943338453,-1.4562158766448496,-0.34367636704295873
1747228981797721000,4.92172119140625,2.4145580733560026,2.8469197089374063,4.4294875908225775
1747228981807752400,4.93175244140625,4.438686211800575,10.002336238229274,10.933126557278632
1747228981817783300,4.941783203125,5.984474222820997,18.07423983592987,15.40192850587964
1747228981827814400,4.951814453125,4.952790749436617,22.581221585321426,16.905896313780545
1747228981837845200,4.96184521484375,-0.5998458616770803,17.992037353539466,10.621071363162994
1747228981847876400,4.97187646484375,-3.2807647149443624,9.152699184778331,3.99622301505208
1747228981857907200,4.9819072265625,-3.0624387748837467,3.2816578643918035,1.4400503392636774
1747228981867937300,4.991937255859375,-6.960102046984434,-2.0687176601469517,-0.21597937693446873
1747228981877968400,5.001968505859375,-10.519244142848253,-3.939015857708454,-1.0949331257626413
1747228981887999200,5.011999267578125,-10.413275000423193,-2.9526334152966736,0.33905221437364813
1747228981898030300,5.0220302734375,-8.348255025750397,-0.9551081832259893,3.2789868916168805
1747228981908061200,5.032061279296875,-5.1555169693052765,1.553106225079298,6.036010933312773
1747228981918092300,5.04209228515625,-2.1214918034791945,3.4453438672482966,6.552837004867196
1747228981928123100,5.052123046875,-1.2705636873044073,3.6660657625347373,5.430134120908379
1747228981938154200,5.062154296875,-1.1609411369383333,3.2337422670066354,4.2624110687449575
1747228981948185000,5.07218505859375,-0.7373299401760101,2.7157237707972524,3.6198859029009935
1747228981958216200,5.08221630859375,-0.5186977471778169,2.0901994241148234,3.1000191484764215
1747228981968247300,5.092247314453125,-2.3479817607730626,1.758743363958597,2.7826547420367596
1747228981978278100,5.102278076171875,-4.89513818641305,2.4524036737561223,3.089454792103171
1747228981988308200,5.11230810546875,-5.669025294613838,4.415930774635076,2.5298165837824342
1747228981998339000,5.122339111328125,-3.3803485402464863,5.880985791295767,1.6162585545629262
1747228982008370200,5.1323701171875,0.005591098005324602,6.351613006255031,0.7940969525367021
1747228982018401000,5.142401123046875,2.1596496846988797,5.805451534622907,0.48850189434587954
1747228982028432400,5.152432373046875,2.845518025445938,5.008947520944476,0.8512538409978151
1747228982038463200,5.162463134765625,3.431250752227008,4.486797624018788,1.2934364672392606
1747228982048494300,5.172494384765625,4.798153437693417,3.6569308544427153,0.9586743512749671
1747228982058525400,5.182525390625,7.905211983287334,3.420803300231695,0.23055647608041763
1747228982068556300,5.192556396484375,9.222580530256032,2.792645682436228,-0.9015174628138541
1747228982078587400,5.20258740234375,9.151158969599008,2.0188947678357363,-2.1096604959100484
1747228982088618200,5.2126181640625,8.352603868609666,0.9251321471571922,-3.085163816910982
1747228982098648300,5.2226484375,6.973359003442526,-0.12688041302859782,-3.0172511411577463
1747228982108679200,5.23267919921875,4.3572640661329025,-1.1177771179944276,-2.096573050799966
1747228982118710300,5.242710205078125,0.5436351680248975,-1.7020786429286001,-0.4407055394262075
1747228982128741400,5.252741455078125,-1.6214973319992423,-2.0638339797586203,0.7720037786722183
1747228982138772200,5.262772216796875,1.7125404157102107,-0.9417910210132598,0.3178723559617996
1747228982148803300,5.27280322265625,3.178170017388463,-0.3815957633316517,0.08352408638298511
1747228982158834200,5.282834228515625,4.752883094120025,-0.5349211156934499,0.025200492230057714
1747228982168865300,5.292865234375,6.182909467497468,-0.976906758058071,-0.01409983702301979
1747228982178896100,5.302896240234375,5.989101882621646,-1.10589261893332,-0.07510580212771892
1747228982188927200,5.31292724609375,4.971048875182867,-0.533956654575467,-0.809890149474144
1747228982198958000,5.3229580078125,3.8962782474830746,-0.0287128842651844,-2.0065496655255557
1747228982208988200,5.33298828125,3.2166619528681037,0.05329436781406402,-3.4521441949129104
1747228982219019300,5.343019287109375,3.0301150066450235,-0.7496212664723396,-4.869274261838197
1747228982229050000,5.353050048828125,3.3567037530258297,-2.4122090260118245,-5.977707797425985
1747228982239081200,5.363081298828125,3.8735488215416667,-2.7595851243555543,-6.2621577762573954
1747228982249112300,5.3731123046875,0.9210919318556785,-0.9563438625007867,-6.30193039919734
1747228982259143400,5.383143310546875,1.1981833646178244,-0.5544944156914949,-6.209690506917238
1747228982269174300,5.39317431640625,1.6810662500381468,-0.5718114611953496,-6.177752815386652
1747228982279205400,5.403205322265625,1.8783570008546113,-0.5716939722955227,-6.296200331112742
1747228982289236200,5.413236328125,1.7329539659246802,-0.6364104823559522,-6.50510377831161
1747228982299267300,5.423267333984375,1.0456523775041102,-0.5656120220333337,-6.46386809708178
1747228982309298200,5.433298095703125,0.15974164914488792,-0.3874123406559229,-6.143425013849138
1747228982319329300,5.443329345703125,-1.0368693515896796,0.026533786660432813,-5.604683463084697
1747228982329359400,5.453359375,-2.156330769409239,0.3780512225925922,-5.005478968051076
1747228982339390200,5.46339013671875,-2.871308884784579,0.5591214909702539,-4.109567070159316
1747228982349421300,5.47342138671875,-3.337538157045841,1.0375246006280183,-2.2301216895461082
1747228982359452200,5.4834521484375,-4.142954375976323,1.7597984259694814,1.216273148059845
1747228982369483300,5.493483154296875,-5.7623243405580515,2.4249895971298217,5.904392385846376
1747228982379514000,5.50351416015625,-7.938525054824352,2.6215496955841777,9.619617608347534
1747228982389545200,5.513545166015625,-9.306593276938795,1.772492487847805,11.043155788749456
1747228982399576000,5.523576171875,-9.023878159075975,-0.32714521121978757,10.88038748525977
1747228982409607200,5.533607177734375,-7.525419469985366,-2.1840426599383354,9.693039987432956
1747228982419638300,5.54363818359375,-4.604359589082002,-2.883813561570644,7.942244952130317
1747228982429669000,5.553669189453125,-2.615098912009597,-1.7065169176369905,4.871266896960139
1747228982439699200,5.56369921875,-2.444058454737067,0.30028876847624775,1.9744822101354598
1747228982449730000,5.57372998046875,-2.11530873093009,1.3407663736909627,0.458944375950098
1747228982459761200,5.58376123046875,-0.3113167968384921,1.400699741128087,-0.09583996259868144
1747228982469792300,5.593792236328125,2.186933705204725,-0.16308803696334362,-0.05357493832111358
1747228982479823400,5.6038232421875,4.616200249001383,2.408414309903979,0.06979542075991631
1747228982489854200,5.613854248046875,6.455930874341726,1.2672311818808317,-1.8198329156935213
1747228982499885300,5.62388525390625,5.415224136546254,-9.872980374997853,-8.70834622876048
1747228982509916400,5.63391650390625,5.819073817262053,2.31818400388062,-0.7217746436476707
1747228982519947300,5.643947265625,6.418222198194265,7.240313073071837,2.8071704668730497
1747228982529978400,5.653978271484375,5.542215608733892,4.894163203901052,1.4830062684148548
1747228982540009200,5.66400927734375,4.307203857934475,7.172528992134332,2.0867916614979505
1747228982550040300,5.674040283203125,2.435542555326223,5.74382597631514,0.820194101345539
1747228982560070400,5.6840703125,1.0490233883071691,3.071131199905276,0.6871756239533424
1747228982570101200,5.694101318359375,1.709065433076024,0.8490133685946464,0.16275602853000162
1747228982580132400,5.70413232421875,3.2214222991377115,0.1662467932552099,-0.5081763166308403
1747228982590163200,5.7141630859375,2.0999767217636105,-1.1602543237179517,-2.0054162775814532
1747228982600194300,5.7241943359375,2.705658888378739,-2.301922604909539,-3.563942189621925
1747228982610225200,5.73422509765625,2.600972771501541,-3.523188154429197,-4.697994735112786
1747228982620256300,5.74425634765625,2.135982101124525,-2.5974954507797956,-5.670088539931178
1747228982630287000,5.754287109375,2.436100043078512,-0.22758418227136135,-5.274117629766464
1747228982640318200,5.764318115234375,2.5812860742568966,2.1190356424987313,-3.7400463600248095
1747228982650349000,5.77434912109375,2.3332079700112343,3.435823759230971,-1.7057973711907863
1747228982660380200,5.784380126953125,1.627031000728905,3.1217846978217363,1.1204852079093455
1747228982670411000,5.794410888671875,-0.0045168929025530815,1.110885020393133,3.526570198082924
1747228982680441000,5.804441162109375,-1.5550594049736857,0.31936054869294167,4.863034490665793
1747228982690472200,5.81447216796875,-1.163323940421641,-0.38008769685626026,4.133296905314922
1747228982700503000,5.8245029296875,0.6501926317319273,-0.39988311517238617,3.568672140753269
1747228982710534400,5.834534423828125,2.2623824755512176,0.5072212078630924,3.2725288015186784
1747228982720565200,5.844565185546875,1.7013316239535807,-0.5737433060407638,2.272303127193451
1747228982730596400,5.854596435546875,0.4253600862562656,-1.3013672602385282,0.9422481171309948
1747228982740627200,5.864627197265625,-0.4312085200235247,-2.9935072774767875,-1.278024963095784
1747228982750658300,5.874658203125,-2.8068142007812855,-5.621867237597703,-4.792895955556631
1747228982760689200,5.884689208984375,-3.641467327851057,-3.9241631564915176,-8.065314866960048
1747228982770720300,5.89472021484375,-2.952369795924425,-2.0376561669290063,-7.492788535493612
1747228982780751000,5.904751220703125,-3.1309856568872925,-0.6953630220621824,-6.208161397653818
1747228982790782200,5.9147822265625,-2.657443139003217,-0.2850812624722719,-5.11556256005764
1747228982800812300,5.924812255859375,-2.268393552534282,-0.18752806621491908,-4.966648594397306
1747228982810843100,5.934843017578125,-1.7048215118959544,-0.24965163717269895,-3.979070804721117
1747228982820874200,5.944874267578125,-0.24599048431664705,-0.5351520018398761,-2.0223364327222106
1747228982830905000,5.954905029296875,0.7796575082957744,-1.0167454319715499,-0.016693945169448852
1747228982840936200,5.964936279296875,1.0862696345746516,-1.3794856881856918,1.8322236107110976
1747228982850967300,5.97496728515625,1.5332733973622321,-0.8526718911021948,3.718736445492506
1747228982860998100,5.984998046875,1.8653800303816794,1.2392132941424845,4.811368016314506
1747228982871029200,5.995029296875,-0.3868739959955215,5.247927541977167,4.186830342581868
1747228982881060000,6.00506005859375,0.0683162881180644,5.927115089786052,2.489616675341129
1747228982891091200,6.01509130859375,-3.8488919346690174,4.39574489569664,2.2563597081303595
1747228982901122300,6.025122314453125,-11.517120039176941,-0.29254326891601085,3.3890935722380875
1747228982911153400,6.0351533203125,-10.988573134690522,-3.875642578950524,2.6406349198043344
1747228982921183200,6.045183349609375,-6.429550232416391,-4.209893238261341,1.7594506354451178
1747228982931214300,6.05521435546875,-2.1616167469881473,-2.2325170602500437,1.5262456906825304
1747228982941245400,6.065245361328125,0.7420657365262507,-1.2425047369033098,0.8215899396181106
1747228982951276300,6.0752763671875,1.4888812979280948,-1.7340578355133534,-0.01670271299779415
1747228982961307400,6.085307373046875,2.023521112462133,-1.7672265301436185,0.30699089646339417
1747228982971338200,6.095338134765625,2.7084873898029325,-1.6062860266029835,1.2891513372659682
1747228982981369300,6.105369384765625,3.1305446351215243,-1.8742028037846088,1.8825655584603547
1747228982991400200,6.115400146484375,3.6979695517957207,-2.541788176605105,2.2449024945706126
1747228983001431300,6.125431396484375,4.385940125519037,-3.0158278303563595,3.3374703525066374
1747228983011462100,6.135462158203125,3.7512495988234877,-3.2612194719970224,5.008438986900448
1747228983021493200,6.1454931640625,0.19117402150183915,-3.5263521714180706,7.813137510702013
1747228983031523300,6.1555234375,-6.848354321157932,-3.8069367069929836,11.013850199288129
1747228983041554200,6.16555419921875,-14.934758737897871,-3.336229412534833,12.917241688156127
1747228983051585300,6.175585205078125,-14.437922145926951,-2.522313660806417,12.237488323158026
1747228983061616000,6.1856162109375,-7.44765993847847,-1.7920663723677395,8.705161753505468
1747228983071647200,6.195647216796875,-2.1404297281831504,0.12461013000905513,6.847364725598693
1747228983081678000,6.205677978515625,0.39434184765815733,3.7927696499526498,6.5446414234519
1747228983091709200,6.215709228515625,2.5520178941965104,7.538007733401655,5.494425683555007
1747228983101740000,6.225739990234375,4.0588177106529475,10.865340722775459,4.72799415205717
1747228983111771100,6.235771240234375,5.253451858356595,12.979110992091893,3.9108880798548458
1747228983121802200,6.24580224609375,7.497831205835938,12.392495344996451,2.2426363032042977
1747228983131833300,6.255833251953125,10.295630617773533,8.713547889056802,-0.08632043910324573
1747228983141863200,6.26586328125,10.212560704898834,4.940557290807366,-2.6730735465943813
1747228983151894300,6.275894287109375,6.63604544942975,1.6080086126118898,-4.642010397562385
1747228983161925400,6.28592529296875,3.0599723847702145,-1.892779493960738,-6.644572454756498
1747228983171956200,6.295956298828125,2.2858608201637862,-3.026287265050411,-6.467571627774834
1747228983181987300,6.3059873046875,2.1441589778393504,-3.5973733345806598,-2.9795336971819397
1747228983192018200,6.31601806640625,1.4192311308577656,-3.457040150260925,1.2436404629349709
1747228983202049300,6.32604931640625,1.495432619267702,-2.6772727518498898,4.323459411686659
1747228983212080000,6.336080078125,1.8076836282163857,-1.5488567509412765,5.287008090999723
1747228983222111200,6.346111328125,4.223211569517851,-2.8748218613415957,1.2179793674558401
1747228983232142300,6.356142333984375,5.18406384935379,-1.8355232367783785,-1.2816975141286848
1747228983242172200,6.366172119140625,4.370535927899182,-0.44054245781898493,-0.6803343797564506
1747228983252203300,6.376203369140625,3.9905584134191274,-1.0403846662342549,-0.6147253047704696
1747228983262234000,6.386234130859375,3.8359973817825317,-1.1183049412608146,-1.377780637833476
1747228983272265200,6.39626513671875,4.2840261037036775,-0.31076281621754165,-2.6976094374358652
1747228983282296000,6.406296142578125,4.6865775613024825,0.40461423534750934,-3.5680928795605897
1747228983292327200,6.4163271484375,4.78224713577032,0.6724795746028422,-3.589683364599943
1747228983302358300,6.426358154296875,4.3629269142001865,0.741660662856698,-3.1705332388997074
1747228983312389000,6.43638916015625,3.65026496681273,0.13964461753368376,-3.292542831021547
1747228983322420200,6.446420166015625,3.3824446357429028,-0.17649346198141574,-4.334890906283259
1747228983332451000,6.456451171875,2.8238606126502153,-1.056428623062372,-4.851566755712032
1747228983342481200,6.466481201171875,3.4332232213437557,-1.4328648116737603,-4.771517067441344
1747228983352512000,6.476511962890625,3.4404783070385454,0.2485650109797716,-6.017630642491579
1747228983362543000,6.486543212890625,1.6810001990646124,0.5970505318701267,-5.773258991548419
1747228983372574200,6.49657421875,1.2714745185390115,1.0452625014036894,-5.483764004287123
1747228983382605300,6.506605224609375,0.7290612935245037,0.9371773897379636,-5.559185448235273
1747228983392636400,6.516636474609375,0.13108166411072014,1.1217933678984642,-5.7058606950581074
1747228983402667300,6.526667236328125,-0.565878271754086,1.431011877283454,-5.755320599275827
1747228983412698400,6.536698486328125,-1.2406123472854493,1.5006979924499988,-5.912687920504808
1747228983422729200,6.546729248046875,-2.16189629458189,1.4681149887531995,-6.081606563317775
1747228983432760300,6.55676025390625,-3.0868484089970587,1.420652980354428,-5.8480105734109875
1747228983442790100,6.5667900390625,-3.603760405269265,1.2341425667494534,-4.928700264275074
1747228983452821200,6.5768212890625,-3.6100279412314293,1.096069728577137,-3.453585041370988
1747228983462852400,6.586852294921875,-3.5394483843564983,1.2931114730685949,-0.9222843565106391
1747228983472883200,6.59688330078125,-4.269357234621047,1.4964683920562267,2.5431004282474516
1747228983482914300,6.606914306640625,-6.155708741360902,1.6632921084165573,6.118048580530285
1747228983492945200,6.616945068359375,-8.054591812893747,0.9060475074589251,8.931357696288824
1747228983502976300,6.626976318359375,-7.882507399526238,-1.800670534583926,11.002045195204019
1747228983513007000,6.637007080078125,-5.535921477025747,-4.056464425525069,10.744841535216569
1747228983523038200,6.6470380859375,-3.841037129515409,-3.8210301142752168,7.07133890067935
1747228983533068300,6.657068359375,-3.6937235847890375,-3.562029049476981,3.576498888856172
1747228983543099100,6.66709912109375,-3.917928061494231,-2.9805718080580235,1.097874732172489
1747228983553130000,6.6771298828125,-4.019668188047409,-1.8596248278558254,0.0463853190779686
1747228983563160800,6.687160888671875,-3.360047510495782,-0.42873043947219847,0.6665069299340247
1747228983573192000,6.69719189453125,0.43402854588031764,0.18184359083771703,0.7818938890457153
1747228983583222800,6.707222900390625,6.6774103099972,1.0930717158049343,0.3750982180058956
1747228983593254000,6.71725390625,9.975662166315317,4.702123797741532,0.32637071971595283
1747228983603285000,6.727284912109375,8.481634153148532,9.450615963426232,3.147024353018403
1747228983613316000,6.737316162109375,6.892175927227735,12.5588759937644,5.783692707279324
1747228983623346000,6.747345947265625,4.9422500661998985,11.018072785419225,3.2858874647855756
1747228983633377000,6.757376953125,3.4103152239650485,6.1432122478812925,-1.2667086193114518
1747228983643408100,6.767408203125,2.2160253596544264,2.2269050655871627,-3.9122406635075806
1747228983653439000,6.77743896484375,0.18433548071868716,-0.9956827701985835,-5.668542479532957
1747228983663470000,6.787469970703125,-3.484920675355196,-3.89541870804429,-5.825007298964262
1747228983673501000,6.7975009765625,-2.4873294411867857,-4.243293403559923,-5.532306209138035
1747228983683532000,6.807531982421875,0.8053472453474998,-2.5732132424384355,-5.307331332582235
1747228983693563000,6.81756298828125,3.2380952015191315,-0.33728666600584983,-3.6592379623413085
1747228983703593000,6.827593017578125,4.0723377019613975,1.2457955951422452,-1.5718518420815466
1747228983713624000,6.8376240234375,3.5138977635145183,1.7080857743889093,-0.017124153280258177
1747228983723655000,6.847655029296875,3.1823388275057076,2.050575854256749,0.764747523933649
1747228983733686000,6.85768603515625,3.103506113809347,1.8734364955872296,0.3604097674399614
1747228983743716900,6.867716796875,3.23535671646595,1.5567232465326786,-0.2561421682357788
1747228983753748000,6.877748046875,3.4271021081149575,1.305319212734699,0.1115051492422819
1747228983763778800,6.88777880859375,3.8208641100585456,1.4145979180991648,1.0393208363950253
1747228983773810000,6.897809814453125,4.131109624403715,1.2102595868587493,1.2181634918510913
1747228983783840800,6.9078408203125,4.7157191923737525,0.621278379675746,2.0421224986881015
1747228983793870800,6.917870849609375,5.251150595676899,-0.09162614429593086,2.634522574403882
1747228983803902000,6.92790185546875,5.188268899828195,-0.9568705167233943,2.2923615803599358
1747228983813932800,6.937932861328125,3.9706057587146755,-1.8615227704316377,1.1767261505693196
1747228983823964000,6.9479638671875,1.9405904619276522,-2.759944020795822,-0.03958849854469299
1747228983833994800,6.957994873046875,-4.90904980738759,-3.967912281847,-0.7001929264366626
1747228983844025900,6.96802587890625,-11.077847162902355,-4.4124733276575805,-0.6513935319542884
1747228983854057000,6.978056884765625,-11.942047579234838,-3.442823993381858,0.31039047577381135
1747228983864088000,6.988088134765625,-7.333624393975734,-2.4222926131308076,0.764374598968029
1747228983874118000,6.998117919921875,-1.6429006239034234,-1.8061971890509128,1.2248235342621803
1747228983884149000,7.00814892578125,1.498744520294666,-1.8751228412389753,0.7835480859935283
1747228983894180000,7.01818017578125,2.242207264137268,-1.8805483734190462,-0.3004740619152784
1747228983904211000,7.0282109375,2.009769942746311,-1.8452847523361444,-1.097964748543501
1747228983914242000,7.038241943359375,1.693204285468906,-1.8204478327214717,-1.3418798878908156
1747228983924273000,7.04827294921875,1.4006198077596723,-1.8731582631677388,-0.9226549433887005
1747228983934304000,7.058303955078125,1.1414506929181516,-1.724091737294197,-0.5394090747624636
1747228983944335000,7.068335205078125,0.571727728434652,-1.2069880178421735,0.03077741557955742
1747228983954366000,7.078365966796875,0.007262099957466125,-0.655937605124712,0.6742898388952017
1747228983964396000,7.08839599609375,-0.40978272402659055,-0.3396405356556177,1.1627812118470668
1747228983974427000,7.098427001953125,-0.7241233987309038,-0.3021153993815183,1.2409019778817891
1747228983984458000,7.1084580078125,-1.0778478431880474,-0.5050239900797605,0.9435352343320846
1747228983994488800,7.11848876953125,-1.319538292223215,-0.7205798809051513,0.6161854404509067
1747228984004520000,7.12852001953125,-1.488716755016148,-0.9291904826372861,0.5263818354070187
1747228984014551000,7.138551025390625,-2.0882804387509823,-0.9480062422662973,0.8706734117388725
1747228984024582000,7.148581787109375,-3.2191227900236843,-0.6703589291870594,1.6298925276398657
1747228984034613000,7.158613037109375,-4.540516939246654,-0.21059622259140012,2.550841251632571
1747228984044642800,7.168642822265625,-5.374920767730474,0.1750485238701105,3.3593671270161867
1747228984054674000,7.178673828125,-5.2058197540879245,0.09289747940599918,3.9926276209086176
1747228984064704800,7.188704833984375,-3.519652966040373,-0.7857160776823758,4.539584626832604
1747228984074735900,7.19873583984375,-0.8617945242345333,-2.09850489564538,4.90520832952857
1747228984084767000,7.20876708984375,0.07745952564701437,-3.345740168201923,4.722217322221398
1747228984094797800,7.2187978515625,-0.2134922362938523,-4.334934160903096,4.5576387544393535
1747228984104829200,7.2288291015625,-2.1362872215509414,-4.601260454022884,5.023768073457479
1747228984114860000,7.238860107421875,-5.553734197092056,-3.9593338385939596,5.798923594158888
1747228984124889900,7.248889892578125,-7.7783906069695945,-2.810890364179015,6.706501379925013
1747228984134921000,7.2589208984375,-7.023509812533855,-2.085892082309723,7.267964465585351
1747228984144952000,7.2689521484375,-5.199515100985765,-1.896278441992402,6.97501027778089
1747228984154983200,7.278983154296875,-4.514198256641626,-1.5945026498287915,5.511439946720004
1747228984165014000,7.289013916015625,-3.93320454108119,-0.8117319779485463,3.9858793156921863
1747228984175045000,7.299045166015625,-3.1416654563337563,0.8768389486312865,3.1739801644831895
1747228984185076000,7.309075927734375,-3.0643250270217655,4.036593603885174,4.161359801238775
1747228984195107000,7.319107177734375,-2.2505144892334936,7.440335294678807,5.203799061915278
1747228984205137000,7.329136962890625,-0.33089506527259943,10.106535448372364,4.428566384324431
1747228984215168000,7.33916796875,4.056414156642556,11.774819373726844,3.9039638335496183
1747228984225199000,7.34919921875,9.071233784490824,11.657019508254526,3.0552894876509904
1747228984235230000,7.35922998046875,11.173542748594283,9.324198491734265,0.8674334069043398
1747228984245261000,7.369260986328125,10.060313795423507,6.427347169414162,-2.130290026962757
1747228984255292000,7.3792919921875,7.816049014234542,4.096556197416782,-4.152145982691645
1747228984265323000,7.389322998046875,4.445140210245549,2.0674609380841256,-5.199070864349603
1747228984275353900,7.399353759765625,3.0813071414828297,0.3178337775170803,-4.027984765493869
1747228984285385000,7.409385009765625,2.001576553288102,-1.2601982145041226,-1.3163164075672626
1747228984295415000,7.4194150390625,1.0576257238924502,-2.669396319386363,1.4510241532206534
1747228984305446000,7.42944580078125,0.9792650116220116,-3.592594283610582,2.781303619688749
1747228984315477000,7.43947705078125,2.041916746982932,-4.128054913008213,3.644493982195854
1747228984325507800,7.4495078125,2.9816818151265383,-4.300297147285938,3.9574896720319983
1747228984335539000,7.4595390625,3.480989181125164,-3.9603357091128824,2.5791397098779676
1747228984345569800,7.46956982421875,2.7846123058453203,-3.08826353649199,0.22837270230054854
1747228984355601200,7.47960107421875,4.774187747955322,-2.195442298091948,-0.6929793417960405
1747228984365632000,7.489632080078125,5.040554957607388,-1.1578987005025148,-1.3587754931122065
1747228984375661800,7.499661865234375,5.51890779838264,0.011257014812529087,-1.6837918756097554
1747228984385693200,7.509693115234375,6.449771767190098,0.9546820667684077,-1.6041805787563324
1747228984395724000,7.51972412109375,6.069356153553724,1.6866303139060734,-2.149596200457215
1747228984405755100,7.529755126953125,5.988322714942694,2.230114090761542,-2.5569658719927073
1747228984415786000,7.539785888671875,4.536967137810588,2.7919769893944264,-3.3834126039922237
1747228984425817000,7.549817138671875,4.252736354687809,1.8527122719883917,-5.209111781370639
1747228984435848000,7.559847900390625,4.344542531725764,0.42111061211824413,-5.541384418606758
1747228984445879000,7.569879150390625,3.537063535046577,0.4499278335407376,-4.789568272438645
1747228984455909000,7.5799091796875,2.592012635454535,0.8426181145995855,-4.639011215746402
1747228984465940000,7.58993994140625,2.3380992491841317,1.2336746569767594,-5.200245168825984
1747228984475971000,7.59997119140625,2.1615219083115456,1.7078876214683054,-6.004545535469055
1747228984486002000,7.610001953125,1.5474816631957888,2.163693699392676,-6.978003029856086
1747228984496033000,7.620032958984375,0.5877139637261629,2.4247733240306375,-7.875407212132215
1747228984506064000,7.63006396484375,-0.6551219048276543,2.126067148570716,-8.520287416669726
1747228984516095000,7.640094970703125,-1.9426620075047014,1.4948594955548644,-8.644315362876654
1747228984526125800,7.650125732421875,-2.9470649675145744,1.044393901875615,-8.065562119719386
1747228984536157000,7.660156982421875,-3.3934576126664875,0.5947928160712123,-6.717981389838457
1747228984546187000,7.67018701171875,-3.536791732367873,0.23427695790827274,-4.862061846241355
1747228984556217900,7.6802177734375,-3.9326901618182655,-0.002814472898840904,-2.7123744603693485
1747228984566249000,7.6902490234375,-4.420394768306613,-0.1584568700313568,-0.45254152317047114
1747228984576279800,7.70027978515625,-4.820209494417906,-0.09653963530063629,1.7209049239516256
1747228984586311000,7.710310791015625,-5.124426834514737,0.008006196323037148,4.261635700458288
1747228984596341800,7.720341796875,-4.9347483122676605,-0.2666021874517202,7.440407775393128
1747228984606372900,7.730372802734375,-4.611878294149041,-0.6749328129738569,10.216886166882514
1747228984616403700,7.74040380859375,-4.470801013463736,-1.9215742112904786,11.395289310753345
1747228984626433800,7.750433837890625,-4.225318770930171,-3.687047760286927,9.88083985632658
1747228984636465000,7.76046484375,-3.9336856025964018,-4.174750028687716,6.766552820783853
1747228984646495700,7.770495849609375,-3.5086680461674926,-3.42079394788146,4.240713908460736
1747228984656526800,7.78052685546875,-3.6319074723452327,-2.698898308202624,2.161003145134449
1747228984666557700,7.7905576171875,-3.9467321311742065,-2.520319272118807,-0.19329729726612566
1747228984676588800,7.8005888671875,-3.8897885932028293,-2.2190561056524514,-1.8475889376252888
1747228984686619600,7.81061962890625,-2.7552842122912407,-0.935195860531926,-1.7177958520203829
1747228984696650800,7.820650634765625,0.3535778755933046,0.8162064930140972,-0.8884680116266012
1747228984706681900,7.830681884765625,5.04765748308897,2.5905215201139447,-0.6062047291845083
1747228984716711700,7.840711669921875,8.02019854490459,5.397354717856645,-0.3354220411777496
1747228984726742800,7.85074267578125,7.627154335841536,8.598499952641129,2.25775788449049
1747228984736773600,7.860773681640625,6.224273743543028,11.05021447508931,4.702679678058624
1747228984746805000,7.870804931640625,4.881752635139226,9.856586874079703,3.649999009352922
1747228984756835800,7.8808359375,3.5154935082733627,6.003071955785155,0.8618307645916938
1747228984766867000,7.890866943359375,2.4029636432826518,2.6331279051750895,-1.7520961810290812
1747228984776897800,7.900897705078125,2.106083806467056,0.4659335041850805,-3.6007167997896667
1747228984786929000,7.910928955078125,2.2829764968991277,-1.064651677006483,-4.779620294398069
1747228984796960000,7.9209599609375,1.710367163324356,-2.272649748674035,-5.830719831392169
1747228984806989800,7.93098974609375,0.8846282873332499,-2.5744571050196883,-6.253203485429286
1747228984817021000,7.94102099609375,1.0930740538924932,-1.5991601202458143,-5.127078225806355
1747228984827051800,7.9510517578125,0.9533750758230686,-0.601257335910201,-3.3858296020060776
1747228984837083000,7.961082763671875,0.8365425940781831,0.112760117739439,-1.9062287581205366
1747228984847113700,7.97111376953125,1.4069780907452105,0.6589870558232068,-1.0642635544717312
1747228984857144800,7.981144775390625,1.8338953433156013,1.3831804510504007,-0.17221359270513056
1747228984867176000,7.991176025390625,2.120305224043131,1.9914783531218767,0.864898335468769
1747228984877206800,8.001206787109375,2.389089431709051,2.2073802809059617,1.3000316277205943
1747228984887236900,8.01123681640625,2.7730758895695207,2.1769401344567534,1.7396148851186035
1747228984897267700,8.021267822265624,2.663405554538965,2.1266502091556787,2.1466952183187007
1747228984907298800,8.031298828125,2.457781275141239,1.7383920653253793,2.230780445715785
1747228984917329700,8.04132958984375,2.6055565921604633,1.068296170988679,2.231877008780837
1747228984927360800,8.05136083984375,2.3566810539267955,0.26604455356895923,1.8693512721002101
1747228984937391900,8.061391845703126,1.676422954276949,-0.6510048248976469,0.8767921868801116
1747228984947422700,8.071422607421875,1.4354606733858584,-1.588878964728117,-0.17598785054683685
1747228984957453800,8.081453857421875,0.8620527367793023,-2.3093203139454124,-1.0297446142762898
1747228984967485000,8.09148486328125,0.3349987011991441,-2.6917285627037284,-1.470572318777442
1747228984977514800,8.1015146484375,-0.07630246456637978,-2.565328626668453,-1.3776415216237305
1747228984987545900,8.1115458984375,-0.4332781659044325,-2.0650626447707414,-1.0309428841501473
1747228984997577000,8.121576904296875,-0.9447827501751482,-1.4200631977677345,-0.6239800398498773
1747228985007608000,8.131608154296876,-2.354632012442499,-0.9503127656430006,-0.46793958331048485
1747228985017639000,8.141638916015625,-4.527276349401474,-0.4210615122795105,-0.3610071488112211
1747228985027670000,8.151669921875,-5.044252058559656,0.017081483182311057,-0.05519757108688354
1747228985037700900,8.161700927734374,-3.8410184248149393,0.015893734702467917,0.4399006527841091
1747228985047732000,8.17173193359375,-2.511059276342392,-0.5824877535104751,0.6610007337331771
1747228985057762800,8.1817626953125,-1.4810437361702322,-1.4115163186967372,0.5143330856949091
1747228985067793000,8.19179296875,-0.8842787432432174,-1.9804221215784548,0.5168108739852905
1747228985077824000,8.201823974609376,-0.5821864324763417,-2.2878104929268357,0.6269499955713749
1747228985087854800,8.211854736328124,-0.2826125342711806,-2.373157118561864,0.9110597826629877
1747228985097886000,8.221885986328125,-0.016529109996557236,-2.3401953446805477,1.2852227656453847
1747228985107916800,8.231916748046874,0.12002455578446387,-2.354139698880911,1.4780372478306292
1747228985117948000,8.241947998046875,0.17382424277216196,-2.4540894348859785,1.525848800319433
1747228985127978800,8.251978759765626,0.057401072480529544,-2.56371242364347,1.5739181269615887
1747228985138009900,8.262009765625,-0.16578326739668844,-2.5549451798200606,1.73936061809659
1747228985148040700,8.272040771484376,-0.4570891034722328,-2.4185849907845256,1.9569377856165169
1747228985158070800,8.28207080078125,-0.7450657951250672,-2.1882751829415557,1.8969529802531002
1747228985168102000,8.292101806640625,-1.900724900007248,-1.7699533247590065,1.6563205158382652
1747228985178132700,8.3021328125,-5.562710115230083,-0.9550169978111982,2.1190058318823577
1747228985188163800,8.312163818359375,-8.164842578160762,-0.45297465389072894,3.6554292177081105
1747228985198194700,8.322194580078126,-6.552700811266899,-0.8631728268504142,4.341210756954551
1747228985208225800,8.332225830078125,-4.26066305603385,-1.7681494902074335,4.248153703072667
1747228985218257000,8.3422568359375,-2.627323018288612,-2.4108488435745237,4.078744646394252
1747228985228288000,8.3522880859375,-1.516246274715662,-2.6122680724978444,3.6993466853678223
1747228985238318800,8.36231884765625,-1.99844278530702,-2.2961866916060445,3.5616771672993894
1747228985248349000,8.372348876953126,-4.9093116731941695,-1.4498562784850597,4.639105908292532
1747228985258380000,8.382380126953125,-7.87911074282527,-0.41254035217165946,6.817541834264993
1747228985268411000,8.392410888671876,-8.073673529982566,0.023105565777420997,7.616420760381222
1747228985278442000,8.40244189453125,-6.8460817000508305,0.15848025090694426,6.682918259763717
1747228985288472800,8.412472900390625,-5.619010094600916,1.1956482931822539,6.403599798601865
1747228985298504000,8.42250390625,-4.20778837493658,3.2935306730151175,7.046023842158913
1747228985308534800,8.43253466796875,-1.4034043239116667,5.665262727209925,6.987265948241949
1747228985318566000,8.44256591796875,2.5183745677918195,7.160363338044285,6.148678696593642
1747228985328596700,8.4525966796875,6.494162113058566,7.1364452868402,5.810316510310769
1747228985338626800,8.462626708984375,8.360302021896839,5.6738493537694215,4.143650541546941
1747228985348658000,8.472657958984374,9.515856205099821,3.59466816727519,2.416770050317049
1747228985358688800,8.482688720703125,14.102504780924319,3.4361452462702986,1.3220073126852512
1747228985368720000,8.492719970703124,12.964482747280597,3.2278409340083596,1.635651237297058
1747228985378750700,8.502750732421875,8.36002145138979,2.592593065690994,-0.05262158311903476
1747228985388781800,8.51278173828125,3.4400779095441103,1.6132593727469444,-2.2392244489341975
1747228985398812700,8.522812744140625,-2.3839281034231186,-0.026793314379453658,-1.5177245305746794
1747228985408843800,8.53284375,-5.91432458179593,-0.9037152651190757,1.4485925421595574
1747228985418874600,8.54287451171875,-3.2536437760457395,-0.6853671132266521,2.0832032816171644
1747228985428904700,8.55290478515625,1.6707777879968284,-0.5142144277513027,1.4576134684830904
1747228985438935800,8.562935791015626,5.848984386879206,-0.47602995078563687,0.046915480431914326
1747228985448966700,8.572966552734375,7.559163334155082,-0.19442045607715844,-1.3031938911437988
1747228985458997800,8.582997802734376,6.22415976177454,-0.09046966773718595,-2.4248832141458987
1747228985469028900,8.59302880859375,4.178503828263283,-0.25326076758056876,-2.940993246385455
1747228985479060000,8.60306005859375,2.352702944076061,-0.660318304426968,-3.3018039958417416
1747228985489090800,8.6130908203125,2.6848092848345635,-0.5277785504624247,-2.9441438193708658
1747228985499122000,8.623121826171875,3.188790780124068,-0.005259235702455044,-2.7210300605118274
1747228985509152800,8.63315283203125,3.736388422039151,0.26393238372057676,-3.0278268957078454
1747228985519184000,8.643183837890625,5.175716876769066,0.34000878444612026,-3.211881732854247
1747228985529214000,8.6532138671875,6.0605047385782,0.3699138011053204,-3.2170389694869517
1747228985539244800,8.663244873046875,5.202292749005556,0.38458500827550884,-3.599845862174034
1747228985549276000,8.67327587890625,3.159073979513347,0.3045242140889168,-4.435746651217341
1747228985559306800,8.683306640625,3.9848414970770474,0.3895964066967368,-4.827061260008811
1747228985569338000,8.693338134765625,4.473074803614616,0.5746861398488283,-5.481728114545345
1747228985579369000,8.703368896484376,3.8095425055772063,0.76566902269274,-6.456254699468612
1747228985589400000,8.713400146484375,2.9337673867851493,0.9875593772366642,-7.457131531178951
1747228985599431000,8.723430908203126,2.3985703767597673,1.331104811376333,-8.062189428415895
1747228985609462000,8.7334619140625,1.6551678386718034,1.6067542286366223,-8.431501464235781
1747228985619493000,8.7434931640625,0.7040791202202439,1.7071417715370654,-8.573233993959427
1747228985629523000,8.75352294921875,-0.2148451122075319,1.6536927976831792,-8.424711657965183
1747228985639554000,8.763553955078125,-1.353973645788431,1.4881132361650466,-7.854181468752026
1747228985649585000,8.7735849609375,-2.2857634972691536,1.255591012969613,-7.012248998329043
1747228985659616000,8.783615966796875,-2.8123943390011785,1.0023241079092025,-5.619155056029558
1747228985669647000,8.793647216796876,-3.5425445968061684,0.9549953705012798,-3.3002351390898226
1747228985679678000,8.803677978515625,-4.874993808528781,1.1368085662007332,0.19620938532054424
1747228985689709000,8.813708984375,-7.044788747406005,1.1498241151183843,4.772069440627098
1747228985699740000,8.823739990234374,-9.051194036024809,0.863184517288208,10.54580598655939
1747228985709771000,8.83377099609375,-9.10486542045772,0.16647651035785674,14.2548732709527
1747228985719801900,8.8438017578125,-6.989689960518479,-2.130618528264761,13.430548937934637
1747228985729832000,8.85383203125,-4.962195122119784,-4.649783954173326,10.225182870584726
1747228985739863000,8.863863037109375,-4.250817953845858,-5.509764122462272,6.396251189404726
1747228985749894000,8.873893798828124,-3.9685301214843984,-4.649315752139687,3.2928818537175655
1747228985759925000,8.883925048828125,-3.6985020512372255,-3.0255443377286193,1.9548679936051367
1747228985769955800,8.893955810546874,-3.6401556607306,-0.8007768686920403,1.7246914567530154
1747228985779987000,8.903987060546875,-2.6535107679903507,2.0716610201224683,2.6745371894061565
1747228985790018000,8.91401806640625,-0.8938467820554972,4.586612335467338,3.177617644202709
1747228985800049200,8.924049072265625,2.8595909744620323,7.4936208946645255,3.16508257227838
1747228985810080000,8.934080078125,5.602669785174727,11.0562794742167,3.4966619665533303
1747228985820111000,8.944111083984374,6.642061348718404,13.217376142853498,3.2351316755384203
1747228985830141200,8.95414111328125,6.338583428812027,11.9853501298666,2.5001240408301353
1747228985840172000,8.964172119140626,4.388075968503951,7.632755809110402,-1.657749671858549
1747228985850203100,8.974203125,3.0357442447036505,3.7019796642199156,-5.598913062989712
1747228985860234000,8.98423388671875,2.897681927925348,1.0476011734843254,-6.951483856242895
1747228985870265000,8.99426513671875,2.868500257104635,-0.5780199604466557,-7.487970321556926
1747228985880296000,9.0042958984375,2.4893197382211683,-1.5235399388551711,-7.581479210859537
1747228985890327000,9.0143271484375,2.166385422694683,-2.0177473513662814,-7.328179572573304
1747228985900358000,9.02435791015625,2.0332804360628125,-2.2107474192515015,-7.189319967937469
1747228985910389000,9.034388916015626,1.8392267674714327,-1.7591355781465767,-6.366635218819975
1747228985920419800,9.044419921875,1.5979431456714868,-0.6054717387348413,-4.706445168071985
1747228985930451000,9.054450927734376,1.919006991150975,0.7716752773702145,-2.8006501251935956
1747228985940481000,9.06448095703125,2.3941169044822455,2.2057044566482302,-0.9719371529519557
1747228985950511900,9.074511962890625,3.1237492758929726,3.5219898845553397,0.6178051506072283
1747228985960543000,9.08454296875,3.855176129505038,4.283403295630216,1.9526245985925197
1747228985970573800,9.09457373046875,4.361610570904612,4.604565340787172,2.627299637413025
1747228985980605000,9.10460498046875,4.534335035741329,4.175771188428998,2.8000556664317844
1747228985990635800,9.1146357421875,4.520590588027239,3.035814387330413,2.551184950503707
1747228986000667000,9.1246669921875,4.185888677817583,1.7071230668365955,2.088953807967901
1747228986010698000,9.134697998046875,3.561547987961769,0.4844108256399631,1.3533692501544952
1747228986020729000,9.14472900390625,2.5347581318378447,-0.6785106714606285,0.24443244121968744
1747228986030760000,9.154760009765624,1.7136930928766727,-1.943677322027087,-0.8676555252224206
1747228986040790000,9.1647900390625,0.9957937562923878,-2.933471618708968,-1.702888790267706
1747228986050821000,9.174821044921876,0.6895370923876762,-3.5972839027315375,-2.0806787315756083
1747228986060852000,9.18485205078125,0.5532943922519683,-3.944896732440591,-2.0638725582033395
1747228986070883000,9.194883056640625,0.3847228823762387,-4.0678666940271855,-1.5728420221626758
1747228986080914000,9.204913818359374,0.573866055637598,-3.722454589232802,-0.17447393885254858
1747228986090945000,9.214945068359375,0.7908863199271261,-3.1908553114384413,1.2423995229631661
1747228986100975900,9.224975830078124,0.8133737538062036,-2.766574252590537,2.411781155988574
1747228986111007000,9.235007080078125,0.4339360452912748,-2.468697221431136,3.3646044431477784
1747228986121038000,9.2450380859375,-1.0336755239844322,-2.234215680861473,4.32690633727014
1747228986131069000,9.25506884765625,-6.249801568031311,-1.9704303043961524,5.254292985355853
1747228986141100000,9.26510009765625,-8.207119877398014,-2.298819378197193,4.602548155745864
1747228986151129900,9.2751298828125,-5.976835690766572,-2.932306666582823,3.4425703108817336
1747228986161161000,9.285160888671875,-3.286537453126907,-3.1864141141206024,2.6810236288160083
1747228986171191800,9.29519189453125,-1.2500363014519214,-3.2100714685618876,2.0801672749221325
1747228986181223000,9.305222900390625,-0.17833777467384934,-3.2244471999168396,1.8983043948620557
1747228986191254000,9.31525390625,0.07388692785724997,-3.0629695207595824,1.574454718056321
1747228986201284900,9.325284912109375,-0.053483606775850054,-2.9271745643913745,1.078305523827672
1747228986211316000,9.33531591796875,-0.42292511419430373,-2.6715304088056087,0.8732645972758531
1747228986221346800,9.345346923828124,-0.9983950978972017,-2.2169898207724095,0.7005360407859087
1747228986231378200,9.355378173828125,-1.640521619812399,-1.7109727280020712,0.41310207770764823
1747228986241409000,9.365408935546874,-2.113420725226402,-1.1881886248260736,0.25322949565947056
1747228986251440000,9.375440185546875,-2.0803028840005395,-0.612445669400692,0.689336016857624
1747228986261471000,9.385470947265626,-1.6583903078496456,0.3442547514528036,1.7775030094861983
1747228986271501000,9.3955009765625,-1.756927985099703,1.0096996051132678,2.959458292880654
1747228986281532200,9.4055322265625,-1.7791762033954261,0.6490151123851537,3.078818247276544
1747228986291563000,9.41556298828125,-1.878130937013775,-0.8721282867223024,2.4536942980885503
1747228986301594000,9.425593994140625,-1.8401323380090295,-1.8707699067264794,2.4158769008696077
1747228986311625000,9.435625,-1.8550353081084787,-1.7697393897473812,3.2321587972074743
1747228986321656000,9.445656005859375,-2.0164789388656614,-1.0736059678345917,4.407750390788912
1747228986331687000,9.45568701171875,-2.703012757784128,-0.6838859347581863,5.48421817779541
1747228986341718000,9.465718017578125,-4.35395041154027,-0.902373787382245,6.451761479702592
1747228986351748900,9.475748779296875,-6.2396881702959535,-1.608217286926508,7.168826045963168
1747228986361780000,9.485780029296874,-6.732250738209486,-2.1925170582950115,7.642263057646155
1747228986371810800,9.495810791015625,-5.15946366110444,-2.2816151454180478,7.635679587602615
1747228986381841000,9.5058408203125,-3.438957965603471,-1.4557634567022322,6.980348131677508
1747228986391872000,9.5158720703125,-2.1621926471799613,0.5063081846714019,6.612438948392867
1747228986401902800,9.52590283203125,-0.8295878795694559,3.401087961414456,6.191136028572917
1747228986411934000,9.535933837890624,-0.04792721475772559,6.4218158387720585,5.281982371792197
1747228986421964800,9.54596484375,0.815388893020898,8.419180327323078,3.996021355000138
1747228986431996000,9.555995849609374,2.591134683576226,8.885370436617732,2.4128987618416544
1747228986442026800,9.56602685546875,4.428818897780776,7.9318994992047545,1.156699261584878
1747228986452058000,9.57605810546875,5.839525653660297,6.686671474817395,-0.1111918455094099
1747228986462089000,9.5860888671875,6.2845852966427795,6.571134293580055,-1.0867302378237247
1747228986472120000,9.5961201171875,7.71545630415082,6.763312231427431,-2.0480214935988186
1747228986482151000,9.60615087890625,7.8193159070760005,6.784671830320358,-3.3989649779111146
1747228986492181000,9.616180908203125,6.553067306491732,5.376577887287736,-4.603572822618484
1747228986502212000,9.626212158203124,5.049105928331613,2.6712095062881707,-5.048296950036287
1747228986512243000,9.636242919921875,2.0355995266601443,-0.1468196237295866,-3.9989638381928203
1747228986522274000,9.646274169921876,0.24894904186129568,-2.310317508289218,-1.12418815408051
1747228986532305000,9.656304931640625,0.7269462010666727,-3.550634087498486,1.1424456953048705
1747228986542336000,9.6663359375,1.486001358577609,-4.508192294225096,2.5517490141272545
1747228986552366800,9.676366943359374,1.9400348738715052,-4.863103464248776,2.7663831139326094
1747228986562397700,9.686397705078125,2.401963526329398,-4.104284453581274,1.5430021796941755
1747228986572428800,9.6964287109375,3.409607075695693,-2.7740067406788467,0.005745265653729438
1747228986582459600,9.706459716796875,4.540272609096765,-1.5346601755455136,-1.2325392232060433
1747228986592490800,9.71649072265625,4.489443170091509,-0.34203882896900173,-1.8815426451534032
1747228986602521600,9.726521484375,5.001757317179441,0.8495411918610334,-1.9369073895007372
1747228986612551700,9.7365517578125,5.075961786553264,1.6220537968382238,-2.36471545343101
1747228986622582800,9.746582763671874,4.2505420595139265,2.0397244976356625,-2.9447482150048017
1747228986632613600,9.756613525390625,4.741306930355727,2.327980006229877,-3.158941585305333
1747228986642644700,9.766644775390626,4.557482687094807,2.356981059786677,-3.8304584523558614
1747228986652675600,9.776675537109375,4.0768411508604885,2.1090686674967407,-4.952789580392837
1747228986662706700,9.786706787109376,4.153188185220957,1.6652444115281104,-5.937188740032911
1747228986672737500,9.796737548828125,3.662177522924542,1.2353428824499249,-6.937521966385841
1747228986682769000,9.806768798828125,3.2360300856828688,0.8499871820628643,-7.53372961769104
1747228986692799700,9.8167998046875,2.029160141262412,0.9091521954759955,-7.866713033545016
1747228986702830800,9.826830810546875,1.0207938305795192,1.1570125653177499,-8.270939730879665
1747228986712861700,9.83686181640625,0.7394853646442293,1.3587190867498515,-8.60926041610837
1747228986722892800,9.846892822265625,0.4184624356970191,1.5992226640880107,-8.714218335664272
1747228986732923600,9.856923583984376,0.07946370507627726,1.7925237607464193,-8.467680446597933
1747228986742953700,9.86695361328125,-0.11215542984455823,1.8787246651232241,-7.904386638379097
1747228986752984800,9.87698486328125,-0.48697570769190784,1.8745447490900753,-7.094730882182717
1747228986763015700,9.887015625,-1.2026787763409317,1.7644371916860342,-5.267258849912881
1747228986773046800,9.897046875,-2.18632755600512,1.3733318417310714,-2.3523528154641387
1747228986783077600,9.90707763671875,-3.7931688784033057,0.8273565403208136,1.1254407844901084
1747228986793108700,9.917108642578125,-5.41515750105083,0.6383268373712897,4.890813893473148
1747228986803139600,9.9271396484375,-6.115699387055635,0.5923106438666582,8.633222306454181
1747228986813170700,9.937170654296875,-5.620000274682044,-0.4604126949369907,11.690935806381702
1747228986823201500,9.947201416015625,-4.434169611158967,-2.7876053501814604,12.615939358723162
1747228986833232600,9.957232666015624,-2.7947961384683846,-5.633557090869545,11.24246138651967
1747228986843263700,9.967263671875,-2.528608961558342,-6.668195322406292,8.169315339660644
1747228986853294600,9.977294677734376,-3.994161990869045,-4.869758830484748,5.127177594527602
1747228986863326000,9.987325927734375,-3.9694057352751493,-2.678981893855333,4.254844140622019
1747228986873355500,9.99735546875,-3.246335791119933,-1.5061018973201512,3.216068078628182
1747228986883386600,10.00738671875,-2.817422980818152,-0.9066066026464105,1.635499846127629
1747228986893417700,10.017417724609375,-2.7165315800487995,-0.2314244910866022,0.7097919449090957
1747228986903448800,10.02744873046875,-2.3020250423707065,0.6218664086967707,0.42200025443434713
1747228986913479700,10.037479736328125,-0.4133277031570673,0.965767232145369,-0.3499456565707922
1747228986923510800,10.0475107421875,3.5016321561813353,0.9961629549309611,-2.2602239823430774
1747228986933542000,10.0575419921875,6.29232436646223,2.104358882370591,-3.7713264644294977
1747228986943572700,10.06757275390625,5.40594251345992,4.55120112260729,-2.7192279795259235
1747228986953603800,10.077603759765625,3.261032424992323,7.426736392915249,0.05150689987540245
1747228986963634700,10.087634765625,1.687468518295884,9.81241221678853,2.16241827262938
1747228986973665800,10.097665771484374,0.6926211029428988,10.156613776749372,2.254099946504831
1747228986983696600,10.107696533203125,-2.4567799891442057,7.352500943881273,0.2792980028957128
1747228986993726700,10.117726806640626,-7.4495859381049865,2.8807442371279,-2.0078695159524678
1747228987003757800,10.1277578125,-9.129652071189879,0.13162994564324618,-3.0515163988530634
1747228987013788700,10.13778857421875,-5.872759230220318,-0.6998463049560785,-4.25549646705091
1747228987023819800,10.14781982421875,-1.1012310568630694,-0.579681171657145,-4.694959312939644
1747228987033850600,10.1578505859375,2.3563310714453456,0.3277408390253782,-3.6362685901641845
1747228987043881700,10.1678818359375,3.823551157185435,1.313863169196248,-2.261630926531553
1747228987053912600,10.17791259765625,4.374115832212567,1.211066227066517,-1.792895224407315
1747228987063943700,10.187943603515626,5.059207635629177,0.8964175093263387,-1.5955308238327501
1747228987073974500,10.197974609375,4.740939558348059,0.9274532835811377,-1.0202718525320291
1747228987084006000,10.208005859375,5.2136143534868955,1.1060177066177128,-0.6482692624539137
1747228987094036700,10.21803662109375,5.708203458791971,1.2243792976260184,0.13604279364943503
1747228987104067800,10.22806787109375,5.588175395876169,1.1454349402487278,0.94723642693758
1747228987114098700,10.2380986328125,5.120116570100188,1.0050935726225376,1.5578642332613468
1747228987124129800,10.2481298828125,4.355030023470521,0.8823562507480383,2.2479490226596592
1747228987134160000,10.258159912109376,3.8826463202327486,0.6014718554437161,2.981692921042442
1747228987144190700,10.268190673828125,3.3834804085314274,0.07175006195902824,3.09939692492485
1747228987154221800,10.278221923828125,2.9970050564646717,-0.7119441545069217,2.6610411634951827
1747228987164252700,10.288252685546874,2.390066752308607,-1.621777610245347,1.620084250330925
1747228987174283800,10.29828369140625,1.5633832889437675,-2.4577894584476945,0.15755378371179102
1747228987184314600,10.308314697265626,0.8415701399166137,-3.159289960351586,-1.1219219627141952
1747228987194345700,10.318345703125,0.40954299698658286,-3.513594981175661,-1.9257202250540255
1747228987204376600,10.32837646484375,0.24426351439356803,-3.5462931356847283,-2.2909201493799687
1747228987214407700,10.33840771484375,0.11032383050322532,-3.3991198762118815,-2.4863310777992007
1747228987224438800,10.348438720703125,-0.007319529233127832,-3.1138223406404255,-2.462358666059375
1747228987234469600,10.3584697265625,-0.004400280785560607,-2.649589795154333,-2.042080413112044
1747228987244500700,10.368500732421875,0.05905307747125625,-2.043237181931734,-1.3033786000609398
1747228987254531600,10.378531494140624,0.21856895503625273,-1.364178813460469,-0.4587327790260315
1747228987264562700,10.388562744140625,0.39345775830000634,-0.9033405865877866,0.2722299642056227
1747228987274592500,10.398592529296875,0.4506055866718292,-0.5062655145734548,0.778138335904479
1747228987284623600,10.40862353515625,0.300618438822031,-0.22119711158275604,0.9379016123592853
1747228987294654700,10.41865478515625,0.057729573782533405,-0.14201076214313507,0.7469803965747356
1747228987304685800,10.428685791015624,-0.16594678739532828,-0.15195464853048324,0.4621031322419643
1747228987314717000,10.438717041015625,-0.3293129106476903,-0.14116320540308952,0.38236148700714107
1747228987324747800,10.448747802734376,-0.44678018316477536,-0.11773439902067184,0.439859736251831
1747228987334779000,10.45877880859375,-0.5983449555948376,-0.1368681385576725,0.6453641886621714
1747228987344809700,10.468809814453126,-0.8183525651320814,-0.18942191713750361,0.8725877209275961
1747228987354840800,10.4788408203125,-1.2269906491681932,-0.31142800212800503,1.0789327158153057
1747228987364871700,10.48887158203125,-6.929016003847122,-0.1347071611315012,1.9146306757628917
1747228987374902800,10.49890283203125,-16.15671226968169,0.4520452640861273,4.163174741706252
1747228987384933600,10.50893359375,-12.655634240251779,0.7568003643214702,3.800916131529212
1747228987394964700,10.51896484375,-7.171165887087583,0.2557189743876457,2.732529944169521
1747228987404995600,10.52899560546875,-2.4760931769013403,-0.78386197424829,1.8394857106685638
1747228987415025700,10.539025634765625,0.3394419443435967,-1.889552933129668,1.6271446902364493
1747228987425056800,10.549056884765625,1.4377975919008255,-2.4123224232584235,2.693503171160817
1747228987435087600,10.559087646484375,1.9818229282870887,-2.6508628838300705,3.8676930812507866
1747228987445118700,10.56911865234375,2.1169383779585362,-2.9947061318725345,4.322265817987919
1747228987455149600,10.579149658203125,1.9296552264153957,-3.373770915421843,4.280072105380892
1747228987465180700,10.5891806640625,1.5372970999203621,-3.6420237926900385,4.122407262510061
1747228987475211500,10.59921142578125,1.0841127488017082,-3.656578972265124,4.266811057269573
1747228987485242600,10.60924267578125,0.3384745606161654,-3.4506910734951495,4.770588846680521
1747228987495273700,10.619273681640625,-5.562663353478908,-3.4308342803806067,6.259951206123828
1747228987505304800,10.629304931640625,-13.730814325535297,-3.563507889857888,8.168421021169424
1747228987515335700,10.639335693359374,-12.084987731182574,-2.958604306399822,8.329273846426606
1747228987525366800,10.64936669921875,-6.4111810475111,-2.1109137108415363,7.288129886257648
1747228987535398000,10.65939794921875,-2.610391172710061,-0.8723550812155008,5.979029985940456
1747228987545428700,10.6694287109375,-1.8380910414397715,1.5615782853484153,6.339189578011632
1747228987555460400,10.67946044921875,-2.26206581081748,5.035834943348169,6.732911832466721
1747228987565490400,10.689490478515625,-1.818589637634158,8.653349148681759,5.983576981720328
1747228987575521500,10.699521484375,1.1305055205337702,10.96933184312582,4.39740435334146
1747228987585552400,10.709552490234374,4.064837701594829,11.43865849688053,3.3800352365136144
1747228987595583500,10.71958349609375,5.388527852800488,10.081287609869241,1.9917332046657799
1747228987605614300,10.7296142578125,5.78664746543169,7.774937836167216,0.4452326614618301
1747228987615645400,10.7396455078125,6.075439857381582,6.534544392329454,-0.545724833780527
1747228987625676300,10.74967626953125,7.002219187223911,6.534377219069004,-1.8973890335828065
1747228987635707400,10.759707275390625,8.11376530187428,7.431710089674592,-3.407349359896779
1747228987645738200,10.76973828125,8.061168268674612,7.090036002364754,-4.757566283500195
1747228987655769300,10.779769287109374,5.811573816895485,4.322877227884531,-5.238161350244283
1747228987665800400,10.789800537109375,2.0738094303280112,1.1522247465193272,-4.728972057178616
1747228987675831600,10.79983154296875,-0.4521589535936713,-1.493946472363174,-3.066006696498394
1747228987685862700,10.809862548828125,-0.5301084547147155,-3.2198765310004354,-1.1519061820894478
1747228987695893500,10.8198935546875,0.4650219422981143,-3.9506618718385695,-0.2545160283386707
1747228987705924600,10.829924560546875,1.2663105599045752,-4.003825306749343,0.3036217122912407
1747228987715955500,10.83995556640625,1.9754010785460472,-3.573561958621442,0.4860884034633636
1747228987725985500,10.849985595703124,3.034187662911415,-2.7971108451515434,-0.06351181044578552
1747228987736016400,10.860016357421875,3.902295315815508,-1.6188991321995854,-1.0207213498651981
1747228987746047500,10.870047607421874,3.9381548569649456,-0.6175055831387639,-2.2192571811825035
1747228987756078600,10.88007861328125,3.767847097881138,0.2589581024393439,-2.880387678775191
1747228987766109400,10.890109375,3.5869819966867564,0.8898363773703575,-3.453192827183008
1747228987776140500,10.900140625,3.483912959617376,1.2862886413112282,-4.275466657412052
1747228987786171400,10.91017138671875,4.028443322916329,1.2053341131553053,-5.176726346072554
1747228987796202500,10.920202392578124,3.881927942830324,0.8650529415085911,-6.198418586796522
1747228987806233300,10.9302333984375,3.1717247867718337,0.3770087278023362,-7.02493779951036
1747228987816264400,10.940264404296874,2.655699217945337,-0.014269056110084055,-7.477458864414691
1747228987826295300,10.95029541015625,2.6237489591941237,-0.27451310670673845,-7.680106173828244
1747228987836326400,10.960326416015626,2.4171850608587264,-0.14947452215254306,-7.748395866200328
1747228987846357500,10.970357421875,1.7884522735238073,0.4686377947077155,-7.823007747331261
1747228987856388600,10.980388671875,1.1416226884841918,1.211625029993057,-7.946027393278479
1747228987866419500,10.99041943359375,0.6257996564924717,1.7071318346649407,-8.257453057318925
1747228987876450600,11.000450439453125,0.04967471601217985,1.9414549698024988,-8.739448638510703
1747228987886480600,11.010480712890624,-0.5175567239165306,2.1797470085710287,-9.140670308810472
1747228987896511500,11.020511474609375,-1.4530387079134583,2.43071849617064,-8.968028261560201
1747228987906542600,11.03054248046875,-2.5123817571178075,2.6063617710635065,-7.875906393826007
1747228987916573400,11.040573486328125,-3.161239633114636,2.528664198876917,-5.249560696136951
1747228987926604500,11.0506044921875,-3.7892151723414655,1.9337489254698157,-0.5230348630666732
1747228987936635400,11.060635498046874,-5.134092488482594,0.6874731455951929,6.5634869936972855
1747228987946666500,11.07066650390625,-6.630987581518292,-0.5626455734431743,14.826858335149288
1747228987956697300,11.080697265625,-6.09040186419189,-1.9878014181748032,18.806975434052944
1747228987966728400,11.090728515625,-5.0192655013412235,-4.952359372282028,18.01523118212223
1747228987976759600,11.100759521484376,-5.081984700104594,-8.340185701063275,14.820787490803003
1747228987986790400,11.110790283203125,-5.609988583755493,-9.902160876774788,11.017660112965107
1747228987996821500,11.120821533203125,-4.910863578811288,-7.885893534833192,6.564015401485562
1747228988006852400,11.130852294921874,-4.395298905494809,-3.445143376240134,3.942458691638708
1747228988016883500,11.140883544921875,-3.603984277153015,-0.8604062847465276,2.363040798217058
1747228988026914300,11.150914306640624,-2.216465358506888,-0.03437047163546085,0.2124146701902151
1747228988036945700,11.160945556640625,-0.7508047771684825,0.48243572617471214,-1.4574766903609035
1747228988046976500,11.1709765625,1.3614087642252444,1.915402244657278,-2.0296295123398305
1747228988057006300,11.18100634765625,3.4445927566200494,4.231475832255184,-2.004727126273513
1747228988067037700,11.19103759765625,3.8171325223147865,7.49003193026185,-0.3640560149878263
1747228988077068500,11.201068603515624,3.664594520938396,11.683353388428687,2.2456991979062555
1747228988087099600,11.211099609375,3.3889182156711817,15.530056873142719,3.1325147661507127
1747228988097130500,11.221130615234374,2.285939438357949,15.378975500315427,0.44093408748507495
1747228988107161600,11.23116162109375,0.98261578335464,10.813650283026695,-3.3315894777745005
1747228988117192400,11.2411923828125,-0.14016071382965892,6.333701501989364,-5.18975183186233
1747228988127223600,11.2512236328125,-1.2548849105268716,2.7657784260377287,-6.186699507430196
1747228988137254400,11.26125439453125,-1.9636264696002006,0.444632357481122,-6.632803106507659
1747228988147285500,11.271285400390624,-1.8385948993086814,-0.5457210343882442,-6.817595610278844
1747228988157316400,11.28131640625,-0.6935504196822643,-0.5789505192950367,-6.700584264835715
1747228988167347500,11.291347412109374,0.7669383119761943,-0.30279724416583775,-5.695514657610654
1747228988177378300,11.30137841796875,1.6089917784303427,-0.21214637464284897,-4.50604183819294
1747228988187409400,11.311409423828126,2.3342589403688905,0.2824836471945047,-3.506474920037389
1747228988197440500,11.3214404296875,3.2264088553786276,0.6534115937784314,-2.283111521455645
1747228988207471400,11.331471435546876,3.355951181092858,0.7815414223462342,-1.2248469151377677
1747228988217502500,11.34150244140625,3.788079446309805,0.9530904136627912,-0.6508095945864916
1747228988227533600,11.351533447265625,5.481260497033595,1.4601795195788143,0.5034083715766668
1747228988237563400,11.3615634765625,5.9854743397742505,2.4000550623595713,2.1473925529330966
1747228988247594200,11.37159423828125,5.622776753658056,3.0555729807674883,4.0519706212371585
1747228988257625600,11.38162548828125,4.902379828104377,2.9670073930859564,5.309230444201827
1747228988267656400,11.391656494140625,4.2100446294307705,2.2325702517420054,5.733520270878076
1747228988277687600,11.4016875,3.2573405847370624,0.7554390128403902,4.713832355713844
1747228988287718700,11.41171875,2.2472972807526586,-0.8891291058838366,2.5486440338492393
1747228988297749500,11.42174951171875,1.297113694447279,-2.4922552071511745,0.4361375008583069
1747228988307780600,11.431780517578124,0.737611679726839,-3.9568519586503506,-0.816855896833539
1747228988317811500,11.4418115234375,0.6578069061279297,-4.605533893558382,-1.4484300450742245
1747228988327842600,11.451842529296876,0.4596037166416645,-4.872196286764741,-2.033451700976491
1747228988337873400,11.461873291015625,0.44936033585108814,-4.933061382094025,-2.3509341808378696
1747228988347904500,11.471904541015626,0.47676513319239017,-4.482526522570848,-1.868433572733402
1747228988357935400,11.481935302734374,0.4039420351743698,-3.7072692950606343,-0.8259183242112398
1747228988367966500,11.491966552734375,0.21388941891789434,-2.9237989504784343,0.23859715919494628
1747228988377997300,11.501997314453124,-0.14328385081887243,-2.292105559772253,0.86485917250216
1747228988388028400,11.5120283203125,-1.006643578543514,-1.5893547655463218,1.2885802593797444
1747228988398059300,11.522059326171876,-5.087274038684368,-0.31406127324104305,2.103504895889759
1747228988408090400,11.53209033203125,-7.194496493792533,0.2907943794220686,1.9912609109789132
1747228988418120400,11.542120361328125,-5.959238074755668,-0.11459376290738582,1.163817569157481
1747228988428151300,11.5521513671875,-3.900223477977514,-0.5731184521406889,0.9076713092684745
1747228988438182400,11.562182373046875,-1.9119734392523764,-1.3026193061262368,0.9417641330063342
1747228988448213500,11.572213623046874,-0.7132394550144672,-2.196843104800582,1.1440572221547365
1747228988458244600,11.58224462890625,-0.3085762659586966,-2.5899662243187427,1.252144671908021
1747228988468275500,11.592275390625,-0.27024916565194723,-2.77619197576344,0.9491963288336992
1747228988478306600,11.602306640625,-0.42368017034530636,-2.8756688335597516,0.639279315790534
1747228988488337400,11.61233740234375,-0.6872654941938817,-2.761512877547741,0.5906365731745958
1747228988498368500,11.622368408203124,-1.0321839702524245,-2.400322188863158,0.5955868890583514
1747228988508399400,11.6323994140625,-1.5464672254562377,-1.9155887071400879,0.5230699343800544
1747228988518430500,11.642430419921874,-2.3138696478128433,-1.3386837221980095,0.7393389419108629
1747228988528461600,11.652461669921875,-2.725859380364418,-0.7677706711471081,1.6239853494226932
1747228988538492400,11.662492431640626,-2.8512922249332067,-0.3979559465020895,3.1993700418055058
1747228988548523500,11.6725234375,-3.204644767338037,-0.7346382168740033,4.718743508630991
1747228988558554400,11.682554443359376,-3.756780637204647,-2.0276935758411883,5.021836813133954
1747228988568585500,11.69258544921875,-3.7833459880471225,-2.9600410612046715,4.528949835571646
1747228988578616300,11.7026162109375,-3.0902362978696822,-3.0039661276489493,3.965456120866537
1747228988588647400,11.7126474609375,-2.1588978434182704,-2.137355143043399,3.7512808707445857
1747228988598677500,11.722677490234375,-1.3805039253175257,-1.0952537360191346,3.7709874417334794
1747228988608708400,11.732708251953126,-0.842123024559021,-0.27753800748586654,3.8344063131988046
1747228988618739500,11.742739501953125,-0.7031307334542274,-0.23638357479870317,3.8611587110459804
1747228988628770300,11.752770263671875,-1.7676982393085956,-0.8285971880316734,4.170029429906607
1747228988638801700,11.7628017578125,-3.8706361489653585,-1.9585002126276492,4.726277411267161
1747228988648832500,11.77283251953125,-4.912610714739561,-2.7697341779261824,5.181021412917971
1747228988658863600,11.782863525390624,-5.1750575360774995,-2.434102877911925,5.506704150369763
1747228988668894500,11.79289453125,-5.29374412125647,-1.2195908943057059,6.06192278868258
1747228988678925600,11.802925537109376,-4.683823586419225,1.1377443857461214,7.585347576725482
1747228988688956400,11.812956298828125,-2.8217642248928545,4.498331994467973,8.11885531848967
1747228988698987500,11.822987548828126,-0.5453657912097871,7.808411066702008,6.924574806529283
1747228988709018400,11.833018310546874,1.3920277743726968,10.537198317211866,5.381378565567732
1747228988719049500,11.843049560546875,3.393673008982837,12.211347335207462,4.665083814635873
1747228988729080300,11.853080322265624,6.315532808092236,11.527073277914523,2.7684774558633563
1747228988739111400,11.863111328125,9.294487244081497,9.832138661521673,-1.2002800446361304
1747228988749142500,11.873142578125,12.668755587631463,8.628253870391845,-3.633005204454064
1747228988759173400,11.88317333984375,11.49796759493947,6.512368800878525,-5.237660414984822
1747228988769204500,11.89320458984375,6.781362267380953,3.716496265350282,-6.553169597822428
1747228988779235300,11.9032353515625,2.609383456972241,0.48758594854474063,-5.499352034041285
1747228988789265400,11.913265380859375,-2.6377757309809327,-2.8291669023647903,-1.1640081232935189
1747228988799296300,11.923296142578126,-3.520782262331247,-4.358632431876659,2.889940520018339
1747228988809327400,11.933327392578125,-1.4598805366322398,-4.650218253937363,4.43794912969768
1747228988819358500,11.9433583984375,0.7347492760330439,-4.6599587267071,4.06580742340982
1747228988829389600,11.9533896484375,1.488546951407194,-3.9059444859728214,2.6909868044257164
1747228988839420700,11.963420654296876,1.9497581032454967,-3.289792363269627,0.723437608423829
1747228988849451500,11.973451416015624,2.622334123960137,-2.8002371604785323,-1.3873860860466956
1747228988859482600,11.983482666015625,2.885861726272106,-2.0671692616611717,-2.955786326369643
1747228988869513500,11.993513427734374,4.031245520855486,-1.0747510462164878,-3.507938562849164
1747228988879544600,12.003544677734375,4.698526357771456,0.22956220434606073,-3.3678280813694
1747228988889575400,12.013575439453126,4.677788397908211,1.1086410408586262,-3.150929543763399
1747228988899606500,12.0236064453125,5.677327259013056,1.493746858137846,-3.0051994688361883
1747228988909637400,12.033637451171876,5.104253230535984,1.7459560708388686,-3.807719381803274
1747228988919668500,12.04366845703125,4.727295648398995,1.6289797967091202,-4.807044892418384
1747228988929699300,12.05369921875,4.268584204421937,1.6024880956247447,-5.636454565876722
1747228988939730400,12.06373046875,3.8670816713541742,1.7869848313197492,-6.417584484812617
1747228988949761300,12.07376123046875,3.636809857434034,1.7049539061039685,-7.333191847777366
1747228988959792400,12.08379248046875,3.204747935451567,1.484317351013422,-8.324787640923262
1747228988969823500,12.093823486328125,2.7308769162654873,1.2597080928996205,-9.275855024325848
1747228988979854600,12.1038544921875,2.1253753669142723,1.254373453873396,-10.252881024849414
1747228988989884400,12.113884521484374,1.7979934243291615,1.456125568012893,-10.949406660950183
1747228988999915300,12.123915283203125,1.5524802021354436,1.8328002415552733,-11.238296083533763
1747228989009946600,12.133946533203124,1.4233362280890345,2.267708785140514,-11.017532687193155
1747228989019977500,12.1439775390625,0.4291115477442741,2.6576193723529578,-10.250159490931033
1747228989030008600,12.154008544921876,-0.7101821132704615,3.0094737851545212,-8.712223362454772
1747228989040039400,12.164039306640625,-1.898671182347834,2.9938112288594243,-5.475611092969775
1747228989050070500,12.174070556640626,-3.3114120744034645,2.2005624175846576,-0.15087854373157022
1747228989060101600,12.1841015625,-5.280161586105823,0.7998556621938944,5.570355077025294
1747228989070132500,12.194132568359375,-7.03124069904685,-0.30462825898528095,11.383131255447864
1747228989080163600,12.20416357421875,-8.547885617691279,-1.2556588175088166,15.819925954413414
1747228989090194400,12.2141943359375,-7.435168705695867,-2.545988550904393,16.147134293997286
1747228989100225500,12.2242255859375,-4.3152118078231805,-4.55261858818978,13.031824345147609
1747228989110256400,12.23425634765625,-2.6213117951750755,-6.725618752849102,9.91965094075799
1747228989120287500,12.24428759765625,-3.4233348645359274,-7.033117598834633,6.504108337533474
1747228989130318300,12.254318359375,-3.6782390154093503,-5.387894231072068,3.631739714562893
1747228989140349400,12.264349365234375,-3.0757483383119104,-3.318121801175177,2.455423898360133
1747228989150380300,12.27438037109375,-2.645972773700952,-1.5845786371856927,1.4540496385216712
1747228989160411400,12.284411376953125,-2.392269230788946,-0.5830906878396869,0.12906535585224627
1747228989170442500,12.2944423828125,-1.9036328964084386,0.10737871696203946,-1.1831775186657905
1747228989180473600,12.3044736328125,-1.0510942762970923,1.175447801196575,-1.8048679862737655
1747228989190504400,12.31450439453125,0.27654088620729744,3.2984953096851704,-1.4142851988881826
1747228989200534500,12.324534423828124,1.6802169397324322,7.0261682180881495,0.1330810212343931
1747228989210565600,12.334565673828125,1.2743395525813102,12.815218068486452,3.6869869700103997
1747228989220596500,12.344596435546874,-0.04489296162836253,17.995904550361633,6.392686774921417
1747228989230627600,12.354627685546875,1.0348796390771866,16.948753458732366,4.3833565387666225
1747228989240658400,12.364658447265626,1.8795090934991836,8.901855707472562,-1.2383873647123576
1747228989250689500,12.374689453125,1.5734844117194413,3.210833100584149,-3.5899721184134483
1747228989260720400,12.384720458984376,1.5718945121794938,0.29132775564640756,-4.6782753046423196
1747228989270751500,12.39475146484375,1.272764266088605,-0.9809048877835274,-5.323737108460068
1747228989280782300,12.4047822265625,1.3700579346269368,-1.7659169088497757,-5.727008697026967
1747228989290813400,12.4148134765625,2.052951935738325,-2.106417568466067,-6.189658941757679
1747228989300844500,12.424844482421875,2.111526874303818,-2.0035452230125665,-5.613581055289506
1747228989310875400,12.43487548828125,2.2336124542713165,-1.6406301947534083,-4.644748882615566
1747228989320906500,12.444906494140625,2.2698995731830593,-0.9112667034119367,-3.534959840765595
1747228989330937300,12.454937255859376,3.367727543604374,-0.3154886756956577,-2.0211580365926025
1747228989340968400,12.464968505859375,4.49624875845313,0.17238778022825718,-0.3181909203916788
1747228989350999300,12.474999267578125,4.464081349819899,0.7892594493776559,0.6906576208502054
1747228989361030700,12.48503076171875,4.761585456013679,1.3535422686338423,1.5839052679687737
1747228989371061500,12.4950615234375,5.02882126519382,1.730604480189085,2.6393682608693836
1747228989381092600,12.505092529296874,4.894386491262912,2.002762548202276,3.5166315723925825
1747228989391123500,12.51512353515625,4.366050014656782,2.0192852284580467,3.6878935634613037
1747228989401154600,12.525154541015626,3.3843899245917797,1.6673796699911354,3.628315585333109
1747228989411185400,12.535185302734375,2.4859271731734274,0.7725508911609649,3.186036512979865
1747228989421215500,12.545215576171875,1.7940788812339306,-0.40225452047884463,2.040976835784316
1747228989431246600,12.55524658203125,1.0976116973221302,-1.5729285314023493,0.41736441132724283
1747228989441277400,12.56527734375,0.5244271211426704,-2.571977563163638,-1.1194576184272766
1747228989451308500,12.57530859375,0.12533669071793554,-3.356085621127486,-2.3611697436481713
1747228989461339400,12.58533935546875,-0.23809805056639013,-3.8584576353937385,-3.138247172322869
1747228989471370500,12.59537060546875,-0.5007881060756743,-4.024714365521073,-3.4339486130088566
1747228989481401300,12.6054013671875,-0.6718718179680406,-3.792916949468851,-3.1058383561491962
1747228989491432400,12.615432373046875,-0.9669652097582816,-3.1699101385653017,-2.1201970874935387
1747228989501463300,12.62546337890625,-3.7043876021444797,-2.0264923833578825,-0.06747311529219151
1747228989511494400,12.635494384765625,-7.053470066511631,-0.8309276768058538,2.2395155408352614
1747228989521525500,12.645525390625,-6.138719028115272,-0.4057242424160242,2.5003414829730986
1747228989531556400,12.655556396484375,-3.6972996897101402,-1.0950094058692454,1.4431483052790164
1747228989541587500,12.66558740234375,-1.7858955747783183,-1.8927134429872035,0.6537520777791738
1747228989551617500,12.675617431640624,-0.6214369312383234,-2.124101693716645,0.8977245002716779
1747228989561648600,12.685648681640625,-0.011620441297441721,-2.1478052253872155,1.3888929834783077
1747228989571679500,12.695679443359374,0.24117723881602285,-2.0419494802087543,1.64680040782094
1747228989581710600,12.705710693359375,0.21542320435643195,-2.031795750463009,1.48812551112473
1747228989591741400,12.715741455078126,0.08420373921021819,-2.1103911482721567,1.0709452241927384
1747228989601772500,12.7257724609375,-0.09727496383786201,-2.2800398589253423,0.6050941375941038
