time,seconds_elapsed,z,y,x
1751214968057501000,0.1365009765625,-4.4436798095703125,-1.0679585933685303,-6.305068016052246
1751214968067318500,0.146318603515625,-4.211709022521973,-1.575413465499878,-6.256618022918701
1751214968077152500,0.156152587890625,-4.436225891113281,-2.307701826095581,-5.501282215118408
1751214968087008800,0.1660087890625,-5.165422439575195,-3.039919853210449,-4.582643032073975
1751214968096892200,0.17589208984375,-5.860230445861816,-4.007510662078857,-2.9902353286743164
1751214968106805500,0.185805419921875,-5.906025409698486,-4.89495849609375,-1.0038981437683105
1751214968116751000,0.195751220703125,-5.935302734375,-5.198129653930664,0.6994919776916504
1751214968126729700,0.205729736328125,-6.30390739440918,-5.030905723571777,2.1130709648132324
1751214968136740400,0.215740234375,-6.529696464538574,-4.619831562042236,2.6297965049743652
1751214968146781200,0.22578125,-6.123747825622559,-4.1554107666015625,2.8895466327667236
1751214968156849000,0.235848876953125,-4.899911880493164,-3.9797325134277344,4.054945945739746
1751214968166940000,0.24593994140625,-2.662588596343994,-4.501065731048584,6.730951309204102
1751214968177048800,0.256048828125,1.03611421585083,-4.941518783569336,9.648097038269043
1751214968187170800,0.2661708984375,1.4322221279144287,-4.9896135330200195,12.40526008605957
1751214968197300200,0.27630029296875,1.0094170570373535,-4.980237007141113,14.856297492980957
1751214968207431000,0.286430908203125,1.6898648738861084,-4.217206001281738,15.459284782409668
1751214968217462300,0.296462158203125,1.0448880195617676,-2.669009208679199,14.291650772094727
1751214968227456000,0.3064560546875,-0.9447183609008789,-1.8550300598144531,13.316734313964844
1751214968237449700,0.31644970703125,-3.106837749481201,-1.6880607604980469,13.264530181884766
1751214968247443500,0.326443359375,-5.533634185791016,-1.1087369918823242,13.413891792297363
1751214968257437200,0.336437255859375,-5.956900119781494,-0.29039955139160156,14.065753936767578
1751214968267431000,0.346430908203125,-5.182328701019287,0.33925437927246094,15.631866455078125
1751214968277424600,0.356424560546875,-8.022100448608398,1.107438087463379,18.121315002441406
1751214968287418400,0.36641845703125,-11.706680297851562,3.4025707244873047,18.470855712890625
1751214968297412000,0.376412109375,-7.379586696624756,5.006129264831543,16.827808380126953
1751214968307405800,0.38640576171875,-3.3910763263702393,4.378320217132568,16.535078048706055
1751214968317399600,0.396399658203125,-9.862954139709473,4.510228633880615,15.565454483032227
1751214968327393500,0.4063935546875,-13.007132530212402,6.1820831298828125,12.323125839233398
1751214968337387300,0.41638720703125,-11.855000495910645,6.165002346038818,8.756099700927734
1751214968347381000,0.426381103515625,-8.890677452087402,4.2569580078125,7.664724349975586
1751214968357374700,0.436374755859375,-5.775382995605469,3.5108704566955566,5.560287952423096
1751214968367368400,0.446368408203125,-3.2939279079437256,2.764054775238037,2.4984359741210938
1751214968377362200,0.456362060546875,-1.774749755859375,2.1383285522460938,-0.5833673477172852
1751214968387356000,0.46635595703125,-1.8521488904953003,1.7687873840332031,-2.6530709266662598
1751214968397349600,0.476349609375,-2.5489869117736816,1.7340049743652344,-3.431764602661133
1751214968407343400,0.48634326171875,-2.190361261367798,2.001926898956299,-2.396355628967285
1751214968417337000,0.496337158203125,-1.3185224533081055,2.582746982574463,-0.7512168884277344
1751214968427330800,0.506330810546875,-1.098464012145996,2.8337044715881348,0.15018081665039062
1751214968437324800,0.51632470703125,-0.5475258231163025,2.9134202003479004,1.2251033782958984
1751214968447318500,0.526318603515625,0.5670222043991089,2.7358646392822266,1.2419109344482422
1751214968457312300,0.536312255859375,0.6898186802864075,2.4039273262023926,0.36952972412109375
1751214968467306000,0.546305908203125,0.9718382954597473,1.6618537902832031,-0.7035255432128906
1751214968477299700,0.5562998046875,2.3752479553222656,0.4533720016479492,-2.0636510848999023
1751214968487293400,0.56629345703125,3.301081418991089,-0.34035158157348633,-4.125237464904785
1751214968497287200,0.576287109375,3.945767641067505,-0.7186164855957031,-7.016890525817871
1751214968507281000,0.586281005859375,3.386234760284424,-0.9826517105102539,-9.022978782653809
1751214968517274600,0.596274658203125,2.0976126194000244,-0.9131364822387695,-9.635577201843262
1751214968527268400,0.606268310546875,-0.29142987728118896,-0.3807554244995117,-10.345436096191406
1751214968537262000,0.616261962890625,-3.1869845390319824,-0.2553081512451172,-11.031627655029297
1751214968547255800,0.626255859375,-3.9272587299346924,-0.40517616271972656,-10.7963285446167
1751214968557249800,0.636249755859375,-3.135601043701172,-0.8962221145629883,-9.869202613830566
1751214968567243500,0.646243408203125,-2.2597579956054688,-1.696873664855957,-8.335855484008789
1751214968577237200,0.6562373046875,-1.7701444625854492,-1.9698166847229004,-7.762739658355713
1751214968587231000,0.66623095703125,-1.6370503902435303,-1.9340934753417969,-7.573018550872803
1751214968597224700,0.676224609375,-1.3799893856048584,-2.2435078620910645,-6.711206436157227
1751214968607218400,0.686218505859375,-0.3063560724258423,-1.8899855613708496,-5.802471160888672
1751214968617212200,0.696212158203125,-0.21521711349487305,-2.594926357269287,-5.664705753326416
1751214968627206000,0.706205810546875,-0.6749476790428162,-2.268491268157959,-4.891724109649658
1751214968637199600,0.71619970703125,-0.2891719341278076,0.43945884704589844,-3.5051677227020264
1751214968647193300,0.726193359375,1.0270863771438599,0.4268817901611328,-0.4910869598388672
1751214968657187000,0.73618701171875,1.3198493719100952,-1.024251937866211,2.011385917663574
1751214968667181000,0.74618115234375,1.5595802068710327,-2.955961227416992,3.1777124404907227
1751214968677174800,0.7561748046875,2.5906925201416016,-4.1002397537231445,4.34861946105957
1751214968687168500,0.76616845703125,3.554056167602539,-4.828682899475098,6.3099164962768555
1751214968697162200,0.776162353515625,3.5864343643188477,-4.63094425201416,7.055502414703369
1751214968707156000,0.786156005859375,3.2064428329467773,-4.043193817138672,6.687752723693848
1751214968717149700,0.796149658203125,3.213146686553955,-3.701425552368164,6.29901647567749
1751214968727143400,0.806143310546875,1.5340254306793213,-3.3986358642578125,5.123186111450195
1751214968737137200,0.81613720703125,-0.5271202325820923,-2.9452285766601562,3.593533515930176
1751214968747131000,0.826130859375,-1.4703346490859985,-2.1219987869262695,2.0989484786987305
1751214968757124600,0.83612451171875,-1.6325623989105225,-1.4701118469238281,0.7765569686889648
1751214968767118300,0.846118408203125,-1.5849405527114868,-1.116912841796875,-0.14201641082763672
1751214968777112000,0.856112060546875,-1.6458885669708252,-0.873600959777832,-0.6119096279144287
1751214968787106000,0.86610595703125,-1.6613516807556152,-0.8481101989746094,-0.6099324226379395
1751214968797099800,0.876099853515625,-1.2826470136642456,-0.5055017471313477,-0.5095937252044678
1751214968807093500,0.886093505859375,-0.7652575969696045,-0.3910713195800781,-0.3377854824066162
1751214968817087200,0.896087158203125,-0.07233619689941406,-0.15409564971923828,-0.48865723609924316
1751214968827081000,0.9060810546875,0.10307323932647705,0.322174072265625,-0.7963426113128662
1751214968837074700,0.91607470703125,-0.3013954162597656,0.8860254287719727,-1.113858699798584
1751214968847068400,0.926068359375,-0.6620854139328003,1.3223190307617188,-1.1196236610412598
1751214968857062100,0.936062255859375,-0.6467468738555908,1.7920856475830078,-1.4352903366088867
1751214968867055900,0.946055908203125,-0.3332812786102295,2.5951199531555176,-1.8553380966186523
1751214968877049600,0.956049560546875,-0.1929175853729248,3.4073071479797363,-2.309048652648926
1751214968887043300,0.966043212890625,0.14777326583862305,4.066130638122559,-2.525998592376709
1751214968897037000,0.976037109375,0.5183579921722412,4.213524341583252,-2.469115734100342
1751214968907031000,0.986031005859375,0.5007619857788086,4.088706970214844,-2.3920536041259766
1751214968917024800,0.996024658203125,0.4897814989089966,3.8136463165283203,-2.3107948303222656
1751214968927018500,1.0060185546875,0.24441039562225342,3.566622257232666,-2.224987506866455
1751214968937012200,1.01601220703125,-0.5260353088378906,3.5241875648498535,-1.8837206363677979
1751214968947006000,1.026005859375,-1.2353750467300415,3.7242536544799805,-1.2458977699279785
1751214968956999700,1.035999755859375,-1.449018955230713,4.1311540603637695,-0.8559873104095459
1751214968966993400,1.045993408203125,-1.4508252143859863,4.792675018310547,-1.0301274061203003
1751214968976987100,1.055987060546875,-1.464289665222168,5.425436496734619,-1.4036614894866943
1751214968986980900,1.06598095703125,-1.3557637929916382,5.726038455963135,-1.5937590599060059
1751214968996974600,1.075974609375,-1.1099046468734741,6.067058563232422,-1.8061182498931885
1751214969006968300,1.08596826171875,-1.1663167476654053,5.944808006286621,-1.6564812660217285
1751214969016962300,1.09596240234375,-0.9008612632751465,4.913360595703125,-1.1686619520187378
1751214969026956000,1.1059560546875,-0.15076136589050293,1.4419479370117188,0.8430771827697754
1751214969036949800,1.11594970703125,1.1198946237564087,-1.4221267700195312,2.78568959236145
1751214969046943500,1.125943603515625,1.9704937934875488,-5.965167045593262,4.129801273345947
1751214969056937200,1.135937255859375,3.476799964904785,-15.945419311523438,6.563234329223633
1751214969066931000,1.145930908203125,3.905034065246582,-23.292949676513672,7.162078380584717
1751214969076924700,1.155924560546875,2.468113899230957,-23.319076538085938,4.096133708953857
1751214969086918400,1.16591845703125,0.6288454532623291,-14.336912155151367,-1.3553860187530518
1751214969096912100,1.175912109375,-0.27735257148742676,-4.619919776916504,-3.7473368644714355
1751214969106905900,1.18590576171875,-0.6675621867179871,1.5988359451293945,-4.030573844909668
1751214969116899600,1.195899658203125,-1.3398897647857666,5.369955539703369,-4.002720832824707
1751214969126893300,1.205893310546875,-4.085025310516357,5.700751304626465,-2.858579158782959
1751214969136887300,1.21588720703125,-6.612956523895264,3.2574868202209473,-0.310017466545105
1751214969146881000,1.225881103515625,-2.861112117767334,0.8891811370849609,-0.7385480999946594
1751214969156874800,1.235874755859375,-2.3403677940368652,0.1562814712524414,-1.1459791660308838
1751214969166868500,1.245868408203125,-2.170567035675049,-0.9805917739868164,-0.7749791741371155
1751214969176862200,1.2558623046875,-1.3065382242202759,-1.493494987487793,-0.4003148674964905
1751214969186856000,1.26585595703125,-0.5188910365104675,-1.0668325424194336,-0.24312114715576172
1751214969196849700,1.275849609375,0.07046282291412354,-0.2509651184082031,-0.2439206838607788
1751214969206843400,1.285843505859375,0.9947762489318848,0.21914291381835938,-0.2641822099685669
1751214969216837000,1.295837158203125,1.8322511911392212,0.5983991622924805,-0.4195137023925781
1751214969226830800,1.305830810546875,1.847989797592163,0.7696065902709961,-0.2647920846939087
1751214969236824600,1.315824462890625,1.326400876045227,0.8719949722290039,-0.15304303169250488
1751214969246818300,1.325818359375,0.6119509935379028,0.7206697463989258,-0.11172974109649658
1751214969256812300,1.335812255859375,-0.1616666316986084,0.48906993865966797,-0.021365046501159668
1751214969266806000,1.345805908203125,-0.7579903602600098,0.25441646575927734,0.005669951438903809
1751214969276799700,1.3557998046875,-0.9968961477279663,0.2073211669921875,-0.05043768882751465
1751214969286793500,1.36579345703125,-0.9603694677352905,0.3325519561767578,-0.14891743659973145
1751214969296787200,1.375787109375,-0.7714686393737793,0.5578994750976562,-0.10378408432006836
1751214969306781000,1.385781005859375,-0.4843958020210266,0.7159147262573242,0.14327430725097656
1751214969316774700,1.395774658203125,-0.09308183193206787,0.8112983703613281,0.41769540309906006
1751214969326768400,1.405768310546875,0.29513800144195557,0.7299833297729492,0.6889458894729614
1751214969336762000,1.41576220703125,0.5218719244003296,0.6343441009521484,0.7925361394882202
1751214969346755800,1.425755859375,0.6198427677154541,0.5956363677978516,0.6779955625534058
1751214969356749600,1.43574951171875,0.6615117788314819,0.5994396209716797,0.5343656539916992
1751214969366743600,1.44574365234375,0.7468091249465942,0.45525550842285156,0.5095405578613281
1751214969376737300,1.4557373046875,2.7436554431915283,1.6680145263671875,0.3384678363800049
1751214969386731000,1.46573095703125,2.056929588317871,0.5808010101318359,1.0398979187011719
1751214969396724700,1.475724853515625,1.360168695449829,-0.17269611358642578,0.4819469451904297
1751214969406718500,1.485718505859375,1.281165361404419,0.027355194091796875,-0.32683420181274414
1751214969416712200,1.495712158203125,0.6533925533294678,-0.3980073928833008,-0.4535691738128662
1751214969426706000,1.505705810546875,-0.22410798072814941,-0.51092529296875,-0.6187387704849243
1751214969436699600,1.51569970703125,-1.18642258644104,-0.34520530700683594,-0.9159518480300903
1751214969446693400,1.525693359375,-2.179677963256836,-0.03955364227294922,-1.1023480892181396
1751214969456687000,1.53568701171875,-3.0295894145965576,0.2296924591064453,-1.097609043121338
1751214969466680800,1.545680908203125,-3.4876060485839844,0.37729835510253906,-0.8899078965187073
1751214969486668500,1.56566845703125,-2.522303342819214,0.33763790130615234,-0.28218507766723633
1751214969496662300,1.575662353515625,-1.4278349876403809,0.22101974487304688,-0.09031486511230469
1751214969506656000,1.585656005859375,-0.30613768100738525,0.1908407211303711,-0.08071005344390869
1751214969516649700,1.595649658203125,0.5055651664733887,0.15056419372558594,0.027190327644348145
1751214969526643500,1.6056435546875,0.9296993017196655,0.12333393096923828,0.16003918647766113
1751214969536637200,1.61563720703125,1.0248597860336304,0.2563638687133789,0.1886579990386963
1751214969546631000,1.625630859375,0.937260627746582,0.4206705093383789,0.10611200332641602
1751214969556624600,1.635624755859375,0.6978785991668701,0.49254608154296875,0.03674662113189697
1751214969566618400,1.645618408203125,0.37141406536102295,0.453857421875,-0.10976898670196533
1751214969576612000,1.655612060546875,0.060308098793029785,0.5771570205688477,-0.20704245567321777
1751214969586605800,1.665605712890625,-0.24350452423095703,0.3760862350463867,-0.29020214080810547
1751214969596599600,1.675599609375,-0.47688376903533936,0.281219482421875,-0.2589491605758667
1751214969606593500,1.685593505859375,-0.616013765335083,0.2873115539550781,-0.29418396949768066
1751214969616587300,1.695587158203125,-0.6426589488983154,0.19856548309326172,-0.26707637310028076
1751214969626581000,1.7055810546875,-0.6054823398590088,0.0771780014038086,-0.2696486711502075
1751214969636574700,1.71557470703125,-0.48613250255584717,0.2994565963745117,-0.28168392181396484
1751214969646568400,1.725568359375,-0.3528921604156494,0.22526168823242188,-0.3370051383972168
1751214969656562200,1.735562255859375,-0.24973976612091064,0.28470516204833984,-0.2393728494644165
1751214969666556000,1.745555908203125,-0.23912692070007324,0.29122257232666016,-0.2515968084335327
1751214969676549600,1.755549560546875,-0.3109985589981079,0.24983787536621094,-0.24004697799682617
1751214969686543400,1.76554345703125,-0.4316772222518921,0.23706340789794922,-0.19002985954284668
1751214969696537000,1.775537109375,-0.5331089496612549,0.26726436614990234,-0.1251213550567627
1751214969706530800,1.78553076171875,-0.518601655960083,0.23090839385986328,0.021018266677856445
1751214969716524800,1.79552490234375,-0.4546034336090088,0.10914802551269531,0.22209632396697998
1751214969766493400,1.845493408203125,-0.33989477157592773,0.20411205291748047,0.5642226934432983
1751214969776487200,1.855487060546875,-0.3737654685974121,0.12805461883544922,0.5532450675964355
1751214969786481000,1.86548095703125,-0.4605942964553833,0.18038177490234375,0.5828272104263306
1751214969796474600,1.875474609375,-0.43827569484710693,-0.020734786987304688,0.45691025257110596
1751214969806468400,1.88546826171875,-0.46502256393432617,-0.2073221206665039,0.30972421169281006
1751214969816462000,1.895462158203125,-0.58682781457901,-0.19830322265625,0.10809743404388428
1751214969826455800,1.905455810546875,-0.7417376041412354,0.034682273864746094,-0.11791682243347168
1751214969836449800,1.91544970703125,-0.869902491569519,0.33846187591552734,-0.22010588645935059
1751214969846443500,1.925443603515625,-0.8336855173110962,0.4169797897338867,-0.11007297039031982
1751214969856437200,1.935437255859375,-0.5286768674850464,0.5761737823486328,-0.12750244140625
1751214969866431000,1.945430908203125,-0.042734622955322266,0.5253028869628906,-0.39652156829833984
1751214969876424700,1.9554248046875,0.4795525074005127,0.480133056640625,-0.4157456159591675
1751214969886418400,1.96541845703125,0.9110345840454102,0.5157594680786133,-0.6810842752456665
1751214969896412200,1.975412109375,1.3433096408843994,0.797393798828125,-0.9619871377944946
1751214969906406000,1.985406005859375,1.5455552339553833,1.1041669845581055,-1.2031737565994263
1751214969916399600,1.995399658203125,1.43138587474823,1.313746452331543,-1.3693406581878662
1751214969926393300,2.005393310546875,1.04328191280365,1.228322982788086,-1.2645975351333618
1751214969936387000,2.015386962890625,0.6192646026611328,0.8496694564819336,-0.9243412017822266
1751214969946380800,2.025380859375,0.3301517963409424,0.46941184997558594,-0.4752991199493408
1751214969956374800,2.035374755859375,0.09484827518463135,0.22065067291259766,-0.10064077377319336
1751214969966368500,2.045368408203125,0.040331482887268066,0.13578510284423828,0.13746905326843262
1751214969976362200,2.0553623046875,0.12015032768249512,0.0848703384399414,0.37233805656433105
1751214969986356000,2.06535595703125,0.1324303150177002,0.12435626983642578,0.5545446872711182
1751214969996349700,2.075349609375,-0.05607187747955322,0.1675405502319336,0.6491067409515381
1751214970006343400,2.085343505859375,-0.4188119173049927,0.27159786224365234,0.40799593925476074
1751214970016337200,2.095337158203125,-0.7569714784622192,0.4134969711303711,-0.12592244148254395
1751214970036324600,2.11532470703125,-0.9088779091835022,0.5855064392089844,-0.5623772144317627
1751214970046318300,2.125318359375,-0.6994034051895142,0.5969905853271484,-0.37178921699523926
1751214970056312000,2.13531201171875,-0.4445226192474365,0.5952577590942383,-0.08402562141418457
1751214970066306000,2.14530615234375,-0.17345213890075684,0.6373291015625,0.16156649589538574
1751214970076299800,2.1552998046875,0.06894946098327637,0.6273202896118164,0.3694276809692383
1751214970086293500,2.16529345703125,0.21976089477539062,0.6462993621826172,0.6157386302947998
1751214970096287200,2.175287353515625,0.2785593271255493,0.693852424621582,0.8900961875915527
1751214970106281000,2.185281005859375,0.28760337829589844,0.7551212310791016,1.1768653392791748
1751214970116274700,2.195274658203125,0.236960768699646,0.7724466323852539,1.3984084129333496
1751214970136262100,2.21526220703125,-0.27956289052963257,0.6465358734130859,1.7612333297729492
1751214970146256000,2.225255859375,-0.625493586063385,0.6609764099121094,1.8104102611541748
1751214970156249600,2.23524951171875,-0.8447448015213013,0.7553062438964844,1.7735700607299805
1751214970166243300,2.245243408203125,-0.9620324373245239,0.9148063659667969,1.6749308109283447
1751214970176237000,2.255237060546875,-1.210504412651062,1.0868091583251953,1.4956271648406982
1751214970196224800,2.275224853515625,-1.464220404624939,1.217184066772461,1.111203908920288
1751214970206218500,2.285218505859375,-1.4969466924667358,1.2098369598388672,0.9262187480926514
1751214970216212200,2.295212158203125,-1.4871525764465332,1.0831279754638672,0.7335212230682373
1751214970226206000,2.3052060546875,-1.2946144342422485,1.057119369506836,0.519362211227417
1751214970236199700,2.31519970703125,-0.8855095505714417,1.207489013671875,0.3041963577270508
1751214970246193400,2.325193359375,-0.6809554696083069,1.456930160522461,0.21327471733093262
1751214970256187100,2.335187255859375,-0.3867473900318146,1.642641544342041,0.12195968627929688
1751214970266180900,2.345180908203125,0.009871363639831543,1.6978468894958496,-0.08486104011535645
1751214970276174600,2.355174560546875,0.22106224298477173,1.7903695106506348,-0.26207804679870605
1751214970286168300,2.365168212890625,0.3334803581237793,1.7676644325256348,-0.4189176559448242
1751214970296162300,2.375162353515625,0.19590401649475098,1.6066269874572754,-0.6551728248596191
1751214970306156000,2.385156005859375,-0.05668807029724121,1.499401569366455,-0.9394814968109131
1751214970316149800,2.395149658203125,-0.24722927808761597,1.5421490669250488,-1.1494896411895752
1751214970326143500,2.4051435546875,-0.13549381494522095,1.500856876373291,-1.1804392337799072
1751214970336137200,2.41513720703125,0.08495599031448364,1.3326807022094727,-1.029829740524292
1751214970346131000,2.425130859375,0.1838563084602356,1.1042413711547852,-0.7478854656219482
1751214970356124700,2.435124755859375,0.0009935200214385986,0.7244195938110352,-0.3178107738494873
1751214970366118400,2.445118408203125,-0.41840416193008423,0.8040075302124023,-0.04078269004821777
1751214970376112000,2.455112060546875,-0.5866816639900208,1.1656293869018555,0.11990141868591309
1751214970386105900,2.46510595703125,-0.5489030480384827,1.6784577369689941,0.5434260368347168
1751214970396099600,2.475099609375,-0.1151827722787857,2.039799690246582,0.8421761989593506
1751214970406093300,2.48509326171875,0.43914154171943665,2.211942195892334,0.8489148616790771
1751214970416087300,2.49508740234375,0.62891685962677,2.2586731910705566,0.7393877506256104
1751214970426081000,2.5050810546875,0.013053536415100098,2.2438979148864746,0.8185122013092041
1751214970436074800,2.51507470703125,-0.8718175888061523,2.062983512878418,1.3909015655517578
1751214970446068500,2.525068359375,-1.7381465435028076,1.8573627471923828,2.400390625
1751214970456062200,2.535062255859375,-3.2197508811950684,1.924891471862793,3.451507806777954
1751214970466056000,2.545055908203125,-3.7156922817230225,2.0890870094299316,4.601593017578125
1751214970476049700,2.555049560546875,-2.2767608165740967,2.3061957359313965,5.386087417602539
1751214970486043400,2.56504345703125,0.23771870136260986,2.5154342651367188,5.488582134246826
1751214970496037000,2.575037109375,2.4455695152282715,2.4024248123168945,5.071505546569824
1751214970506030800,2.58503076171875,3.755802631378174,1.789891242980957,4.042912483215332
1751214970516024600,2.595024658203125,3.204338312149048,0.5196237564086914,2.230557918548584
1751214970526018300,2.605018310546875,2.6552436351776123,-2.039189338684082,0.5103721618652344
1751214970536012300,2.61501220703125,3.216418743133545,-5.671163558959961,-0.4427032470703125
1751214970546006000,2.625006103515625,3.5097503662109375,-8.17901611328125,-1.4752354621887207
1751214970555999700,2.634999755859375,3.912147283554077,-8.268653869628906,-2.4017670154571533
1751214970565993500,2.644993408203125,4.055522441864014,-6.287336349487305,-2.857846736907959
1751214970575987200,2.6549873046875,4.071781635284424,-3.6329030990600586,-3.0073723793029785
1751214970585981000,2.66498095703125,3.8612890243530273,-1.868058204650879,-3.0195183753967285
1751214970595974700,2.674974609375,3.8951187133789062,-0.9781341552734375,-3.2878715991973877
1751214970605968400,2.684968505859375,4.14932918548584,-0.6491880416870117,-3.9986162185668945
1751214970615962000,2.694962158203125,4.32029914855957,-1.3669548034667969,-4.573861122131348
1751214970625955800,2.704955810546875,3.629138469696045,-3.071822166442871,-4.724015235900879
1751214970635949600,2.714949462890625,1.7695045471191406,-4.6838226318359375,-4.639764308929443
1751214970645943600,2.724943603515625,0.8125177621841431,-5.621129989624023,-4.014761924743652
1751214970655937300,2.734937255859375,0.5683776140213013,-5.394783973693848,-3.169957399368286
1751214970665931000,2.744930908203125,-0.29182225465774536,-4.20280647277832,-2.703599214553833
1751214970675924700,2.7549248046875,-1.4620838165283203,-2.7926950454711914,-2.5348870754241943
1751214970685918500,2.76491845703125,-2.3826382160186768,-1.5690269470214844,-2.23742938041687
1751214970695912200,2.774912109375,-2.777911901473999,-0.7169828414916992,-1.7236111164093018
1751214970705906000,2.784906005859375,-2.89190936088562,-0.2493267059326172,-1.356576919555664
1751214970715899600,2.794899658203125,-3.0510060787200928,-0.1643543243408203,-1.6565163135528564
1751214970725893400,2.804893310546875,-3.437981605529785,-0.33650875091552734,-2.111645460128784
1751214970735887000,2.81488720703125,-3.4373645782470703,-0.5946073532104492,-2.223489761352539
1751214970745880800,2.824880859375,-2.897062301635742,-0.8120622634887695,-2.1310105323791504
1751214970755874600,2.83487451171875,-2.309826135635376,-0.9430885314941406,-1.9855942726135254
1751214970765868500,2.84486865234375,-1.8643509149551392,-1.0404434204101562,-1.9733338356018066
1751214970775862300,2.8548623046875,-1.2552231550216675,-1.1264028549194336,-1.9906926155090332
1751214970785856000,2.86485595703125,-0.3767206072807312,-1.108663558959961,-1.9008469581604004
1751214970795849700,2.874849609375,0.4766615033149719,-0.9303750991821289,-1.670478105545044
1751214970805843500,2.884843505859375,0.9908921718597412,-0.683964729309082,-1.3735058307647705
1751214970815837200,2.894837158203125,1.0703390836715698,-0.35161685943603516,-1.0262203216552734
1751214970825831000,2.904830810546875,0.7708292007446289,0.04604911804199219,-0.6501638889312744
1751214970835824600,2.91482470703125,0.1935655027627945,0.3975353240966797,-0.2532777786254883
1751214970845818400,2.924818359375,-0.5428669452667236,0.6203775405883789,0.10384607315063477
1751214970855812000,2.93481201171875,-1.225700855255127,0.6564264297485352,0.38973236083984375
1751214970865805800,2.944805908203125,-1.6652776002883911,0.5199289321899414,0.4740424156188965
1751214970875799600,2.954799560546875,-1.6875662803649902,0.3600759506225586,0.3059830665588379
1751214970885793500,2.96479345703125,-1.267522931098938,0.27857208251953125,-0.020409107208251953
1751214970895787300,2.974787353515625,-0.6565223932266235,0.2624235153198242,-0.37276625633239746
1751214970905781000,2.984781005859375,-0.0947735607624054,0.37047863006591797,-0.7568662166595459
1751214970915774700,2.994774658203125,0.28028035163879395,0.5849857330322266,-1.0923728942871094
1751214970925768400,3.0047685546875,0.42191362380981445,0.849482536315918,-1.2907288074493408
1751214970935762200,3.01476220703125,0.33950385451316833,1.1495757102966309,-1.3279838562011719
1751214970945756000,3.024755859375,0.11503235995769501,1.4132676124572754,-1.2670021057128906
1751214970955749600,3.03474951171875,-0.05580446496605873,1.5446386337280273,-1.0852081775665283
1751214970965743400,3.044743408203125,-0.09765784442424774,1.5145025253295898,-0.8279151916503906
1751214970975737000,3.054737060546875,-0.05068819597363472,1.3273816108703613,-0.5637996196746826
1751214970985730800,3.064730712890625,0.031645774841308594,1.0402889251708984,-0.2946295738220215
1751214970995724800,3.074724853515625,-0.00481443852186203,0.7388944625854492,-0.06950545310974121
1751214971005718500,3.084718505859375,-0.11690117418766022,0.437347412109375,0.09682583808898926
1751214971015712300,3.094712158203125,-0.22679781913757324,0.2694587707519531,0.19064688682556152
1751214971025706000,3.1047060546875,-0.26060569286346436,0.1779022216796875,0.2609128952026367
1751214971035699700,3.11469970703125,-0.20826536417007446,0.1433429718017578,0.32680535316467285
1751214971045693400,3.124693359375,-0.1180538535118103,0.14649486541748047,0.42653512954711914
1751214971055687200,3.134687255859375,-0.06836169958114624,0.18697738647460938,0.5545730590820312
1751214971065681000,3.144680908203125,-0.09438356757164001,0.16920185089111328,0.6345517635345459
1751214971075674600,3.154674560546875,-0.07314229011535645,0.17949199676513672,0.677079439163208
1751214971085668400,3.16466845703125,0.07108795642852783,0.30343151092529297,0.872643232345581
1751214971095662000,3.174662109375,0.2999361753463745,0.4305095672607422,1.0287306308746338
1751214971105655800,3.18465576171875,0.5081683397293091,0.5270414352416992,1.1303439140319824
1751214971115649800,3.19464990234375,0.5634436011314392,0.6456518173217773,1.1394712924957275
1751214971125643500,3.2046435546875,0.3477720320224762,0.7141227722167969,1.1735830307006836
1751214971135637200,3.21463720703125,-0.22119969129562378,0.8377704620361328,1.1321897506713867
1751214971145631000,3.224630859375,-0.8593951463699341,1.1267480850219727,1.0922932624816895
1751214971155624700,3.234624755859375,-1.3309311866760254,1.685828685760498,1.0717742443084717
1751214971165618400,3.244618408203125,-1.6249101161956787,2.299144744873047,1.1206817626953125
1751214971175612200,3.254612060546875,-1.7968525886535645,2.8513922691345215,1.1501080989837646
1751214971185606000,3.26460595703125,-1.7458274364471436,3.3188095092773438,0.9117672443389893
1751214971195599600,3.274599609375,-1.3197822570800781,3.434278964996338,0.39746785163879395
1751214971205593300,3.28459326171875,-0.6644643545150757,3.351986885070801,-0.31873154640197754
1751214971215587000,3.294587158203125,-0.1556134819984436,3.273867607116699,-1.0804578065872192
1751214971225581000,3.3045810546875,0.24083095788955688,3.243849754333496,-1.6554005146026611
1751214971235574800,3.31457470703125,0.569936215877533,3.190816879272461,-2.0319888591766357
1751214971245568500,3.324568603515625,1.006824016571045,3.0005970001220703,-2.1225812435150146
1751214971255562200,3.334562255859375,1.1627289056777954,2.6497702598571777,-2.007035970687866
1751214971265556000,3.344555908203125,1.3012573719024658,2.3632097244262695,-1.7407618761062622
1751214971275549700,3.3545498046875,1.3795084953308105,2.231355667114258,-1.4129624366760254
1751214971285543400,3.36454345703125,1.19716477394104,2.0339250564575195,-0.7320624589920044
1751214971295537200,3.374537109375,0.3952069580554962,1.7607455253601074,0.2589712142944336
1751214971305531000,3.38453076171875,-0.8966242074966431,1.5208349227905273,1.3106738328933716
1751214971315524600,3.394524658203125,-2.3562135696411133,1.4281024932861328,2.2820682525634766
1751214971325518300,3.404518310546875,-3.390726327896118,1.0761804580688477,3.130661964416504
1751214971335512000,3.414511962890625,-3.646411895751953,-1.1963605880737305,4.375531196594238
1751214971345506000,3.424506103515625,-1.9965200424194336,-4.964269638061523,5.626538276672363
1751214971355499800,3.434499755859375,0.15754598379135132,-6.1071014404296875,5.831774711608887
1751214971365493500,3.444493408203125,0.44949615001678467,-6.130711555480957,5.297294616699219
1751214971375487200,3.4544873046875,1.2326905727386475,-6.080023765563965,4.354037284851074
1751214971385481000,3.46448095703125,3.225320816040039,-5.046294212341309,2.792479991912842
1751214971395474700,3.474474609375,3.301516056060791,-2.9568796157836914,0.9430830478668213
1751214971405468400,3.484468505859375,1.778273344039917,-1.4474411010742188,-0.7395368814468384
1751214971415462100,3.494462158203125,0.6155433654785156,-0.47600269317626953,-2.4258482456207275
1751214971425455900,3.504455810546875,-1.2723139524459839,-0.6679086685180664,-3.4893741607666016
1751214971435449600,3.51444970703125,-3.4718143939971924,-1.2832794189453125,-3.4018027782440186
1751214971445443300,3.524443359375,-5.683228969573975,-1.8334112167358398,-2.291532039642334
1751214971455437000,3.53443701171875,-6.748494625091553,-4.100337028503418,-0.9217514991760254
1751214971465431000,3.54443115234375,-6.1418890953063965,-9.907974243164062,-0.35244178771972656
1751214971475424800,3.5544248046875,-3.314192295074463,-11.68189811706543,1.2015289068222046
1751214971485418500,3.56441845703125,1.725562572479248,-9.452000617980957,4.1382293701171875
1751214971495412200,3.574412109375,6.183928489685059,-4.17333984375,5.026062965393066
1751214971505406000,3.584406005859375,8.1424560546875,0.28472232818603516,4.405666351318359
1751214971515399700,3.594399658203125,7.266343116760254,0.43456172943115234,3.6783015727996826
1751214971525393400,3.604393310546875,4.818301677703857,-0.30259037017822266,2.0468828678131104
1751214971535387100,3.61438720703125,2.6660680770874023,0.640324592590332,-0.3887745141983032
1751214971545380900,3.624380859375,1.9693233966827393,1.9270539283752441,-2.168024778366089
1751214971555374600,3.63437451171875,1.7762556076049805,2.268294334411621,-3.06195330619812
1751214971565368300,3.644368408203125,1.6861895322799683,1.8035778999328613,-3.46506404876709
1751214971575362300,3.6543623046875,1.8677730560302734,1.0424060821533203,-3.782747745513916
1751214971585356000,3.66435595703125,0.8654360771179199,0.5873336791992188,-4.717547416687012
1751214971595349800,3.674349853515625,-0.3530951738357544,0.25586605072021484,-5.785325527191162
1751214971605343500,3.684343505859375,-0.8490825295448303,-0.20770549774169922,-6.502606391906738
1751214971615337200,3.694337158203125,-0.4543038308620453,-0.736328125,-6.731195449829102
1751214971625331000,3.7043310546875,0.5732614398002625,-0.5323467254638672,-6.359295845031738
1751214971635324700,3.71432470703125,2.1416285037994385,0.7733917236328125,-4.905273914337158
1751214971645318400,3.724318359375,3.5554490089416504,1.5512027740478516,-3.365813732147217
1751214971655312100,3.73431201171875,3.889732837677002,1.6037359237670898,-2.25040864944458
1751214971665305900,3.744305908203125,2.4368462562561035,1.1857500076293945,-1.486586570739746
1751214971675299600,3.754299560546875,0.07678234577178955,0.4431476593017578,-0.8652141094207764
1751214971685293300,3.764293212890625,-2.124847888946533,-0.1009674072265625,-0.19131505489349365
1751214971695287300,3.774287353515625,-3.624055862426758,-0.46090221405029297,0.5754231214523315
1751214971705281000,3.784281005859375,-4.121542930603027,-0.6990547180175781,1.393919587135315
1751214971715274800,3.794274658203125,-3.6025619506835938,-0.5424833297729492,2.185201644897461
1751214971735262200,3.81426220703125,-1.0849844217300415,-0.24427413940429688,3.8098373413085938
1751214971745256000,3.824255859375,0.0063353776931762695,-0.050255775451660156,3.6154470443725586
1751214971755249700,3.834249755859375,0.780092716217041,0.16396236419677734,3.071417808532715
1751214971765243400,3.844243408203125,1.2023837566375732,0.17000293731689453,2.295546293258667
1751214971775237000,3.854237060546875,1.2618403434753418,0.22232437133789062,1.5254640579223633
1751214971785230800,3.86423095703125,1.0768101215362549,0.1778707504272461,0.9606529474258423
1751214971795224600,3.874224609375,0.6244678497314453,-0.005991935729980469,0.48629677295684814
1751214971805218300,3.88421826171875,-0.06391072273254395,0.01901531219482422,0.17279136180877686
1751214971815212300,3.89421240234375,-0.7026141881942749,0.2536649703979492,-0.39548301696777344
1751214971825206000,3.9042060546875,-1.2168219089508057,0.4314231872558594,-0.7775081396102905
1751214971835199700,3.91419970703125,-1.4266316890716553,0.6447229385375977,-0.8245758414268494
1751214971845193500,3.924193359375,-1.3541128635406494,0.6602754592895508,-0.4202495813369751
1751214971855187200,3.934187255859375,-1.0838146209716797,0.3677682876586914,0.33566462993621826
1751214971865181000,3.944180908203125,-0.7297479510307312,0.22447776794433594,1.0849517583847046
1751214971875174700,3.954174560546875,-0.46062684059143066,0.31476306915283203,1.501196026802063
1751214971885168400,3.96416845703125,-0.45495134592056274,0.46533775329589844,1.5869388580322266
1751214971895162000,3.974162109375,-0.6152512431144714,0.6324758529663086,1.4759840965270996
1751214971905155800,3.98415576171875,-0.7207484841346741,0.8306407928466797,1.1789053678512573
1751214971915149600,3.994149658203125,-0.8022419810295105,1.065373420715332,0.8042510747909546
1751214971925143600,4.0041435546875,-0.9254113435745239,1.108201026916504,0.5525153875350952
1751214971935137300,4.01413720703125,-1.0508118867874146,0.9217519760131836,0.6062095165252686
1751214971945131000,4.024131103515625,-1.1341630220413208,0.8026924133300781,0.7675846815109253
1751214971955124700,4.034124755859375,-1.2332284450531006,0.8891534805297852,0.9448481798171997
1751214971965118500,4.044118408203125,-1.4534047842025757,0.955286979675293,1.251826286315918
1751214971975112200,4.0541123046875,-1.672534704208374,0.9629707336425781,1.3892576694488525
1751214971985106000,4.06410595703125,-1.7445018291473389,1.1326580047607422,1.3636267185211182
1751214971995099600,4.074099609375,-1.726120948791504,1.2061500549316406,1.2726815938949585
1751214972005093400,4.08409326171875,-1.7738404273986816,1.298233985900879,0.9866023063659668
1751214972015087000,4.094087158203125,-1.7124576568603516,1.4661378860473633,0.6790815591812134
1751214972025080800,4.104080810546875,-1.3725640773773193,1.6717514991760254,0.41261744499206543
1751214972035074600,4.114074462890625,-0.8055827617645264,1.7768511772155762,0.19325017929077148
1751214972045068500,4.124068603515625,-0.3049814701080322,1.6915831565856934,0.0944366455078125
1751214972055062300,4.134062255859375,0.10671168565750122,1.506810188293457,0.06666374206542969
1751214972065056000,4.144055908203125,0.4787558913230896,1.3840065002441406,-0.04099082946777344
1751214972075049700,4.1540498046875,0.5473454594612122,1.2506332397460938,-0.3237931728363037
1751214972085043500,4.16404345703125,0.7266100645065308,1.1065263748168945,-0.6742465496063232
1751214972095037200,4.174037109375,1.0073670148849487,0.9282598495483398,-1.013071060180664
1751214972105031000,4.184031005859375,1.15232515335083,0.8599720001220703,-1.327602505683899
1751214972115024600,4.194024658203125,1.354001760482788,0.9070329666137695,-1.501065969467163
1751214972125018400,4.204018310546875,1.510289192199707,1.0268125534057617,-1.461194634437561
1751214972135012000,4.21401220703125,1.4689388275146484,1.1902379989624023,-1.2196532487869263
1751214972145005800,4.224005859375,1.2031563520431519,1.3922672271728516,-0.9262795448303223
1751214972154999600,4.23399951171875,0.9881469011306763,1.4416542053222656,-0.534508228302002
1751214972164993500,4.24399365234375,0.9103026390075684,1.3958282470703125,-0.15569615364074707
1751214972174987300,4.2539873046875,0.9827468395233154,1.3022966384887695,0.2896099090576172
1751214972184981000,4.26398095703125,0.9468163251876831,1.1221933364868164,0.8557147979736328
1751214972194974700,4.273974609375,0.5519430637359619,0.9076747894287109,1.4020476341247559
1751214972204968400,4.283968505859375,-0.38427111506462097,0.7064971923828125,2.005934238433838
1751214972214962200,4.293962158203125,-1.2486448287963867,0.44211673736572266,2.724348306655884
1751214972224956000,4.303955810546875,-1.8304702043533325,0.2527589797973633,3.459278106689453
1751214972234949600,4.31394970703125,-2.813242197036743,0.36277294158935547,3.833867073059082
1751214972244943400,4.323943359375,-3.772249937057495,0.4649620056152344,3.9600443840026855
1751214972254937300,4.333937255859375,-2.8194711208343506,0.9111366271972656,3.7885544300079346
1751214972264931000,4.34393115234375,-1.0996748208999634,1.4850716590881348,3.442260503768921
1751214972274924800,4.3539248046875,-0.008702874183654785,1.646167278289795,3.1981770992279053
1751214972284918800,4.363918701171875,-0.47257691621780396,1.0684757232666016,3.095975637435913
1751214972294912500,4.37391259765625,-0.7467315196990967,-0.10915660858154297,2.9543824195861816
1751214972304906200,4.38390625,-0.2431577742099762,-1.4548091888427734,2.62276029586792
1751214972314900000,4.39389990234375,0.8017621040344238,-3.155856132507324,2.2615063190460205
1751214972324894000,4.40389404296875,2.2774696350097656,-5.164278030395508,2.014538049697876
1751214972334887700,4.4138876953125,3.2951769828796387,-6.204694747924805,1.7648038864135742
1751214972344881400,4.42388134765625,2.8530189990997314,-5.71364688873291,1.9153923988342285
1751214972354875400,4.43387548828125,1.9613935947418213,-4.418509483337402,2.17555570602417
1751214972364869000,4.443869140625,2.1457533836364746,-3.6165952682495117,2.3984007835388184
1751214972374862800,4.45386279296875,2.3294618129730225,-3.084589958190918,1.2619900703430176
1751214972384856800,4.46385693359375,2.2075486183166504,-2.5031509399414062,-0.8637268543243408
1751214972394850600,4.4738505859375,2.066417694091797,-2.356369972229004,-2.29809308052063
1751214972404844300,4.48384423828125,1.9046251773834229,-2.36403751373291,-3.154024600982666
1751214972414838000,4.493838134765625,1.322589635848999,-2.2852249145507812,-3.6120848655700684
1751214972424832000,4.50383203125,0.3809340000152588,-2.0477590560913086,-3.911491870880127
1751214972434825700,4.51382568359375,0.1387462615966797,-1.7142343521118164,-4.010479927062988
1751214972444819500,4.5238193359375,0.6390476226806641,-1.3336677551269531,-3.869046211242676
1751214972454813400,4.5338134765625,1.617247223854065,-1.113450050354004,-3.5876431465148926
1751214972464807200,4.54380712890625,1.9943609237670898,-0.9967050552368164,-3.513820171356201
1751214972474801000,4.55380078125,1.1346713304519653,-1.2792482376098633,-3.376628875732422
1751214972484794600,4.563794677734375,-0.2720608711242676,-1.865365982055664,-3.106766700744629
1751214972494788600,4.57378857421875,-1.2078490257263184,-2.3625612258911133,-2.9714889526367188
1751214972504782300,4.5837822265625,-1.2620689868927002,-2.392888069152832,-2.953775405883789
1751214972514776000,4.593776123046875,-1.280556559562683,-1.8656940460205078,-3.390493631362915
1751214972524770000,4.60377001953125,-1.1180353164672852,-1.1824684143066406,-3.9641571044921875
1751214972534763800,4.613763671875,-0.6898767948150635,-0.5909719467163086,-4.224091529846191
1751214972544757500,4.623757568359375,-0.4559584856033325,-0.18112564086914062,-4.068938732147217
1751214972554751200,4.633751220703125,-0.41948533058166504,-0.04863262176513672,-3.3944075107574463
1751214972564745000,4.643744873046875,-0.30258452892303467,0.02029705047607422,-2.485506534576416
1751214972574738700,4.65373876953125,-0.2339613437652588,0.04348278045654297,-1.684180736541748
1751214972584732400,4.663732421875,-0.3450278043746948,0.07248115539550781,-1.145301342010498
1751214972594726100,4.67372607421875,-0.5176651477813721,0.1399850845336914,-0.9557099342346191
1751214972604719900,4.683719970703125,-0.7329727411270142,0.3077583312988281,-1.0863256454467773
1751214972614713900,4.6937138671875,-0.8151374459266663,0.5571112632751465,-1.4828991889953613
1751214972624707600,4.70370751953125,-0.6801739931106567,0.7689800262451172,-1.8432247638702393
1751214972634701300,4.713701416015625,-0.5119718313217163,0.9253263473510742,-2.170827627182007
1751214972644695000,4.723695068359375,-0.5020194053649902,0.8934736251831055,-2.2969982624053955
1751214972654688800,4.733688720703125,-0.5045287013053894,0.8556919097900391,-2.2211620807647705
1751214972664682500,4.7436826171875,-0.4019013047218323,0.9127769470214844,-2.2479562759399414
1751214972674676200,4.75367626953125,-0.20345652103424072,1.031844139099121,-2.3610687255859375
1751214972684670000,4.763669921875,-0.09200257062911987,1.0601472854614258,-2.2969369888305664
1751214972694663700,4.77366357421875,-0.12583082914352417,1.102736473083496,-2.2711100578308105
1751214972704657400,4.783657470703125,-0.17465925216674805,1.1354198455810547,-2.3644521236419678
1751214972714651100,4.793651123046875,-0.10419422388076782,1.1197938919067383,-2.4139199256896973
1751214972724644900,4.803644775390625,0.13026410341262817,1.0170283317565918,-2.35788631439209
1751214972734638800,4.813638916015625,0.42549777030944824,0.7927341461181641,-2.1787428855895996
1751214972744632600,4.823632568359375,0.706886887550354,0.5700893402099609,-1.9406402111053467
1751214972754626300,4.833626220703125,0.9650182723999023,0.5441198348999023,-1.7977650165557861
1751214972764620000,4.8436201171875,1.1306136846542358,0.5608243942260742,-1.6414504051208496
1751214972774613800,4.85361376953125,1.2687592506408691,0.6432828903198242,-1.516326904296875
1751214972784607500,4.863607421875,1.417637825012207,0.7382650375366211,-1.3087742328643799
1751214972794601200,4.873601318359375,1.5711660385131836,0.8455581665039062,-1.1724629402160645
1751214972804595000,4.883594970703125,1.6696885824203491,1.060953140258789,-1.0017492771148682
1751214972814588700,4.893588623046875,1.652984857559204,1.1645164489746094,-0.8352386951446533
1751214972824582400,4.90358251953125,1.5160043239593506,1.2046070098876953,-0.643338680267334
1751214972834576100,4.913576171875,1.2259052991867065,1.1333799362182617,-0.3548407554626465
1751214972844570000,4.923570068359375,1.0225191116333008,1.0989503860473633,-0.013357877731323242
1751214972854563800,4.933563720703125,0.8286895155906677,1.0577154159545898,0.3745574951171875
1751214972864557600,4.9435576171875,0.7861977219581604,1.0428218841552734,0.6546022891998291
1751214972874551300,4.95355126953125,0.6780926585197449,1.0348148345947266,0.8638534545898438
1751214972884545000,4.963544921875,0.6192089915275574,0.9810686111450195,1.0355007648468018
1751214972894538800,4.973538818359375,0.46026986837387085,0.8337612152099609,1.2117018699645996
1751214972904532500,4.983532470703125,0.44716060161590576,0.6075096130371094,1.3828861713409424
1751214972914526200,4.993526123046875,0.30246105790138245,0.29781627655029297,1.616823673248291
1751214972924520000,5.00352001953125,-0.015326254069805145,0.004719734191894531,1.8928422927856445
1751214972934513700,5.013513671875,-0.3210798501968384,-0.36292457580566406,2.2190957069396973
1751214972944507400,5.02350732421875,-0.6181854605674744,-0.5517902374267578,2.4275479316711426
1751214972954501000,5.033501220703125,-0.8582644462585449,-0.42851829528808594,2.5071778297424316
1751214972964495000,5.0434951171875,-1.238563895225525,-0.07008552551269531,2.394355297088623
1751214972974488800,5.05348876953125,-1.8340976238250732,0.37535762786865234,2.065502166748047
1751214972984482600,5.063482666015625,-2.8130507469177246,0.8462371826171875,1.4711040258407593
1751214972994476300,5.073476318359375,-3.929316282272339,1.2241315841674805,0.7926235198974609
1751214973004470000,5.083469970703125,-4.917416095733643,1.4390077590942383,0.1487053632736206
1751214973014463700,5.093463623046875,-5.04013729095459,1.5979280471801758,-0.38639986515045166
1751214973024457500,5.10345751953125,-4.323927402496338,1.8308987617492676,-0.5836374163627625
1751214973034451200,5.113451171875,-3.120436429977417,2.0365829467773438,-0.25293397903442383
1751214973044445000,5.12344482421875,-1.8921334743499756,2.1894607543945312,0.4523411989212036
1751214973054438700,5.133438720703125,-0.8292642831802368,2.427107810974121,1.0968656539916992
1751214973064432400,5.143432373046875,0.08231166005134583,2.6149840354919434,1.7288397550582886
1751214973074426400,5.15342626953125,0.6714518070220947,2.709965229034424,2.246561050415039
1751214973084420000,5.163420166015625,0.9030225276947021,2.7935643196105957,2.5119476318359375
1751214973094413800,5.173413818359375,0.9245110154151917,3.0045461654663086,2.5614285469055176
1751214973104407600,5.183407470703125,1.1230359077453613,2.827014446258545,2.723909378051758
1751214973114401300,5.1934013671875,1.5710607767105103,0.8429174423217773,3.434281826019287
1751214973124395000,5.20339501953125,2.487689733505249,-3.7326231002807617,4.867105484008789
1751214973134388700,5.213388671875,3.1420481204986572,-6.019888877868652,4.755947589874268
1751214973144382500,5.223382568359375,3.269573450088501,-6.920025825500488,4.425955772399902
1751214973154376200,5.233376220703125,3.8114871978759766,-7.495238304138184,4.507012367248535
1751214973164370000,5.243369873046875,4.63507080078125,-6.393095970153809,3.7715163230895996
1751214973174363600,5.25336376953125,4.248076915740967,-3.811251640319824,1.8943268060684204
1751214973184357400,5.263357421875,2.826838493347168,-1.2472352981567383,-0.6029205322265625
1751214973194351400,5.273351318359375,1.0674548149108887,-0.6189212799072266,-2.393575668334961
1751214973204345000,5.283344970703125,-1.5244710445404053,-1.7570266723632812,-3.3183743953704834
1751214973214338800,5.2933388671875,-4.630200386047363,-2.950551986694336,-3.767366409301758
1751214973224332500,5.30333251953125,-7.294166088104248,-3.887216567993164,-3.6220545768737793
1751214973234326300,5.313326171875,-7.210981369018555,-5.206178665161133,-3.1218597888946533
1751214973244320000,5.323320068359375,-5.01569128036499,-5.852514266967773,-2.6302356719970703
1751214973254313700,5.333313720703125,-2.995856285095215,-5.964470863342285,-1.3749092817306519
1751214973264307500,5.343307373046875,-0.6907762885093689,-5.611734390258789,0.5898655652999878
1751214973274301200,5.35330126953125,1.38509202003479,-4.360898017883301,2.0797903537750244
1751214973284295000,5.363294921875,2.5526349544525146,-2.8420486450195312,2.6941745281219482
1751214973294288600,5.37328857421875,2.853541374206543,-1.3468389511108398,2.0979361534118652
1751214973304282400,5.383282470703125,2.722140312194824,-0.34587574005126953,0.9021170139312744
1751214973314276400,5.3932763671875,2.4924402236938477,0.26459598541259766,-0.26078855991363525
1751214973324270000,5.40327001953125,2.439093589782715,0.7599258422851562,-1.1866786479949951
1751214973334263800,5.413263916015625,2.4837844371795654,0.9981908798217773,-1.6196553707122803
1751214973344257500,5.423257568359375,2.4867160320281982,1.0276517868041992,-1.7110488414764404
1751214973354251300,5.433251220703125,2.602210760116577,1.034510612487793,-1.7134015560150146
1751214973364245000,5.443244873046875,2.7885935306549072,1.1092529296875,-1.8532527685165405
1751214973374238700,5.45323876953125,3.035870313644409,1.208714485168457,-1.9486572742462158
1751214973384232400,5.463232421875,3.3007516860961914,1.112959861755371,-1.9611154794692993
1751214973394226200,5.47322607421875,3.4863593578338623,0.8124876022338867,-1.9054611921310425
1751214973404220000,5.483219970703125,3.4257893562316895,0.5125665664672852,-1.8877003192901611
1751214973414213600,5.493213623046875,3.035146474838257,0.33216285705566406,-1.8796027898788452
1751214973424207600,5.50320751953125,2.104311943054199,0.2662353515625,-1.6504915952682495
1751214973434201300,5.513201416015625,1.4861040115356445,0.12241935729980469,-1.2376627922058105
1751214973444195000,5.523195068359375,0.7626217603683472,0.07236480712890625,-0.9966846108436584
1751214973454188800,5.533188720703125,-0.0908510684967041,-0.060695648193359375,-0.6298747062683105
1751214973464182500,5.5431826171875,-0.9362760186195374,-0.21437549591064453,-0.2288527488708496
1751214973474176300,5.55317626953125,-1.7822647094726562,-0.3068389892578125,0.13923799991607666
1751214973484170000,5.563169921875,-2.612487316131592,-0.38989830017089844,0.5594257116317749
1751214973494163700,5.573163818359375,-3.496708869934082,-0.44341087341308594,0.9725049734115601
1751214973504157400,5.583157470703125,-4.285238742828369,-0.36107635498046875,1.358122706413269
1751214973514151200,5.593151123046875,-4.802034378051758,-0.13745880126953125,1.7482540607452393
1751214973524145000,5.603144775390625,-4.884247779846191,0.11267757415771484,2.1022415161132812
1751214973534138600,5.613138671875,-4.371774196624756,0.3171072006225586,2.3737714290618896
1751214973544132600,5.623132568359375,-3.461444139480591,0.5034866333007812,2.374026298522949
1751214973554126300,5.633126220703125,-2.3002991676330566,0.5653877258300781,2.0889618396759033
1751214973564120000,5.6431201171875,-1.2345683574676514,0.5692644119262695,1.5842878818511963
1751214973574113800,5.65311376953125,-0.558774471282959,0.6107406616210938,1.12233567237854
1751214973584107500,5.663107421875,-0.09323763847351074,0.7087860107421875,0.8634566068649292
1751214973594101200,5.673101318359375,0.34604334831237793,0.8965282440185547,0.7370482683181763
1751214973604095000,5.683094970703125,0.6047540903091431,1.192464828491211,0.6640901565551758
1751214973614088700,5.693088623046875,0.6046059131622314,1.4716100692749023,0.7557427883148193
1751214973624082400,5.70308251953125,0.42091143131256104,1.6955366134643555,0.8910620212554932
1751214973634076200,5.713076171875,0.2554868459701538,1.9270482063293457,0.9017248153686523
1751214973644070000,5.72306982421875,0.12561631202697754,2.070927619934082,0.9215350151062012
1751214973654063600,5.733063720703125,-0.04707741737365723,1.9841222763061523,0.9581629037857056
1751214973664057600,5.7430576171875,-0.0752938985824585,1.7538838386535645,0.8840889930725098
1751214973674051300,5.75305126953125,-0.10541641712188721,1.7252860069274902,0.5563375949859619
1751214973684045000,5.763045166015625,-0.2505444288253784,1.697516918182373,0.2472996711730957
1751214973694038800,5.773038818359375,-0.08629012107849121,1.4796972274780273,-0.02683699131011963
1751214973704032500,5.783032470703125,0.22824430465698242,1.469038963317871,-0.25437402725219727
1751214973714026200,5.793026123046875,0.3891054391860962,1.421309471130371,-0.23367691040039062
1751214973744007400,5.82300732421875,0.26892316341400146,1.3838024139404297,0.638832688331604
1751214973754001200,5.833001220703125,-0.05945706367492676,1.449458122253418,0.8533461093902588
1751214973763995000,5.842994873046875,-0.16443783044815063,1.4610424041748047,0.8501901626586914
1751214973773988900,5.85298876953125,-0.030427932739257812,1.4998283386230469,0.471743106842041
1751214973783982600,5.862982666015625,-0.325331449508667,1.4182186126708984,0.14856195449829102
1751214973793976300,5.872976318359375,-1.0306830406188965,1.2025270462036133,0.17608952522277832
1751214973803970000,5.882969970703125,-2.1752614974975586,0.9488716125488281,0.47518086433410645
1751214973813963800,5.8929638671875,-3.326319694519043,0.6477689743041992,0.9817671775817871
1751214973823957500,5.90295751953125,-3.276456832885742,0.3755779266357422,1.474947214126587
1751214973833951200,5.912951171875,-2.304696559906006,0.4563941955566406,1.6612401008605957
1751214973843945200,5.9229453125,-1.489778995513916,0.9745941162109375,1.5011534690856934
1751214973853939000,5.93293896484375,-1.291273593902588,1.5086889266967773,0.9562304019927979
1751214973863932700,5.9429326171875,-1.1862010955810547,1.8824148178100586,0.2861790657043457
1751214973873926400,5.952926513671875,-0.7457793951034546,2.2310190200805664,-0.2545175552368164
1751214973883920400,5.96292041015625,-0.2245398610830307,2.416740894317627,-0.20532560348510742
1751214973893914000,5.9729140625,0.20625585317611694,2.262087345123291,0.5376288890838623
1751214973903907800,5.982907958984375,0.7023077011108398,1.5319933891296387,1.7180776596069336
1751214973913901800,5.99290185546875,1.4000176191329956,-0.13419055938720703,3.4563655853271484
1751214973923895600,6.0028955078125,1.440385103225708,-2.1690616607666016,4.873063087463379
1751214973933889300,6.01288916015625,1.1554709672927856,-4.519251823425293,5.789795875549316
1751214973943883000,6.022883056640625,1.012745976448059,-6.329041481018066,6.168180465698242
1751214973953877000,6.032876953125,0.491676390171051,-6.830309867858887,6.196081161499023
1751214973963870700,6.04287060546875,0.06576961278915405,-6.654900550842285,6.0528564453125
1751214973973864400,6.052864501953125,1.2989484071731567,-6.284390449523926,5.52989387512207
1751214973983858400,6.0628583984375,3.0990958213806152,-5.808065414428711,4.298020839691162
1751214973993852200,6.07285205078125,3.4002480506896973,-4.829588890075684,1.9875988960266113
1751214974003846000,6.082845947265625,2.380411386489868,-2.9571666717529297,-1.7186613082885742
1751214974013839600,6.092839599609375,2.490659475326538,-1.8544654846191406,-4.288232803344727
1751214974023833600,6.10283349609375,3.442762851715088,-1.8219537734985352,-5.619378089904785
1751214974033827300,6.112827392578125,4.737574100494385,-2.42543888092041,-6.169328689575195
1751214974043821000,6.122821044921875,5.756336688995361,-3.130568504333496,-6.446072578430176
1751214974053815000,6.13281494140625,4.515384197235107,-3.732293128967285,-7.088082313537598
1751214974063808800,6.142808837890625,2.0112364292144775,-4.4306182861328125,-7.260498523712158
1751214974073802500,6.152802490234375,0.32995879650115967,-4.425436019897461,-6.744561195373535
1751214974083796200,6.162796142578125,-0.6597075462341309,-3.674635887145996,-5.703860759735107
1751214974093790200,6.172790283203125,-1.1101250648498535,-2.615367889404297,-4.45732307434082
1751214974103784000,6.182783935546875,-0.9892299175262451,-1.6361198425292969,-3.664135456085205
1751214974113777700,6.192777587890625,-0.6571335792541504,-0.7677364349365234,-3.661996841430664
1751214974123771600,6.202771728515625,-0.6758407354354858,-0.10391426086425781,-4.379812240600586
1751214974133765400,6.212765380859375,-0.931743860244751,0.3736448287963867,-5.322644233703613
1751214974143759000,6.222759033203125,-1.1519947052001953,0.7884793281555176,-6.010248184204102
1751214974153752800,6.2327529296875,-1.2170196771621704,1.0474052429199219,-6.228755950927734
1751214974163746600,6.24274658203125,-1.1502459049224854,1.1369352340698242,-6.01129674911499
1751214974173740300,6.252740234375,-1.057185411453247,1.0853652954101562,-5.441015720367432
1751214974183734000,6.262734130859375,-1.0066876411437988,1.0441336631774902,-4.741560935974121
1751214974193727700,6.272727783203125,-1.1194168329238892,1.0015044212341309,-4.074753284454346
1751214974203721500,6.282721435546875,-1.2556512355804443,0.9271674156188965,-3.5530619621276855
1751214974213715200,6.292715087890625,-1.293269395828247,0.8393182754516602,-3.1486682891845703
1751214974223709000,6.302708984375,-1.185409426689148,0.6419401168823242,-2.7610926628112793
1751214974233703000,6.312702880859375,-0.8821482062339783,0.3444395065307617,-2.218656539916992
1751214974243696600,6.322696533203125,-0.6041369438171387,-0.006099700927734375,-1.5477941036224365
1751214974253690400,6.3326904296875,-0.5253308415412903,-0.29549694061279297,-0.9417524337768555
1751214974263684000,6.34268408203125,-0.6043005585670471,-0.5003328323364258,-0.43991661071777344
1751214974273677800,6.352677734375,-0.8373323678970337,-0.6350326538085938,-0.004060268402099609
1751214974283671600,6.362671630859375,-1.0436410903930664,-0.6852798461914062,0.30864787101745605
1751214974293665300,6.372665283203125,-1.1134074926376343,-0.6654691696166992,0.5273439884185791
1751214974303659000,6.382658935546875,-1.0081424713134766,-0.5803089141845703,0.6624164581298828
1751214974313652700,6.39265283203125,-0.7803917527198792,-0.3867216110229492,0.7338287830352783
1751214974323646500,6.402646484375,-0.47376787662506104,-0.09939002990722656,0.7270305156707764
1751214974333640200,6.41264013671875,-0.16438952088356018,0.24307632446289062,0.6655962467193604
1751214974343634200,6.42263427734375,0.034833937883377075,0.564213752746582,0.49751734733581543
1751214974353628000,6.4326279296875,0.10738101601600647,0.7926816940307617,0.22876214981079102
1751214974363621600,6.44262158203125,0.06062552332878113,0.9532356262207031,-0.06658101081848145
1751214974373615400,6.452615478515625,-0.007707059383392334,1.0703516006469727,-0.300875186920166
1751214974383609000,6.462609130859375,-0.010018706321716309,1.1395330429077148,-0.4113016128540039
1751214974393602800,6.472602783203125,0.03401562571525574,1.1610603332519531,-0.3926253318786621
1751214974403596500,6.482596435546875,0.09453994035720825,1.1539850234985352,-0.2455155849456787
1751214974413590300,6.49259033203125,0.13590970635414124,1.0895280838012695,0.03393292427062988
1751214974423584000,6.502583984375,0.10381963849067688,1.0201711654663086,0.3731389045715332
1751214974433577700,6.51257763671875,0.05266621708869934,0.9455928802490234,0.7274739742279053
1751214974443571500,6.522571533203125,0.03292340040206909,0.8942098617553711,1.028731107711792
1751214974453565200,6.532565185546875,0.028927147388458252,0.8705844879150391,1.2426364421844482
1751214974463559200,6.54255908203125,0.035450637340545654,0.8697452545166016,1.3781156539916992
1751214974473553000,6.552552978515625,0.06676682829856873,0.9011354446411133,1.4443668127059937
1751214974483546600,6.562546630859375,0.08494362235069275,0.9646730422973633,1.4795005321502686
1751214974493540400,6.572540283203125,0.1297684609889984,1.0697288513183594,1.4447826147079468
1751214974503534000,6.5825341796875,0.1688893735408783,1.2496652603149414,1.3928933143615723
1751214974513527800,6.59252783203125,0.27394044399261475,1.427748680114746,1.3751996755599976
1751214974523521500,6.602521484375,0.4336478114128113,1.6805086135864258,1.3625876903533936
1751214974533515300,6.612515380859375,0.5030711889266968,1.883847713470459,1.3033761978149414
1751214974543509000,6.622509033203125,0.4186799228191376,1.9662566184997559,1.2877479791641235
1751214974553502700,6.632502685546875,0.31309595704078674,2.0425472259521484,1.2375426292419434
1751214974563496400,6.642496337890625,0.09891650080680847,2.1227312088012695,1.127805471420288
1751214974573490200,6.652490234375,-0.3756617307662964,2.0009264945983887,1.1220120191574097
1751214974583484200,6.662484130859375,-0.7508792281150818,2.0406713485717773,0.9712419509887695
1751214974593478000,6.672477783203125,-1.068287968635559,2.1229677200317383,0.7827821969985962
1751214974603471600,6.6824716796875,-1.582786202430725,2.1714935302734375,0.6588243246078491
1751214974613465300,6.69246533203125,-2.1997902393341064,2.3199615478515625,0.5078178644180298
1751214974623459000,6.702458984375,-2.8703501224517822,2.520451068878174,0.3647477626800537
1751214974633452800,6.712452880859375,-3.5065484046936035,2.639077663421631,0.3591206669807434
1751214974643446500,6.722446533203125,-3.9281744956970215,2.647404193878174,0.47206515073776245
1751214974653440300,6.732440185546875,-3.993469715118408,2.6027941703796387,0.7529571056365967
1751214974663434000,6.74243408203125,-3.61832332611084,2.562587261199951,1.198704719543457
1751214974673427700,6.752427734375,-3.255445718765259,2.6651740074157715,1.7099264860153198
1751214974683421400,6.76242138671875,-2.79484486579895,2.7857565879821777,2.201288938522339
1751214974693415400,6.77241552734375,-1.6416194438934326,2.3842554092407227,2.663668155670166
1751214974703409200,6.7824091796875,0.4465240240097046,0.09521484375,3.491753101348877
1751214974713403000,6.79240283203125,2.7172765731811523,-2.7965784072875977,4.35980749130249
1751214974723396600,6.802396728515625,3.819565534591675,-4.3352155685424805,5.46610164642334
1751214974733390300,6.812390380859375,3.743039846420288,-5.327095985412598,6.159397602081299
1751214974743384000,6.822384033203125,3.067547559738159,-5.99606990814209,5.916496276855469
1751214974753377800,6.832377685546875,2.758709192276001,-5.5667572021484375,4.201737403869629
1751214974763371500,6.84237158203125,2.6529746055603027,-3.9018421173095703,1.398499846458435
1751214974773365200,6.852365234375,2.290039300918579,-3.523247718811035,-0.39855027198791504
1751214974783359000,6.86235888671875,2.436622142791748,-4.7367143630981445,-1.2102537155151367
1751214974793352700,6.872352783203125,2.3898861408233643,-5.858180999755859,-1.9785568714141846
1751214974803346400,6.882346435546875,2.3061652183532715,-6.75655460357666,-2.0885777473449707
1751214974813340400,6.89234033203125,3.393679141998291,-8.127397537231445,-1.3851919174194336
1751214974823334100,6.902334228515625,4.585686683654785,-9.365639686584473,-0.5804938077926636
1751214974833327900,6.912327880859375,2.775519847869873,-9.174610137939453,-0.12110269069671631
1751214974843321600,6.922321533203125,-1.810932993888855,-6.491578102111816,-0.14183127880096436
1751214974853315300,6.9323154296875,-5.231527805328369,-3.6161041259765625,0.5362900495529175
1751214974863309000,6.94230908203125,-5.96068000793457,-1.5088996887207031,1.328362226486206
1751214974873302800,6.952302734375,-4.445418357849121,-0.22838783264160156,1.1579045057296753
1751214974883296500,6.962296630859375,-1.9023882150650024,0.45479393005371094,-0.16002094745635986
1751214974893290200,6.972290283203125,0.08020007610321045,0.6803951263427734,-1.865834355354309
1751214974903284000,6.982283935546875,1.357323169708252,0.7474699020385742,-3.243090867996216
1751214974913277700,6.992277587890625,1.9553349018096924,0.6920566558837891,-3.9987783432006836
1751214974923271700,7.002271728515625,1.9909379482269287,0.7974395751953125,-4.187730312347412
1751214974933265400,7.012265380859375,1.7184017896652222,1.0922088623046875,-4.041266918182373
1751214974943259100,7.022259033203125,1.605771541595459,1.3473682403564453,-3.8689143657684326
1751214974953252900,7.0322529296875,1.7603862285614014,1.3332834243774414,-3.5538768768310547
1751214974963246600,7.04224658203125,2.8332321643829346,1.3603715896606445,-3.719367027282715
1751214974973240300,7.052240234375,3.9713995456695557,1.237685203552246,-3.946812629699707
1751214974983234000,7.062234130859375,4.308102130889893,0.8266134262084961,-4.0273027420043945
1751214974993227800,7.072227783203125,4.33571195602417,0.4948768615722656,-3.9100632667541504
1751214975003221500,7.082221435546875,4.270917892456055,0.11151599884033203,-3.367579221725464
1751214975013215200,7.09221533203125,4.478534698486328,-0.1628732681274414,-2.6683521270751953
1751214975023209000,7.102208984375,4.679184913635254,-0.23479175567626953,-1.8954756259918213
1751214975033202700,7.11220263671875,4.150661468505859,0.03316688537597656,-1.3228905200958252
1751214975043196700,7.12219677734375,2.9878783226013184,0.2825441360473633,-1.0096492767333984
1751214975053190400,7.1321904296875,1.607478380203247,0.11734676361083984,-0.7859959602355957
1751214975063184100,7.14218408203125,0.3278423547744751,-0.3519325256347656,-0.5260812044143677
1751214975073177900,7.152177734375,-0.9636306166648865,-0.8047208786010742,-0.1247321367263794
1751214975083171600,7.162171630859375,-2.20937180519104,-1.155076026916504,0.4914494752883911
1751214975093165300,7.172165283203125,-3.291475296020508,-1.2453069686889648,1.1118217706680298
1751214975103159000,7.182158935546875,-4.441712379455566,-1.1607542037963867,1.7015390396118164
1751214975113152800,7.19215283203125,-5.426009654998779,-0.9705533981323242,2.1656670570373535
1751214975123146500,7.202146484375,-6.0597381591796875,-0.5995492935180664,2.4569692611694336
1751214975133140200,7.21214013671875,-6.012158393859863,-0.16941452026367188,2.628727912902832
1751214975143134000,7.222134033203125,-5.395512104034424,0.24365234375,2.630913734436035
1751214975153127700,7.232127685546875,-4.406980514526367,0.5807561874389648,2.431617498397827
1751214975163121700,7.24212158203125,-3.2202773094177246,0.4951906204223633,2.1957802772521973
1751214975173115400,7.252115478515625,-2.0499167442321777,0.1906414031982422,1.8716007471084595
1751214975183109000,7.262109130859375,-0.8477237224578857,-0.10459232330322266,1.2942001819610596
1751214975193102800,7.272102783203125,0.22394013404846191,-0.3193483352661133,0.6625036001205444
1751214975203096600,7.2820966796875,0.9909759759902954,-0.3774251937866211,0.20809495449066162
1751214975213090300,7.29209033203125,1.4529508352279663,-0.2982053756713867,-0.07764947414398193
1751214975223084000,7.302083984375,1.7051109075546265,-0.08185958862304688,-0.27954161167144775
1751214975233077800,7.312077880859375,1.769753336906433,0.1661996841430664,-0.35319554805755615
1751214975243071500,7.322071533203125,1.7232064008712769,0.3885383605957031,-0.33749067783355713
1751214975253065200,7.332065185546875,1.5857599973678589,0.5711545944213867,-0.25119924545288086
1751214975263059000,7.342058837890625,1.360233187675476,0.6667194366455078,-0.07587075233459473
1751214975273053000,7.352052978515625,1.1386018991470337,0.6992664337158203,0.17242038249969482
1751214975283046700,7.362046630859375,0.9508894681930542,0.6498050689697266,0.46310317516326904
1751214975293040400,7.372040283203125,0.6652272939682007,0.5520000457763672,0.7893877029418945
1751214975303034000,7.3820341796875,0.31738150119781494,0.5253820419311523,1.0485678911209106
1751214975313027800,7.39202783203125,-0.07578432559967041,0.6320676803588867,1.1774996519088745
1751214975323021600,7.402021484375,-0.4036918878555298,0.7810211181640625,1.1952983140945435
1751214975333015300,7.412015380859375,-0.6804927587509155,0.9054136276245117,1.1698909997940063
1751214975343009000,7.422009033203125,-0.9232078790664673,1.0151700973510742,1.0965248346328735
1751214975353002800,7.432002685546875,-1.1607084274291992,1.0721616744995117,1.0333096981048584
1751214975362996500,7.44199658203125,-1.4279143810272217,1.0621910095214844,0.9533847570419312
1751214975372990200,7.451990234375,-1.6430448293685913,1.0142765045166016,0.9055471420288086
1751214975382984000,7.46198388671875,-1.8619248867034912,1.086482048034668,0.8428012132644653
1751214975392978000,7.47197802734375,-2.089568614959717,1.1972761154174805,0.8323338031768799
1751214975402971600,7.4819716796875,-2.206912040710449,1.3081140518188477,0.777587890625
1751214975412965400,7.49196533203125,-2.1911189556121826,1.4238977432250977,0.5569140911102295
1751214975422959000,7.501958984375,-2.1243114471435547,1.6358137130737305,0.20905649662017822
1751214975432952800,7.511952880859375,-1.870458960533142,1.5658655166625977,0.06940257549285889
1751214975442946600,7.521946533203125,-1.460052728652954,1.5008974075317383,-0.02050936222076416
1751214975452940300,7.531940185546875,-0.9295613765716553,1.3209762573242188,-0.03203022480010986
1751214975462934000,7.54193408203125,-0.3485379219055176,0.9926948547363281,-0.05517137050628662
1751214975472927700,7.551927734375,0.07879382371902466,0.5977020263671875,-0.09187579154968262
1751214975482921500,7.56192138671875,0.38516372442245483,0.30813026428222656,0.018260836601257324
1751214975492915200,7.571915283203125,0.41608816385269165,0.2137746810913086,0.5141239166259766
1751214975502909000,7.581908935546875,0.11659443378448486,0.09771442413330078,1.560768485069275
1751214975512903000,7.59190283203125,-1.5669500827789307,0.08341026306152344,2.6387953758239746
1751214975522896600,7.601896728515625,-3.7566566467285156,0.15184402465820312,3.4582607746124268
1751214975532890400,7.611890380859375,-4.724457740783691,0.3602123260498047,3.417113780975342
1751214975542884000,7.621884033203125,-3.5090529918670654,1.1294965744018555,1.931863784790039
1751214975552877800,7.6318779296875,-1.4625957012176514,2.168621063232422,-0.19876790046691895
1751214975562871600,7.64187158203125,0.05064794421195984,3.0768394470214844,-2.0683727264404297
1751214975572865300,7.651865234375,1.020438313484192,3.7030844688415527,-3.4153735637664795
1751214975582859000,7.66185888671875,1.7038068771362305,3.719766139984131,-3.8067169189453125
1751214975592853000,7.67185302734375,1.826980710029602,3.4967637062072754,-3.703386068344116
1751214975602846700,7.6818466796875,1.2388339042663574,3.101609230041504,-3.1183676719665527
1751214975612840400,7.69184033203125,0.02313372492790222,2.595541477203369,-2.0069282054901123
1751214975622834400,7.70183447265625,-1.6372843980789185,2.1295242309570312,-0.43183350563049316
1751214975632828200,7.711828125,-3.2700774669647217,1.8723745346069336,1.1889457702636719
1751214975642822000,7.72182177734375,-3.569167375564575,1.7102537155151367,2.677598237991333
1751214975652815600,7.731815673828125,-2.563415765762329,1.0519704818725586,4.101412773132324
1751214975662809600,7.7418095703125,-0.8951593637466431,-0.64923095703125,5.480859756469727
1751214975672803300,7.75180322265625,0.4865162968635559,-3.0101661682128906,6.183133125305176
1751214975682797000,7.761797119140625,2.802079916000366,-5.658529281616211,5.86777925491333
1751214975692791000,7.771791015625,4.325562477111816,-7.453339576721191,5.097079277038574
1751214975702784800,7.78178466796875,3.7702465057373047,-7.496695518493652,4.6808271408081055
1751214975712778500,7.791778564453125,3.4974184036254883,-6.736649513244629,4.367648124694824
1751214975732766200,7.81176611328125,4.356650352478027,-5.009172439575195,1.5735602378845215
1751214975742760000,7.821760009765625,3.677523612976074,-4.1957244873046875,-0.4585602283477783
1751214975752753700,7.831753662109375,2.94366717338562,-3.2678356170654297,-2.1211233139038086
1751214975762747600,7.84174755859375,3.284592390060425,-2.2497854232788086,-3.553316831588745
1751214975772741400,7.851741455078125,4.310979843139648,-2.6048030853271484,-3.972935676574707
1751214975782735000,7.861735107421875,5.0159149169921875,-3.860135078430176,-3.6143500804901123
1751214975792728800,7.871728759765625,4.117290019989014,-4.829313278198242,-3.248267412185669
1751214975802722800,7.881722900390625,1.3498800992965698,-4.832118034362793,-2.922783851623535
1751214975812716500,7.891716552734375,-1.5830789804458618,-3.8325204849243164,-2.554208278656006
1751214975822710300,7.901710205078125,-2.8891310691833496,-2.2871265411376953,-2.350687265396118
1751214975832704300,7.911704345703125,-2.667452812194824,-0.9484987258911133,-2.918581008911133
1751214975842698000,7.921697998046875,-1.2906039953231812,-0.2489299774169922,-3.6639928817749023
1751214975852691700,7.931691650390625,-0.18233060836791992,0.040642738342285156,-4.500066757202148
1751214975862685400,7.941685546875,-0.06672203540802002,0.2870969772338867,-5.380140781402588
1751214975872679200,7.95167919921875,-0.5880186557769775,0.4302396774291992,-5.968777656555176
1751214975882673000,7.9616728515625,-0.903511643409729,0.4896211624145508,-6.033419132232666
1751214975892667000,7.9716669921875,-0.7510803937911987,0.6126298904418945,-5.591324806213379
1751214975902660600,7.98166064453125,-0.4823368787765503,0.7736210823059082,-4.842967510223389
1751214975912654300,7.991654296875,-0.4401897192001343,0.8949885368347168,-4.059454917907715
1751214975922648000,8.00164794921875,-0.6779402494430542,0.8942866325378418,-3.3247995376586914
1751214975932641800,8.011641845703124,-0.909466028213501,0.7898492813110352,-2.5537166595458984
1751214975942635500,8.021635498046875,-0.9940217733383179,0.585392951965332,-1.8423492908477783
1751214975952629200,8.031629150390625,-0.9687131643295288,0.4667797088623047,-1.4099390506744385
1751214975962623000,8.041623046875,-0.8935768008232117,0.49623775482177734,-1.3214004039764404
1751214975972616700,8.05161669921875,-0.7448668479919434,0.5310268402099609,-1.4927382469177246
1751214975982610400,8.0616103515625,-0.40824025869369507,0.44832706451416016,-1.7769734859466553
1751214975992604200,8.071604248046874,0.15405148267745972,0.3164701461791992,-1.9417262077331543
1751214976002598000,8.081597900390625,0.7122263312339783,0.22202205657958984,-1.7994813919067383
1751214976012591900,8.091591796875,1.0047258138656616,0.17360210418701172,-1.2756853103637695
1751214976022585600,8.101585693359375,1.0208475589752197,0.14977073669433594,-0.5483376979827881
1751214976032579300,8.111579345703126,0.708684504032135,0.24971389770507812,0.04921984672546387
1751214976042573000,8.121572998046876,0.19786027073860168,0.30570125579833984,0.4061167240142822
1751214976052566800,8.13156689453125,-0.2307891845703125,0.25055503845214844,0.6174430847167969
1751214976062560500,8.141560546875,-0.3779192566871643,0.20873737335205078,0.6462280750274658
1751214976072554200,8.15155419921875,-0.30370935797691345,0.20923519134521484,0.58587646484375
1751214976082548000,8.1615478515625,-0.11213180422782898,0.2854652404785156,0.5809106826782227
1751214976092541700,8.171541748046875,0.01271161437034607,0.40362071990966797,0.578160285949707
1751214976102535400,8.181535400390626,0.04431048035621643,0.639500617980957,0.4851810932159424
1751214976112529200,8.191529052734374,0.07388924062252045,0.8830127716064453,0.3593027591705322
1751214976122523100,8.201523193359375,0.09174017608165741,1.0957527160644531,0.21406054496765137
1751214976132516900,8.211516845703125,0.11194643378257751,1.2536859512329102,0.02460932731628418
1751214976142510600,8.221510498046875,0.17148490250110626,1.371194839477539,-0.15220975875854492
1751214976152504300,8.23150439453125,0.23451825976371765,1.3820199966430664,-0.3627338409423828
1751214976162498000,8.241498046875,0.31157881021499634,1.3535346984863281,-0.5776948928833008
1751214976172491800,8.25149169921875,0.4410756826400757,1.4105472564697266,-0.8194825649261475
1751214976182485500,8.261485595703125,0.5284814834594727,1.4815893173217773,-1.0152204036712646
1751214976192479200,8.271479248046875,0.5814309120178223,1.5763449668884277,-1.1214675903320312
1751214976202473000,8.281472900390625,0.6711825132369995,1.5943760871887207,-1.076474905014038
1751214976222460400,8.30146044921875,0.6596559286117554,1.5201787948608398,-0.8549356460571289
1751214976232454100,8.3114541015625,0.5506002902984619,1.4040327072143555,-0.6359449625015259
1751214976242448100,8.3214482421875,0.47389763593673706,1.1538400650024414,-0.25878965854644775
1751214976252441900,8.33144189453125,0.4256457984447479,0.8746366500854492,0.15061736106872559
1751214976272429300,8.35142919921875,0.41941431164741516,0.31432342529296875,0.8136506080627441
1751214976282423000,8.361423095703126,0.3715668022632599,0.10918331146240234,1.0178673267364502
1751214976292416800,8.371416748046874,0.2836471199989319,-0.006560325622558594,1.1510859727859497
1751214976302410500,8.381410400390624,0.024270325899124146,0.05294990539550781,1.2193316221237183
1751214976312404200,8.391404296875,-0.370731920003891,0.19653606414794922,1.3231886625289917
1751214976322398000,8.40139794921875,-0.9956518411636353,0.3427591323852539,1.5192617177963257
1751214976332391700,8.4113916015625,-1.7734953165054321,0.5489110946655273,1.7110459804534912
1751214976342385400,8.421385498046876,-2.759418487548828,0.838836669921875,1.8791110515594482
1751214976352379100,8.431379150390624,-3.9591169357299805,1.1744117736816406,2.06679630279541
1751214976362373000,8.441373046875,-5.03158712387085,1.536947250366211,2.164576768875122
1751214976372366800,8.451366943359375,-5.587065696716309,1.9461865425109863,2.1916606426239014
1751214976382360600,8.461360595703125,-5.462953090667725,2.3786449432373047,2.1985297203063965
1751214976392354300,8.471354248046875,-4.6836700439453125,2.820089817047119,2.144566774368286
1751214976402348000,8.48134814453125,-3.6236019134521484,3.2462568283081055,2.2178101539611816
1751214976412341800,8.491341796875,-2.62593412399292,3.651806354522705,2.34272837638855
1751214976422335500,8.50133544921875,-1.8429511785507202,4.02203369140625,2.351834774017334
1751214976432329200,8.5113291015625,-1.1575300693511963,4.199179649353027,2.2181801795959473
1751214976442323000,8.521322998046875,-0.5601073503494263,3.725097179412842,2.0964231491088867
1751214976452316700,8.531316650390625,-0.06259474158287048,1.884549617767334,2.3833096027374268
1751214976462310400,8.541310302734376,1.1894854307174683,-1.036972999572754,2.7730565071105957
1751214976472304400,8.551304443359374,1.7328423261642456,-3.197129249572754,3.046865940093994
1751214976482298000,8.561298095703124,1.5682967901229858,-4.799698829650879,3.2751452922821045
1751214976492291800,8.571291748046875,1.8172016143798828,-5.762609481811523,3.1343302726745605
1751214976502285600,8.58128564453125,2.3210055828094482,-5.634596824645996,1.9157904386520386
1751214976512279300,8.591279296875,2.95013427734375,-4.525694847106934,0.07460582256317139
1751214976522273000,8.60127294921875,3.273622751235962,-3.5860090255737305,-1.117121934890747
1751214976532266800,8.611266845703126,2.5092275142669678,-3.530331611633301,-1.359132170677185
1751214976542260500,8.621260498046874,1.786763072013855,-3.7539634704589844,-1.5691964626312256
1751214976552254200,8.631254150390625,1.4147377014160156,-4.2705888748168945,-1.525719165802002
1751214976562248000,8.641248046875,1.5231261253356934,-5.447840690612793,-1.1824231147766113
1751214976572241700,8.65124169921875,2.1850783824920654,-8.655299186706543,0.12052416801452637
1751214976582235400,8.6612353515625,2.6622507572174072,-11.38627815246582,1.523485541343689
1751214976592229400,8.6712294921875,2.23694109916687,-9.810015678405762,1.6203019618988037
1751214976602223000,8.68122314453125,1.3118797540664673,-5.418108940124512,1.544256329536438
1751214976612216800,8.691216796875,0.71881103515625,-2.959135055541992,1.7639694213867188
1751214976622210600,8.70121044921875,0.3432180881500244,-1.6467247009277344,1.1048434972763062
1751214976632204300,8.711204345703125,-0.22486135363578796,-0.7989587783813477,-0.19057869911193848
1751214976642198000,8.721197998046875,-0.7916836142539978,0.0650014877319336,-1.7398569583892822
1751214976652191700,8.731191650390626,-0.8574687838554382,0.7996463775634766,-3.098111152648926
1751214976662185500,8.741185546875,-0.5347721576690674,1.048354148864746,-3.8486576080322266
1751214976672179200,8.75117919921875,-0.3097642660140991,1.1946687698364258,-4.2073822021484375
1751214976682173000,8.7611728515625,-0.08696627616882324,1.2528448104858398,-4.284348487854004
1751214976692166700,8.771166748046875,0.2521710991859436,1.3657894134521484,-4.2021684646606445
1751214976702160400,8.781160400390625,0.48609232902526855,1.1843843460083008,-3.8526182174682617
1751214976712154400,8.791154296875,0.6422251462936401,0.6656475067138672,-3.3031301498413086
1751214976722148000,8.801148193359374,1.2321186065673828,0.07303333282470703,-2.871804714202881
1751214976732141800,8.811141845703125,2.1765172481536865,-0.5785932540893555,-2.5841121673583984
1751214976742135600,8.821135498046875,2.3070223331451416,-1.0167980194091797,-2.2351601123809814
1751214976752129300,8.83112939453125,1.9667692184448242,-0.9698066711425781,-1.9256422519683838
1751214976762123000,8.841123046875,1.6614727973937988,-0.5822896957397461,-1.5406320095062256
1751214976772116700,8.85111669921875,1.3442176580429077,-0.12291431427001953,-1.1086639165878296
1751214976782110500,8.8611103515625,1.1498891115188599,0.21612167358398438,-0.5183959007263184
1751214976792104200,8.871104248046874,1.0889849662780762,0.38146305084228516,0.12938261032104492
1751214976802098000,8.881097900390625,0.9758478403091431,0.5159339904785156,0.6866885423660278
1751214976812091600,8.891091552734375,0.7548343539237976,0.6525182723999023,1.116907000541687
1751214976822085600,8.901085693359375,0.4804190993309021,0.7480487823486328,1.4806326627731323
1751214976832079400,8.911079345703126,0.10606396198272705,0.7690801620483398,1.7953057289123535
1751214976842073000,8.921072998046874,-0.26666128635406494,0.7300682067871094,2.135366916656494
1751214976852066800,8.93106689453125,-0.6266354322433472,0.6742916107177734,2.4084770679473877
1751214976862060500,8.941060546875,-0.9623399972915649,0.5973310470581055,2.6808345317840576
1751214976872054300,8.95105419921875,-1.247692584991455,0.5856084823608398,2.870161294937134
1751214976882048000,8.961048095703125,-1.5430502891540527,0.7111024856567383,2.9482455253601074
1751214976892041700,8.971041748046876,-1.8420085906982422,0.8115339279174805,2.963108777999878
1751214976902035500,8.981035400390626,-2.210017204284668,0.9065427780151367,2.9010186195373535
1751214976912029200,8.991029296875,-2.739907741546631,1.0350141525268555,2.8539175987243652
1751214976922023000,9.00102294921875,-3.5617167949676514,1.3170604705810547,2.8370282649993896
1751214976932016600,9.0110166015625,-4.740429401397705,1.7720236778259277,2.8829405307769775
1751214976942010600,9.0210107421875,-5.872751235961914,2.098939895629883,3.135647773742676
1751214976952004400,9.03100439453125,-6.50716495513916,2.2321691513061523,3.3025259971618652
1751214976961998000,9.040998046875,-6.058038711547852,2.350409507751465,2.9506053924560547
1751214976971991800,9.05099169921875,-4.841547012329102,2.401089668273926,2.2669100761413574
1751214976981985500,9.060985595703125,-3.4567201137542725,2.3727474212646484,1.5528645515441895
1751214976991979300,9.070979248046875,-2.0863776206970215,2.2675962448120117,0.8689060807228088
1751214977001973000,9.080972900390625,-0.8125090599060059,2.0358800888061523,0.3061326742172241
1751214977011966700,9.090966796875,0.29371875524520874,1.5763015747070312,-0.08207535743713379
1751214977021960400,9.10096044921875,1.3854584693908691,0.9941501617431641,-0.33931756019592285
1751214977031954200,9.1109541015625,2.386789321899414,0.4473094940185547,-0.4775005578994751
1751214977041948000,9.120947998046875,3.1836118698120117,0.22742462158203125,-0.5551894903182983
1751214977051942000,9.13094189453125,3.747688055038452,0.11028385162353516,-0.48735809326171875
1751214977061935600,9.140935546875,4.015896320343018,-0.15626907348632812,-0.2777911424636841
1751214977071929300,9.150929443359376,3.984856128692627,-0.2697277069091797,-0.08871269226074219
1751214977081923000,9.160923095703126,3.5971219539642334,-0.21028995513916016,0.1662977933883667
1751214977091916800,9.170916748046874,2.864753007888794,-0.006957054138183594,0.5419061183929443
1751214977101910500,9.18091064453125,1.40877103805542,0.46830177307128906,0.9010554552078247
1751214977111904300,9.190904296875,-0.7271742820739746,1.2094221115112305,1.175284504890442
1751214977121898000,9.20089794921875,-2.893331527709961,1.8811287879943848,1.1206287145614624
1751214977131891700,9.2108916015625,-4.364802837371826,2.3984971046447754,0.40626049041748047
1751214977141885400,9.220885498046876,-3.998772144317627,2.7973713874816895,-0.5386875867843628
1751214977151879200,9.230879150390624,-2.053520441055298,3.0124692916870117,-0.9595310688018799
1751214977161873000,9.240872802734375,-0.8437628149986267,2.9812612533569336,-0.49454617500305176
1751214977171867000,9.250866943359375,-0.9341417551040649,2.6784186363220215,0.6339662075042725
1751214977181860600,9.260860595703125,-1.273622751235962,1.9015331268310547,2.107245922088623
1751214977191854300,9.270854248046875,-1.3192135095596313,0.4720582962036133,3.8889966011047363
1751214977201848000,9.28084814453125,-1.340579867362976,-1.7885818481445312,5.633548736572266
1751214977211841800,9.290841796875,-1.9534741640090942,-4.732585906982422,6.903642177581787
1751214977221835500,9.30083544921875,-1.585126280784607,-7.743400573730469,7.21629524230957
1751214977231829200,9.310829345703125,-0.1705276072025299,-9.058188438415527,6.261386871337891
1751214977241823000,9.320822998046875,0.8874374628067017,-8.080459594726562,4.748924255371094
1751214977251816700,9.330816650390625,1.5010887384414673,-6.440993309020996,3.319025993347168
1751214977261810400,9.340810546875,2.3809828758239746,-5.099597930908203,1.7835841178894043
1751214977271804200,9.35080419921875,2.8202548027038574,-3.9910011291503906,-0.08879351615905762
1751214977281798000,9.3607978515625,2.727121353149414,-3.1397552490234375,-1.8526644706726074
1751214977291792000,9.3707919921875,2.5628345012664795,-2.2911148071289062,-3.3387584686279297
1751214977301785600,9.38078564453125,2.5291876792907715,-1.315657615661621,-4.604616165161133
1751214977311779300,9.390779296875,2.6362578868865967,-0.8667993545532227,-5.224333763122559
1751214977321773000,9.40077294921875,2.84893798828125,-1.2582311630249023,-5.168612003326416
1751214977331766800,9.410766845703124,3.096017360687256,-2.354048728942871,-4.72020959854126
1751214977341760500,9.420760498046874,2.9273319244384766,-3.407094955444336,-4.2709150314331055
1751214977351754200,9.430754150390625,2.207894802093506,-3.9114503860473633,-3.996190309524536
1751214977361748000,9.440748046875,0.8924445509910583,-3.7446956634521484,-3.9687306880950928
1751214977371741700,9.45074169921875,-0.5974365472793579,-2.85593318939209,-4.119316101074219
1751214977381735400,9.4607353515625,-1.5016562938690186,-1.7209529876708984,-4.131633758544922
1751214977391729200,9.470729248046876,-1.6988005638122559,-0.7329635620117188,-4.163050174713135
1751214977401723100,9.48072314453125,-1.2342876195907593,0.09898853302001953,-4.364455223083496
1751214977411716900,9.490716796875,-0.4556970000267029,0.732940673828125,-4.51376485824585
1751214977421710600,9.500710693359375,0.1834573745727539,1.1552376747131348,-4.5059814453125
1751214977431704300,9.510704345703125,0.33071380853652954,1.405257225036621,-4.470444679260254
1751214977441698000,9.520697998046876,-0.025216102600097656,1.4835577011108398,-4.326929569244385
1751214977451691800,9.53069189453125,-0.35773396492004395,1.4139022827148438,-4.029781818389893
1751214977461685500,9.540685546875,-0.42583370208740234,1.3102540969848633,-3.6248767375946045
1751214977471679200,9.55067919921875,-0.3025449514389038,1.2003998756408691,-3.18135929107666
1751214977481673000,9.5606728515625,-0.11806392669677734,1.1455445289611816,-2.792084217071533
1751214977491666700,9.570666748046875,0.0557856559753418,1.1355280876159668,-2.5151004791259766
1751214977501660400,9.580660400390625,0.11001473665237427,1.050642967224121,-2.3595919609069824
1751214977511654100,9.590654052734376,0.09107023477554321,0.9287824630737305,-2.296555995941162
1751214977521648000,9.600648193359374,0.06328970193862915,0.9035739898681641,-2.2918381690979004
1751214977531641900,9.610641845703125,0.01341015100479126,0.9365444183349609,-2.234726905822754
1751214977541635600,9.620635498046875,0.013056397438049316,0.9126262664794922,-2.073110580444336
1751214977551629300,9.63062939453125,0.12926596403121948,0.7743186950683594,-1.7550406455993652
1751214977561623000,9.640623046875,0.3724405765533447,0.5499286651611328,-1.3584281206130981
1751214977571616800,9.65061669921875,0.6814022064208984,0.3013267517089844,-0.8554782867431641
1751214977581610500,9.660610595703124,0.9796594381332397,0.1044626235961914,-0.18111276626586914
1751214977591604200,9.670604248046875,1.118302583694458,0.07323741912841797,0.5376758575439453
1751214977601598000,9.680597900390625,1.0004758834838867,0.11600208282470703,1.111922264099121
1751214977611591700,9.690591796875,0.654391884803772,0.3185739517211914,1.4074649810791016
1751214977621585400,9.70058544921875,0.1617226004600525,0.6234912872314453,1.4397625923156738
1751214977631579100,9.7105791015625,-0.15995025634765625,0.9640207290649414,1.2732741832733154
1751214977641573000,9.720572998046874,-0.2752261161804199,1.3167705535888672,0.9734175205230713
1751214977651566800,9.73056689453125,-0.2735876441001892,1.5865159034729004,0.6713860034942627
1751214977661560600,9.740560546875,-0.15344861149787903,1.7542939186096191,0.5059716701507568
1751214977671554300,9.75055419921875,-0.0804566740989685,1.8392796516418457,0.4381721019744873
1751214977681548000,9.760548095703125,-0.0728173553943634,1.8272356986999512,0.4194447994232178
1751214977691541800,9.770541748046876,-0.07350882887840271,1.7422022819519043,0.3820345401763916
1751214977701535500,9.780535400390624,-0.07889074087142944,1.546095848083496,0.4063647985458374
1751214977711529200,9.790529296875,-0.06671389937400818,1.3584165573120117,0.5047136545181274
1751214977771491800,9.850491943359375,-0.8726327419281006,0.810053825378418,0.9267268180847168
1751214977781485600,9.860485595703125,-1.0375208854675293,0.8541860580444336,0.9707680344581604
1751214977791479300,9.870479248046875,-1.1219476461410522,1.0595464706420898,0.8856925368309021
1751214977801473000,9.88047314453125,-1.138858437538147,1.3063688278198242,0.709810733795166
1751214977811466800,9.890466796875,-1.1503313779830933,1.4656600952148438,0.543414294719696
1751214977821460500,9.90046044921875,-1.1145628690719604,1.5090351104736328,0.31426411867141724
1751214977831454200,9.9104541015625,-1.0477904081344604,1.5229711532592773,-0.023357927799224854
1751214977841448000,9.920447998046875,-1.0486751794815063,1.522047996520996,-0.37587445974349976
1751214977851441700,9.930441650390625,-1.3909416198730469,1.5303668975830078,-0.6244540214538574
1751214977861435400,9.940435302734375,-2.2965030670166016,1.5622425079345703,-0.7144733667373657
1751214977871429400,9.950429443359376,-3.2534122467041016,1.521988868713379,-0.6517109870910645
1751214977881423000,9.960423095703124,-3.8557262420654297,1.2954607009887695,-0.36176973581314087
1751214977891416800,9.970416748046874,-3.936969757080078,1.117361068725586,0.38221240043640137
1751214977901410600,9.98041064453125,-3.4526519775390625,1.1068696975708008,1.2844494581222534
1751214977911404300,9.990404296875,-2.2488200664520264,1.1726617813110352,1.9836726188659668
1751214977921398000,10.00039794921875,-0.5951952934265137,0.8079118728637695,2.6228115558624268
1751214977931391700,10.010391845703126,1.0329182147979736,-0.17296409606933594,3.117760419845581
1751214977941385500,10.020385498046876,2.3998115062713623,-2.146151542663574,3.5509979724884033
1751214977951379200,10.030379150390624,2.7613773345947266,-4.173094749450684,4.068819999694824
1751214977961373000,10.040373046875,2.0738813877105713,-5.66081428527832,4.8306379318237305
1751214977971366700,10.05036669921875,1.0824952125549316,-6.595561981201172,5.455202579498291
1751214977981360400,10.0603603515625,0.5610747337341309,-7.332393646240234,5.508571624755859
1751214977991354400,10.070354248046876,0.058408379554748535,-7.1473188400268555,4.303150177001953
1751214978001348000,10.08034814453125,-1.278235673904419,-5.604111671447754,2.139242172241211
1751214978011341800,10.090341796875,-3.0984177589416504,-4.018373489379883,0.36556512117385864
1751214978021335600,10.10033544921875,-3.7229232788085938,-2.8803930282592773,-0.558026909828186
1751214978031329300,10.110329345703125,-3.508622884750366,-1.7241058349609375,-1.3868967294692993
1751214978041323000,10.120322998046875,-2.890191078186035,-1.031876564025879,-2.065605401992798
1751214978051316700,10.130316650390625,-1.8705637454986572,-1.1808891296386719,-2.6519503593444824
1751214978061310500,10.140310546875,-0.4158172905445099,-2.423203468322754,-2.6751089096069336
1751214978071304200,10.15030419921875,1.0365070104599,-4.255202293395996,-2.0837297439575195
1751214978081298000,10.1602978515625,2.2062759399414062,-5.328949928283691,-1.1139124631881714
1751214978091291600,10.170291748046875,3.23931622505188,-5.221164703369141,-0.028940200805664062
1751214978101285600,10.18028564453125,4.1410112380981445,-4.473703384399414,0.8485541343688965
1751214978111279400,10.190279296875,4.44842529296875,-3.5934267044067383,1.2108979225158691
1751214978121273000,10.200273193359376,4.4139628410339355,-2.6712169647216797,1.2709500789642334
1751214978131266800,10.210266845703124,4.467145919799805,-1.5549287796020508,1.077994704246521
1751214978141260500,10.220260498046875,4.113591194152832,-0.49898433685302734,0.5737621784210205
1751214978151254300,10.230254150390625,3.153684616088867,0.10430335998535156,-0.18776190280914307
1751214978161248000,10.240248046875,2.276954412460327,0.556732177734375,-1.2128584384918213
1751214978171241700,10.25024169921875,1.5746183395385742,1.0026588439941406,-2.3387608528137207
1751214978181235500,10.2602353515625,1.187683343887329,1.3765020370483398,-3.2410831451416016
1751214978191229200,10.270229248046874,1.1394538879394531,1.674901008605957,-3.8596949577331543
1751214978201223000,10.280222900390624,1.2095000743865967,1.6692180633544922,-4.138139247894287
1751214978211216600,10.290216552734375,1.5045515298843384,1.4603328704833984,-4.2177653312683105
1751214978221210600,10.300210693359375,3.1094958782196045,1.118356704711914,-4.143415451049805
1751214978231204400,10.310204345703125,3.8388328552246094,0.8995761871337891,-4.016138076782227
1751214978241198000,10.320197998046876,2.7568483352661133,0.9952402114868164,-3.5622353553771973
1751214978251191800,10.33019189453125,1.2542502880096436,0.9278707504272461,-2.786395788192749
1751214978261185500,10.340185546875,-0.5435773134231567,0.6071672439575195,-1.8614894151687622
1751214978271179300,10.35017919921875,-1.8686461448669434,0.39643096923828125,-1.07130765914917
1751214978281173000,10.360173095703125,-2.67039155960083,0.42432117462158203,-0.5296833515167236
1751214978291166700,10.370166748046875,-3.0605010986328125,0.41852760314941406,-0.1405324935913086
1751214978301160400,10.380160400390626,-3.1292295455932617,0.35613155364990234,0.16744989156723022
1751214978311154200,10.390154296875,-2.973937511444092,0.28577518463134766,0.43282151222229004
1751214978321148000,10.40014794921875,-2.6354217529296875,0.14542388916015625,0.7433543801307678
1751214978331142000,10.410141845703125,-2.1099274158477783,-0.16094017028808594,1.2476463317871094
1751214978341135600,10.420135498046875,-1.644529104232788,-0.5196447372436523,1.8903000354766846
1751214978351129300,10.43012939453125,-1.5350316762924194,-0.8264980316162109,2.5431437492370605
1751214978361123000,10.440123046875,-1.5266618728637695,-0.92816162109375,3.083054542541504
1751214978371116800,10.45011669921875,-1.6369032859802246,-0.8577690124511719,3.534456729888916
1751214978381110500,10.460110595703124,-1.8026366233825684,-0.6913623809814453,3.8021974563598633
1751214978391104300,10.470104248046875,-1.957568645477295,-0.21828174591064453,3.794132709503174
1751214978401098000,10.480097900390625,-2.157745838165283,0.3699655532836914,3.554870128631592
1751214978411091700,10.490091796875,-2.4671499729156494,1.1207008361816406,3.1705541610717773
1751214978421085400,10.50008544921875,-2.8597517013549805,1.7896761894226074,2.7859063148498535
1751214978431079200,10.5100791015625,-3.1699934005737305,2.262139320373535,2.5414648056030273
1751214978441073000,10.520072998046874,-3.0564517974853516,2.5433688163757324,2.2388100624084473
1751214978451067000,10.53006689453125,-2.599231719970703,2.695830821990967,1.7860174179077148
1751214978461060600,10.540060546875,-2.0248160362243652,2.709847927093506,1.318575382232666
1751214978471054300,10.550054443359375,-1.4463751316070557,2.4705734252929688,1.0109930038452148
1751214978481048000,10.560048095703126,-0.7782431840896606,1.9973149299621582,0.7572932243347168
1751214978491041800,10.570041748046876,0.06992131471633911,1.533797264099121,0.4803323745727539
1751214978501035500,10.580035400390624,1.1337573528289795,1.2179508209228516,0.2138751745223999
1751214978511029200,10.590029296875,2.145819664001465,1.2636184692382812,0.0032546520233154297
1751214978521023000,10.60002294921875,2.908585548400879,1.3828353881835938,-0.0495375394821167
1751214978531016700,10.6100166015625,3.248885154724121,1.2601919174194336,0.0006395578384399414
1751214978541010400,10.620010498046875,3.163196086883545,1.0687580108642578,-0.09372639656066895
1751214978551004200,10.630004150390626,2.6289491653442383,0.8667593002319336,-0.2277311086654663
1751214978560998000,10.639997802734374,1.6846625804901123,0.774165153503418,-0.3175342082977295
1751214978570991900,10.649991943359375,0.46623870730400085,0.7101564407348633,-0.21831941604614258
1751214978580985600,10.659985595703125,-0.8499025106430054,0.6079921722412109,0.0769416093826294
1751214978590979300,10.669979248046875,-2.163426160812378,0.6160554885864258,0.3417651653289795
1751214978600973000,10.67997314453125,-3.220749855041504,0.6862211227416992,0.6458706855773926
1751214978610966800,10.689966796875,-3.8502089977264404,0.9660606384277344,0.7567479610443115
1751214978620960500,10.69996044921875,-4.302097320556641,1.4886302947998047,0.3202701807022095
1751214978630954200,10.709954345703125,-4.460123538970947,2.0297012329101562,-0.4400796890258789
1751214978640948000,10.719947998046875,-3.9079718589782715,2.3172197341918945,-0.9343533515930176
1751214978650941700,10.729941650390625,-3.0974936485290527,2.3603148460388184,-0.8401776552200317
1751214978660935400,10.739935302734375,-2.3926429748535156,2.253485679626465,-0.34350478649139404
1751214978670929200,10.74992919921875,-1.6829249858856201,1.880610466003418,0.4074728488922119
1751214978680923100,10.759923095703124,-0.8409590125083923,0.9352836608886719,1.3276824951171875
1751214978690916900,10.769916748046874,-0.39509856700897217,-0.787816047668457,2.4741110801696777
1751214978700910600,10.77991064453125,-0.2741432785987854,-2.9819421768188477,3.4465794563293457
1751214978710904300,10.789904296875,0.6112714409828186,-4.94406795501709,3.7871475219726562
1751214978720898000,10.79989794921875,1.5905003547668457,-6.012080192565918,3.530608892440796
1751214978730891800,10.809891845703126,2.0377116203308105,-6.231023788452148,2.997363805770874
1751214978740885500,10.819885498046874,3.1017894744873047,-6.268729209899902,2.4169466495513916
1751214978750879200,10.829879150390624,4.369052886962891,-5.9553680419921875,1.6723413467407227
1751214978760873000,10.839873046875,5.3529181480407715,-4.973267555236816,0.5649027824401855
1751214978770866700,10.84986669921875,5.606245994567871,-3.683720588684082,-1.0648252964019775
1751214978780860400,10.8598603515625,5.010682106018066,-2.5296945571899414,-2.8346073627471924
1751214978790854100,10.869854248046876,4.334085941314697,-1.6440038681030273,-4.515386581420898
1751214978800848100,10.87984814453125,4.342177391052246,-2.4603662490844727,-5.268311977386475
1751214978810841900,10.889841796875,4.204930782318115,-4.672943115234375,-4.924590110778809
1751214978820835600,10.899835693359375,2.909571647644043,-5.5935564041137695,-4.41869592666626
1751214978830829300,10.909829345703125,0.9131636619567871,-4.765909194946289,-3.5161619186401367
1751214978840823000,10.919822998046875,-0.33545589447021484,-3.177403450012207,-2.5340330600738525
1751214978850816800,10.929816650390626,-0.9168932437896729,-1.8221559524536133,-2.372126579284668
1751214978860810500,10.939810546875,-1.621636152267456,-0.858983039855957,-2.6183676719665527
1751214978870804200,10.94980419921875,-1.5525588989257812,-0.35979747772216797,-2.643554449081421
1751214978880798000,10.9597978515625,-0.9700822234153748,-0.06660652160644531,-2.4318552017211914
1751214978890791700,10.969791748046875,-0.7037302255630493,0.2780303955078125,-2.4032962322235107
1751214978900785400,10.979785400390625,-0.9174214601516724,0.7549428939819336,-2.7602651119232178
1751214978910779100,10.989779052734375,-1.1273151636123657,1.1249351501464844,-2.9967076778411865
1751214978920773000,10.999773193359376,-1.0590959787368774,1.4694147109985352,-3.1568102836608887
1751214978930766800,11.009766845703124,-0.9560705423355103,1.7942066192626953,-3.315882444381714
1751214978940760600,11.019760498046875,-0.9539687633514404,1.971890926361084,-3.472296953201294
1751214978950754300,11.02975439453125,-0.9334254264831543,1.8750133514404297,-3.4623873233795166
1751214978960748000,11.039748046875,-0.7559801340103149,1.523824691772461,-3.2230923175811768
1751214978970741800,11.04974169921875,-0.4322073459625244,1.0377006530761719,-2.7645206451416016
1751214978980735500,11.059735595703126,-0.08191442489624023,0.5733938217163086,-2.169684410095215
1751214978990729200,11.069729248046874,0.15011084079742432,0.19171428680419922,-1.5221683979034424
1751214979000723000,11.079722900390625,0.2509622573852539,-0.13772964477539062,-0.9503214359283447
1751214979010716700,11.089716552734375,0.1830117106437683,-0.4109535217285156,-0.6280169486999512
1751214979020710400,11.09971044921875,0.04339843988418579,-0.6419515609741211,-0.5148050785064697
1751214979030704400,11.109704345703125,0.010965824127197266,-0.8446187973022461,-0.364391565322876
1751214979040698000,11.119697998046876,0.1108168363571167,-0.8609285354614258,-0.20840048789978027
1751214979050691800,11.12969189453125,0.2143651843070984,-0.7385730743408203,-0.05440378189086914
1751214979060685600,11.139685546875,0.20615088939666748,-0.5637588500976562,0.1073758602142334
1751214979070679300,11.14967919921875,0.08922898769378662,-0.2936382293701172,0.20474839210510254
1751214979080673000,11.159673095703125,-0.019746720790863037,0.07648086547851562,0.18510150909423828
1751214979090666800,11.169666748046875,-0.04258686304092407,0.4747629165649414,0.15335345268249512
1751214979100660500,11.179660400390626,0.10467010736465454,0.8007965087890625,0.16172289848327637
1751214979110654200,11.189654296875,0.311696857213974,1.0162830352783203,0.26680731773376465
1751214979120648000,11.19964794921875,0.44146618247032166,1.1451101303100586,0.363114595413208
1751214979130641700,11.2096416015625,0.4108676314353943,1.2109041213989258,0.4641549587249756
1751214979140635400,11.219635498046875,0.241377592086792,1.2515230178833008,0.5635755062103271
1751214979150629400,11.22962939453125,-0.03585904836654663,1.3477678298950195,0.6262316703796387
1751214979160623000,11.239623046875,-0.3137095272541046,1.4897117614746094,0.6653823852539062
1751214979170616800,11.249616943359374,-0.5440647602081299,1.6103296279907227,0.6707233190536499
1751214979180610600,11.259610595703125,-0.7228353023529053,1.7146525382995605,0.5994787216186523
1751214979190604300,11.269604248046875,-0.8555049300193787,1.7791666984558105,0.45276594161987305
1751214979200598000,11.279597900390625,-0.9513978958129883,1.8091607093811035,0.2611699104309082
1751214979210591700,11.289591796875,-0.9670631885528564,1.8336853981018066,0.06920003890991211
1751214979220585500,11.29958544921875,-0.9546850919723511,1.848320484161377,-0.11182594299316406
1751214979230579200,11.3095791015625,-0.8812289834022522,1.8485026359558105,-0.23799192905426025
1751214979240573000,11.319572998046874,-0.7517720460891724,1.786384105682373,-0.23370027542114258
1751214979250566700,11.329566650390625,-0.6625268459320068,1.623779296875,-0.1383432149887085
1751214979260560400,11.339560302734375,-0.5145817995071411,1.542428970336914,-0.07671523094177246
1751214979270554400,11.349554443359375,-0.3101222515106201,1.4801340103149414,-0.005501151084899902
1751214979280548000,11.359548095703126,-0.09954555332660675,1.3556585311889648,0.04633033275604248
1751214979290541800,11.369541748046874,0.06756928563117981,1.250514030456543,0.05105698108673096
1751214979300535600,11.37953564453125,0.16704197227954865,1.1456775665283203,0.038683414459228516
1751214979310529300,11.389529296875,0.2269170731306076,0.9456157684326172,0.21504449844360352
1751214979320523000,11.39952294921875,0.23078413307666779,0.6456203460693359,0.5789140462875366
1751214979330516700,11.409516845703125,0.1498517543077469,0.44608020782470703,0.9501354694366455
1751214979340510500,11.419510498046876,0.11598693579435349,0.3271665573120117,1.27763032913208
1751214979350504200,11.429504150390626,-0.0023520365357398987,0.26451969146728516,1.3870701789855957
1751214979360498000,11.439497802734374,-0.3923432528972626,0.3009967803955078,1.2119253873825073
1751214979370491600,11.44949169921875,-1.168838620185852,0.4699573516845703,0.7220803499221802
1751214979380485600,11.459485595703125,-2.0614020824432373,0.8242368698120117,-0.03963059186935425
1751214979390479400,11.469479248046875,-2.952019691467285,1.1778383255004883,-0.5478613376617432
1751214979400473000,11.47947314453125,-3.652677297592163,1.5360937118530273,-0.5384290218353271
1751214979410466800,11.489466796875,-3.896871328353882,2.00899076461792,-0.20475554466247559
1751214979420460500,11.49946044921875,-3.5048553943634033,2.5865492820739746,0.3067852258682251
1751214979430454300,11.509454345703125,-2.448560953140259,3.272608757019043,0.8366970419883728
1751214979440448000,11.519447998046875,-1.188394546508789,3.7509264945983887,1.386986255645752
1751214979450441700,11.529441650390625,-0.04958921670913696,3.744410991668701,1.8752355575561523
1751214979460435500,11.539435546875,0.8991332650184631,2.413275718688965,2.613929510116577
1751214979470429200,11.54942919921875,1.677475929260254,-0.4111337661743164,3.5524816513061523
1751214979480423000,11.5594228515625,1.9989609718322754,-3.105099678039551,4.234781265258789
1751214979490416600,11.569416748046875,1.9835264682769775,-4.259273529052734,4.5238847732543945
1751214979500410600,11.57941064453125,1.8461673259735107,-4.809201240539551,4.640639781951904
1751214979510404400,11.589404296875,1.943469762802124,-5.244836807250977,4.609160900115967
1751214979520398000,11.599398193359375,1.9037365913391113,-5.171072006225586,3.9291880130767822
1751214979530391800,11.609391845703126,1.4208557605743408,-4.995142936706543,2.9433553218841553
1751214979540385500,11.619385498046874,0.9365190863609314,-4.8743486404418945,1.7659885883331299
1751214979550379300,11.629379150390625,0.26502957940101624,-4.554600715637207,0.8278930187225342
1751214979560373000,11.639373046875,-0.21906760334968567,-4.098031997680664,0.24360251426696777
1751214979570366700,11.64936669921875,-0.5395181775093079,-3.652277946472168,-0.2520127296447754
1751214979580360400,11.6593603515625,-0.6976898908615112,-3.1546859741210938,-0.6671227216720581
1751214979590354200,11.669354248046876,-0.7521975636482239,-2.677140235900879,-0.9695307612419128
1751214979600348000,11.679347900390624,-0.37805411219596863,-2.726459503173828,-1.2091832160949707
1751214979610342000,11.689341796875,0.25493818521499634,-4.0323638916015625,-1.219464898109436
1751214979620335600,11.699335693359375,0.8683981895446777,-6.123376846313477,-0.9912398457527161
1751214979630329300,11.709329345703125,1.3094761371612549,-7.167971611022949,-1.0935879945755005
1751214979640323000,11.719322998046875,1.3718278408050537,-6.208331108093262,-1.772585153579712
1751214979650316800,11.72931689453125,1.3227230310440063,-4.295085906982422,-2.6717262268066406
1751214979660310500,11.739310546875,1.3311939239501953,-2.5197744369506836,-3.433366298675537
1751214979670304300,11.74930419921875,1.3281784057617188,-0.9246807098388672,-4.204833984375
1751214979680298000,11.759298095703125,1.548161506652832,0.43965816497802734,-5.07982063293457
1751214979690291700,11.769291748046875,2.1030378341674805,1.4418392181396484,-5.7496795654296875
1751214979700285400,11.779285400390625,3.042574644088745,2.074282646179199,-6.081433296203613
1751214979710279200,11.789279052734376,2.6124587059020996,2.0463571548461914,-5.743521213531494
1751214979770241800,11.84924169921875,1.9863929748535156,-0.22334861755371094,0.5200320482254028
1751214979780235500,11.859235595703124,1.7408603429794312,-0.1730947494506836,1.7708070278167725
1751214979790229200,11.869229248046874,1.318143606185913,0.025491714477539062,2.5581557750701904
1751214979800223000,11.879222900390625,0.8161925673484802,0.14208221435546875,2.9067635536193848
1751214979810216700,11.889216796875,0.16743838787078857,0.28249549865722656,2.758045196533203
1751214979820210400,11.89921044921875,-0.48102807998657227,0.42427730560302734,2.329277276992798
1751214979830204200,11.9092041015625,-1.0009684562683105,0.49257564544677734,1.8902006149291992
1751214979840198000,11.919197998046876,-1.3881399631500244,0.4793739318847656,1.514501929283142
1751214979850192000,11.92919189453125,-1.6421147584915161,0.39548683166503906,1.2106072902679443
1751214979860185600,11.939185546875,-1.7807046175003052,0.0790090560913086,1.1105725765228271
1751214979870179300,11.949179443359375,-1.8522411584854126,-0.1926107406616211,1.2026143074035645
1751214979880173000,11.959173095703125,-1.8233528137207031,-0.38632774353027344,1.5895925760269165
1751214979890166800,11.969166748046876,-1.7065894603729248,-0.6175994873046875,2.182328701019287
1751214979900160500,11.979160400390626,-1.5264452695846558,-0.5763816833496094,2.6790719032287598
1751214979910154200,11.989154296875,-1.4143058061599731,-0.2393970489501953,2.9278595447540283
1751214979920148000,11.99914794921875,-1.5019060373306274,0.15386676788330078,2.935429811477661
1751214979930141700,12.0091416015625,-1.7503809928894043,0.46001434326171875,2.682692050933838
1751214979940135400,12.019135498046875,-2.134324073791504,0.6605920791625977,2.2730894088745117
1751214979950129200,12.029129150390625,-2.512643814086914,0.7517576217651367,1.8821825981140137
1751214979960123100,12.039123046875,-2.767909049987793,0.8061199188232422,1.569793462753296
1751214979970116900,12.049116943359374,-2.837179183959961,0.9291467666625977,1.3278577327728271
1751214979980110600,12.059110595703125,-2.673910140991211,1.1013946533203125,1.1233915090560913
1751214979990104300,12.069104248046875,-2.2999720573425293,1.3174877166748047,0.9229801893234253
1751214980000098000,12.07909814453125,-1.7760939598083496,1.5050268173217773,0.6687706708908081
1751214980010091800,12.089091796875,-1.1424124240875244,1.6062917709350586,0.3789254426956177
1751214980020085500,12.09908544921875,-0.45562201738357544,1.6548757553100586,0.010081171989440918
1751214980030079200,12.109079345703124,0.254366397857666,1.6937103271484375,-0.3028857707977295
1751214980040073000,12.119072998046875,0.9687181711196899,1.7078137397766113,-0.5124034285545349
1751214980050066700,12.129066650390625,1.7673556804656982,1.6822080612182617,-0.6185827255249023
1751214980060060400,12.139060302734375,2.4955649375915527,1.607213020324707,-0.6990438103675842
1751214980070054000,12.149053955078125,2.7579634189605713,1.5930166244506836,-0.7297165989875793
1751214980080047600,12.159047607421876,2.521815776824951,1.5774288177490234,-0.8058356642723083
1751214980090041300,12.169041259765624,1.9407134056091309,1.6564760208129883,-1.0241899490356445
1751214980100035000,12.17903515625,1.35849928855896,1.7159810066223145,-1.2699931859970093
1751214980110028800,12.18902880859375,0.885138988494873,1.6705965995788574,-1.3493459224700928
1751214980120022500,12.1990224609375,0.6103153824806213,1.5542173385620117,-1.257066249847412
1751214980130016300,12.209016357421875,0.37200289964675903,1.472085952758789,-0.9826483130455017
1751214980140010000,12.219010009765626,0.22434836626052856,1.313918113708496,-0.3697429895401001
1751214980150003700,12.229003662109376,-0.3094719648361206,1.131937026977539,0.44823384284973145
1751214980159997200,12.2389970703125,-1.46902596950531,0.9115324020385742,1.3575118780136108
1751214980169991000,12.248990966796875,-2.569277763366699,0.6101045608520508,2.105748176574707
1751214980179984600,12.258984619140625,-3.1925811767578125,0.22849369049072266,2.584826707839966
1751214980189978400,12.268978271484375,-2.986619710922241,0.03942680358886719,2.602705478668213
1751214980199972000,12.27897216796875,-2.214089870452881,-0.03398418426513672,2.281729221343994
1751214980209965800,12.2889658203125,-1.5963525772094727,-0.07867050170898438,2.1083474159240723
1751214980219959600,12.29895947265625,-1.6449894905090332,0.1348867416381836,1.6956110000610352
1751214980239946800,12.31894677734375,-2.4457385540008545,1.0016555786132812,1.2444827556610107
1751214980249940500,12.3289404296875,-1.816920280456543,1.5283527374267578,1.756961464881897
1751214980269928000,12.348927978515626,-1.234036922454834,1.8038325309753418,3.231506824493408
1751214980279921700,12.358921630859374,-1.6729737520217896,1.1214370727539062,3.823528289794922
1751214980289915400,12.368915283203124,-2.0807459354400635,-0.5215539932250977,4.462798118591309
1751214980299909000,12.3789091796875,-1.8956263065338135,-2.7325220108032227,4.832925319671631
1751214980309902800,12.38890283203125,-0.7711498737335205,-5.07968807220459,4.382845401763916
1751214980319896600,12.398896484375,0.5823115110397339,-6.939743995666504,3.6605608463287354
1751214980329890300,12.408890380859376,1.5433392524719238,-7.456968307495117,3.1612226963043213
1751214980339884000,12.418884033203126,2.516810894012451,-6.828927040100098,2.8729443550109863
1751214980349877800,12.428877685546874,3.498439073562622,-5.756228446960449,2.570984125137329
1751214980359871500,12.43887158203125,3.993551731109619,-4.382999420166016,1.285320520401001
1751214980369865200,12.448865234375,3.5297207832336426,-3.0754785537719727,-0.754828691482544
1751214980379859000,12.45885888671875,2.867326259613037,-1.7560720443725586,-3.0521788597106934
1751214980389853000,12.46885302734375,2.5988657474517822,-0.8709182739257812,-4.50513219833374
1751214980399846700,12.4788466796875,2.544888973236084,-0.6913576126098633,-4.730186939239502
1751214980409840400,12.48884033203125,2.4320616722106934,-0.7913274765014648,-4.645174980163574
1751214980419834000,12.498834228515625,2.170642375946045,-1.2795085906982422,-4.618973731994629
1751214980429827800,12.508827880859375,2.1336331367492676,-1.8582658767700195,-4.681894302368164
1751214980439821600,12.518821533203125,2.29075288772583,-2.1916370391845703,-4.838590145111084
1751214980449815300,12.528815185546875,2.186826229095459,-2.2451562881469727,-4.954042434692383
1751214980459809000,12.53880908203125,1.6746429204940796,-1.9609298706054688,-4.79371452331543
1751214980469802800,12.548802734375,0.922150731086731,-1.4981536865234375,-4.3319830894470215
1751214980479796500,12.55879638671875,-0.020471632480621338,-0.9166669845581055,-3.945368766784668
1751214980489790200,12.568790283203125,-0.8062857389450073,-0.3184976577758789,-3.849008560180664
1751214980499784000,12.578783935546875,-1.1708184480667114,0.20024394989013672,-3.978823661804199
1751214980509778000,12.58877783203125,-1.2477524280548096,0.5207328796386719,-4.274977684020996
1751214980519771600,12.598771728515626,-1.2839797735214233,0.6402950286865234,-4.733964443206787
1751214980529765400,12.608765380859374,-1.1742452383041382,0.48456764221191406,-5.037206649780273
1751214980539759000,12.618759033203125,-0.8525170683860779,0.24557781219482422,-4.887747764587402
1751214980549752800,12.6287529296875,-0.36837875843048096,0.13277149200439453,-4.402797698974609
1751214980559746600,12.63874658203125,-0.008849799633026123,0.14901161193847656,-3.7636494636535645
1751214980569740300,12.648740234375,0.10691970586776733,0.23967552185058594,-3.1517930030822754
1751214980579734000,12.658734130859376,-0.0177154541015625,0.3789787292480469,-2.709707498550415
1751214980589727700,12.668727783203124,-0.30864161252975464,0.5323867797851562,-2.51982045173645
1751214980599721500,12.678721435546874,-0.661541223526001,0.6611051559448242,-2.4433531761169434
1751214980609715200,12.688715087890625,-1.0234198570251465,0.6931591033935547,-2.412994861602783
1751214980619709000,12.698708984375,-1.2688982486724854,0.5521812438964844,-2.260798454284668
1751214980629703000,12.708702880859375,-1.2215325832366943,0.26209068298339844,-1.887131690979004
1751214980639696600,12.718696533203126,-0.784066915512085,-0.10080718994140625,-1.2078256607055664
1751214980649690400,12.7286904296875,-0.11176013946533203,-0.3647956848144531,-0.45957374572753906
1751214980659684000,12.73868408203125,0.42612409591674805,-0.5014057159423828,0.15563559532165527
1751214980669677800,12.748677734375,0.7327926158905029,-0.5440235137939453,0.5947911739349365
1751214980679671600,12.758671630859375,0.8135986924171448,-0.5352687835693359,0.9022080898284912
1751214980689665300,12.768665283203125,0.6526919007301331,-0.36495399475097656,1.0793452262878418
1751214980699659000,12.778658935546876,0.5219048857688904,-0.0811767578125,1.2221264839172363
1751214980709652700,12.78865283203125,0.44550853967666626,0.20094013214111328,1.3442835807800293
1751214980719646500,12.798646484375,0.4386822283267975,0.49538326263427734,1.4111733436584473
1751214980729640200,12.80864013671875,0.4072776138782501,0.7302331924438477,1.422034740447998
1751214980739634200,12.81863427734375,0.2171565145254135,0.89569091796875,1.3995146751403809
1751214980749628000,12.8286279296875,0.031660109758377075,0.9392404556274414,1.3001636266708374
1751214980759621600,12.83862158203125,-0.07458803057670593,0.9425630569458008,1.0672730207443237
1751214980769615400,12.848615478515624,-0.02386564016342163,0.9204511642456055,0.8791490793228149
1751214980779609000,12.858609130859374,0.2022993415594101,0.9735174179077148,0.7840319871902466
1751214980789602800,12.868602783203125,0.5198702216148376,0.9918689727783203,0.8342138528823853
1751214980799596500,12.878596435546875,0.7955149412155151,1.0235719680786133,0.876738429069519
1751214980809590300,12.88859033203125,0.9397175908088684,1.064072608947754,0.8932684659957886
1751214980819584000,12.898583984375,0.9832484722137451,1.0706233978271484,0.9327871799468994
1751214980829577700,12.90857763671875,0.8101664781570435,1.057748794555664,0.952843189239502
1751214980839571500,12.918571533203124,0.5113268494606018,0.9777669906616211,1.0399128198623657
1751214980849565200,12.928565185546875,0.202407568693161,0.8355751037597656,1.1939351558685303
1751214980859559200,12.93855908203125,-0.039271049201488495,0.7457809448242188,1.3612509965896606
1751214980869553000,12.948552978515625,-0.12710681557655334,0.7320404052734375,1.5318259000778198
1751214980879546600,12.958546630859376,-0.07016409188508987,0.7129230499267578,1.6959929466247559
1751214980889540400,12.968540283203126,0.09294100105762482,0.6930532455444336,1.9861286878585815
