time,seconds_elapsed,z,y,x
1751214968008472300,0.087472412109375,7.791929244995117,-1.4071919918060303,1.84233820438385
1751214968018277400,0.09727734375,6.025008678436279,-2.407968282699585,1.3922282457351685
1751214968037887700,0.1168876953125,2.979583978652954,-4.409521102905273,0.43933600187301636
1751214968047693000,0.126693115234375,2.9029695987701416,-4.419097900390625,-0.2932897210121155
1751214968057501000,0.1365009765625,2.850297212600708,-4.462193489074707,-1.2270283699035645
1751214968067318500,0.146318603515625,2.409764051437378,-5.166088581085205,-1.4856021404266357
1751214968077152500,0.156152587890625,1.5622166395187378,-6.162076473236084,-0.9780313968658447
1751214968087008800,0.1660087890625,0.21667525172233582,-7.220313549041748,-0.2645592987537384
1751214968096892200,0.17589208984375,-1.0761936902999878,-8.589797019958496,1.1863269805908203
1751214968106805500,0.185805419921875,-1.655590534210205,-9.9401273727417,3.1016883850097656
1751214968116751000,0.195751220703125,-2.163161277770996,-10.720636367797852,4.772840976715088
1751214968126729700,0.205729736328125,-2.981978178024292,-11.017518043518066,6.161478042602539
1751214968136740400,0.215740234375,-3.623624324798584,-11.051036834716797,6.592434406280518
1751214968146781200,0.22578125,-3.5661635398864746,-11.01272964477539,6.683413982391357
1751214968156849000,0.235848876953125,-2.589329242706299,-11.256937980651855,7.645883083343506
1751214968166940000,0.24593994140625,-0.45848962664604187,-12.214618682861328,10.17416000366211
1751214968177048800,0.256048828125,3.3435027599334717,-13.086108207702637,13.0328369140625
1751214968187170800,0.2661708984375,3.8989574909210205,-13.531429290771484,15.834053039550781
1751214968197300200,0.27630029296875,3.6595373153686523,-13.880983352661133,18.43415641784668
1751214968207431000,0.286430908203125,4.593276023864746,-13.406930923461914,19.22903060913086
1751214968217462300,0.296462158203125,4.210203647613525,-12.051813125610352,18.223466873168945
1751214968227456000,0.3064560546875,2.433706045150757,-11.37664794921875,17.371129989624023
1751214968237449700,0.31644970703125,0.4225766062736511,-11.328763961791992,17.428590774536133
1751214968247443500,0.326443359375,-1.9381062984466553,-10.845134735107422,17.677587509155273
1751214968257437200,0.336437255859375,-2.316390037536621,-10.09814453125,18.43894386291504
1751214968267431000,0.346430908203125,-1.478419542312622,-9.513958930969238,20.181922912597656
1751214968277424600,0.356424560546875,-4.365826606750488,-8.752602577209473,22.978351593017578
1751214968287418400,0.36641845703125,-8.258798599243164,-6.39192008972168,23.696611404418945
1751214968297412000,0.376412109375,-4.049792289733887,-4.672883033752441,22.422895431518555
1751214968307405800,0.38640576171875,-0.06584054976701736,-5.175665378570557,22.552183151245117
1751214968317399600,0.396399658203125,-6.736086368560791,-4.883573055267334,22.03024673461914
1751214968327393500,0.4063935546875,-10.202890396118164,-3.001730442047119,19.16678237915039
1751214968337387300,0.41638720703125,-9.364919662475586,-2.8197710514068604,15.877148628234863
1751214968347381000,0.426381103515625,-6.640318393707275,-4.57232666015625,15.043966293334961
1751214968357374700,0.436374755859375,-3.690661907196045,-5.161300182342529,13.166912078857422
1751214968367368400,0.446368408203125,-1.3204022645950317,-5.755062103271484,10.269927978515625
1751214968377362200,0.456362060546875,0.11133038252592087,-6.243479251861572,7.2771759033203125
1751214968387356000,0.46635595703125,-0.07541735470294952,-6.497264862060547,5.237316131591797
1751214968397349600,0.476349609375,-0.9181763529777527,-6.430227279663086,4.461595058441162
1751214968407343400,0.48634326171875,-0.7122750282287598,-6.056731700897217,5.524620532989502
1751214968417337000,0.496337158203125,0.020350715145468712,-5.343259811401367,7.248445510864258
1751214968427330800,0.506330810546875,0.10175357013940811,-4.931457042694092,8.268375396728516
1751214968437324800,0.51632470703125,0.5279214978218079,-4.658517837524414,9.50857162475586
1751214968447318500,0.526318603515625,1.5526398420333862,-4.610633850097656,9.714473724365234
1751214968457312300,0.536312255859375,1.6101006269454956,-4.69682502746582,9.024943351745605
1751214968467306000,0.546305908203125,1.8638859987258911,-5.190030574798584,8.11514663696289
1751214968477299700,0.5562998046875,3.3004069328308105,-6.16686487197876,6.884527206420898
1751214968487293400,0.56629345703125,4.310760021209717,-6.7510504722595215,4.897339344024658
1751214968497287200,0.576287109375,5.0912699699401855,-6.95695161819458,1.9955670833587646
1751214968507281000,0.586281005859375,4.698620796203613,-7.1006035804748535,-0.09696517139673233
1751214968517274600,0.596274658203125,3.58292293548584,-6.95695161819458,-0.8439561128616333
1751214968527268400,0.606268310546875,1.337161660194397,-6.387131690979004,-1.7345991134643555
1751214968537262000,0.616261962890625,-1.4832079410552979,-6.272210121154785,-2.6443958282470703
1751214968547255800,0.626255859375,-2.1966800689697266,-6.4828996658325195,-2.653972625732422
1751214968557249800,0.636249755859375,-1.4113819599151611,-7.08144998550415,-1.9740192890167236
1751214968567243500,0.646243408203125,-0.568622887134552,-8.024765968322754,-0.6715735793113708
1751214968577237200,0.6562373046875,-0.1280897855758667,-8.455721855163574,-0.32680854201316833
1751214968587231000,0.66623095703125,-0.05626374110579491,-8.589797019958496,-0.37469255924224854
1751214968597224700,0.676224609375,0.1256955862045288,-9.087791442871094,0.24779987335205078
1751214968607218400,0.686218505859375,1.1264718770980835,-8.929773330688477,0.9133879542350769
1751214968617212200,0.696212158203125,1.1504138708114624,-9.858723640441895,0.7793126702308655
1751214968627206000,0.706205810546875,0.6332663297653198,-9.77253246307373,1.2485761642456055
1751214968637199600,0.71619970703125,0.973242998123169,-7.282563209533691,2.3068132400512695
1751214968647193300,0.726193359375,2.2469582557678223,-7.512406349182129,5.017049789428711
1751214968657187000,0.73618701171875,2.491166830062866,-9.188347816467285,7.248445510864258
1751214968667181000,0.74618115234375,2.7066450119018555,-11.357494354248047,8.153453826904297
1751214968677174800,0.7561748046875,3.755305290222168,-12.731765747070312,9.08719253540039
1751214968687168500,0.76616845703125,4.775235176086426,-13.665504455566406,10.87326717376709
1751214968697162200,0.776162353515625,4.8901567459106445,-13.631985664367676,11.505335807800293
1751214968707156000,0.786156005859375,4.607641220092773,-13.167510986328125,11.069591522216797
1751214968717149700,0.796149658203125,4.717774391174316,-12.918514251708984,10.653000831604004
1751214968727143400,0.806143310546875,3.113659381866455,-12.683881759643555,9.475052833557129
1751214968737137200,0.81613720703125,1.092953085899353,-12.276867866516113,7.95712947845459
1751214968747131000,0.826130859375,0.16879121959209442,-11.481992721557617,6.472724437713623
1751214968757124600,0.83612451171875,0.015562310814857483,-10.849923133850098,5.146336555480957
1751214968767118300,0.846118408203125,0.06823474913835526,-10.514735221862793,4.2078094482421875
1751214968777112000,0.856112060546875,0.010773907415568829,-10.289680480957031,3.7050271034240723
1751214968787106000,0.86610595703125,0.0011971008498221636,-10.284892082214355,3.666719913482666
1751214968797099800,0.876099853515625,0.3842693865299225,-9.959280967712402,3.728969097137451
1751214968807093500,0.886093505859375,0.9014169573783875,-9.858723640441895,3.8726212978363037
1751214968817087200,0.896087158203125,1.5909470319747925,-9.628880500793457,3.7050271034240723
1751214968827081000,0.9060810546875,1.7585411071777344,-9.150040626525879,3.3889925479888916
1751214968837074700,0.91607470703125,1.3419500589370728,-8.575431823730469,3.0633809566497803
1751214968847068400,0.926068359375,0.9684545993804932,-8.125322341918945,3.044227361679077
1751214968857062100,0.936062255859375,0.973242998123169,-7.641693115234375,2.699462413787842
1751214968867055900,0.946055908203125,1.279700756072998,-6.822876453399658,2.230198860168457
1751214968877049600,0.956049560546875,1.413776159286499,-5.994482517242432,1.703474521636963
1751214968887043300,0.966043212890625,1.7537527084350586,-5.324106216430664,1.382651448249817
1751214968897037000,0.976037109375,2.1272482872009277,-5.175665378570557,1.3060370683670044
1751214968907031000,0.986031005859375,2.1128830909729004,-5.309741020202637,1.2246341705322266
1751214968917024800,0.996024658203125,2.1080946922302246,-5.601833343505859,1.1288660764694214
1751214968927018500,1.0060185546875,1.8734627962112427,-5.869984149932861,1.0235211849212646
1751214968937012200,1.01601220703125,1.116895079612732,-5.9322333335876465,1.1671733856201172
1751214968947006000,1.026005859375,0.4225766062736511,-5.745485305786133,1.6124948263168335
1751214968956999700,1.035999755859375,0.2214636504650116,-5.343259811401367,1.8183962106704712
1751214968966993400,1.045993408203125,0.22625206410884857,-4.677671432495117,1.459265947341919
1751214968976987100,1.055987060546875,0.21188685297966003,-4.036025524139404,0.8846575021743774
1751214968986980900,1.06598095703125,0.3124433159828186,-3.7247793674468994,0.4776432514190674
1751214968996974600,1.075974609375,0.5422866940498352,-3.3704373836517334,0.03232172131538391
1751214969006968300,1.08596826171875,0.456095427274704,-3.4805707931518555,-0.06344634294509888
1751214969016962300,1.09596240234375,0.6667851805686951,-4.510077476501465,0.1759738177061081
1751214969026956000,1.1059560546875,1.2988544702529907,-8.015189170837402,1.9764134883880615
1751214969036949800,1.11594970703125,2.366668462753296,-10.940903663635254,3.7816414833068848
1751214969046943500,1.125943603515625,3.0322563648223877,-15.576077461242676,5.036203384399414
1751214969056937200,1.135937255859375,4.478354454040527,-25.71791648864746,7.468712329864502
1751214969066931000,1.145930908203125,4.990713596343994,-33.269229888916016,8.163030624389648
1751214969076924700,1.155924560546875,3.7026329040527344,-33.47991943359375,5.237316131591797
1751214969086918400,1.16591845703125,1.9979612827301025,-24.597429275512695,-0.1256955862045288
1751214969096912100,1.175912109375,1.1839327812194824,-14.90091323852539,-2.491166830062866
1751214969106905900,1.18590576171875,0.8391677141189575,-8.656834602355957,-2.778470993041992
1751214969116899600,1.195899658203125,0.16400282084941864,-4.835689067840576,-2.7688941955566406
1751214969126893300,1.205893310546875,-2.632424831390381,-4.457405090332031,-1.643619418144226
1751214969136887300,1.21588720703125,-5.237316131591797,-6.875548839569092,0.9038111567497253
1751214969146881000,1.225881103515625,-1.5167267322540283,-9.236231803894043,0.4776432514190674
1751214969156874800,1.235874755859375,-1.0283095836639404,-9.968857765197754,0.06584054976701736
1751214969166868500,1.245868408203125,-0.9085995554924011,-11.118074417114258,0.4297592043876648
1751214969176862200,1.2558623046875,-0.1041477769613266,-11.64958667755127,0.7984662652015686
1751214969186856000,1.26585595703125,0.628477931022644,-11.237784385681152,0.9516952037811279
1751214969196849700,1.275849609375,1.1791443824768066,-10.428544044494629,0.9469067454338074
1751214969206843400,1.285843505859375,2.0889410972595215,-9.959280967712402,0.9229647517204285
1751214969216837000,1.295837158203125,2.936488389968872,-9.576208114624023,0.7601590156555176
1751214969226830800,1.305830810546875,2.9700071811676025,-9.39903736114502,0.9085995554924011
1751214969236824600,1.315824462890625,2.4672248363494873,-9.288904190063477,1.0187327861785889
1751214969246818300,1.325818359375,1.7729063034057617,-9.43255615234375,1.0618284940719604
1751214969256812300,1.335812255859375,1.016338586807251,-9.657610893249512,1.157596468925476
1751214969266806000,1.345805908203125,0.4321534037590027,-9.88745403289795,1.191115379333496
1751214969276799700,1.3557998046875,0.20231004059314728,-9.930550575256348,1.138442873954773
1751214969286793500,1.36579345703125,0.2454056739807129,-9.801262855529785,1.037886381149292
1751214969296787200,1.375787109375,0.43694180250167847,-9.571419715881348,1.0761936902999878
1751214969306781000,1.385781005859375,0.7242460250854492,-9.408614158630371,1.315613865852356
1751214969316774700,1.395774658203125,1.116895079612732,-9.30805778503418,1.5837644338607788
1751214969326768400,1.405768310546875,1.5095441341400146,-9.384672164916992,1.8519150018692017
1751214969336762000,1.41576220703125,1.744175910949707,-9.475651741027832,1.9572598934173584
1751214969346755800,1.425755859375,1.8543092012405396,-9.509170532226562,1.8471266031265259
1751214969356749600,1.43574951171875,1.9117701053619385,-9.499593734741211,1.7082629203796387
1751214969366743600,1.44574365234375,2.0171148777008057,-9.638457298278809,1.6891093254089355
1751214969376737300,1.4557373046875,4.037821292877197,-8.412626266479492,1.5263035297393799
1751214969386731000,1.46573095703125,3.400963544845581,-9.49001693725586,2.2445640563964844
1751214969396724700,1.475724853515625,2.7928361892700195,-10.232219696044922,1.703474521636963
1751214969406718500,1.485718505859375,2.8167781829833984,-10.016741752624512,0.9038111567497253
1751214969416712200,1.495712158203125,2.2852654457092285,-10.428544044494629,0.788889467716217
1751214969426706000,1.505705810546875,1.4856021404266357,-10.52910041809082,0.6404489278793335
1751214969436699600,1.51569970703125,0.5758054852485657,-10.351929664611816,0.3627215623855591
1751214969446693400,1.525693359375,-0.39145198464393616,-10.035895347595215,0.1951274424791336
1751214969456687000,1.53568701171875,-1.238999366760254,-9.758167266845703,0.21428105235099792
1751214969466680800,1.545680908203125,-1.7130513191223145,-9.604938507080078,0.4297592043876648
1751214969476674600,1.555674560546875,-1.602918028831482,-9.542689323425293,0.707486629486084
1751214969486668500,1.56566845703125,-0.812831461429596,-9.643245697021484,1.037886381149292
1751214969496662300,1.575662353515625,0.2454056739807129,-9.762955665588379,1.2294225692749023
1751214969506656000,1.585656005859375,1.337161660194397,-9.79647445678711,1.238999366760254
1751214969516649700,1.595649658203125,2.1272482872009277,-9.839570045471191,1.3491326570510864
1751214969526643500,1.6056435546875,2.539050817489624,-9.868300437927246,1.4879963397979736
1751214969536637200,1.61563720703125,2.630030632019043,-9.734225273132324,1.5263035297393799
1751214969546631000,1.625630859375,2.5438392162323,-9.566631317138672,1.4544775485992432
1751214969556624600,1.635624755859375,2.3092074394226074,-9.49001693725586,1.3970166444778442
1751214969566618400,1.645618408203125,1.988384485244751,-9.52353572845459,1.2629413604736328
1751214969576612000,1.655612060546875,1.6819267272949219,-9.394248962402344,1.1767501831054688
1751214969586605800,1.665605712890625,1.380257248878479,-9.59057331085205,1.1049240827560425
1751214969596599600,1.675599609375,1.1456254720687866,-9.68155288696289,1.1480196714401245
1751214969606593500,1.685593505859375,1.0019733905792236,-9.671976089477539,1.1240776777267456
1751214969616587300,1.695587158203125,0.9684545993804932,-9.758167266845703,1.1623848676681519
1751214969626581000,1.7055810546875,0.9971849918365479,-9.877877235412598,1.171961784362793
1751214969636574700,1.71557470703125,1.1073182821273804,-9.652822494506836,1.171961784362793
1751214969646568400,1.725568359375,1.2318167686462402,-9.724648475646973,1.1288660764694214
1751214969656562200,1.735562255859375,1.3275848627090454,-9.662399291992188,1.238999366760254
1751214969666556000,1.745555908203125,1.3323732614517212,-9.652822494506836,1.238999366760254
1751214969676549600,1.755549560546875,1.2557587623596191,-9.691129684448242,1.2629413604736328
1751214969686543400,1.76554345703125,1.1312602758407593,-9.700706481933594,1.3251906633377075
1751214969696537000,1.775537109375,1.0259153842926025,-9.667187690734863,1.40180504322052
1751214969706530800,1.78553076171875,1.035492181777954,-9.700706481933594,1.5598224401474
1751214969716524800,1.79552490234375,1.092953085899353,-9.820416450500488,1.7753005027770996
1751214969766493400,1.845493408203125,1.1552022695541382,-9.710283279418945,2.234987258911133
1751214969776487200,1.855487060546875,1.1121066808700562,-9.782109260559082,2.254140853881836
1751214969786481000,1.86548095703125,1.016338586807251,-9.724648475646973,2.316390037536621
1751214969796474600,1.875474609375,1.0307037830352783,-9.92097282409668,2.2254104614257812
1751214969806468400,1.88546826171875,0.9971849918365479,-10.102932929992676,2.1152772903442383
1751214969816462000,1.895462158203125,0.8678981065750122,-10.088567733764648,1.9524714946746826
1751214969826455800,1.905455810546875,0.7003039717674255,-9.849146842956543,1.765723705291748
1751214969836449800,1.91544970703125,0.5518634915351868,-9.537900924682617,1.703474521636963
1751214969846443500,1.925443603515625,0.5614402890205383,-9.451709747314453,1.8567034006118774
1751214969856437200,1.935437255859375,0.8343793153762817,-9.2841157913208,1.8854337930679321
1751214969866431000,1.945430908203125,1.279700756072998,-9.327211380004883,1.6651673316955566
1751214969876424700,1.9554248046875,1.7489643096923828,-9.365518569946289,1.698686122894287
1751214969886418400,1.96541845703125,2.122459888458252,-9.322422981262207,1.4879963397979736
1751214969896412200,1.975412109375,2.5103204250335693,-9.030330657958984,1.258152961730957
1751214969906406000,1.985406005859375,2.692279815673828,-8.70950698852539,1.0618284940719604
1751214969916399600,1.995399658203125,2.5725696086883545,-8.484452247619629,0.93254154920578
1751214969926393300,2.005393310546875,2.1799206733703613,-8.556278228759766,1.0666168928146362
1751214969936387000,2.015386962890625,1.7489643096923828,-8.9249849319458,1.4305355548858643
1751214969946380800,2.025380859375,1.4520833492279053,-9.298480987548828,1.8997989892959595
1751214969956374800,2.035374755859375,1.2078747749328613,-9.542689323425293,2.292448043823242
1751214969966368500,2.045368408203125,1.1456254720687866,-9.624092102050781,2.5462334156036377
1751214969976362200,2.0553623046875,1.2222399711608887,-9.671976089477539,2.7952303886413574
1751214969986356000,2.06535595703125,1.236605167388916,-9.628880500793457,2.9915549755096436
1751214969996349700,2.075349609375,1.0546458959579468,-9.5809965133667,3.1016883850097656
1751214970006343400,2.085343505859375,0.7003039717674255,-9.470863342285156,2.876633405685425
1751214970016337200,2.095337158203125,0.36990416049957275,-9.322422981262207,2.3546974658966064
1751214970036324600,2.11532470703125,0.22625206410884857,-9.140463829040527,1.923741102218628
1751214970046318300,2.125318359375,0.43694180250167847,-9.1260986328125,2.1104888916015625
1751214970056312000,2.13531201171875,0.690727174282074,-9.1260986328125,2.3930046558380127
1751214970066306000,2.14530615234375,0.9588778018951416,-9.083003044128418,2.632424831390381
1751214970076299800,2.1552998046875,1.1982979774475098,-9.09257984161377,2.8335378170013428
1751214970086293500,2.16529345703125,1.3467384576797485,-9.073426246643066,3.072957992553711
1751214970096287200,2.175287353515625,1.404199242591858,-9.025542259216309,3.341108560562134
1751214970106281000,2.185281005859375,1.413776159286499,-8.963293075561523,3.623624324798584
1751214970116274700,2.195274658203125,1.3658920526504517,-8.944138526916504,3.843890905380249
1751214970126268400,2.205268310546875,1.1839327812194824,-9.006388664245605,4.049792289733887
1751214970136262100,2.21526220703125,0.8583213090896606,-9.063849449157715,4.217386245727539
1751214970146256000,2.225255859375,0.5135562419891357,-9.044695854187012,4.279635429382324
1751214970156249600,2.23524951171875,0.2932897210121155,-8.944138526916504,4.260481834411621
1751214970166243300,2.245243408203125,0.1735796183347702,-8.776544570922852,4.183867454528809
1751214970176237000,2.255237060546875,-0.0802057534456253,-8.594585418701172,4.030638694763184
1751214970186231000,2.26523095703125,-0.333991140127182,-8.508394241333008,3.8774096965789795
1751214970196224800,2.275224853515625,-0.3627215623855591,-8.441356658935547,3.709815502166748
1751214970206218500,2.285218505859375,-0.42018240690231323,-8.436568260192871,3.561375141143799
1751214970216212200,2.295212158203125,-0.44412440061569214,-8.55148983001709,3.4081461429595947
1751214970236199700,2.31519970703125,0.06344634294509888,-8.40304946899414,3.0633809566497803
1751214970246193400,2.325193359375,0.21667525172233582,-8.139687538146973,3.0154969692230225
1751214970256187100,2.335187255859375,0.46088382601737976,-7.938574314117432,2.9676129817962646
1751214970266180900,2.345180908203125,0.8104372620582581,-7.866748332977295,2.804807186126709
1751214970276174600,2.355174560546875,0.9780313968658447,-7.756615161895752,2.670732021331787
1751214970286168300,2.365168212890625,1.049857497215271,-7.761403560638428,2.5558102130889893
1751214970296162300,2.375162353515625,0.872686505317688,-7.905055522918701,2.3594858646392822
1751214970306156000,2.385156005859375,0.5805938839912415,-7.996035099029541,2.1104888916015625
1751214970316149800,2.395149658203125,0.35075053572654724,-7.938574314117432,1.9285295009613037
1751214970326143500,2.4051435546875,0.4225766062736511,-7.967304706573486,1.9189527034759521
1751214970336137200,2.41513720703125,0.5997475385665894,-8.125322341918945,2.0865468978881836
1751214970346131000,2.425130859375,0.6524199843406677,-8.345588684082031,2.383427858352661
1751214970356124700,2.435124755859375,0.4225766062736511,-8.719083786010742,2.828749418258667
1751214970366118400,2.445118408203125,-0.04189852997660637,-8.632892608642578,3.1208419799804688
1751214970376112000,2.455112060546875,-0.25258827209472656,-8.264185905456543,3.293224334716797
1751214970386105900,2.46510595703125,-0.25258827209472656,-7.742249965667725,3.728969097137451
1751214970396099600,2.475099609375,0.1496376097202301,-7.3687543869018555,4.045003890991211
1751214970406093300,2.48509326171875,0.6763619780540466,-7.182006359100342,4.073734283447266
1751214970416087300,2.49508740234375,0.8391677141189575,-7.119757175445557,3.9875428676605225
1751214970426081000,2.5050810546875,0.19273324310779572,-7.119757175445557,4.088099479675293
1751214970436074800,2.51507470703125,-0.7266402244567871,-7.287351608276367,4.681861400604248
1751214970446068500,2.525068359375,-1.6316484212875366,-7.478887557983398,5.720944881439209
1751214970456062200,2.535062255859375,-3.163937568664551,-7.392696380615234,6.817489147186279
1751214970466056000,2.545055908203125,-3.728969097137451,-7.201159954071045,8.038532257080078
1751214970476049700,2.555049560546875,-2.383427858352661,-6.942586421966553,8.92917537689209
1751214970486043400,2.56504345703125,0.015562310814857483,-6.674435615539551,9.173383712768555
1751214970496037000,2.575037109375,2.0937294960021973,-6.712742805480957,8.924386978149414
1751214970506030800,2.58503076171875,3.26688814163208,-7.239467620849609,8.076839447021484
1751214970516024600,2.595024658203125,2.5773582458496094,-8.422203063964844,6.439205646514893
1751214970526018300,2.605018310546875,1.902193307876587,-10.902595520019531,4.878185749053955
1751214970536012300,2.61501220703125,2.3570916652679443,-14.469956398010254,4.073734283447266
1751214970546006000,2.625006103515625,2.562992811203003,-16.921619415283203,3.183091163635254
1751214970555999700,2.634999755859375,2.9029695987701416,-16.955137252807617,2.3930046558380127
1751214970565993500,2.644993408203125,3.0131027698516846,-14.915278434753418,2.0626046657562256
1751214970575987200,2.6549873046875,3.0178911685943604,-12.2002534866333,2.0242974758148193
1751214970585981000,2.66498095703125,2.7976245880126953,-10.37108325958252,2.1152772903442383
1751214970595974700,2.674974609375,2.807201385498047,-9.413402557373047,1.942894697189331
1751214970605968400,2.684968505859375,3.022679567337036,-9.020753860473633,1.3108254671096802
1751214970615962000,2.694962158203125,3.156754970550537,-9.691129684448242,0.788889467716217
1751214970625955800,2.704955810546875,2.448071241378784,-11.371859550476074,0.669179379940033
1751214970635949600,2.714949462890625,0.6045359373092651,-12.98076343536377,0.7697358727455139
1751214970645943600,2.724943603515625,-0.29568392038345337,-13.92886734008789,1.4065934419631958
1751214970655937300,2.734937255859375,-0.4489128291606903,-13.71817684173584,2.2637176513671875
1751214970665931000,2.744930908203125,-1.1959037780761719,-12.540229797363281,2.742558002471924
1751214970675924700,2.7549248046875,-2.2397756576538086,-11.142016410827637,2.919728994369507
1751214970685918500,2.76491845703125,-3.0346505641937256,-9.930550575256348,3.2166099548339844
1751214970695912200,2.774912109375,-3.3219549655914307,-9.09257984161377,3.7193922996520996
1751214970705906000,2.784906005859375,-3.355473756790161,-8.64246940612793,4.064157485961914
1751214970715899600,2.794899658203125,-3.4608185291290283,-8.580220222473145,3.728969097137451
1751214970725893400,2.804893310546875,-3.8103721141815186,-8.781332969665527,3.226186752319336
1751214970735887000,2.81488720703125,-3.776853084564209,-9.073426246643066,3.0585925579071045
1751214970745880800,2.824880859375,-3.202244758605957,-9.327211380004883,3.092111587524414
1751214970755874600,2.83487451171875,-2.5797524452209473,-9.494805335998535,3.178302764892578
1751214970765868500,2.84486865234375,-2.100912094116211,-9.628880500793457,3.1304187774658203
1751214970775862300,2.8548623046875,-1.459265947341919,-9.753378868103027,3.049015760421753
1751214970785856000,2.86485595703125,-0.5494692921638489,-9.777320861816406,3.068169593811035
1751214970795849700,2.874849609375,0.3315969407558441,-9.643245697021484,3.22139835357666
1751214970805843500,2.884843505859375,0.8678981065750122,-9.442132949829102,3.4368765354156494
1751214970815837200,2.894837158203125,0.9636662006378174,-9.154829025268555,3.7002387046813965
1751214970825831000,2.904830810546875,0.6763619780540466,-8.80048656463623,3.9923312664031982
1751214970835824600,2.91482470703125,0.11133038252592087,-8.489240646362305,4.308365821838379
1751214970845818400,2.924818359375,-0.606930136680603,-8.30249309539795,4.590881824493408
1751214970855812000,2.93481201171875,-1.2629413604736328,-8.297704696655273,4.811148166656494
1751214970865805800,2.944805908203125,-1.6699557304382324,-8.46051025390625,4.839878559112549
1751214970875799600,2.954799560546875,-1.6603789329528809,-8.64246940612793,4.624400615692139
1751214970885793500,2.96479345703125,-1.215057373046875,-8.743025779724121,4.255693435668945
1751214970895787300,2.974787353515625,-0.5877765417098999,-8.776544570922852,3.863044500350952
1751214970905781000,2.984781005859375,-0.017956512048840523,-8.685564994812012,3.4368765354156494
1751214970915774700,2.994774658203125,0.3603273630142212,-8.489240646362305,3.0538041591644287
1751214970925768400,3.0047685546875,0.5039794445037842,-8.24503231048584,2.800018787384033
1751214970935762200,3.01476220703125,0.4225766062736511,-7.967304706573486,2.699462413787842
1751214970945756000,3.024755859375,0.1975216418504715,-7.727884769439697,2.6898856163024902
1751214970955749600,3.03474951171875,0.02513911761343479,-7.622539520263672,2.7952303886413574
1751214970965743400,3.044743408203125,-0.017956512048840523,-7.680000305175781,2.9724013805389404
1751214970975737000,3.054737060546875,0.02992752194404602,-7.89547872543335,3.154360771179199
1751214970985730800,3.064730712890625,0.11611878126859665,-8.21151351928711,3.341108560562134
1751214970995724800,3.074724853515625,0.08738835901021957,-8.541913032531738,3.4847605228424072
1751214971005718500,3.084718505859375,-0.013168109580874443,-8.872312545776367,3.5709519386291504
1751214971015712300,3.094712158203125,-0.10893617570400238,-9.06863784790039,3.5853171348571777
1751214971025706000,3.1047060546875,-0.1280897855758667,-9.188347816467285,3.575740337371826
1751214971035699700,3.11469970703125,-0.061052143573760986,-9.25059700012207,3.561375141143799
1751214971045693400,3.124693359375,0.04429273307323456,-9.27453899383545,3.580528736114502
1751214971055687200,3.134687255859375,0.11133038252592087,-9.260173797607422,3.6284127235412598
1751214971065681000,3.144680908203125,0.10654197633266449,-9.303269386291504,3.6284127235412598
1751214971075674600,3.154674560546875,0.15442600846290588,-9.317634582519531,3.5901055335998535
1751214971085668400,3.16466845703125,0.3315969407558441,-9.21707820892334,3.7050271034240723
1751214971095662000,3.174662109375,0.5997475385665894,-9.111733436584473,3.7816414833068848
1751214971105655800,3.18465576171875,0.8535329103469849,-9.03511905670166,3.8055837154388428
1751214971115649800,3.19464990234375,0.9588778018951416,-8.934561729431152,3.7385458946228027
1751214971125643500,3.2046435546875,0.7960720658302307,-8.881889343261719,3.7002387046813965
1751214971135637200,3.21463720703125,0.27892449498176575,-8.771756172180176,3.5901055335998535
1751214971145631000,3.224630859375,-0.3148375153541565,-8.49402904510498,3.4847605228424072
1751214971155624700,3.234624755859375,-0.7553706169128418,-7.943362712860107,3.403357744216919
1751214971165618400,3.244618408203125,-1.0330979824066162,-7.335235595703125,3.398569345474243
1751214971175612200,3.254612060546875,-1.2006921768188477,-6.784569263458252,3.384204149246216
1751214971185606000,3.26460595703125,-1.1528080701828003,-6.315305709838867,3.111265182495117
1751214971195599600,3.274599609375,-0.7314286231994629,-6.1955952644348145,2.5701754093170166
1751214971205593300,3.28459326171875,-0.0802057534456253,-6.272210121154785,1.8327614068984985
1751214971215587000,3.294587158203125,0.4225766062736511,-6.344036102294922,1.0522516965866089
1751214971225581000,3.3045810546875,0.8056488633155823,-6.367978096008301,0.45848962664604187
1751214971235574800,3.31457470703125,1.1121066808700562,-6.415862083435059,0.061052143573760986
1751214971245568500,3.324568603515625,1.5191209316253662,-6.602609634399414,-0.05386953800916672
1751214971255562200,3.334562255859375,1.643619418144226,-6.952163219451904,0.03232172131538391
1751214971265556000,3.344555908203125,1.7585411071777344,-7.239467620849609,0.2621650993824005
1751214971275549700,3.3545498046875,1.8303672075271606,-7.373542785644531,0.5446808934211731
1751214971285543400,3.36454345703125,1.6627731323242188,-7.574655532836914,1.171961784362793
1751214971295537200,3.374537109375,0.8918401598930359,-7.852383136749268,2.1057004928588867
1751214971305531000,3.38453076171875,-0.3579331636428833,-8.09659194946289,3.1016883850097656
1751214971315524600,3.394524658203125,-1.765723705291748,-8.192359924316406,4.021061897277832
1751214971325518300,3.404518310546875,-2.737769603729248,-8.546701431274414,4.820724964141846
1751214971335512000,3.414511962890625,-2.914940595626831,-10.825981140136719,6.022614479064941
1751214971345506000,3.424506103515625,-1.1767501831054688,-14.608819961547852,7.243657112121582
1751214971355499800,3.434499755859375,1.049857497215271,-15.767613410949707,7.439981937408447
1751214971365493500,3.444493408203125,1.3754688501358032,-15.805920600891113,6.922834396362305
1751214971375487200,3.4544873046875,2.165555477142334,-15.767613410949707,6.022614479064941
1751214971385481000,3.46448095703125,4.1862616539001465,-14.738106727600098,4.5190558433532715
1751214971395474700,3.474474609375,4.334702014923096,-12.640786170959473,2.7281928062438965
1751214971405468400,3.484468505859375,2.912546396255493,-11.113286018371582,1.1049240827560425
1751214971415462100,3.494462158203125,1.8590975999832153,-10.117298126220703,-0.5231330990791321
1751214971425455900,3.504455810546875,0.06823474913835526,-10.284892082214355,-1.533486247062683
1751214971435449600,3.51444970703125,-2.072181463241577,-10.883441925048828,-1.404199242591858
1751214971445443300,3.524443359375,-4.279635429382324,-11.429320335388184,-0.2693476974964142
1751214971455437000,3.53443701171875,-5.385756492614746,-13.708600044250488,1.1097124814987183
1751214971465431000,3.54443115234375,-4.854243755340576,-19.555240631103516,1.6651673316955566
1751214971475424800,3.5544248046875,-2.144007682800293,-21.384410858154297,3.183091163635254
1751214971485418500,3.56441845703125,2.778470993041992,-19.200899124145508,6.10401725769043
1751214971495412200,3.574412109375,7.169436931610107,-13.943232536315918,7.004237174987793
1751214971505406000,3.584406005859375,9.123106002807617,-9.485228538513184,6.405686855316162
1751214971515399700,3.594399658203125,8.289923667907715,-9.327211380004883,5.711368083953857
1751214971525393400,3.604393310546875,5.905298709869385,-10.050260543823242,4.131195068359375
1751214971535387100,3.61438720703125,3.8079779148101807,-9.087791442871094,1.7513585090637207
1751214971545380900,3.624380859375,3.137601375579834,-7.780557155609131,0.02274491637945175
1751214971555374600,3.63437451171875,2.941276788711548,-7.421426773071289,-0.8248024582862854
1751214971565368300,3.644368408203125,2.8215668201446533,-7.871536731719971,-1.1791443824768066
1751214971575362300,3.6543623046875,2.9508535861968994,-8.61852741241455,-1.4329297542572021
1751214971585356000,3.66435595703125,1.8734627962112427,-9.059061050415039,-2.29484224319458
1751214971595349800,3.674349853515625,0.5662286877632141,-9.379883766174316,-3.3051953315734863
1751214971605343500,3.684343505859375,-0.013168109580874443,-9.839570045471191,-3.994725465774536
1751214971615337200,3.694337158203125,0.3315969407558441,-10.37108325958252,-4.2293572425842285
1751214971625331000,3.7043310546875,1.3611036539077759,-10.174758911132812,-3.8989574909210205
1751214971635324700,3.71432470703125,2.98437237739563,-8.877100944519043,-2.515108823776245
1751214971645318400,3.724318359375,4.4975080490112305,-8.106168746948242,-1.0642226934432983
1751214971655312100,3.73431201171875,4.957194805145264,-8.058284759521484,-0.04429273307323456
1751214971665305900,3.744305908203125,3.626018524169922,-8.479663848876953,0.6260837316513062
1751214971675299600,3.754299560546875,1.3611036539077759,-9.226655006408691,1.1623848676681519
1751214971685293300,3.764293212890625,-0.7793126702308655,-9.777320861816406,1.7609353065490723
1751214971695287300,3.774287353515625,-2.2445640563964844,-10.146028518676758,2.4600422382354736
1751214971705281000,3.784281005859375,-2.7281928062438965,-10.395025253295898,3.2166099548339844
1751214971715274800,3.794274658203125,-2.2158336639404297,-10.251373291015625,3.949235677719116
1751214971735262200,3.81426220703125,0.25498247146606445,-9.978434562683105,5.486313343048096
1751214971745256000,3.824255859375,1.3323732614517212,-9.791686058044434,5.270834922790527
1751214971755249700,3.834249755859375,2.103306293487549,-9.5809965133667,4.7153801918029785
1751214971765243400,3.844243408203125,2.5294740200042725,-9.576208114624023,3.934870481491089
1751214971775237000,3.854237060546875,2.5965118408203125,-9.52353572845459,3.163937568664551
1751214971785230800,3.86423095703125,2.4241292476654053,-9.566631317138672,2.5989060401916504
1751214971795224600,3.874224609375,1.988384485244751,-9.748590469360352,2.12485408782959
1751214971805218300,3.88421826171875,1.3180080652236938,-9.719860076904297,1.8183962106704712
1751214971815212300,3.89421240234375,0.6955155730247498,-9.480440139770508,1.258152961730957
1751214971825206000,3.9042060546875,0.19273324310779572,-9.298480987548828,0.8798691034317017
1751214971835199700,3.91419970703125,-0.013168109580874443,-9.083003044128418,0.8271966576576233
1751214971845193500,3.924193359375,0.05386953800916672,-9.06863784790039,1.215057373046875
1751214971855187200,3.934187255859375,0.3124433159828186,-9.365518569946289,1.9476830959320068
1751214971865181000,3.944180908203125,0.6524199843406677,-9.513958930969238,2.675520420074463
1751214971875174700,3.954174560546875,0.9062053561210632,-9.427767753601074,3.0777463912963867
1751214971885168400,3.96416845703125,0.8966285586357117,-9.279327392578125,3.159149169921875
1751214971895162000,3.974162109375,0.7242460250854492,-9.111733436584473,3.0538041591644287
1751214971905155800,3.98415576171875,0.6093243360519409,-8.910619735717773,2.7712883949279785
1751214971915149600,3.994149658203125,0.5183446407318115,-8.671199798583984,2.4169466495513916
1751214971925143600,4.0041435546875,0.3842693865299225,-8.623315811157227,2.187103271484375
1751214971935137300,4.01413720703125,0.2454056739807129,-8.805274963378906,2.2637176513671875
1751214971945131000,4.024131103515625,0.14484919607639313,-8.920196533203125,2.450465440750122
1751214971955124700,4.034124755859375,0.02513911761343479,-8.829216957092285,2.6563668251037598
1751214971965118500,4.044118408203125,-0.21428105235099792,-8.757390975952148,2.9963433742523193
1751214971975112200,4.0541123046875,-0.4489128291606903,-8.743025779724121,3.1687259674072266
1751214971985106000,4.06410595703125,-0.5351040959358215,-8.565855026245117,3.178302764892578
1751214971995099600,4.074099609375,-0.5351040959358215,-8.484452247619629,3.1256303787231445
1751214972005093400,4.08409326171875,-0.606930136680603,-8.383895874023438,2.8814218044281006
1751214972015087000,4.094087158203125,-0.5734112858772278,-8.206725120544434,2.6180596351623535
1751214972025080800,4.104080810546875,-0.2669534981250763,-7.991246700286865,2.3977930545806885
1751214972035074600,4.114074462890625,0.25977087020874023,-7.8763251304626465,2.2254104614257812
1751214972045068500,4.124068603515625,0.7098808288574219,-7.952939510345459,2.1727380752563477
1751214972055062300,4.134062255859375,1.0594342947006226,-8.130110740661621,2.191891670227051
1751214972065056000,4.144055908203125,1.3611036539077759,-8.24503231048584,2.1344308853149414
1751214972075049700,4.1540498046875,1.3563152551651,-8.36953067779541,1.9045875072479248
1751214972085043500,4.16404345703125,1.4664485454559326,-8.503605842590332,1.6077064275741577
1751214972095037200,4.174037109375,1.6867151260375977,-8.671199798583984,1.3204022645950317
1751214972105031000,4.184031005859375,1.7824832201004028,-8.728660583496094,1.0522516965866089
1751214972115024600,4.194024658203125,1.945288896560669,-8.671199798583984,0.9181763529777527
1751214972125018400,4.204018310546875,2.0697872638702393,-8.541913032531738,0.9900023937225342
1751214972135012000,4.21401220703125,2.0027496814727783,-8.36953067779541,1.258152961730957
1751214972145005800,4.224005859375,1.7154455184936523,-8.158841133117676,1.5741876363754272
1751214972154999600,4.23399951171875,1.48081374168396,-8.101380348205566,1.985990285873413
1751214972164993500,4.24399365234375,1.3850456476211548,-8.139687538146973,2.383427858352661
1751214972174987300,4.2539873046875,1.4425065517425537,-8.225878715515137,2.84790301322937
1751214972184981000,4.26398095703125,1.3946224451065063,-8.398261070251465,3.4368765354156494
1751214972194974700,4.273974609375,0.9923965930938721,-8.604162216186523,4.0114850997924805
1751214972204968400,4.283968505859375,0.0586579404771328,-8.795698165893555,4.648342609405518
1751214972214962200,4.293962158203125,-0.7936778664588928,-9.049484252929688,5.404910564422607
1751214972224956000,4.303955810546875,-1.358709454536438,-9.226655006408691,6.185420036315918
1751214972234949600,4.31394970703125,-2.321178436279297,-9.102156639099121,6.611588001251221
1751214972244943400,4.323943359375,-3.264493942260742,-8.982446670532227,6.798335552215576
1751214972254937300,4.333937255859375,-2.3068132400512695,-8.513182640075684,6.7025675773620605
1751214972264931000,4.34393115234375,-0.6021417379379272,-7.909843921661377,6.448782444000244
1751214972274924800,4.3539248046875,0.4465186297893524,-7.713519096374512,6.314706802368164
1751214972284918800,4.363918701171875,-0.08978256583213806,-8.249820709228516,6.343437194824219
1751214972294912500,4.37391259765625,-0.46327802538871765,-9.379883766174316,6.35301399230957
1751214972304906200,4.38390625,-0.07541735470294952,-10.672752380371094,6.185420036315918
1751214972314900000,4.39389990234375,0.8535329103469849,-12.319963455200195,5.989095687866211
1751214972324894000,4.40389404296875,2.2230162620544434,-14.278420448303223,5.898116111755371
1751214972334887700,4.4138876953125,3.1471781730651855,-15.274408340454102,5.78798246383667
1751214972344881400,4.42388134765625,2.630030632019043,-14.742895126342773,6.060921669006348
1751214972354875400,4.43387548828125,1.6867151260375977,-13.406930923461914,6.434417247772217
1751214972364869000,4.443869140625,1.8399440050125122,-12.559383392333984,6.774393558502197
1751214972374862800,4.45386279296875,1.9979612827301025,-11.975198745727539,5.759252071380615
1751214972384856800,4.46385693359375,1.8399440050125122,-11.338340759277344,3.7481226921081543
1751214972394850600,4.4738505859375,1.6484078168869019,-11.137228012084961,2.4169466495513916
1751214972404844300,4.48384423828125,1.4233529567718506,-11.094132423400879,1.6508020162582397
1751214972414838000,4.493838134765625,0.767341673374176,-10.969634056091309,1.2677297592163086
1751214972424832000,4.50383203125,-0.25737667083740234,-10.691905975341797,1.0283095836639404
1751214972434825700,4.51382568359375,-0.5877765417098999,-10.323199272155762,0.9756371974945068
1751214972444819500,4.5238193359375,-0.1759738177061081,-9.911396026611328,1.1528080701828003
1751214972454813400,4.5338134765625,0.7194576263427734,-9.662399291992188,1.4640543460845947
1751214972464807200,4.54380712890625,1.0259153842926025,-9.518747329711914,1.5646108388900757
1751214972474801000,4.55380078125,0.11133038252592087,-9.777320861816406,1.7274165153503418
1751214972484794600,4.563794677734375,-1.334767460823059,-10.342352867126465,2.0242974758148193
1751214972494788600,4.57378857421875,-2.297236442565918,-10.821192741394043,2.187103271484375
1751214972504782300,4.5837822265625,-2.369062662124634,-10.83555793762207,2.230198860168457
1751214972514776000,4.593776123046875,-2.3977930545806885,-10.294468879699707,1.8136078119277954
1751214972524770000,4.60377001953125,-2.234987258911133,-9.600150108337402,1.2533645629882812
1751214972534763800,4.613763671875,-1.7944542169570923,-9.00160026550293,0.9995791912078857
1751214972544757500,4.623757568359375,-1.5406688451766968,-8.589797019958496,1.1528080701828003
1751214972554751200,4.633751220703125,-1.4832079410552979,-8.46051025390625,1.8183962106704712
1751214972564745000,4.643744873046875,-1.3491326570510864,-8.398261070251465,2.713827610015869
1751214972574738700,4.65373876953125,-1.2677297592163086,-8.383895874023438,3.4991257190704346
1751214972584732400,4.663732421875,-1.3682862520217896,-8.364742279052734,4.021061897277832
1751214972594726100,4.67372607421875,-1.5310919284820557,-8.307281494140625,4.19344425201416
1751214972604719900,4.683719970703125,-1.7369933128356934,-8.149264335632324,4.045003890991211
1751214972614713900,4.6937138671875,-1.8088194131851196,-7.909843921661377,3.6284127235412598
1751214972624707600,4.70370751953125,-1.6603789329528809,-7.708730697631836,3.245340347290039
1751214972634701300,4.713701416015625,-1.4736311435699463,-7.5650787353515625,2.890998601913452
1751214972644695000,4.723695068359375,-1.4401123523712158,-7.61296272277832,2.7329812049865723
1751214972654688800,4.733688720703125,-1.416170358657837,-7.67042350769043,2.7712883949279785
1751214972664682500,4.7436826171875,-1.2868833541870117,-7.636904716491699,2.699462413787842
1751214972674676200,4.75367626953125,-1.0618284940719604,-7.545925140380859,2.5318682193756104
1751214972684670000,4.763669921875,-0.9229647517204285,-7.550713539123535,2.5318682193756104
1751214972694663700,4.77366357421875,-0.9277531504631042,-7.545925140380859,2.4839842319488525
1751214972704657400,4.783657470703125,-0.9469067454338074,-7.555501937866211,2.3068132400512695
1751214972714651100,4.793651123046875,-0.8463503122329712,-7.617751121520996,2.163161277770996
1751214972724644900,4.803644775390625,-0.5829881429672241,-7.770980358123779,2.1152772903442383
1751214972734638800,4.813638916015625,-0.2621650993824005,-8.048707962036133,2.182314872741699
1751214972744632600,4.823632568359375,0.03950432687997818,-8.326435089111328,2.3020248413085938
1751214972754626300,4.833626220703125,0.3124433159828186,-8.407837867736816,2.321178436279297
1751214972764620000,4.8436201171875,0.48961424827575684,-8.446145057678223,2.3499090671539307
1751214972774613800,4.85361376953125,0.6380547285079956,-8.417414665222168,2.345120668411255
1751214972784607500,4.863607421875,0.7960720658302307,-8.374319076538086,2.4217350482940674
1751214972794601200,4.873601318359375,0.9588778018951416,-8.316858291625977,2.426523447036743
1751214972804595000,4.883594970703125,1.0690110921859741,-8.149264335632324,2.4648306369781494
1751214972814588700,4.893588623046875,1.0690110921859741,-8.091803550720215,2.49834942817688
1751214972824582400,4.90358251953125,0.9540894031524658,-8.09659194946289,2.5558102130889893
1751214972834576100,4.913576171875,0.690727174282074,-8.21151351928711,2.7090392112731934
1751214972844570000,4.923570068359375,0.5183446407318115,-8.288127899169922,2.914940595626831
1751214972854563800,4.933563720703125,0.3603273630142212,-8.36953067779541,3.1687259674072266
1751214972864557600,4.9435576171875,0.3603273630142212,-8.422203063964844,3.317166566848755
1751214972874551300,4.95355126953125,0.30286651849746704,-8.465298652648926,3.398569345474243
1751214972884545000,4.963544921875,0.30286651849746704,-8.55148983001709,3.446453332901001
1751214972894538800,4.973538818359375,0.21188685297966003,-8.728660583496094,3.5039141178131104
1751214972904532500,4.983532470703125,0.27892449498176575,-8.982446670532227,3.561375141143799
1751214972914526200,4.993526123046875,0.22625206410884857,-9.317634582519531,3.685873508453369
1751214972924520000,5.00352001953125,0.010773907415568829,-9.633668899536133,3.8582561016082764
1751214972934513700,5.013513671875,-0.18555063009262085,-10.021530151367188,4.088099479675293
1751214972944507400,5.02350732421875,-0.37229835987091064,-10.227431297302246,4.2078094482421875
1751214972954501000,5.033501220703125,-0.5063736438751221,-10.117298126220703,4.2078094482421875
1751214972964495000,5.0434951171875,-0.788889467716217,-9.767744064331055,4.025850296020508
1751214972974488800,5.05348876953125,-1.2964602708816528,-9.327211380004883,3.6379895210266113
1751214972984482600,5.063482666015625,-2.1966800689697266,-8.85794734954834,2.9915549755096436
1751214972994476300,5.073476318359375,-3.245340347290039,-8.479663848876953,2.2637176513671875
1751214973004470000,5.083469970703125,-4.183867454528809,-8.264185905456543,1.5693992376327515
1751214973014463700,5.093463623046875,-4.284423828125,-8.106168746948242,0.9804255962371826
1751214973024457500,5.10345751953125,-3.580528736114502,-7.8763251304626465,0.7266402244567871
1751214973034451200,5.113451171875,-2.4217350482940674,-7.6752119064331055,1.0043675899505615
1751214973044445000,5.12344482421875,-1.258152961730957,-7.526771545410156,1.6651673316955566
1751214973054438700,5.133438720703125,-0.2669534981250763,-7.292140007019043,2.273294448852539
1751214973064432400,5.143432373046875,0.5758054852485657,-7.105391979217529,2.876633405685425
1751214973074426400,5.15342626953125,1.1025298833847046,-7.009624004364014,3.3746273517608643
1751214973084420000,5.163420166015625,1.279700756072998,-6.92343282699585,3.6284127235412598
1751214973094413800,5.173413818359375,1.260547161102295,-6.707954406738281,3.671508312225342
1751214973104407600,5.183407470703125,1.4425065517425537,-6.880337238311768,3.8295257091522217
1751214973114401300,5.1934013671875,1.9165585041046143,-8.862735748291016,4.538209438323975
1751214973124395000,5.20339501953125,2.898181200027466,-13.44523811340332,5.984307289123535
1751214973134388700,5.213388671875,3.602076530456543,-15.743671417236328,5.902904510498047
1751214973144382500,5.223382568359375,3.731363296508789,-16.65825653076172,5.610811710357666
1751214973154376200,5.233376220703125,4.253299236297607,-17.247230529785156,5.7544636726379395
1751214973164370000,5.243369873046875,5.08648157119751,-16.150686264038086,5.108029365539551
1751214973174363600,5.25336376953125,4.760869979858398,-13.560159683227539,3.3458969593048096
1751214973184357400,5.263357421875,3.444059133529663,-10.974422454833984,0.970848798751831
1751214973194351400,5.273351318359375,1.8255788087844849,-10.318410873413086,-0.7098808288574219
1751214973204345000,5.283344970703125,-0.6117185354232788,-11.429320335388184,-1.5430630445480347
1751214973214338800,5.2933388671875,-3.5948939323425293,-12.602478981018066,-1.9261353015899658
1751214973224332500,5.30333251953125,-6.199785232543945,-13.531429290771484,-1.744175910949707
1751214973234326300,5.313326171875,-6.127959251403809,-14.857817649841309,-1.2270283699035645
1751214973244320000,5.323320068359375,-4.001908302307129,-15.523405075073242,-0.7338228225708008
1751214973254313700,5.333313720703125,-2.0865468978881836,-15.66226863861084,0.5063736438751221
1751214973264307500,5.343307373046875,0.10654197633266449,-15.336657524108887,2.455253839492798
1751214973274301200,5.35330126953125,2.079364061355591,-14.106038093566895,3.9444472789764404
1751214973284295000,5.363294921875,3.156754970550537,-12.59769058227539,4.581305027008057
1751214973294288600,5.37328857421875,3.381809949874878,-11.10370922088623,4.025850296020508
1751214973304282400,5.383282470703125,3.1902737617492676,-10.09814453125,2.876633405685425
1751214973314276400,5.3932763671875,2.917334794998169,-9.480440139770508,1.7561469078063965
1751214973324270000,5.40327001953125,2.8359320163726807,-8.97765827178955,0.8607155084609985
1751214973334263800,5.413263916015625,2.8646624088287354,-8.73344898223877,0.44412440061569214
1751214973344257500,5.423257568359375,2.8598740100860596,-8.699930191040039,0.3579331636428833
1751214973354251300,5.433251220703125,2.9747955799102783,-8.690353393554688,0.3531447649002075
1751214973364245000,5.443244873046875,3.1663317680358887,-8.613739013671875,0.20470423996448517
1751214973374238700,5.45323876953125,3.42490553855896,-8.513182640075684,0.09457096457481384
1751214973384232400,5.463232421875,3.712209701538086,-8.6089506149292,0.061052143573760986
1751214973394226200,5.47322607421875,3.9372646808624268,-8.910619735717773,0.08978256583213806
1751214973404220000,5.483219970703125,3.9372646808624268,-9.212289810180664,0.07541735470294952
1751214973414213600,5.493213623046875,3.626018524169922,-9.394248962402344,0.04668693244457245
1751214973424207600,5.50320751953125,2.7880477905273438,-9.461286544799805,0.23343466222286224
1751214973434201300,5.513201416015625,2.275688648223877,-9.604938507080078,0.6021417379379272
1751214973444195000,5.523195068359375,1.6675615310668945,-9.652822494506836,0.7984662652015686
1751214973454188800,5.533188720703125,0.9349357485771179,-9.782109260559082,1.1192892789840698
1751214973464182500,5.5431826171875,0.21188685297966003,-9.930550575256348,1.4736311435699463
1751214973474176300,5.55317626953125,-0.5159504413604736,-10.016741752624512,1.7944542169570923
1751214973484170000,5.563169921875,-1.238999366760254,-10.093356132507324,2.167949676513672
1751214973494163700,5.573163818359375,-2.033874273300171,-10.141240119934082,2.536656618118286
1751214973504157400,5.583157470703125,-2.756923198699951,-10.055048942565918,2.8814218044281006
1751214973514151200,5.593151123046875,-3.2357635498046875,-9.82999324798584,3.2357635498046875
1751214973524145000,5.603144775390625,-3.307589530944824,-9.5809965133667,3.561375141143799
1751214973534138600,5.613138671875,-2.8095955848693848,-9.379883766174316,3.8151605129241943
1751214973544132600,5.623132568359375,-1.9333178997039795,-9.197924613952637,3.8103721141815186
1751214973554126300,5.633126220703125,-0.8176198601722717,-9.140463829040527,3.532644510269165
1751214973564120000,5.6431201171875,0.1975216418504715,-9.140463829040527,3.044227361679077
1751214973574113800,5.65311376953125,0.8200140595436096,-9.102156639099121,2.603694438934326
1751214973584107500,5.663107421875,1.2318167686462402,-9.006388664245605,2.369062662124634
1751214973594101200,5.673101318359375,1.6196774244308472,-8.819640159606934,2.2685060501098633
1751214973604095000,5.683094970703125,1.8351556062698364,-8.522759437561035,2.2206220626831055
1751214973614088700,5.693088623046875,1.8064252138137817,-8.240243911743164,2.3355438709259033
1751214973624082400,5.70308251953125,1.6101006269454956,-8.010400772094727,2.493561029434204
1751214973634076200,5.713076171875,1.4425065517425537,-7.770980358123779,2.5270798206329346
1751214973644070000,5.72306982421875,1.3180080652236938,-7.617751121520996,2.5701754093170166
1751214973654063600,5.733063720703125,1.1552022695541382,-7.694365501403809,2.632424831390381
1751214973664057600,5.7430576171875,1.1312602758407593,-7.914632320404053,2.589329242706299
1751214973674051300,5.75305126953125,1.092953085899353,-7.933785915374756,2.297236442565918
1751214973684045000,5.763045166015625,0.9301473498344421,-7.952939510345459,2.0242974758148193
1751214973694038800,5.773038818359375,1.0690110921859741,-8.163629531860352,1.7848774194717407
1751214973704032500,5.783032470703125,1.3515268564224243,-8.168417930603027,1.5885528326034546
1751214973714026200,5.793026123046875,1.4760253429412842,-8.21151351928711,1.6364368200302124
1751214973744007400,5.82300732421875,1.2509703636169434,-8.235455513000488,2.584540843963623
1751214973754001200,5.833001220703125,0.8918401598930359,-8.163629531860352,2.828749418258667
1751214973763995000,5.842994873046875,0.7529764175415039,-8.144475936889648,2.8622682094573975
1751214973773988900,5.85298876953125,0.8487445116043091,-8.09659194946289,2.5270798206329346
1751214973783982600,5.862982666015625,0.5135562419891357,-8.168417930603027,2.24935245513916
1751214973793976300,5.872976318359375,-0.22864626348018646,-8.374319076538086,2.321178436279297
1751214973803970000,5.882969970703125,-1.40180504322052,-8.61852741241455,2.6611552238464355
1751214973813963800,5.8929638671875,-2.5749640464782715,-8.910619735717773,3.207033157348633
1751214973823957500,5.90295751953125,-2.5510218143463135,-9.173982620239258,3.7433342933654785
1751214973833951200,5.912951171875,-1.622071623802185,-9.083003044128418,3.9827544689178467
1751214973843945200,5.9229453125,-0.8702923059463501,-8.55148983001709,3.886986494064331
1751214973853939000,5.93293896484375,-0.750582218170166,-8.000823974609375,3.4129345417022705
1751214973863932700,5.9429326171875,-0.7314286231994629,-7.6081743240356445,2.8143839836120605
1751214973873926400,5.952926513671875,-0.3770867586135864,-7.239467620849609,2.340332269668579
1751214973883920400,5.96292041015625,0.0586579404771328,-7.033565998077393,2.450465440750122
1751214973893914000,5.9729140625,0.4034229815006256,-7.1676411628723145,3.2549171447753906
1751214973903907800,5.982907958984375,0.8152256608009338,-7.8763251304626465,4.504690647125244
1751214973913901800,5.99290185546875,1.4281413555145264,-9.518747329711914,6.333860397338867
1751214973923895600,6.0028955078125,1.3898340463638306,-11.5250883102417,7.870938301086426
1751214973933889300,6.01288916015625,1.035492181777954,-13.84267520904541,8.933963775634766
1751214973943883000,6.022883056640625,0.8200140595436096,-15.614384651184082,9.479841232299805
1751214973953877000,6.032876953125,0.21667525172233582,-16.06928253173828,9.690531730651855
1751214973963870700,6.04287060546875,-0.2861070930957794,-15.83944034576416,9.738415718078613
1751214973973864400,6.052864501953125,0.8918401598930359,-15.408483505249023,9.408015251159668
1751214973983858400,6.0628583984375,2.6587610244750977,-14.86739444732666,8.364143371582031
1751214973993852200,6.07285205078125,2.9316999912261963,-13.818733215332031,6.233304023742676
1751214974003846000,6.082845947265625,1.8638859987258911,-11.869853019714355,2.6898856163024902
1751214974013839600,6.092839599609375,1.8974047899246216,-10.691905975341797,0.25737667083740234
1751214974023833600,6.10283349609375,2.7545289993286133,-10.591349601745605,-0.9636662006378174
1751214974033827300,6.112827392578125,3.951629877090454,-11.137228012084961,-1.4281413555145264
1751214974043821000,6.122821044921875,4.885368347167969,-11.798027038574219,-1.643619418144226
1751214974053815000,6.13281494140625,3.58292293548584,-12.372635841369629,-2.251746654510498
1751214974063808800,6.142808837890625,1.0450690984725952,-13.062166213989258,-2.4145524501800537
1751214974073802500,6.152802490234375,-0.645237386226654,-13.062166213989258,-1.9069817066192627
1751214974083796200,6.162796142578125,-1.6316484212875366,-12.324751853942871,-0.8870517015457153
1751214974093790200,6.172790283203125,-2.076969861984253,-11.280879974365234,0.333991140127182
1751214974103784000,6.182783935546875,-1.9524714946746826,-10.31362247467041,1.1049240827560425
1751214974113777700,6.192777587890625,-1.6172832250595093,-9.451709747314453,1.0905588865280151
1751214974123771600,6.202771728515625,-1.6316484212875366,-8.790909767150879,0.3579331636428833
1751214974133765400,6.212765380859375,-1.8806453943252563,-8.316858291625977,-0.6045359373092651
1751214974143759000,6.222759033203125,-2.0913352966308594,-7.909843921661377,-1.3227964639663696
1751214974153752800,6.2327529296875,-2.144007682800293,-7.665635108947754,-1.5861586332321167
1751214974163746600,6.24274658203125,-2.0626046657562256,-7.598597526550293,-1.4281413555145264
1751214974173740300,6.252740234375,-1.9524714946746826,-7.680000305175781,-0.9301473498344421
1751214974183734000,6.262734130859375,-1.8806453943252563,-7.756615161895752,-0.3124433159828186
1751214974193727700,6.272727783203125,-1.96683669090271,-7.83801794052124,0.2669534981250763
1751214974203721500,6.282721435546875,-2.072181463241577,-7.952939510345459,0.6979097723960876
1751214974213715200,6.292715087890625,-2.076969861984253,-8.082226753234863,1.0091559886932373
1751214974223709000,6.302708984375,-1.9381062984466553,-8.321646690368652,1.3012486696243286
1751214974233703000,6.312702880859375,-1.6077064275741577,-8.661623001098633,1.746570110321045
1751214974243696600,6.322696533203125,-1.3060370683670044,-9.054272651672363,2.321178436279297
1751214974253690400,6.3326904296875,-1.2054805755615234,-9.384672164916992,2.8335378170013428
1751214974263684000,6.34268408203125,-1.2629413604736328,-9.628880500793457,3.245340347290039
1751214974273677800,6.352677734375,-1.4736311435699463,-9.801262855529785,3.5948939323425293
1751214974283671600,6.362671630859375,-1.655590534210205,-9.88745403289795,3.824737310409546
1751214974293665300,6.372665283203125,-1.698686122894287,-9.901819229125977,3.9636008739471436
1751214974303659000,6.382658935546875,-1.5646108388900757,-9.849146842956543,4.021061897277832
1751214974313652700,6.39265283203125,-1.3060370683670044,-9.686341285705566,4.016273498535156
1751214974323646500,6.402646484375,-0.9660604000091553,-9.427767753601074,3.934870481491089
1751214974333640200,6.41264013671875,-0.6212953329086304,-9.111733436584473,3.800795316696167
1751214974343634200,6.42263427734375,-0.3866635859012604,-8.814851760864258,3.561375141143799
1751214974353628000,6.4326279296875,-0.28131869435310364,-8.6089506149292,3.22139835357666
1751214974363621600,6.44262158203125,-0.30047231912612915,-8.470087051391602,2.852691411972046
1751214974373615400,6.452615478515625,-0.34835633635520935,-8.374319076538086,2.541445016860962
1751214974383609000,6.462609130859375,-0.3387795388698578,-8.326435089111328,2.3499090671539307
1751214974393602800,6.472602783203125,-0.2908954918384552,-8.326435089111328,2.2828712463378906
1751214974403596500,6.482596435546875,-0.23343466222286224,-8.355165481567383,2.340332269668579
1751214974413590300,6.49259033203125,-0.1999158412218094,-8.441356658935547,2.5270798206329346
1751214974423584000,6.502583984375,-0.243011474609375,-8.532336235046387,2.7712883949279785
1751214974433577700,6.51257763671875,-0.30526071786880493,-8.628104209899902,3.02986216545105
1751214974443571500,6.522571533203125,-0.333991140127182,-8.699930191040039,3.2357635498046875
1751214974453565200,6.532565185546875,-0.34356793761253357,-8.743025779724121,3.355473756790161
1751214974463559200,6.54255908203125,-0.3387795388698578,-8.762179374694824,3.398569345474243
1751214974473553000,6.552552978515625,-0.30526071786880493,-8.747814178466797,3.3746273517608643
1751214974483546600,6.562546630859375,-0.28131869435310364,-8.699930191040039,3.3219549655914307
1751214974493540400,6.572540283203125,-0.22864626348018646,-8.6089506149292,3.202244758605957
1751214974503534000,6.5825341796875,-0.18076223134994507,-8.441356658935547,3.068169593811035
1751214974513527800,6.59252783203125,-0.06584054976701736,-8.273762702941895,2.9724013805389404
1751214974523521500,6.602521484375,0.10654197633266449,-8.02955436706543,2.8862102031707764
1751214974533515300,6.612515380859375,0.19273324310779572,-7.8332295417785645,2.756923198699951
1751214974543509000,6.622509033203125,0.13048399984836578,-7.756615161895752,2.675520420074463
1751214974553502700,6.632502685546875,0.05386953800916672,-7.684788703918457,2.565387010574341
1751214974563496400,6.642496337890625,-0.1280897855758667,-7.6081743240356445,2.3977930545806885
1751214974573490200,6.652490234375,-0.568622887134552,-7.732673168182373,2.340332269668579
1751214974583484200,6.662484130859375,-0.9085995554924011,-7.694365501403809,2.144007682800293
1751214974593478000,6.672477783203125,-1.191115379333496,-7.61296272277832,1.9093759059906006
1751214974603471600,6.6824716796875,-1.6699557304382324,-7.5650787353515625,1.7369933128356934
1751214974613465300,6.69246533203125,-2.24935245513916,-7.416638374328613,1.535880446434021
1751214974623459000,6.702458984375,-2.8814218044281006,-7.215525150299072,1.3395558595657349
1751214974633452800,6.712452880859375,-3.4799721240997314,-7.095815181732178,1.2773065567016602
1751214974643446500,6.722446533203125,-3.867832899093628,-7.086238384246826,1.3299790620803833
1751214974653440300,6.732440185546875,-3.906140089035034,-7.129333972930908,1.5502456426620483
1751214974663434000,6.74243408203125,-3.513490915298462,-7.1676411628723145,1.9381062984466553
1751214974673427700,6.752427734375,-3.1447839736938477,-7.062296390533447,2.3977930545806885
1751214974683421400,6.76242138671875,-2.6803088188171387,-6.937798023223877,2.84790301322937
1751214974693415400,6.77241552734375,-1.5119383335113525,-7.335235595703125,3.2836475372314453
1751214974703409200,6.7824091796875,0.6093243360519409,-9.624092102050781,4.112041473388672
1751214974713403000,6.79240283203125,2.9269115924835205,-12.521076202392578,5.007472991943359
1751214974723396600,6.802396728515625,4.061763286590576,-14.067730903625488,6.161478042602539
1751214974733390300,6.812390380859375,3.9707834720611572,-15.068507194519043,6.937199592590332
1751214974743384000,6.822384033203125,3.2381577491760254,-15.743671417236328,6.827065944671631
1751214974753377800,6.832377685546875,2.869450807571411,-15.312715530395508,5.285200119018555
1751214974763371500,6.84237158203125,2.73537540435791,-13.636774063110352,2.6611552238464355
1751214974773365200,6.852365234375,2.3810336589813232,-13.244125366210938,1.0283095836639404
1751214974783359000,6.86235888671875,2.5677812099456787,-14.446014404296875,0.3627215623855591
1751214974793352700,6.872352783203125,2.5725696086883545,-15.561712265014648,-0.2932897210121155
1751214974803346400,6.882346435546875,2.558204412460327,-16.461933135986328,-0.3315969407558441
1751214974813340400,6.89234033203125,3.7648820877075195,-17.840991973876953,0.41539400815963745
1751214974823334100,6.902334228515625,5.124788761138916,-19.09076499938965,1.2437877655029297
1751214974833327900,6.912327880859375,3.5063083171844482,-18.90880584716797,1.7130513191223145
1751214974843321600,6.922321533203125,-0.9133879542350769,-16.2273006439209,1.6938977241516113
1751214974853315300,6.9323154296875,-4.231751441955566,-13.349470138549805,2.3738510608673096
1751214974863309000,6.94230908203125,-4.930858612060547,-11.237784385681152,3.1878795623779297
1751214974873302800,6.952302734375,-3.446453332901001,-9.94970417022705,3.072957992553711
1751214974883296500,6.962296630859375,-0.9756371974945068,-9.255385398864746,1.8375498056411743
1751214974893290200,6.972290283203125,0.9157821536064148,-9.015965461730957,0.22385786473751068
1751214974903284000,6.982283935546875,2.098517894744873,-8.934561729431152,-1.0690110921859741
1751214974913277700,6.992277587890625,2.606088638305664,-8.97765827178955,-1.7585411071777344
1751214974923271700,7.002271728515625,2.558204412460327,-8.862735748291016,-1.902193307876587
1751214974933265400,7.012265380859375,2.208651065826416,-8.561066627502441,-1.7298107147216797
1751214974943259100,7.022259033203125,2.0266916751861572,-8.30249309539795,-1.5526398420333862
1751214974953252900,7.0322529296875,2.122459888458252,-8.316858291625977,-1.2509703636169434
1751214974963246600,7.04224658203125,3.161543369293213,-8.292916297912598,-1.4472949504852295
1751214974973240300,7.052240234375,4.301183223724365,-8.422203063964844,-1.725022315979004
1751214974983234000,7.062234130859375,4.669890403747559,-8.843582153320312,-1.8734627962112427
1751214974993227800,7.072227783203125,4.756081581115723,-9.188347816467285,-1.8399440050125122
1751214975003221500,7.082221435546875,4.77044677734375,-9.585784912109375,-1.3898340463638306
1751214975013215200,7.09221533203125,5.067327976226807,-9.873088836669922,-0.7817068696022034
1751214975023209000,7.102208984375,5.359420299530029,-9.954492568969727,-0.08738835901021957
1751214975033202700,7.11220263671875,4.918887615203857,-9.691129684448242,0.424970805644989
1751214975043196700,7.12219677734375,3.841496706008911,-9.442132949829102,0.6931213736534119
1751214975053190400,7.1321904296875,2.5534160137176514,-9.604938507080078,0.8798691034317017
1751214975063184100,7.14218408203125,1.3850456476211548,-10.069414138793945,1.1049240827560425
1751214975073177900,7.152177734375,0.22625206410884857,-10.514735221862793,1.4688427448272705
1751214975083171600,7.162171630859375,-0.8702923059463501,-10.854711532592773,2.0434510707855225
1751214975093165300,7.172165283203125,-1.7944542169570923,-10.931326866149902,2.6180596351623535
1751214975103159000,7.182158935546875,-2.7904419898986816,-10.830769538879395,3.159149169921875
1751214975113152800,7.19215283203125,-3.642777919769287,-10.624868392944336,3.575740337371826
1751214975123146500,7.202146484375,-4.183867454528809,-10.241796493530273,3.824737310409546
1751214975133140200,7.21214013671875,-4.092887878417969,-9.806051254272461,3.9636008739471436
1751214975143134000,7.222134033203125,-3.4799721240997314,-9.394248962402344,3.9444472789764404
1751214975153127700,7.232127685546875,-2.5318682193756104,-9.063849449157715,3.733757495880127
1751214975163121700,7.24212158203125,-1.4065934419631958,-9.15961742401123,3.494337320327759
1751214975173115400,7.252115478515625,-0.30526071786880493,-9.475651741027832,3.1735143661499023
1751214975183109000,7.262109130859375,0.829590916633606,-9.782109260559082,2.603694438934326
1751214975193102800,7.272102783203125,1.8399440050125122,-10.00716495513916,1.9812018871307373
1751214975203096600,7.2820966796875,2.5534160137176514,-10.074202537536621,1.535880446434021
1751214975213090300,7.29209033203125,2.9700071811676025,-10.002376556396484,1.258152961730957
1751214975223084000,7.302083984375,3.185485363006592,-9.791686058044434,1.0618284940719604
1751214975233077800,7.312077880859375,3.223792552947998,-9.547477722167969,0.9900023937225342
1751214975243071500,7.322071533203125,3.161543369293213,-9.327211380004883,1.0043675899505615
1751214975253065200,7.332065185546875,3.0178911685943604,-9.145252227783203,1.0857704877853394
1751214975263059000,7.342058837890625,2.7928361892700195,-9.049484252929688,1.2533645629882812
1751214975273053000,7.352052978515625,2.5773582458496094,-9.015965461730957,1.4927847385406494
1751214975283046700,7.362046630859375,2.4001872539520264,-9.063849449157715,1.7753005027770996
1751214975293040400,7.372040283203125,2.1272482872009277,-9.15961742401123,2.096123695373535
1751214975303034000,7.3820341796875,1.7920600175857544,-9.18355941772461,2.3546974658966064
1751214975313027800,7.39202783203125,1.4089876413345337,-9.073426246643066,2.4887726306915283
1751214975323021600,7.402021484375,1.0881646871566772,-8.920196533203125,2.517503023147583
1751214975333015300,7.412015380859375,0.8152256608009338,-8.790909767150879,2.5079262256622314
1751214975343009000,7.422009033203125,0.5710170865058899,-8.67598819732666,2.455253839492798
1751214975353002800,7.432002685546875,0.32680854201316833,-8.613739013671875,2.4169466495513916
1751214975362996500,7.44199658203125,0.04908113554120064,-8.61852741241455,2.364274263381958
1751214975372990200,7.451990234375,-0.18076223134994507,-8.661623001098633,2.345120668411255
1751214975382984000,7.46198388671875,-0.42018240690231323,-8.58500862121582,2.3116016387939453
1751214975392978000,7.47197802734375,-0.6739677786827087,-8.470087051391602,2.3307554721832275
1751214975402971600,7.4819716796875,-0.8224082589149475,-8.355165481567383,2.3068132400512695
1751214975412965400,7.49196533203125,-0.8463503122329712,-8.235455513000488,2.120065689086914
1751214975422959000,7.501958984375,-0.8319851160049438,-8.019977569580078,1.8088194131851196
1751214975432952800,7.511952880859375,-0.6404489278793335,-8.087015151977539,1.7082629203796387
1751214975442946600,7.521946533203125,-0.30047231912612915,-8.149264335632324,1.6603789329528809
1751214975452940300,7.531940185546875,0.15442600846290588,-8.326435089111328,1.6938977241516113
1751214975462934000,7.54193408203125,0.6572083830833435,-8.652046203613281,1.7178397178649902
1751214975472927700,7.551927734375,1.0067617893218994,-9.044695854187012,1.7274165153503418
1751214975482921500,7.56192138671875,1.2413935661315918,-9.331999778747559,1.8806453943252563
1751214975492915200,7.571915283203125,1.217451572418213,-9.422979354858398,2.4169466495513916
1751214975502909000,7.581908935546875,0.8870517015457153,-9.533112525939941,3.508702516555786
1751214975512903000,7.59190283203125,-0.812831461429596,-9.537900924682617,4.643554210662842
1751214975522896600,7.601896728515625,-3.0202853679656982,-9.456498146057129,5.5341973304748535
1751214975532890400,7.611890380859375,-4.025850296020508,-9.231443405151367,5.582081317901611
1751214975542884000,7.621884033203125,-2.8814218044281006,-8.441356658935547,4.198232650756836
1751214975552877800,7.6318779296875,-0.9373299479484558,-7.378331184387207,2.167949676513672
1751214975562871600,7.64187158203125,0.456095427274704,-6.444592475891113,0.3866635859012604
1751214975572865300,7.651865234375,1.3036428689956665,-5.793369770050049,-0.8918401598930359
1751214975582859000,7.66185888671875,1.8734627962112427,-5.755062103271484,-1.236605167388916
1751214975592853000,7.67185302734375,1.8974047899246216,-5.960963726043701,-1.1073182821273804
1751214975602846700,7.6818466796875,1.2270283699035645,-6.344036102294922,-0.5135562419891357
1751214975612840400,7.69184033203125,-0.05626374110579491,-6.842030048370361,0.5973533391952515
1751214975622834400,7.70183447265625,-1.7753005027770996,-7.3017168045043945,2.1727380752563477
1751214975632828200,7.711828125,-3.47039532661438,-7.550713539123535,3.8055837154388428
1751214975642822000,7.72182177734375,-3.848679304122925,-7.699153900146484,5.328295707702637
1751214975652815600,7.731815673828125,-2.93888258934021,-8.33601188659668,6.817489147186279
1751214975662809600,7.7418095703125,-1.3778630495071411,-10.00716495513916,8.301894187927246
1751214975672803300,7.75180322265625,-0.09935937076807022,-12.329540252685547,9.149441719055176
1751214975682797000,7.761797119140625,2.1320366859436035,-14.934432029724121,9.005789756774902
1751214975692791000,7.771791015625,3.578134536743164,-16.682199478149414,8.416815757751465
1751214975702784800,7.78178466796875,2.9508535861968994,-16.672622680664062,8.186972618103027
1751214975712778500,7.791778564453125,2.625242233276367,-15.853805541992188,8.062474250793457
1751214975732766200,7.81176611328125,3.448847532272339,-14.000693321228027,5.625176906585693
1751214975742760000,7.821760009765625,2.7688941955566406,-13.129203796386719,3.7385458946228027
1751214975752753700,7.831753662109375,2.0266916751861572,-12.147581100463867,2.1966800689697266
1751214975762747600,7.84174755859375,2.342726469039917,-11.079767227172852,0.8607155084609985
1751214975772741400,7.851741455078125,3.33392596244812,-11.395801544189453,0.5111620426177979
1751214975782735000,7.861735107421875,4.009090900421143,-12.626420974731445,0.9181763529777527
1751214975792728800,7.871728759765625,3.094505786895752,-13.584101676940918,1.315613865852356
1751214975802722800,7.881722900390625,0.32202014327049255,-13.584101676940918,1.6603789329528809
1751214975812716500,7.891716552734375,-2.6132712364196777,-12.583325386047363,2.0434510707855225
1751214975822710300,7.901710205078125,-3.9252936840057373,-11.031883239746094,2.2637176513671875
1751214975832704300,7.911704345703125,-3.7193922996520996,-9.68155288696289,1.7130513191223145
1751214975842698000,7.921697998046875,-2.369062662124634,-8.9680814743042,0.9804255962371826
1751214975852691700,7.931691650390625,-1.2964602708816528,-8.666411399841309,0.1472434103488922
1751214975862685400,7.941685546875,-1.2198457717895508,-8.412626266479492,-0.7433996200561523
1751214975872679200,7.95167919921875,-1.7753005027770996,-8.268974304199219,-1.3563152551651
1751214975882673000,7.9616728515625,-2.1152772903442383,-8.216301918029785,-1.456871747970581
1751214975892667000,7.9716669921875,-1.9764134883880615,-8.106168746948242,-1.0594342947006226
1751214975902660600,7.98166064453125,-1.7082629203796387,-7.9625163078308105,-0.3603273630142212
1751214975912654300,7.991654296875,-1.6508020162582397,-7.861959934234619,0.37229835987091064
1751214975922648000,8.00164794921875,-1.8567034006118774,-7.885901927947998,1.0570400953292847
1751214975932641800,8.011641845703124,-2.0434510707855225,-8.015189170837402,1.780089020729065
1751214975942635500,8.021635498046875,-2.076969861984253,-8.24503231048584,2.4456770420074463
1751214975952629200,8.031629150390625,-2.0003554821014404,-8.388684272766113,2.8335378170013428
1751214975962623000,8.041623046875,-1.8758569955825806,-8.383895874023438,2.876633405685425
1751214975972616700,8.05161669921875,-1.679532527923584,-8.374319076538086,2.6563668251037598
1751214975982610400,8.0616103515625,-1.2964602708816528,-8.484452247619629,2.316390037536621
1751214975992604200,8.071604248046874,-0.6883329749107361,-8.647257804870605,2.0865468978881836
1751214976002598000,8.081597900390625,-0.08499415963888168,-8.776544570922852,2.1535844802856445
1751214976012591900,8.091591796875,0.25019407272338867,-8.862735748291016,2.5941176414489746
1751214976022585600,8.101585693359375,0.3076549172401428,-8.9249849319458,3.2357635498046875
1751214976032579300,8.111579345703126,0.03950432687997818,-8.862735748291016,3.7481226921081543
1751214976042573000,8.121572998046876,-0.42018240690231323,-8.843582153320312,4.021061897277832
1751214976052566800,8.13156689453125,-0.788889467716217,-8.934561729431152,4.150348663330078
1751214976062560500,8.141560546875,-0.8702923059463501,-9.011177062988281,4.0976762771606445
1751214976072554200,8.15155419921875,-0.7314286231994629,-9.044695854187012,3.954024076461792
1751214976082548000,8.1615478515625,-0.48243165016174316,-9.00160026550293,3.863044500350952
1751214976092541700,8.171541748046875,-0.3100491166114807,-8.91540813446045,3.772064685821533
1751214976102535400,8.181535400390626,-0.243011474609375,-8.70950698852539,3.5901055335998535
1751214976112529200,8.191529052734374,-0.19033902883529663,-8.49402904510498,3.3746273517608643
1751214976122523100,8.201523193359375,-0.16160862147808075,-8.307281494140625,3.139995574951172
1751214976132516900,8.211516845703125,-0.14245499670505524,-8.173206329345703,2.8622682094573975
1751214976142510600,8.221510498046875,-0.09457096457481384,-8.077438354492188,2.5989060401916504
1751214976152504300,8.23150439453125,-0.05147533491253853,-8.087015151977539,2.3020248413085938
1751214976162498000,8.241498046875,0.0011971008498221636,-8.134899139404297,2.0003554821014404
1751214976172491800,8.25149169921875,0.10654197633266449,-8.09659194946289,1.6699557304382324
1751214976182485500,8.261485595703125,0.1735796183347702,-8.043919563293457,1.382651448249817
1751214976192479200,8.271479248046875,0.21188685297966003,-7.967304706573486,1.1815385818481445
1751214976202473000,8.281472900390625,0.2932897210121155,-7.967304706573486,1.1288660764694214
1751214976212466700,8.291466796875,0.3315969407558441,-8.039131164550781,1.157596468925476
1751214976222460400,8.30146044921875,0.2885012924671173,-8.077438354492188,1.1480196714401245
1751214976232454100,8.3114541015625,0.1975216418504715,-8.21151351928711,1.2629413604736328
1751214976242448100,8.3214482421875,0.1496376097202301,-8.479663848876953,1.535880446434021
1751214976252441900,8.33144189453125,0.14006079733371735,-8.776544570922852,1.84233820438385
1751214976262435600,8.341435546875,0.15921440720558167,-9.063849449157715,2.096123695373535
1751214976272429300,8.35142919921875,0.2406172752380371,-9.370306968688965,2.3068132400512695
1751214976282423000,8.361423095703126,0.25977087020874023,-9.59057331085205,2.4169466495513916
1751214976292416800,8.371416748046874,0.2454056739807129,-9.719860076904297,2.4600422382354736
1751214976302410500,8.381410400390624,0.06344634294509888,-9.671976089477539,2.4408886432647705
1751214976312404200,8.391404296875,-0.25258827209472656,-9.537900924682617,2.4600422382354736
1751214976322398000,8.40139794921875,-0.7984662652015686,-9.39903736114502,2.5749640464782715
1751214976332391700,8.4113916015625,-1.4975731372833252,-9.197924613952637,2.6898856163024902
1751214976342385400,8.421385498046876,-2.40736985206604,-8.910619735717773,2.785653591156006
1751214976352379100,8.431379150390624,-3.537432909011841,-8.575431823730469,2.9053637981414795
1751214976362373000,8.441373046875,-4.552574634552002,-8.21151351928711,2.93888258934021
1751214976372366800,8.451366943359375,-5.0697221755981445,-7.799710750579834,2.9053637981414795
1751214976382360600,8.461360595703125,-4.930858612060547,-7.36396598815918,2.8574798107147217
1751214976392354300,8.471354248046875,-4.15992546081543,-6.918644428253174,2.756923198699951
1751214976402348000,8.48134814453125,-3.1256303787231445,-6.487688064575195,2.7952303886413574
1751214976412341800,8.491341796875,-2.163161277770996,-6.07588529586792,2.9005753993988037
1751214976422335500,8.50133544921875,-1.416170358657837,-5.697601318359375,2.9053637981414795
1751214976432329200,8.5113291015625,-0.7601590156555176,-5.5108537673950195,2.78086519241333
1751214976442323000,8.521322998046875,-0.18076223134994507,-5.9753289222717285,2.6803088188171387
1751214976452316700,8.531316650390625,0.3124433159828186,-7.8092875480651855,3.005920171737671
1751214976462310400,8.541310302734376,1.557428240776062,-10.730213165283203,3.4560301303863525
1751214976472304400,8.551304443359374,2.0602104663848877,-12.894572257995605,3.8103721141815186
1751214976482298000,8.561298095703124,1.8112136125564575,-14.503475189208984,4.145560264587402
1751214976492291800,8.571291748046875,1.945288896560669,-15.470732688903809,4.140771865844727
1751214976502285600,8.58128564453125,2.3331496715545654,-15.341445922851562,3.072957992553711
1751214976512279300,8.591279296875,2.8838160037994385,-14.225748062133789,1.3730746507644653
1751214976522273000,8.60127294921875,3.180696964263916,-13.277644157409668,0.30047231912612915
1751214976532266800,8.611266845703126,2.4241292476654053,-13.215394973754883,0.15682020783424377
1751214976542260500,8.621260498046874,1.7154455184936523,-13.435661315917969,0.02274491637945175
1751214976552254200,8.631254150390625,1.3515268564224243,-13.95280933380127,0.12330138683319092
1751214976562248000,8.641248046875,1.4712369441986084,-15.135544776916504,0.5111620426177979
1751214976572241700,8.65124169921875,2.1559786796569824,-18.35814094543457,1.8519150018692017
1751214976582235400,8.6612353515625,2.668337821960449,-21.11147117614746,3.293224334716797
1751214976592229400,8.6712294921875,2.3092074394226074,-19.555240631103516,3.4177229404449463
1751214976602223000,8.68122314453125,1.4856021404266357,-15.17385196685791,3.355473756790161
1751214976612216800,8.691216796875,1.016338586807251,-12.717400550842285,3.5901055335998535
1751214976622210600,8.70121044921875,0.7721300721168518,-11.400589942932129,2.9532477855682373
1751214976632204300,8.711204345703125,0.32680854201316833,-10.543465614318848,1.6843209266662598
1751214976642198000,8.721197998046875,-0.14245499670505524,-9.667187690734863,0.16160862147808075
1751214976652191700,8.731191650390626,-0.1472434103488922,-8.920196533203125,-1.1743559837341309
1751214976662185500,8.741185546875,0.1975216418504715,-8.661623001098633,-1.9069817066192627
1751214976672179200,8.75117919921875,0.4082113802433014,-8.508394241333008,-2.251746654510498
1751214976682173000,8.7611728515625,0.585382342338562,-8.446145057678223,-2.318784236907959
1751214976692166700,8.771166748046875,0.8583213090896606,-8.331223487854004,-2.232593059539795
1751214976702160400,8.781160400390625,1.016338586807251,-8.513182640075684,-1.88782799243927
1751214976712154400,8.791154296875,1.0977414846420288,-9.03511905670166,-1.3515268564224243
1751214976722148000,8.801148193359374,1.6292542219161987,-9.633668899536133,-0.9445125460624695
1751214976732141800,8.811141845703125,2.5438392162323,-10.294468879699707,-0.6955155730247498
1751214976742135600,8.821135498046875,2.668337821960449,-10.74457836151123,-0.39863458275794983
1751214976752129300,8.83112939453125,2.337938070297241,-10.7110595703125,-0.15442600846290588
1751214976762123000,8.841123046875,2.055422067642212,-10.337564468383789,0.152031809091568
1751214976772116700,8.85111669921875,1.7729063034057617,-9.892242431640625,0.4920084476470947
1751214976782110500,8.8611103515625,1.624465823173523,-9.566631317138672,0.9804255962371826
1751214976792104200,8.871104248046874,1.6196774244308472,-9.413402557373047,1.521515130996704
1751214976802098000,8.881097900390625,1.5717934370040894,-9.288904190063477,1.9716250896453857
1751214976812091600,8.891091552734375,1.4233529567718506,-9.15961742401123,2.297236442565918
1751214976822085600,8.901085693359375,1.2270283699035645,-9.06863784790039,2.560598611831665
1751214976832079400,8.911079345703126,0.9349357485771179,-9.049484252929688,2.78086519241333
1751214976842073000,8.921072998046874,0.6476315855979919,-9.087791442871094,3.0346505641937256
1751214976852066800,8.93106689453125,0.37469255924224854,-9.140463829040527,3.2309751510620117
1751214976862060500,8.941060546875,0.1256955862045288,-9.212289810180664,3.4368765354156494
1751214976872054300,8.95105419921875,-0.07541735470294952,-9.21707820892334,3.5709519386291504
1751214976882048000,8.961048095703125,-0.2908954918384552,-9.083003044128418,3.604470729827881
1751214976892041700,8.971041748046876,-0.5159504413604736,-8.972869873046875,3.5853171348571777
1751214976902035500,8.981035400390626,-0.8176198601722717,-8.867524147033691,3.4991257190704346
1751214976912029200,8.991029296875,-1.291671872138977,-8.728660583496094,3.4368765354156494
1751214976922023000,9.00102294921875,-2.072181463241577,-8.436568260192871,3.4129345417022705
1751214976932016600,9.0110166015625,-3.226186752319336,-7.972093105316162,3.4560301303863525
1751214976942010600,9.0210107421875,-4.351461410522461,-7.636904716491699,3.709815502166748
1751214976952004400,9.03100439453125,-5.002684593200684,-7.498041152954102,3.886986494064331
1751214976961998000,9.040998046875,-4.6052470207214355,-7.378331184387207,3.561375141143799
1751214976971991800,9.05099169921875,-3.4799721240997314,-7.330447196960449,2.9245173931121826
1751214976981985500,9.060985595703125,-2.2206220626831055,-7.36396598815918,2.278082847595215
1751214976991979300,9.070979248046875,-0.9995791912078857,-7.474099159240723,1.679532527923584
1751214977001973000,9.080972900390625,0.11133038252592087,-7.708730697631836,1.215057373046875
1751214977011966700,9.090966796875,1.049857497215271,-8.168417930603027,0.93254154920578
1751214977021960400,9.10096044921875,1.9740192890167236,-8.747814178466797,0.7841010689735413
1751214977031954200,9.1109541015625,2.8119897842407227,-9.288904190063477,0.7553706169128418
1751214977041948000,9.120947998046875,3.4584243297576904,-9.499593734741211,0.7841010689735413
1751214977051942000,9.13094189453125,3.8941690921783447,-9.604938507080078,0.9516952037811279
1751214977061935600,9.140935546875,4.061763286590576,-9.858723640441895,1.2533645629882812
1751214977071929300,9.150929443359376,3.9659950733184814,-9.959280967712402,1.5263035297393799
1751214977081923000,9.160923095703126,3.554192304611206,-9.88745403289795,1.8567034006118774
1751214977091916800,9.170916748046874,2.8359320163726807,-9.671976089477539,2.3020248413085938
1751214977101910500,9.18091064453125,1.4233529567718506,-9.18355941772461,2.7281928062438965
1751214977111904300,9.190904296875,-0.6500257849693298,-8.42699146270752,3.068169593811035
1751214977121898000,9.20089794921875,-2.7521347999572754,-7.737461566925049,3.0777463912963867
1751214977131891700,9.2108916015625,-4.174290657043457,-7.201159954071045,2.4217350482940674
1751214977141885400,9.220885498046876,-3.776853084564209,-6.784569263458252,1.521515130996704
1751214977151879200,9.230879150390624,-1.8136078119277954,-6.554725646972656,1.1288660764694214
1751214977161873000,9.240872802734375,-0.5973533391952515,-6.573879241943359,1.6124948263168335
1751214977171867000,9.250866943359375,-0.6979097723960876,-6.86597204208374,2.761711597442627
1751214977181860600,9.260860595703125,-1.071405291557312,-7.632116317749023,4.270058631896973
1751214977191854300,9.270854248046875,-1.1767501831054688,-9.049484252929688,6.113594055175781
1751214977201848000,9.28084814453125,-1.282094955444336,-11.295245170593262,7.95712947845459
1751214977211841800,9.290841796875,-2.0003554821014404,-14.220959663391113,9.364919662475586
1751214977221835500,9.30083544921875,-1.7513585090637207,-17.20892333984375,9.848548889160156
1751214977231829200,9.310829345703125,-0.45848962664604187,-18.492216110229492,9.08719253540039
1751214977241823000,9.320822998046875,0.4944026470184326,-17.472286224365234,7.775169849395752
1751214977251816700,9.330816650390625,1.0402805805206299,-15.781978607177734,6.54455041885376
1751214977261810400,9.340810546875,1.8926163911819458,-14.38376522064209,5.203797340393066
1751214977271804200,9.35080419921875,2.3283610343933105,-13.215394973754883,3.513490915298462
1751214977281798000,9.3607978515625,2.232593059539795,-12.305598258972168,1.9093759059906006
1751214977291792000,9.3707919921875,2.0458452701568604,-11.400589942932129,0.5590460896492004
1751214977301785600,9.38078564453125,1.9596540927886963,-10.37108325958252,-0.5949591398239136
1751214977311779300,9.390779296875,1.988384485244751,-9.873088836669922,-1.1264718770980835
1751214977321773000,9.40077294921875,2.1128830909729004,-10.22264289855957,-1.0019733905792236
1751214977331766800,9.410766845703124,2.2804770469665527,-11.28566837310791,-0.4991910457611084
1751214977341760500,9.420760498046874,2.055422067642212,-12.31517505645752,-0.005985504016280174
1751214977351754200,9.430754150390625,1.3084312677383423,-12.80359172821045,0.30526071786880493
1751214977361748000,9.440748046875,-0.008379706181585789,-12.626420974731445,0.3627215623855591
1751214977371741700,9.45074169921875,-1.4832079410552979,-11.730989456176758,0.23343466222286224
1751214977381735400,9.4607353515625,-2.369062662124634,-10.591349601745605,0.23343466222286224
1751214977391729200,9.470729248046876,-2.5558102130889893,-9.600150108337402,0.20470423996448517
1751214977401723100,9.48072314453125,-2.096123695373535,-8.7669677734375,-0.005985504016280174
1751214977411716900,9.490716796875,-1.3395558595657349,-8.134899139404297,-0.17836803197860718
1751214977421710600,9.500710693359375,-0.7362170219421387,-7.7183074951171875,-0.20709845423698425
1751214977431704300,9.510704345703125,-0.6308721303939819,-7.478887557983398,-0.2214636504650116
1751214977441698000,9.520697998046876,-1.0283095836639404,-7.416638374328613,-0.14006079733371735
1751214977451691800,9.53069189453125,-1.3970166444778442,-7.507617950439453,0.08499415963888168
1751214977461685500,9.540685546875,-1.4927847385406494,-7.636904716491699,0.4106055796146393
1751214977471679200,9.55067919921875,-1.3874398469924927,-7.775768756866455,0.7697358727455139
1751214977481673000,9.5606728515625,-1.2102689743041992,-7.861959934234619,1.071405291557312
1751214977491666700,9.570666748046875,-1.0330979824066162,-7.905055522918701,1.258152961730957
1751214977501660400,9.580660400390625,-0.9660604000091553,-8.024765968322754,1.3204022645950317
1751214977511654100,9.590654052734376,-0.9660604000091553,-8.182783126831055,1.2868833541870117
1751214977521648000,9.600648193359374,-0.970848798751831,-8.24503231048584,1.191115379333496
1751214977531641900,9.610641845703125,-0.99479079246521,-8.249820709228516,1.1432312726974487
1751214977541635600,9.620635498046875,-0.9660604000091553,-8.3120698928833,1.1959037780761719
1751214977551629300,9.63062939453125,-0.8176198601722717,-8.489240646362305,1.40180504322052
1751214977561623000,9.640623046875,-0.5398924946784973,-8.752602577209473,1.6843209266662598
1751214977571616800,9.65061669921875,-0.1951274424791336,-9.039907455444336,2.072181463241577
1751214977581610500,9.660610595703124,0.14006079733371735,-9.27453899383545,2.632424831390381
1751214977591604200,9.670604248046875,0.3172317147254944,-9.34157657623291,3.2405519485473633
1751214977601598000,9.680597900390625,0.2406172752380371,-9.331999778747559,3.709815502166748
1751214977611591700,9.690591796875,-0.061052143573760986,-9.15961742401123,3.906140089035034
1751214977621585400,9.70058544921875,-0.5063736438751221,-8.881889343261719,3.843890905380249
1751214977631579100,9.7105791015625,-0.7793126702308655,-8.565855026245117,3.5853171348571777
1751214977641573000,9.720572998046874,-0.8463503122329712,-8.235455513000488,3.1926679611206055
1751214977651566800,9.73056689453125,-0.7984662652015686,-7.9864583015441895,2.7952303886413574
1751214977661560600,9.740560546875,-0.6356605291366577,-7.83801794052124,2.5318682193756104
1751214977671554300,9.75055419921875,-0.52552729845047,-7.770980358123779,2.364274263381958
1751214977681548000,9.760548095703125,-0.48722004890441895,-7.799710750579834,2.2445640563964844
1751214977691541800,9.770541748046876,-0.46327802538871765,-7.900267124176025,2.1057004928588867
1751214977701535500,9.780535400390624,-0.4489128291606903,-8.110957145690918,2.029085874557495
1751214977711529200,9.790529296875,-0.42018240690231323,-8.3120698928833,2.029085874557495
1751214977771491800,9.850491943359375,-1.0857704877853394,-8.91540813446045,1.9572598934173584
1751214977781485600,9.860485595703125,-1.215057373046875,-8.877100944519043,1.9333178997039795
1751214977791479300,9.870479248046875,-1.2629413604736328,-8.67598819732666,1.7848774194717407
1751214977801473000,9.88047314453125,-1.2437877655029297,-8.431779861450195,1.5502456426620483
1751214977811466800,9.890466796875,-1.2198457717895508,-8.273762702941895,1.3299790620803833
1751214977821460500,9.90046044921875,-1.1480196714401245,-8.230667114257812,1.0522516965866089
1751214977831454200,9.9104541015625,-1.0426748991012573,-8.216301918029785,0.669179379940033
1751214977841448000,9.920447998046875,-0.9995791912078857,-8.216301918029785,0.2717418968677521
1751214977851441700,9.930441650390625,-1.291671872138977,-8.206725120544434,-0.02513911761343479
1751214977861435400,9.940435302734375,-2.144007682800293,-8.173206329345703,-0.16879121959209442
1751214977871429400,9.950429443359376,-3.049015760421753,-8.21151351928711,-0.16400282084941864
1751214977881423000,9.960423095703124,-3.6092591285705566,-8.436568260192871,0.061052143573760986
1751214977891416800,9.970416748046874,-3.666719913482666,-8.613739013671875,0.7362170219421387
1751214977901410600,9.98041064453125,-3.178302764892578,-8.623315811157227,1.5741876363754272
1751214977911404300,9.990404296875,-1.9812018871307373,-8.556278228759766,2.2158336639404297
1751214977921398000,10.00039794921875,-0.3292027413845062,-8.920196533203125,2.804807186126709
1751214977931391700,10.010391845703126,1.3180080652236938,-9.901819229125977,3.2597055435180664
1751214977941385500,10.020385498046876,2.73537540435791,-11.879429817199707,3.666719913482666
1751214977951379200,10.030379150390624,3.1711201667785645,-13.914502143859863,4.174290657043457
1751214977961373000,10.040373046875,2.558204412460327,-15.4132719039917,4.945223808288574
1751214977971366700,10.05036669921875,1.624465823173523,-16.36137580871582,5.60602331161499
1751214977981360400,10.0603603515625,1.1456254720687866,-17.113155364990234,5.7305216789245605
1751214977991354400,10.070354248046876,0.6859387755393982,-16.940773010253906,4.6291890144348145
1751214978001348000,10.08034814453125,-0.6021417379379272,-15.403695106506348,2.584540843963623
1751214978011341800,10.090341796875,-2.383427858352661,-13.818733215332031,0.9277531504631042
1751214978021335600,10.10033544921875,-2.9963433742523193,-12.679093360900879,0.11851298063993454
1751214978031329300,10.110329345703125,-2.8143839836120605,-11.520299911499023,-0.5997475385665894
1751214978041323000,10.120322998046875,-2.273294448852539,-10.825981140136719,-1.1743559837341309
1751214978051316700,10.130316650390625,-1.3634978532791138,-10.974422454833984,-1.6675615310668945
1751214978061310500,10.140310546875,-0.03711012750864029,-12.219407081604004,-1.6101006269454956
1751214978071304200,10.15030419921875,1.2749123573303223,-14.058154106140137,-0.9493009448051453
1751214978081298000,10.1602978515625,2.299630641937256,-15.14033317565918,0.0802057534456253
1751214978091291600,10.170291748046875,3.204638957977295,-15.039776802062988,1.215057373046875
1751214978101285600,10.18028564453125,4.018667697906494,-14.297574043273926,2.1344308853149414
1751214978111279400,10.190279296875,4.286818027496338,-13.421296119689941,2.5318682193756104
1751214978121273000,10.200273193359376,4.258087635040283,-12.501922607421875,2.6228480339050293
1751214978131266800,10.210266845703124,4.358644008636475,-11.386224746704102,2.4600422382354736
1751214978141260500,10.220260498046875,4.090493679046631,-10.327987670898438,1.985990285873413
1751214978151254300,10.230254150390625,3.242946147918701,-9.719860076904297,1.2533645629882812
1751214978161248000,10.240248046875,2.491166830062866,-9.260173797607422,0.25258827209472656
1751214978171241700,10.25024169921875,1.9117701053619385,-8.805274963378906,-0.8583213090896606
1751214978181235500,10.2602353515625,1.6340426206588745,-8.422203063964844,-1.7585411071777344
1751214978191229200,10.270229248046874,1.677138328552246,-8.115745544433594,-2.390610456466675
1751214978201223000,10.280222900390624,1.820790410041809,-8.115745544433594,-2.697068214416504
1751214978211216600,10.290216552734375,2.1751322746276855,-8.321646690368652,-2.8167781829833984
1751214978221210600,10.300210693359375,3.846285104751587,-8.661623001098633,-2.7880477905273438
1751214978231204400,10.310204345703125,4.660313606262207,-8.877100944519043,-2.7066450119018555
1751214978241198000,10.320197998046876,3.669114112854004,-8.776544570922852,-2.299630641937256
1751214978251191800,10.33019189453125,2.251746654510498,-8.838793754577637,-1.5717934370040894
1751214978261185500,10.340185546875,0.5327098965644836,-9.154829025268555,-0.6955155730247498
1751214978271179300,10.35017919921875,-0.7170634269714355,-9.360730171203613,0.04668693244457245
1751214978281173000,10.360173095703125,-1.4449007511138916,-9.327211380004883,0.5398924946784973
1751214978291166700,10.370166748046875,-1.765723705291748,-9.327211380004883,0.8798691034317017
1751214978301160400,10.380160400390626,-1.7753005027770996,-9.384672164916992,1.138442873954773
1751214978311154200,10.390154296875,-1.5741876363754272,-9.451709747314453,1.3539210557937622
1751214978321148000,10.40014794921875,-1.2006921768188477,-9.59057331085205,1.6124948263168335
1751214978331142000,10.410141845703125,-0.645237386226654,-9.8970308303833,2.0626046657562256
1751214978341135600,10.420135498046875,-0.1472434103488922,-10.2561616897583,2.651578426361084
1751214978351129300,10.43012939453125,0.0011971008498221636,-10.56261920928955,3.2549171447753906
1751214978361123000,10.440123046875,0.04908113554120064,-10.663175582885742,3.75291109085083
1751214978371116800,10.45011669921875,-0.02753331884741783,-10.591349601745605,4.174290657043457
1751214978381110500,10.460110595703124,-0.1711854189634323,-10.423755645751953,4.428076267242432
1751214978391104300,10.470104248046875,-0.3196259140968323,-9.94970417022705,4.423287868499756
1751214978401098000,10.480097900390625,-0.5303156971931458,-9.360730171203613,4.203021049499512
1751214978411091700,10.490091796875,-0.8655039072036743,-8.6089506149292,3.848679304122925
1751214978421085400,10.50008544921875,-1.2964602708816528,-7.938574314117432,3.4991257190704346
1751214978431079200,10.5100791015625,-1.655590534210205,-7.464522361755371,3.293224334716797
1751214978441073000,10.520072998046874,-1.602918028831482,-7.182006359100342,3.0346505641937256
1751214978451067000,10.53006689453125,-1.2198457717895508,-7.028777599334717,2.632424831390381
1751214978461060600,10.540060546875,-0.7314286231994629,-7.0144124031066895,2.2206220626831055
1751214978471054300,10.550054443359375,-0.24779987335205078,-7.253832817077637,1.9716250896453857
1751214978481048000,10.560048095703126,0.3172317147254944,-7.727884769439697,1.780089020729065
1751214978491041800,10.570041748046876,1.0546458959579468,-8.192359924316406,1.5693992376327515
1751214978501035500,10.580035400390624,2.0027496814727783,-8.508394241333008,1.3730746507644653
1751214978511029200,10.590029296875,2.9029695987701416,-8.46051025390625,1.2342109680175781
1751214978521023000,10.60002294921875,3.5685577392578125,-8.33601188659668,1.2533645629882812
1751214978531016700,10.6100166015625,3.827131509780884,-8.450933456420898,1.3778630495071411
1751214978541010400,10.620010498046875,3.6739025115966797,-8.632892608642578,1.358709454536438
1751214978551004200,10.630004150390626,3.089717388153076,-8.82442855834961,1.2964602708816528
1751214978560998000,10.639997802734374,2.117671489715576,-8.905831336975098,1.2725181579589844
1751214978570991900,10.649991943359375,0.8918401598930359,-8.958504676818848,1.4305355548858643
1751214978580985600,10.659985595703125,-0.42018240690231323,-9.049484252929688,1.780089020729065
1751214978590979300,10.669979248046875,-1.7274165153503418,-9.030330657958984,2.096123695373535
1751214978600973000,10.67997314453125,-2.78086519241333,-8.948927879333496,2.450465440750122
1751214978610966800,10.689966796875,-3.4129345417022705,-8.656834602355957,2.6132712364196777
1751214978620960500,10.69996044921875,-3.8821980953216553,-8.12053394317627,2.230198860168457
1751214978630954200,10.709954345703125,-4.083311080932617,-7.5650787353515625,1.521515130996704
1751214978640948000,10.719947998046875,-3.604470729827881,-7.263409614562988,1.0761936902999878
1751214978650941700,10.729941650390625,-2.895787000656128,-7.205948352813721,1.2198457717895508
1751214978660935400,10.739935302734375,-2.316390037536621,-7.296928405761719,1.7705121040344238
1751214978670929200,10.74992919921875,-1.746570110321045,-7.651269912719727,2.584540843963623
1751214978680923100,10.759923095703124,-1.047463297843933,-8.575431823730469,3.580528736114502
1751214978690916900,10.769916748046874,-0.7410054206848145,-10.275315284729004,4.820724964141846
1751214978700910600,10.77991064453125,-0.750582218170166,-12.444461822509766,5.907692909240723
1751214978710904300,10.789904296875,0.015562310814857483,-14.378976821899414,6.381744861602783
1751214978720898000,10.79989794921875,0.8774749040603638,-15.4132719039917,6.276399612426758
1751214978730891800,10.809891845703126,1.2078747749328613,-15.590442657470703,5.907692909240723
1751214978740885500,10.819885498046874,2.165555477142334,-15.580865859985352,5.495890140533447
1751214978750879200,10.829879150390624,3.3435027599334717,-15.216947555541992,4.9164934158325195
1751214978760873000,10.839873046875,4.258087635040283,-14.182652473449707,3.9636008739471436
1751214978770866700,10.84986669921875,4.459200859069824,-12.841898918151855,2.469619035720825
1751214978780860400,10.8598603515625,3.822343111038208,-11.640009880065918,0.812831461429596
1751214978790854100,10.869854248046876,3.113659381866455,-10.7110595703125,-0.7769184708595276
1751214978800848100,10.87984814453125,3.1088709831237793,-11.496357917785645,-1.4616601467132568
1751214978810841900,10.889841796875,2.979583978652954,-13.694234848022461,-1.0690110921859741
1751214978820835600,10.899835693359375,1.7106571197509766,-14.613608360290527,-0.5327098965644836
1751214978830829300,10.909829345703125,-0.23822307586669922,-13.794791221618652,0.3818751573562622
1751214978840823000,10.919822998046875,-1.4257471561431885,-12.219407081604004,1.3634978532791138
1751214978850816800,10.929816650390626,-1.9524714946746826,-10.878653526306152,1.5119383335113525
1751214978860810500,10.939810546875,-2.6228480339050293,-9.930550575256348,1.238999366760254
1751214978870804200,10.94980419921875,-2.541445016860962,-9.446921348571777,1.1767501831054688
1751214978880798000,10.9597978515625,-1.96683669090271,-9.169194221496582,1.3443442583084106
1751214978890791700,10.969791748046875,-1.722628116607666,-8.838793754577637,1.3251906633377075
1751214978900785400,10.979785400390625,-1.96683669090271,-8.374319076538086,0.9181763529777527
1751214978910779100,10.989779052734375,-2.211045265197754,-8.015189170837402,0.6308721303939819
1751214978920773000,10.999773193359376,-2.1775264739990234,-7.680000305175781,0.42018240690231323
1751214978930766800,11.009766845703124,-2.1057004928588867,-7.36396598815918,0.20949265360832214
1751214978940760600,11.019760498046875,-2.12485408782959,-7.196371555328369,-0.0011971008498221636
1751214978950754300,11.02975439453125,-2.1104888916015625,-7.30650520324707,-0.04908113554120064
1751214978960748000,11.039748046875,-1.923741102218628,-7.6752119064331055,0.1280897855758667
1751214978970741800,11.04974169921875,-1.578976035118103,-8.182783126831055,0.5207388401031494
1751214978980735500,11.059735595703126,-1.2006921768188477,-8.671199798583984,1.047463297843933
1751214978990729200,11.069729248046874,-0.9373299479484558,-9.078214645385742,1.6268600225448608
1751214979000723000,11.079722900390625,-0.8032546639442444,-9.43255615234375,2.1344308853149414
1751214979010716700,11.089716552734375,-0.8367735147476196,-9.729436874389648,2.3977930545806885
1751214979020710400,11.09971044921875,-0.9421183466911316,-9.983222961425781,2.455253839492798
1751214979030704400,11.109704345703125,-0.9421183466911316,-10.208277702331543,2.5510218143463135
1751214979040698000,11.119697998046876,-0.812831461429596,-10.24658489227295,2.651578426361084
1751214979050691800,11.12969189453125,-0.6835445761680603,-10.146028518676758,2.7473464012145996
1751214979060685600,11.139685546875,-0.669179379940033,-9.992799758911133,2.84790301322937
1751214979070679300,11.14967919921875,-0.7649474143981934,-9.743802070617676,2.8814218044281006
1751214979080673000,11.159673095703125,-0.851138710975647,-9.394248962402344,2.7952303886413574
1751214979090666800,11.169666748046875,-0.8463503122329712,-9.015965461730957,2.694674015045166
1751214979100660500,11.179660400390626,-0.6643909811973572,-8.70950698852539,2.632424831390381
1751214979110654200,11.189654296875,-0.41539400815963745,-8.513182640075684,2.6659436225891113
1751214979120648000,11.19964794921875,-0.23822307586669922,-8.40304946899414,2.6898856163024902
1751214979130641700,11.2096416015625,-0.2190694510936737,-8.355165481567383,2.718616008758545
1751214979140635400,11.219635498046875,-0.3387795388698578,-8.331223487854004,2.7473464012145996
1751214979150629400,11.22962939453125,-0.568622887134552,-8.249820709228516,2.742558002471924
1751214979160623000,11.239623046875,-0.8032546639442444,-8.12053394317627,2.718616008758545
1751214979170616800,11.249616943359374,-0.99479079246521,-8.010400772094727,2.6659436225891113
1751214979180610600,11.259610595703125,-1.138442873954773,-7.914632320404053,2.541445016860962
1751214979190604300,11.269604248046875,-1.238999366760254,-7.857171535491943,2.345120668411255
1751214979200598000,11.279597900390625,-1.3060370683670044,-7.8332295417785645,2.1057004928588867
1751214979210591700,11.289591796875,-1.2964602708816528,-7.814075946807861,1.866280198097229
1751214979220585500,11.29958544921875,-1.2629413604736328,-7.80449914932251,1.6364368200302124
1751214979230579200,11.3095791015625,-1.171961784362793,-7.8092875480651855,1.459265947341919
1751214979240573000,11.319572998046874,-1.0283095836639404,-7.8763251304626465,1.4113819599151611
1751214979250566700,11.329566650390625,-0.9277531504631042,-8.043919563293457,1.4544775485992432
1751214979260560400,11.339560302734375,-0.7697358727455139,-8.130110740661621,1.4640543460845947
1751214979270554400,11.349554443359375,-0.5542576909065247,-8.197148323059082,1.4832079410552979
1751214979280548000,11.359548095703126,-0.3292027413845062,-8.326435089111328,1.4832079410552979
1751214979290541800,11.369541748046874,-0.14245499670505524,-8.436568260192871,1.43532395362854
1751214979300535600,11.37953564453125,-0.017956512048840523,-8.546701431274414,1.3682862520217896
1751214979310529300,11.389529296875,0.07302315533161163,-8.752602577209473,1.4879963397979736
1751214979320523000,11.39952294921875,0.11611878126859665,-9.059061050415039,1.7944542169570923
1751214979330516700,11.409516845703125,0.08259996026754379,-9.264962196350098,2.1104888916015625
1751214979340510500,11.419510498046876,0.10175357013940811,-9.389460563659668,2.388216257095337
1751214979350504200,11.429504150390626,0.03950432687997818,-9.456498146057129,2.455253839492798
1751214979360498000,11.439497802734374,-0.2908954918384552,-9.422979354858398,2.2445640563964844
1751214979370491600,11.44949169921875,-0.9995791912078857,-9.255385398864746,1.722628116607666
1751214979380485600,11.459485595703125,-1.8136078119277954,-8.901042938232422,0.9229647517204285
1751214979390479400,11.469479248046875,-2.6228480339050293,-8.546701431274414,0.3627215623855591
1751214979400473000,11.47947314453125,-3.2549171447753906,-8.18757152557373,0.30526071786880493
1751214979410466800,11.489466796875,-3.4560301303863525,-7.713519096374512,0.5638344883918762
1751214979420460500,11.49946044921875,-3.049015760421753,-7.134122371673584,0.9995791912078857
1751214979430454300,11.509454345703125,-1.9955670833587646,-6.444592475891113,1.459265947341919
1751214979440448000,11.519447998046875,-0.7410054206848145,-5.960963726043701,1.9476830959320068
1751214979450441700,11.529441650390625,0.4034229815006256,-5.960963726043701,2.383427858352661
1751214979460435500,11.539435546875,1.3754688501358032,-7.287351608276367,3.0825347900390625
1751214979470429200,11.54942919921875,2.189497470855713,-10.112509727478027,4.001908302307129
1751214979480423000,11.5594228515625,2.539050817489624,-12.8131685256958,4.6914381980896
1751214979490416600,11.569416748046875,2.5294740200042725,-13.976751327514648,5.017049789428711
1751214979500410600,11.57941064453125,2.3762452602386475,-14.536993980407715,5.199008941650391
1751214979510404400,11.589404296875,2.448071241378784,-14.982316017150879,5.261258125305176
1751214979520398000,11.599398193359375,2.385822057723999,-14.915278434753418,4.696226596832275
1751214979530391800,11.609391845703126,1.88782799243927,-14.742895126342773,3.8343141078948975
1751214979540385500,11.619385498046874,1.3946224451065063,-14.623185157775879,2.78086519241333
1751214979550379300,11.629379150390625,0.7146692276000977,-14.302362442016602,1.9620482921600342
1751214979560373000,11.639373046875,0.21667525172233582,-13.84267520904541,1.4927847385406494
1751214979570366700,11.64936669921875,-0.1280897855758667,-13.392565727233887,1.1049240827560425
1751214979580360400,11.6593603515625,-0.32441434264183044,-12.88978385925293,0.788889467716217
1751214979590354200,11.669354248046876,-0.4297592043876648,-12.40615463256836,0.5781996846199036
1751214979600348000,11.679347900390624,-0.10893617570400238,-12.449250221252441,0.424970805644989
1751214979610342000,11.689341796875,0.4800374507904053,-13.75169563293457,0.4967968463897705
1751214979620335600,11.699335693359375,1.0594342947006226,-15.844228744506836,0.8032546639442444
1751214979630329300,11.709329345703125,1.4760253429412842,-16.89288902282715,0.7745242714881897
1751214979640323000,11.719322998046875,1.5286977291107178,-15.935208320617676,0.16160862147808075
1751214979650316800,11.72931689453125,1.4903905391693115,-14.01984691619873,-0.6811503767967224
1751214979660310500,11.739310546875,1.5286977291107178,-12.238560676574707,-1.3946224451065063
1751214979670304300,11.74930419921875,1.5670050382614136,-10.634445190429688,-2.1272482872009277
1751214979680298000,11.759298095703125,1.8351556062698364,-9.260173797607422,-2.979583978652954
1751214979690291700,11.769291748046875,2.4432828426361084,-8.249820709228516,-3.649960517883301
1751214979700285400,11.779285400390625,3.4392707347869873,-7.61296272277832,-4.009090900421143
1751214979710279200,11.789279052734376,3.0561983585357666,-7.641693115234375,-3.7217864990234375
1751214979770241800,11.84924169921875,2.5438392162323,-9.978434562683105,2.0242974758148193
1751214979780235500,11.859235595703124,2.36188006401062,-9.9401273727417,3.178302764892578
1751214979790229200,11.869229248046874,2.031480073928833,-9.748590469360352,3.8774096965789795
1751214979800223000,11.879222900390625,1.643619418144226,-9.633668899536133,4.150348663330078
1751214979810216700,11.889216796875,1.116895079612732,-9.49001693725586,3.9396588802337646
1751214979820210400,11.89921044921875,0.585382342338562,-9.34157657623291,3.4608185291290283
1751214979830204200,11.9092041015625,0.16879121959209442,-9.264962196350098,2.981978178024292
1751214979840198000,11.919197998046876,-0.13287819921970367,-9.269750595092773,2.5749640464782715
1751214979850192000,11.92919189453125,-0.3196259140968323,-9.346364974975586,2.2445640563964844
1751214979860185600,11.939185546875,-0.4058171808719635,-9.657610893249512,2.120065689086914
1751214979870179300,11.949179443359375,-0.4345476031303406,-9.925761222839355,2.187103271484375
1751214979880173000,11.959173095703125,-0.36750996112823486,-10.117298126220703,2.5462334156036377
1751214979890166800,11.969166748046876,-0.21428105235099792,-10.34714126586914,3.111265182495117
1751214979900160500,11.979160400390626,0.0011971008498221636,-10.304045677185059,3.5853171348571777
1751214979910154200,11.989154296875,0.14484919607639313,-9.964069366455078,3.81994891166687
1751214979920148000,11.99914794921875,0.08259996026754379,-9.566631317138672,3.824737310409546
1751214979930141700,12.0091416015625,-0.1472434103488922,-9.255385398864746,3.580528736114502
1751214979940135400,12.019135498046875,-0.5207388401031494,-9.049484252929688,3.1878795623779297
1751214979950129200,12.029129150390625,-0.8990227580070496,-8.953716278076172,2.8191723823547363
1751214979960123100,12.039123046875,-1.1671733856201172,-8.896254539489746,2.5318682193756104
1751214979970116900,12.049116943359374,-1.2629413604736328,-8.771756172180176,2.316390037536621
1751214979980110600,12.059110595703125,-1.138442873954773,-8.599373817443848,2.139219284057617
1751214979990104300,12.069104248046875,-0.812831461429596,-8.383895874023438,1.96683669090271
1751214980000098000,12.07909814453125,-0.34356793761253357,-8.197148323059082,1.7417817115783691
1751214980010091800,12.089091796875,0.23104046285152435,-8.09659194946289,1.4832079410552979
1751214980020085500,12.09908544921875,0.8535329103469849,-8.048707962036133,1.1480196714401245
1751214980030079200,12.109079345703124,1.4951789379119873,-8.010400772094727,0.8702923059463501
1751214980040073000,12.119072998046875,2.141613483428955,-7.996035099029541,0.6979097723960876
1751214980050066700,12.129066650390625,2.8790276050567627,-8.019977569580078,0.6308721303939819
1751214980060060400,12.139060302734375,3.554192304611206,-8.091803550720215,0.5925649404525757
1751214980070054000,12.149053955078125,3.7696704864501953,-8.101380348205566,0.606930136680603
1751214980080047600,12.159047607421876,3.491943120956421,-8.110957145690918,0.5781996846199036
1751214980090041300,12.169041259765624,2.874239206314087,-8.024765968322754,0.4058171808719635
1751214980100035000,12.17903515625,2.2613234519958496,-7.957727909088135,0.1999158412218094
1751214980110028800,12.18902880859375,1.7633295059204102,-7.996035099029541,0.152031809091568
1751214980120022500,12.1990224609375,1.4712369441986084,-8.106168746948242,0.2669534981250763
1751214980130016300,12.209016357421875,1.2270283699035645,-8.182783126831055,0.5542576909065247
1751214980140010000,12.219010009765626,1.0881646871566772,-8.33601188659668,1.171961784362793
1751214980150003700,12.229003662109376,0.5758054852485657,-8.513182640075684,1.9907786846160889
1751214980159997200,12.2389970703125,-0.5542576909065247,-8.728660583496094,2.9005753993988037
1751214980169991000,12.248990966796875,-1.6268600225448608,-9.025542259216309,3.6523547172546387
1751214980179984600,12.258984619140625,-2.234987258911133,-9.403825759887695,4.140771865844727
1751214980189978400,12.268978271484375,-2.029085874557495,-9.59057331085205,4.174290657043457
1751214980199972000,12.27897216796875,-1.2677297592163086,-9.662399291992188,3.8726212978363037
1751214980209965800,12.2889658203125,-0.669179379940033,-9.70549488067627,3.7241806983947754
1751214980219959600,12.29895947265625,-0.750582218170166,-9.49001693725586,3.341108560562134
1751214980239946800,12.31894677734375,-1.6747441291809082,-8.61852741241455,2.958036184310913
1751214980249940500,12.3289404296875,-1.1288660764694214,-8.087015151977539,3.513490915298462
1751214980269928000,12.348927978515626,-0.7362170219421387,-7.790133953094482,5.127182960510254
1751214980279921700,12.358921630859374,-1.282094955444336,-8.455721855163574,5.8215012550354
1751214980289915400,12.368915283203124,-1.8040310144424438,-10.078990936279297,6.587646007537842
1751214980299909000,12.3789091796875,-1.7369933128356934,-12.267291069030762,7.10958194732666
1751214980309902800,12.38890283203125,-0.7314286231994629,-14.589666366577148,6.827065944671631
1751214980319896600,12.398896484375,0.5039794445037842,-16.423625946044922,6.276399612426758
1751214980329890300,12.408890380859376,1.3563152551651,-16.91204261779785,5.946000099182129
1751214980339884000,12.418884033203126,2.2421698570251465,-16.25124168395996,5.8215012550354
1751214980349877800,12.428877685546874,3.1663317680358887,-15.14033317565918,5.682637691497803
1751214980359871500,12.43887158203125,3.6308069229125977,-13.722965240478516,4.557363033294678
1751214980369865200,12.448865234375,3.1471781730651855,-12.367847442626953,2.6659436225891113
1751214980379859000,12.45885888671875,2.4576480388641357,-10.998364448547363,0.5015852451324463
1751214980389853000,12.46885302734375,2.146401882171631,-10.06462574005127,-0.8391677141189575
1751214980399846700,12.4788466796875,2.031480073928833,-9.839570045471191,-0.9684545993804932
1751214980409840400,12.48884033203125,1.8399440050125122,-9.8970308303833,-0.8008604645729065
1751214980419834000,12.498834228515625,1.4903905391693115,-10.34714126586914,-0.7050924301147461
1751214980429827800,12.508827880859375,1.3706804513931274,-10.89301872253418,-0.7098808288574219
1751214980439821600,12.518821533203125,1.4616601467132568,-11.199477195739746,-0.8200140595436096
1751214980449815300,12.528815185546875,1.313219666481018,-11.232995986938477,-0.9014169573783875
1751214980459809000,12.53880908203125,0.7817068696022034,-10.936115264892578,-0.7194576263427734
1751214980469802800,12.548802734375,0.0347159244120121,-10.466851234436035,-0.2454056739807129
1751214980479796500,12.55879638671875,-0.8846575021743774,-9.882665634155273,0.1472434103488922
1751214980489790200,12.568790283203125,-1.6412252187728882,-9.2841157913208,0.243011474609375
1751214980499784000,12.578783935546875,-1.9812018871307373,-8.7669677734375,0.1041477769613266
1751214980509778000,12.58877783203125,-2.0434510707855225,-8.450933456420898,-0.21188685297966003
1751214980519771600,12.598771728515626,-2.072181463241577,-8.340800285339355,-0.7050924301147461
1751214980529765400,12.608765380859374,-1.9572598934173584,-8.513182640075684,-1.0594342947006226
1751214980539759000,12.618759033203125,-1.6316484212875366,-8.776544570922852,-0.9780313968658447
1751214980549752800,12.6287529296875,-1.1432312726974487,-8.920196533203125,-0.5758054852485657
1751214980559746600,12.63874658203125,-0.7745242714881897,-8.939350128173828,-0.02992752194404602
1751214980569740300,12.648740234375,-0.6404489278793335,-8.886677742004395,0.48243165016174316
1751214980579734000,12.658734130859376,-0.7362170219421387,-8.786121368408203,0.8224082589149475
1751214980589727700,12.668727783203124,-0.9900023937225342,-8.671199798583984,0.9085995554924011
1751214980599721500,12.678721435546874,-1.3012486696243286,-8.580220222473145,0.8798691034317017
1751214980609715200,12.688715087890625,-1.622071623802185,-8.58500862121582,0.8032546639442444
1751214980619709000,12.698708984375,-1.8327614068984985,-8.762179374694824,0.8463503122329712
1751214980629703000,12.708702880859375,-1.7609353065490723,-9.087791442871094,1.1097124814987183
1751214980639696600,12.718696533203126,-1.3108254671096802,-9.485228538513184,1.679532527923584
1751214980649690400,12.7286904296875,-0.6356605291366577,-9.782109260559082,2.321178436279297
1751214980659684000,12.73868408203125,-0.09935937076807022,-9.94970417022705,2.8335378170013428
1751214980669677800,12.748677734375,0.20709845423698425,-10.021530151367188,3.1735143661499023
1751214980679671600,12.758671630859375,0.2932897210121155,-10.04068374633789,3.384204149246216
1751214980689665300,12.768665283203125,0.14484919607639313,-9.8970308303833,3.465606927871704
1751214980699659000,12.778658935546876,0.0347159244120121,-9.638457298278809,3.513490915298462
1751214980709652700,12.78865283203125,-0.013168109580874443,-9.379883766174316,3.5422213077545166
1751214980719646500,12.798646484375,0.015562310814857483,-9.106945037841797,3.5182793140411377
1751214980729640200,12.80864013671875,0.02513911761343479,-8.89146614074707,3.441664934158325
1751214980739634200,12.81863427734375,-0.12330138683319092,-8.743025779724121,3.336320161819458
1751214980749628000,12.8286279296875,-0.2717418968677521,-8.714295387268066,3.159149169921875
1751214980759621600,12.83862158203125,-0.34835633635520935,-8.723872184753418,2.852691411972046
1751214980769615400,12.848615478515624,-0.27653029561042786,-8.757390975952148,2.5941176414489746
1751214980779609000,12.858609130859374,-0.03711012750864029,-8.714295387268066,2.431311845779419
1751214980789602800,12.868602783203125,0.2885012924671173,-8.704718589782715,2.4169466495513916
1751214980799596500,12.878596435546875,0.5710170865058899,-8.680776596069336,2.3977930545806885
1751214980809590300,12.88859033203125,0.7242460250854492,-8.647257804870605,2.3546974658966064
1751214980819584000,12.898583984375,0.7817068696022034,-8.647257804870605,2.3355438709259033
1751214980829577700,12.90857763671875,0.628477931022644,-8.666411399841309,2.297236442565918
1751214980839571500,12.918571533203124,0.3555389642715454,-8.752602577209473,2.3259668350219727
1751214980849565200,12.928565185546875,0.07781155407428741,-8.901042938232422,2.4217350482940674
1751214980859559200,12.93855908203125,-0.1280897855758667,-8.996811866760254,2.5318682193756104
1751214980869553000,12.948552978515625,-0.1759738177061081,-9.015965461730957,2.646790027618408
1751214980879546600,12.958546630859376,-0.07541735470294952,-9.039907455444336,2.756923198699951
1751214980889540400,12.968540283203126,0.13527239859104156,-9.063849449157715,2.9963433742523193
1751214980899534000,12.9785341796875,0.34596213698387146,-8.996811866760254,3.2309751510620117
1751214980909527800,12.98852783203125,0.4800374507904053,-8.853158950805664,3.317166566848755
1751214980919521500,12.998521484375,0.4704606235027313,-8.752602577209473,3.2166099548339844
