time,seconds_elapsed,z,y,x
1748007504173752800,0.1097529296875,8.636146545410156,4.576336860656738,-0.8028039932250977
1748007504189530600,0.125530517578125,8.608205795288086,4.630433559417725,-0.7926347255706787
1748007504205338600,0.141338623046875,8.604202270507812,4.626074314117432,-0.8587936758995056
1748007504221116200,0.1571162109375,8.654869079589844,4.511470794677734,-0.95407634973526
1748007504236924400,0.17292431640625,8.736586570739746,4.331315994262695,-1.0402638912200928
1748007504260606000,0.19660595703125,8.803627014160156,4.150659084320068,-1.1994022130966187
1748007504276383500,0.212383544921875,8.802918434143066,4.135159492492676,-1.2567682266235352
1748007504292191700,0.228191650390625,8.772161483764648,4.188659191131592,-1.2941062450408936
1748007504307969300,0.24396923828125,8.712973594665527,4.3003411293029785,-1.3272337913513184
1748007504323777300,0.25977734375,8.661672592163086,4.411448955535889,-1.298048496246338
1748007504339554800,0.275554931640625,8.619208335876465,4.524602890014648,-1.1864203214645386
1748007504355393500,0.2913935546875,8.595409393310547,4.614086627960205,-0.9997634887695312
1748007504371232300,0.307232177734375,8.590357780456543,4.663917541503906,-0.7899516820907593
1748007504387040300,0.323040283203125,8.58578872680664,4.692399024963379,-0.6603135466575623
1748007504402848500,0.3388486328125,8.599617004394531,4.666253089904785,-0.6656212210655212
1748007504418626000,0.3546259765625,8.64257526397705,4.573789119720459,-0.7461481690406799
1748007504434434000,0.37043408203125,8.70249080657959,4.437306880950928,-0.8644948601722717
1748007504450242300,0.3862421875,8.739102363586426,4.334619522094727,-1.0047651529312134
1748007504466080800,0.402080810546875,8.757638931274414,4.288773059844971,-1.039503812789917
1748007504481858300,0.4178583984375,8.770257949829102,4.267387390136719,-1.0209633111953735
1748007504497636000,0.433635986328125,8.779291152954102,4.252785682678223,-1.0041215419769287
1748007504513444000,0.449444091796875,8.789871215820312,4.233379364013672,-0.9935023784637451
1748007504529221600,0.4652216796875,8.80256462097168,4.206658363342285,-0.9946163296699524
1748007504544999200,0.480999267578125,8.749484062194824,4.316808700561523,-0.9910030961036682
1748007504560807400,0.496807373046875,8.760672569274902,4.287472724914551,-1.0191078186035156
1748007504576615400,0.512615478515625,8.769636154174805,4.2646894454956055,-1.0374488830566406
1748007504592423700,0.528423583984375,8.763598442077637,4.273075103759766,-1.0538309812545776
1748007504608170800,0.544170654296875,8.768335342407227,4.271260738372803,-1.021286129951477
1748007504623948300,0.5599482421875,8.768656730651855,4.284617900848389,-0.9607816338539124
1748007504639756300,0.57575634765625,8.763434410095215,4.313042640686035,-0.8776496052742004
1748007504655564500,0.591564453125,8.751850128173828,4.353247165679932,-0.7904120087623596
1748007504671342000,0.607342041015625,8.737713813781738,4.392800807952881,-0.7252972722053528
1748007504687150000,0.623150146484375,8.727383613586426,4.418702602386475,-0.6915469765663147
1748007504702927600,0.638927734375,8.724888801574707,4.422825813293457,-0.6966446042060852
1748007504718736000,0.65473583984375,8.735522270202637,4.395176887512207,-0.7372007966041565
1748007504734574300,0.67057421875,8.76382827758789,4.326559066772461,-0.8041055798530579
1748007504750382600,0.686382568359375,8.817123413085938,4.200235366821289,-0.8869984149932861
1748007504766160100,0.70216015625,8.888431549072266,4.025749683380127,-0.9795491695404053
1748007504781937700,0.717937744140625,8.970181465148926,3.8086318969726562,-1.0956979990005493
1748007504797776400,0.7337763671875,9.048905372619629,3.573568344116211,-1.2317852973937988
1748007504813554000,0.749553955078125,9.115531921386719,3.3443758487701416,-1.3757237195968628
1748007504829331500,0.76533154296875,9.168092727661133,3.1374833583831787,-1.5075329542160034
1748007504845109200,0.781109130859375,9.204863548278809,2.979619264602661,-1.6008532047271729
1748007504860886800,0.79688671875,9.223721504211426,2.891839027404785,-1.6524555683135986
1748007504876664300,0.812664306640625,9.215033531188965,2.904120445251465,-1.6791704893112183
1748007504892472300,0.828472412109375,9.181068420410156,2.9985828399658203,-1.699076533317566
1748007504908280600,0.844280517578125,9.128673553466797,3.1507408618927,-1.7060309648513794
1748007504924058000,0.86005810546875,9.066378593444824,3.331153154373169,-1.695457100868225
1748007504939835600,0.875835693359375,8.997504234313965,3.520841121673584,-1.6789833307266235
1748007504955644000,0.891643798828125,8.925850868225098,3.7110068798065186,-1.6516668796539307
1748007504971482400,0.907482421875,8.847375869750977,3.9213032722473145,-1.5867305994033813
1748007504987321000,0.923321044921875,8.736663818359375,4.180959224700928,-1.536443829536438
1748007505003159600,0.93915966796875,8.570547103881836,4.512026309967041,-1.5354900360107422
1748007505018937300,0.954937255859375,8.450881004333496,4.749843597412109,-1.4805365800857544
1748007505034715000,0.97071484375,8.449466705322266,4.79429817199707,-1.3385049104690552
1748007505050553300,0.98655322265625,8.488234519958496,4.749863147735596,-1.248623251914978
1748007505066331100,1.0023310546875,8.551475524902344,4.660601615905762,-1.1495368480682373
1748007505082139100,1.01813916015625,8.597516059875488,4.583868503570557,-1.114116907119751
1748007505097947100,1.033947021484375,8.601997375488281,4.546213626861572,-1.2279977798461914
1748007505113755400,1.04975537109375,8.587383270263672,4.508195877075195,-1.450313687324524
1748007505129563400,1.0655634765625,8.57976245880127,4.439018249511719,-1.6891347169876099
1748007505145371600,1.08137158203125,8.585548400878906,4.344214916229248,-1.8938199281692505
1748007505161179600,1.0971796875,8.633842468261719,4.210062503814697,-1.9754831790924072
1748007505176957200,1.112957275390625,8.725098609924316,4.055749416351318,-1.8957695960998535
1748007505192735000,1.12873486328125,8.836362838745117,3.9325029850006104,-1.6200295686721802
1748007505208482000,1.14448193359375,8.917634010314941,3.8448448181152344,-1.3650537729263306
1748007505224290000,1.1602900390625,8.956222534179688,3.7816123962402344,-1.2868021726608276
1748007505240098000,1.17609814453125,8.995677947998047,3.7102317810058594,-1.2175171375274658
1748007505255936800,1.191936767578125,9.05288314819336,3.589247941970825,-1.154555082321167
1748007505271744800,1.207744873046875,9.110502243041992,3.4127442836761475,-1.2338241338729858
1748007505287553000,1.223552978515625,9.170559883117676,3.222961664199829,-1.2975871562957764
1748007505303391500,1.2393916015625,9.217585563659668,3.075204849243164,-1.3227342367172241
1748007505319199700,1.25519970703125,9.237231254577637,3.020747184753418,-1.311116099357605
1748007505335038200,1.2710380859375,9.231293678283691,3.0502352714538574,-1.2843942642211914
1748007505350877000,1.286876953125,9.205460548400879,3.1447315216064453,-1.2411869764328003
1748007505366715600,1.302715576171875,9.174860000610352,3.239957332611084,-1.2227046489715576
1748007505382523600,1.318523681640625,9.154050827026367,3.2943618297576904,-1.2332561016082764
1748007505398362400,1.3343623046875,9.153258323669434,3.290682315826416,-1.2488670349121094
1748007505414140000,1.350139892578125,9.171332359313965,3.2425224781036377,-1.242211937904358
1748007505429948000,1.365947998046875,9.197677612304688,3.1849539279937744,-1.195483684539795
1748007505445786600,1.38178662109375,9.222146034240723,3.138615369796753,-1.1276060342788696
1748007505461625300,1.397625244140625,9.23774242401123,3.1124279499053955,-1.0711225271224976
1748007505477433300,1.413433349609375,9.246443748474121,3.0995895862579346,-1.0325770378112793
1748007505493211000,1.4292109375,9.253149032592773,3.091269016265869,-0.9968347549438477
1748007505509019100,1.44501904296875,9.259414672851562,3.0888140201568604,-0.9449158906936646
1748007505524857600,1.460857666015625,9.261250495910645,3.105576515197754,-0.8689125776290894
1748007505540665900,1.476665771484375,9.256595611572266,3.1433067321777344,-0.7781133055686951
1748007505556473900,1.492473876953125,9.244463920593262,3.1999447345733643,-0.6860288977622986
1748007505572281900,1.50828173828125,9.230021476745605,3.2572717666625977,-0.6060298681259155
1748007505588059600,1.5240595703125,9.221235275268555,3.292910575866699,-0.5440056324005127
1748007505603837200,1.539837158203125,9.22340202331543,3.2935950756073,-0.5014755129814148
1748007505619645200,1.555645263671875,9.234143257141113,3.2668488025665283,-0.4782058894634247
1748007505635544800,1.571544921875,9.246393203735352,3.2319393157958984,-0.4787102937698364
1748007505651322600,1.587322509765625,9.254952430725098,3.2046005725860596,-0.4967571198940277
1748007505667100200,1.60310009765625,9.258732795715332,3.1920065879821777,-0.5072901248931885
1748007505682969300,1.61896923828125,9.260871887207031,3.188171148300171,-0.4921320676803589
1748007505698777300,1.63477734375,9.2680025100708,3.173393726348877,-0.4517612159252167
1748007505714585300,1.65058544921875,9.279613494873047,3.1456398963928223,-0.40509694814682007
1748007505730393600,1.6663935546875,9.291725158691406,3.115841865539551,-0.3546224534511566
1748007505746140700,1.682140625,9.301179885864258,3.0932934284210205,-0.2999627888202667
1748007505761979100,1.697979248046875,9.311165809631348,3.0691213607788086,-0.23036354780197144
1748007505777787400,1.713787353515625,9.322619438171387,3.040027379989624,-0.13184133172035217
1748007505793595400,1.729595458984375,9.329972267150879,3.0202629566192627,-0.005375701934099197
1748007505809373000,1.745373046875,9.328315734863281,3.023066282272339,0.11830657720565796
1748007505825181200,1.76118115234375,9.31966495513916,3.0447278022766113,0.20942999422550201
1748007505840958700,1.776958740234375,9.309128761291504,3.0728838443756104,0.2605736255645752
1748007505856736300,1.792736328125,9.299763679504395,3.099083185195923,0.28367680311203003
1748007505872575000,1.808574951171875,9.288641929626465,3.1305742263793945,0.30172106623649597
1748007505888413700,1.82441357421875,9.276528358459473,3.163482189178467,0.3298385441303253
1748007505904252200,1.840252197265625,9.264382362365723,3.1947391033172607,0.36776086688041687
1748007505920121300,1.856121337890625,9.251099586486816,3.2271971702575684,0.41563594341278076
1748007505935929300,1.871929443359375,9.288090705871582,3.0840182304382324,0.6249825954437256
1748007505951829000,1.8878291015625,9.283945083618164,3.086064577102661,0.674497127532959
1748007505967637200,1.90363720703125,9.294419288635254,3.040483236312866,0.7345826029777527
1748007505983475700,1.919475830078125,9.315130233764648,2.960599660873413,0.7959822416305542
1748007505999284000,1.935283935546875,9.339612007141113,2.8653883934020996,0.8553324937820435
1748007506015092000,1.951092041015625,9.358417510986328,2.7894530296325684,0.8996439576148987
1748007506030900200,1.966900146484375,9.368464469909668,2.747257709503174,0.9245724678039551
1748007506046708200,1.982708251953125,9.374217987060547,2.7334370613098145,0.9070563316345215
1748007506062516500,1.9985166015625,9.373924255371094,2.7504634857177734,0.8572508096694946
1748007506078324500,2.014324462890625,9.361498832702637,2.8064591884613037,0.8102559447288513
1748007506094132500,2.030132568359375,9.335380554199219,2.902311325073242,0.773079514503479
1748007506110032100,2.0460322265625,9.296311378479004,3.032353162765503,0.7441913485527039
1748007506125870800,2.061870849609375,9.24953556060791,3.1775081157684326,0.7210577130317688
1748007506141678800,2.077678955078125,9.198674201965332,3.3249123096466064,0.7069305777549744
1748007506157517600,2.093517578125,9.146332740783691,3.466662883758545,0.7051519751548767
1748007506181199000,2.11719921875,9.073492050170898,3.654090642929077,0.6998113393783569
1748007506204881000,2.140880859375,9.010921478271484,3.8088479042053223,0.682896614074707
1748007506220689000,2.15668896484375,8.978533744812012,3.888603448867798,0.6596171259880066
1748007506236466400,2.172466552734375,8.959859848022461,3.9375596046447754,0.6220293045043945
1748007506252213500,2.188213623046875,8.957406997680664,3.951021671295166,0.5697999596595764
1748007506268021800,2.204021728515625,8.967973709106445,3.934131622314453,0.51812344789505
1748007506283829800,2.219829833984375,8.98392391204834,3.9032671451568604,0.47329622507095337
1748007506299638000,2.235637939453125,8.998772621154785,3.873997688293457,0.4296729862689972
1748007506315476500,2.2514765625,9.011162757873535,3.8494482040405273,0.3887043595314026
1748007506331284700,2.26728466796875,9.023168563842773,3.825488567352295,0.34416091442108154
1748007506347092700,2.2830927734375,9.003761291503906,3.87552809715271,0.2880166172981262
1748007506362901000,2.29890087890625,9.021100044250488,3.8382694721221924,0.2404865175485611
1748007506378709000,2.314708984375,9.038396835327148,3.7999188899993896,0.1959182471036911
1748007506394547700,2.330547607421875,9.052495956420898,3.7683472633361816,0.1492171734571457
1748007506410355700,2.346355712890625,9.062973022460938,3.7446208000183105,0.10357196629047394
1748007506426102800,2.362102783203125,9.071224212646484,3.725508451461792,0.06225569173693657
1748007506441910800,2.377910888671875,9.078091621398926,3.709120273590088,0.032751474529504776
1748007506465623000,2.401623046875,9.082390785217285,3.6987197399139404,0.006437814794480801
1748007506481461800,2.417461669921875,9.079379081726074,3.706104040145874,-0.007560206111520529
1748007506497239300,2.4332392578125,9.071617126464844,3.725052833557129,-0.011143727228045464
1748007506513016800,2.449016845703125,9.0638427734375,3.743936777114868,-0.008350406773388386
1748007506528855600,2.46485546875,9.060613632202148,3.7517547607421875,-0.0030650501139461994
1748007506544724500,2.480724365234375,9.02419662475586,3.8385090827941895,-0.010141345672309399
1748007506560471600,2.496471435546875,8.982207298278809,3.935675859451294,-0.028094278648495674
1748007506576279800,2.51227978515625,8.981012344360352,3.9385030269622803,-0.00006079027662053704
1748007506592087800,2.528087890625,8.969847679138184,3.9635426998138428,0.050363026559352875
1748007506607865600,2.543865478515625,8.94504165649414,4.017490386962891,0.1280316710472107
1748007506623673600,2.559673583984375,8.911539077758789,4.0860161781311035,0.24359595775604248
1748007506639451100,2.575451171875,8.88265323638916,4.135204792022705,0.4110267758369446
1748007506655259400,2.59125927734375,8.8640718460083,4.151881694793701,0.6004185676574707
1748007506671037000,2.607036865234375,8.85276985168457,4.152491092681885,0.7454301118850708
1748007506686814500,2.622814453125,8.845365524291992,4.156397342681885,0.8088691234588623
1748007506702622500,2.63862255859375,8.83321762084961,4.1837077140808105,0.800775408744812
1748007506718430700,2.6544306640625,8.805959701538086,4.24652624130249,0.7697286605834961
1748007506734269200,2.670269287109375,8.76109504699707,4.343908309936523,0.7376102805137634
1748007506750077400,2.686077392578125,8.709010124206543,4.45177698135376,0.7107807397842407
1748007506765885400,2.701885498046875,8.65575885772705,4.556365013122559,0.69840407371521
1748007506781632500,2.717632568359375,8.617033958435059,4.627572536468506,0.7090131640434265
1748007506797471200,2.73347119140625,8.575065612792969,4.701432228088379,0.7315563559532166
1748007506813279200,2.749279296875,8.529878616333008,4.777093410491943,0.7687185406684875
1748007506829056800,2.765056884765625,8.484585762023926,4.847740650177002,0.8255931735038757
1748007506844926000,2.780926025390625,8.443177223205566,4.905555248260498,0.9048113226890564
1748007506860673000,2.796673095703125,8.41042709350586,4.944108963012695,0.9954304099082947
1748007506876511700,2.81251171875,8.385385513305664,4.9677605628967285,1.0849241018295288
1748007506892381000,2.828380859375,8.363053321838379,4.985918998718262,1.170615315437317
1748007506908219400,2.844219482421875,8.34261417388916,5.001970291137695,1.2455815076828003
1748007506924027600,2.860027587890625,8.329658508300781,5.0049543380737305,1.3181854486465454
1748007506939835600,2.875835693359375,8.335949897766113,4.97265625,1.3982213735580444
1748007506955674400,2.89167431640625,8.363720893859863,4.897138595581055,1.49552321434021
1748007506971452000,2.907451904296875,8.413236618041992,4.770134925842285,1.622851014137268
1748007506987229400,2.9232294921875,8.469464302062988,4.616220951080322,1.7689176797866821
1748007507003007000,2.939007080078125,8.522305488586426,4.463563919067383,1.9019192457199097
1748007507018784800,2.95478466796875,8.569483757019043,4.3345561027526855,1.9864451885223389
1748007507034592800,2.9705927734375,8.615777015686035,4.230432987213135,2.0105278491973877
1748007507050370300,2.986370361328125,8.660649299621582,4.143828392028809,1.9980568885803223
1748007507066147800,3.00214794921875,8.70388126373291,4.069438934326172,1.9627784490585327
1748007507081956000,3.0179560546875,8.746112823486328,3.998613119125366,1.9201546907424927
1748007507097733600,3.033733642578125,8.783717155456543,3.9386723041534424,1.8717790842056274
1748007507113541600,3.049541748046875,8.811553955078125,3.90203857421875,1.816867709159851
1748007507129350000,3.065349853515625,8.827500343322754,3.888341188430786,1.7681688070297241
1748007507145127400,3.08112744140625,8.832258224487305,3.893397092819214,1.732934832572937
1748007507160874500,3.09687451171875,8.829835891723633,3.911458969116211,1.704369068145752
1748007507176652000,3.112652099609375,8.823630332946777,3.93205189704895,1.6890537738800049
1748007507192429600,3.1284296875,8.816590309143066,3.9475061893463135,1.6897690296173096
1748007507208207400,3.144207275390625,8.80881118774414,3.9589104652404785,1.703603982925415
1748007507224015400,3.160015380859375,8.79996109008789,3.972777843475342,1.7170050144195557
1748007507239793000,3.17579296875,8.79135513305664,3.993602752685547,1.712772250175476
1748007507255601200,3.19160107421875,8.784234046936035,4.015722274780273,1.6975278854370117
1748007507271409200,3.2074091796875,8.77824592590332,4.035161972045898,1.6823359727859497
1748007507287217400,3.223217529296875,8.772716522216797,4.0501532554626465,1.6751384735107422
1748007507303056000,3.239055908203125,8.766555786132812,4.063958644866943,1.6739569902420044
1748007507318864100,3.254864013671875,8.75992202758789,4.0830078125,1.6622881889343262
1748007507334672100,3.270672119140625,8.8033447265625,3.9489784240722656,1.7541629076004028
1748007507350449700,3.28644970703125,8.814103126525879,3.912997007369995,1.7805681228637695
1748007507366196700,3.30219677734375,8.81834602355957,3.930791139602661,1.7193151712417603
1748007507381974300,3.317974365234375,8.83027172088623,3.929058074951172,1.6610825061798096
1748007507397782500,3.333782470703125,8.848133087158203,3.9079430103302,1.6152136325836182
1748007507413590500,3.349590576171875,8.864524841308594,3.8803763389587402,1.5916215181350708
1748007507429368000,3.3653681640625,8.870697021484375,3.867842674255371,1.5877363681793213
1748007507445176300,3.38117626953125,8.858308792114258,3.8909549713134766,1.6003857851028442
1748007507460984300,3.396984375,8.82316780090332,3.9585156440734863,1.628576397895813
1748007507476792600,3.41279248046875,8.76797866821289,4.067846298217773,1.6569781303405762
1748007507492570000,3.428570068359375,8.70218563079834,4.196506977081299,1.6827584505081177
1748007507508378000,3.444378173828125,8.631926536560059,4.3227081298828125,1.724653959274292
1748007507524186400,3.460186279296875,8.56173038482666,4.434534549713135,1.7894335985183716
1748007507540055300,3.47605517578125,8.496336936950684,4.525381565093994,1.8717819452285767
1748007507555863600,3.491863525390625,8.4382905960083,4.593382835388184,1.9663357734680176
1748007507571610600,3.507610595703125,8.394073486328125,4.6349616050720215,2.0559799671173096
1748007507587388200,3.52338818359375,8.371673583984375,4.644324779510498,2.125023603439331
1748007507603196200,3.539196044921875,8.375777244567871,4.61259651184082,2.1773159503936768
1748007507618974000,3.554973876953125,8.409574508666992,4.542818069458008,2.1936843395233154
1748007507634843100,3.570843017578125,8.469083786010742,4.452655792236328,2.1491546630859375
1748007507650681600,3.586681640625,8.5308256149292,4.372177600860596,2.0686898231506348
1748007507666459100,3.602459228515625,8.571329116821289,4.383576393127441,1.8673394918441772
1748007507682297900,3.6182978515625,8.564214706420898,4.459465980529785,1.7139955759048462
1748007507698136600,3.634136474609375,8.536263465881348,4.549048900604248,1.6151622533798218
1748007507713975000,3.64997509765625,8.510629653930664,4.6247239112854,1.533459186553955
1748007507729783300,3.665783203125,8.481500625610352,4.7048444747924805,1.4487824440002441
1748007507745591300,3.68159130859375,8.448999404907227,4.789677619934082,1.3578553199768066
1748007507761399300,3.6973994140625,8.419784545898438,4.852643966674805,1.3150898218154907
1748007507777238000,3.713238037109375,8.430718421936035,4.83879280090332,1.29593825340271
1748007507793211600,3.729211669921875,8.486842155456543,4.745098114013672,1.2759110927581787
1748007507809020000,3.74502001953125,8.566324234008789,4.611931800842285,1.2322983741760254
1748007507824797400,3.76079736328125,8.65534782409668,4.461368083953857,1.1625574827194214
1748007507840605400,3.77660546875,8.741111755371094,4.316666603088379,1.062895655632019
1748007507856413700,3.79241357421875,8.81214427947998,4.195464134216309,0.9563412666320801
1748007507872252200,3.808252197265625,8.871423721313477,4.0907769203186035,0.8566063046455383
1748007507888030000,3.824030029296875,8.918965339660645,4.003458499908447,0.771213173866272
1748007507903838000,3.839837890625,8.954317092895508,3.9361815452575684,0.7050355076789856
1748007507919615500,3.855615478515625,8.977014541625977,3.8894450664520264,0.6751441359519958
1748007507935393000,3.87139306640625,8.992694854736328,3.8513920307159424,0.6845449805259705
1748007507951201300,3.887201171875,9.002219200134277,3.8198001384735107,0.7345578670501709
1748007507966948400,3.9029482421875,9.00675106048584,3.794705629348755,0.8056271076202393
1748007507982756400,3.91875634765625,9.006373405456543,3.779265880584717,0.8790742754936218
1748007507998534000,3.934533935546875,9.006768226623535,3.7626354694366455,0.9439769983291626
1748007508014342100,3.950342041015625,9.01468563079834,3.7320644855499268,0.9887000918388367
1748007508030150100,3.966150146484375,9.032720565795898,3.6844983100891113,1.0024046897888184
1748007508046049800,3.9820498046875,9.057570457458496,3.6268491744995117,0.9883225560188293
1748007508061888500,3.997888427734375,9.08663272857666,3.5618948936462402,0.9572832584381104
1748007508077696500,4.013696533203125,9.117244720458984,3.4902877807617188,0.9295849800109863
1748007508093474300,4.029474365234375,9.143333435058594,3.425107955932617,0.9156838655471802
1748007508109221400,4.045221435546875,9.161802291870117,3.3747177124023438,0.9181730151176453
1748007508125029400,4.061029296875,9.173917770385742,3.339663505554199,0.9253431558609009
1748007508140837400,4.07683740234375,9.181618690490723,3.31575870513916,0.9348810911178589
1748007508156645600,4.092645751953125,9.186044692993164,3.300869941711426,0.9440484642982483
1748007508172484000,4.108484130859375,9.190696716308594,3.2826268672943115,0.9622066617012024
1748007508188322800,4.12432275390625,9.19375228881836,3.2596569061279297,1.0099272727966309
1748007508204100400,4.140100341796875,9.19174575805664,3.245204448699951,1.07277250289917
1748007508219908600,4.15590869140625,9.1850004196167,3.2473361492156982,1.1229227781295776
1748007508235716600,4.171716552734375,9.175512313842773,3.2645256519317627,1.1503254175186157
1748007508251524600,4.187524658203125,9.165511131286621,3.2929270267486572,1.1490991115570068
1748007508267302400,4.203302490234375,9.155960083007812,3.3259127140045166,1.1300822496414185
1748007508283140900,4.219140869140625,9.147666931152344,3.3541111946105957,1.113782525062561
1748007508298979600,4.2349794921875,9.141265869140625,3.3718669414520264,1.1127245426177979
1748007508314757000,4.250757080078125,9.13880729675293,3.372448682785034,1.1310111284255981
1748007508330504200,4.266504150390625,9.139487266540527,3.358916997909546,1.1652649641036987
1748007508346343000,4.282343017578125,9.14366626739502,3.3364291191101074,1.1966546773910522
1748007508362181400,4.298181396484375,9.152090072631836,3.30824613571167,1.2104312181472778
1748007508377989600,4.31398974609375,9.164050102233887,3.2768373489379883,1.205368161201477
1748007508393797600,4.329797607421875,9.179454803466797,3.240464687347412,1.186333417892456
1748007508409666800,4.345666748046875,9.195120811462402,3.204800844192505,1.1616383790969849
1748007508425474800,4.361474853515625,9.210027694702148,3.1732072830200195,1.129840612411499
1748007508441283000,4.377282958984375,9.224287033081055,3.146770477294922,1.086624026298523
1748007508457121500,4.39312158203125,9.227951049804688,3.1132795810699463,1.1501309871673584
1748007508472929800,4.4089296875,9.23165225982666,3.088966131210327,1.1854451894760132
1748007508488737800,4.42473779296875,9.230072975158691,3.0746779441833496,1.233899474143982
1748007508504546000,4.440546142578125,9.23119068145752,3.059574604034424,1.2627397775650024
1748007508520293000,4.456293212890625,9.238845825195312,3.044874906539917,1.242114543914795
1748007508536131600,4.472131591796875,9.249345779418945,3.0373518466949463,1.1808874607086182
1748007508551909400,4.487909423828125,9.260302543640137,3.0315842628479004,1.1075608730316162
1748007508567778300,4.5037783203125,9.269956588745117,3.0264835357666016,1.0386031866073608
1748007508583586600,4.519586669921875,9.27517032623291,3.032963514328003,0.9709442257881165
1748007508599394600,4.53539453125,9.27314567565918,3.057905912399292,0.9101521968841553
1748007508615202800,4.551202880859375,9.265933990478516,3.0957279205322266,0.8540050983428955
1748007508630980400,4.56698046875,9.253532409667969,3.1448800563812256,0.8076164722442627
1748007508646788400,4.582788330078125,9.237648963928223,3.2003889083862305,0.7705418467521667
1748007508662596600,4.5985966796875,9.219339370727539,3.259700059890747,0.740619957447052
1748007508678435000,4.61443505859375,9.200002670288086,3.321025848388672,0.7078982591629028
1748007508694212600,4.630212646484375,9.179527282714844,3.385655403137207,0.6663300395011902
1748007508710051300,4.64605126953125,9.157999038696289,3.4522907733917236,0.6189839243888855
1748007508725859300,4.661859375,9.137804985046387,3.5135231018066406,0.5710180997848511
1748007508741667600,4.67766748046875,8.951931953430176,3.974475860595703,0.4866507351398468
1748007508757506300,4.69350634765625,8.887825965881348,4.119056701660156,0.4585892856121063
1748007508773314300,4.709314208984375,8.885553359985352,4.123873710632324,0.4593473970890045
1748007508789091800,4.725091796875,8.885077476501465,4.1242194175720215,0.4654024839401245
1748007508804930600,4.7409306640625,8.888101577758789,4.117404460906982,0.46800124645233154
1748007508820708000,4.7567080078125,8.897482872009277,4.096963882446289,0.46912530064582825
1748007508836516000,4.77251611328125,8.912762641906738,4.063370227813721,0.47124066948890686
1748007508852263200,4.78826318359375,8.930088996887207,4.0238118171691895,0.4825345277786255
1748007508868071400,4.804071533203125,8.946555137634277,3.983578681945801,0.510526716709137
1748007508883910000,4.819909912109375,8.95971965789795,3.9485881328582764,0.5499547123908997
1748007508899657000,4.835656982421875,8.970843315124512,3.9154140949249268,0.6032318472862244
1748007508915526100,4.851526123046875,8.982881546020508,3.8770017623901367,0.6686487793922424
1748007508931303700,4.8673037109375,8.996438980102539,3.831451654434204,0.7446183562278748
1748007508947112000,4.88311181640625,9.009099960327148,3.7838613986968994,0.8299930691719055
1748007508962920000,4.898919921875,9.01884937286377,3.738717794418335,0.9234355092048645
1748007508978697500,4.914697509765625,9.02336597442627,3.69975209236145,1.0300923585891724
1748007508994505700,4.930505615234375,9.018118858337402,3.680049419403076,1.1406872272491455
1748007509010283300,4.946283203125,8.998577117919922,3.7000784873962402,1.2269612550735474
1748007509026091300,4.96209130859375,8.965723991394043,3.7621777057647705,1.2775778770446777
1748007509041869000,4.977869140625,8.925106048583984,3.855963945388794,1.2823431491851807
1748007509057646600,4.993646484375,8.883084297180176,3.959135055541992,1.2595431804656982
1748007509073454600,5.00945458984375,8.845756530761719,4.050676345825195,1.230853796005249
1748007509089262800,5.025262939453125,8.818544387817383,4.1132025718688965,1.2186986207962036
1748007509105070800,5.04107080078125,8.800567626953125,4.146780014038086,1.2347527742385864
1748007509120879000,5.056879150390625,8.787742614746094,4.167576789855957,1.2558977603912354
1748007509136687000,5.07268701171875,8.775320053100586,4.190320014953613,1.2670320272445679
1748007509152434200,5.08843408203125,8.765913963317871,4.210392951965332,1.265599250793457
1748007509168242200,5.1042421875,8.76346206665039,4.218692302703857,1.2548942565917969
1748007509184050400,5.120050537109375,8.76980209350586,4.208306789398193,1.2454384565353394
1748007509199889000,5.135888916015625,8.786643981933594,4.174112796783447,1.2417957782745361
1748007509215697200,5.151697265625,8.813404083251953,4.120182991027832,1.2322291135787964
1748007509231444200,5.1674443359375,8.846306800842285,4.056756019592285,1.2066445350646973
1748007509247221800,5.1832216796875,8.882439613342285,3.9922497272491455,1.1552517414093018
1748007509263029800,5.19902978515625,8.916243553161621,3.936302661895752,1.0846763849258423
1748007509278776800,5.21477685546875,8.94322681427002,3.89711594581604,1.000780701637268
1748007509294585000,5.230585205078125,8.957352638244629,3.886873245239258,0.910189688205719
1748007509310423600,5.246423583984375,8.949557304382324,3.9246954917907715,0.8201128840446472
1748007509326170600,5.262170654296875,8.927989959716797,3.990090847015381,0.7352346777915955
1748007509341979000,5.277978759765625,8.899032592773438,4.066827297210693,0.6622077226638794
1748007509357787000,5.293786865234375,8.866165161132812,4.146629810333252,0.605776309967041
1748007509373564400,5.309564453125,8.829072952270508,4.229524612426758,0.5735710263252258
1748007509389372700,5.32537255859375,8.791640281677246,4.307892322540283,0.5652511119842529
1748007509405150200,5.341150146484375,8.7548189163208,4.379962921142578,0.582622230052948
1748007509420958200,5.356958251953125,8.713661193847656,4.458033561706543,0.6069862246513367
1748007509436736000,5.372736083984375,8.669623374938965,4.540579319000244,0.6254315376281738
1748007509452483000,5.388483154296875,8.631388664245605,4.611825942993164,0.6329149007797241
1748007509468382700,5.4043828125,8.60863971710205,4.654328346252441,0.6316123008728027
1748007509484160300,5.42016015625,8.604996681213379,4.662039279937744,0.6243472695350647
1748007509499968300,5.43596826171875,8.615198135375977,4.644684314727783,0.6129083037376404
1748007509515776500,5.451776611328125,8.634769439697266,4.610657691955566,0.5941268801689148
1748007509531584500,5.46758447265625,8.662639617919922,4.562050819396973,0.5628079175949097
1748007509547362000,5.483362060546875,8.691506385803223,4.513253688812256,0.5085775852203369
1748007509563139800,5.499139892578125,8.715563774108887,4.474095821380615,0.43795347213745117
1748007509579039500,5.51503955078125,8.735258102416992,4.442972660064697,0.3544694185256958
1748007509594817000,5.530817138671875,8.752195358276367,4.415557384490967,0.26891469955444336
1748007509610655500,5.546655517578125,8.766221046447754,4.392008304595947,0.184441938996315
1748007509626494200,5.562494140625,8.777626991271973,4.372021675109863,0.09532134979963303
1748007509650206500,5.58620654296875,8.792684555053711,4.342371463775635,-0.05379895865917206
1748007509665984000,5.60198388671875,8.801843643188477,4.320920944213867,-0.16607962548732758
1748007509689696000,5.625696044921875,8.809139251708984,4.295817852020264,-0.33972543478012085
1748007509705504300,5.641504150390625,8.807052612304688,4.288864612579346,-0.4602886438369751
1748007509721281800,5.65728173828125,8.79826545715332,4.290977954864502,-0.590269923210144
1748007509737090000,5.673090087890625,8.784276008605957,4.29833459854126,-0.7288361191749573
1748007509752867600,5.68886767578125,8.86330795288086,4.101812839508057,-0.8872994184494019
1748007509768645000,5.70464501953125,8.83732795715332,4.130007743835449,-1.0075039863586426
1748007509784392200,5.72039208984375,8.812933921813965,4.159623146057129,-1.095503330230713
1748007509800200200,5.7362001953125,8.793479919433594,4.182914733886719,-1.1611757278442383
1748007509815947300,5.751947265625,8.776856422424316,4.203541278839111,-1.211371660232544
1748007509831755500,5.767755615234375,8.762223243713379,4.222354412078857,-1.251219630241394
1748007509847533000,5.783532958984375,8.75345230102539,4.233860492706299,-1.2735339403152466
1748007509863280000,5.799280029296875,8.749431610107422,4.239029884338379,-1.283928394317627
1748007509879118800,5.815118896484375,8.746768951416016,4.241537570953369,-1.2937484979629517
1748007509894866000,5.830865966796875,8.743330955505371,4.243273735046387,-1.3111767768859863
1748007509910643500,5.8466435546875,8.742471694946289,4.238298416137695,-1.332811951637268
1748007509926451500,5.862451416015625,8.886224746704102,3.9321346282958984,-1.320495367050171
1748007509942259700,5.878259765625,8.959447860717773,3.768328905105591,-1.303218126296997
1748007509958037200,5.894037353515625,8.9961576461792,3.6712567806243896,-1.3271815776824951
1748007509973845200,5.90984521484375,9.012964248657227,3.608196973800659,-1.38483464717865
1748007509989622800,5.925622802734375,9.00407600402832,3.605677604675293,-1.4477847814559937
1748007510005431000,5.94143115234375,8.976783752441406,3.6517395973205566,-1.500848412513733
1748007510021269500,5.95726953125,8.948965072631836,3.702491283416748,-1.542070746421814
1748007510037077800,5.973077880859375,8.928218841552734,3.7439463138580322,-1.5621061325073242
1748007510052885800,5.9888857421875,8.920598983764648,3.763256072998047,-1.5592375993728638
1748007510068755000,6.0047548828125,8.923249244689941,3.760977268218994,-1.549540400505066
1748007510084593700,6.02059375,8.927559852600098,3.7486114501953125,-1.5546619892120361
1748007510100371200,6.03637109375,8.9287109375,3.734684705734253,-1.5813432931900024
1748007510116179200,6.05217919921875,8.926149368286133,3.723918914794922,-1.6206985712051392
1748007510131987500,6.067987548828125,8.92179012298584,3.7191872596740723,-1.6552006006240845
1748007510147765000,6.083764892578125,8.917731285095215,3.7223734855651855,-1.6698486804962158
1748007510163573000,6.099572998046875,8.916096687316895,3.72896671295166,-1.6638538837432861
1748007510179411700,6.11541162109375,8.915034294128418,3.7378368377685547,-1.6495839357376099
1748007510195219700,6.1312197265625,8.913564682006836,3.7445333003997803,-1.6423192024230957
1748007510210997500,6.14699755859375,8.912970542907715,3.744191884994507,-1.6463183164596558
1748007510226775000,6.162775146484375,8.845952033996582,3.837855100631714,-1.786166787147522
1748007510242583000,6.1785830078125,8.760238647460938,3.948129177093506,-1.9598170518875122
1748007510258330000,6.194330078125,8.718428611755371,3.99465012550354,-2.0499167442321777
1748007510274138400,6.210138427734375,8.740386009216309,3.9565374851226807,-2.03023362159729
1748007510289916000,6.225916015625,8.763713836669922,3.9189200401306152,-2.0024449825286865
1748007510305724000,6.241723876953125,8.78390121459961,3.88738751411438,-1.9752707481384277
1748007510321501400,6.25750146484375,8.802112579345703,3.8615968227386475,-1.9445480108261108
1748007510337248500,6.27324853515625,8.778743743896484,3.838634490966797,-2.090198278427124
1748007510353087200,6.289087158203125,8.746709823608398,3.816875696182251,-2.2576324939727783
1748007510368864800,6.30486474609375,8.733535766601562,3.8118042945861816,-2.3164384365081787
1748007510384703500,6.320703369140625,8.73365592956543,3.80840802192688,-2.3215675354003906
1748007510400511500,6.336511474609375,8.750499725341797,3.7929816246032715,-2.2830748558044434
1748007510416350200,6.35235009765625,8.771496772766113,3.7768137454986572,-2.228658437728882
1748007510432127700,6.368127685546875,8.78976821899414,3.7602672576904297,-2.1842055320739746
1748007510447966500,6.383966552734375,8.801105499267578,3.743973731994629,-2.1664721965789795
1748007510463805000,6.399804931640625,8.815502166748047,3.720947504043579,-2.1475229263305664
1748007510479582700,6.415582763671875,8.835278511047363,3.6903088092803955,-2.118929386138916
1748007510495421200,6.431421142578125,8.858774185180664,3.6566150188446045,-2.078864812850952
1748007510511198700,6.44719873046875,8.88123893737793,3.6249027252197266,-2.038148880004883
1748007510527007000,6.463007080078125,8.89819622039795,3.601137638092041,-2.0060653686523438
1748007510542784500,6.478784423828125,8.907959938049316,3.5890328884124756,-1.9843097925186157
1748007510558623200,6.494623291015625,8.911026954650879,3.589695692062378,-1.9692814350128174
1748007510574461700,6.510461669921875,8.909008026123047,3.602735757827759,-1.954546570777893
1748007510590239200,6.5262392578125,8.904666900634766,3.6250977516174316,-1.9328633546829224
1748007510606047500,6.542047607421875,8.901138305664062,3.6502842903137207,-1.9014577865600586
1748007510621825000,6.557824951171875,8.915968894958496,3.6852803230285645,-1.7591447830200195
1748007510637633000,6.573633056640625,8.922494888305664,3.7222371101379395,-1.6445116996765137
1748007510653441300,6.589441162109375,8.91772747039795,3.7607808113098145,-1.5814746618270874
1748007510669218800,6.60521875,8.910429000854492,3.8085711002349854,-1.5064617395401
1748007510684996400,6.620996337890625,8.898248672485352,3.8660576343536377,-1.4300874471664429
1748007510700835000,6.6368349609375,8.882189750671387,3.9269356727600098,-1.3624471426010132
1748007510716643000,6.65264306640625,8.861093521118164,4.003567695617676,-1.2739150524139404
1748007510732390100,6.66839013671875,8.83244800567627,4.085778713226318,-1.2102341651916504
1748007510748228900,6.684228759765625,8.802125930786133,4.167350769042969,-1.1515873670578003
1748007510764006400,6.70000634765625,8.804757118225098,4.174591541290283,-1.1042757034301758
1748007510779875600,6.71587548828125,8.812762260437012,4.170775890350342,-1.0536794662475586
1748007510795683600,6.73168359375,8.821351051330566,4.163891315460205,-1.0080517530441284
1748007510811522300,6.747522216796875,8.828816413879395,4.156992435455322,-0.9704644680023193
1748007510827269400,6.763269287109375,8.815680503845215,4.182770729064941,-0.979071855545044
1748007510843077400,6.779077392578125,8.811134338378906,4.190154075622559,-0.9883837103843689
1748007510858855200,6.794855224609375,8.814083099365234,4.182180404663086,-0.9958341717720032
1748007510874663200,6.8106630859375,8.820626258850098,4.164113998413086,-1.0134578943252563
1748007510890440700,6.826440673828125,8.829328536987305,4.138193607330322,-1.0434045791625977
1748007510906249000,6.8422490234375,8.839380264282227,4.107006549835205,-1.0808500051498413
1748007510922087400,6.85808740234375,8.856953620910645,4.079967498779297,-1.0385680198669434
1748007510937895700,6.873895751953125,8.878006935119629,4.0457234382629395,-0.9917126893997192
1748007510953703700,6.88970361328125,8.904298782348633,4.005368709564209,-0.9169872999191284
1748007510969450800,6.90545068359375,8.933514595031738,3.958306312561035,-0.8333823680877686
1748007510985228300,6.921228271484375,8.982913970947266,3.848393201828003,-0.8170186877250671
1748007511001128000,6.9371279296875,9.011404037475586,3.7969233989715576,-0.7405123710632324
1748007511016905500,6.952905517578125,9.037495613098145,3.7478017807006836,-0.6693689227104187
1748007511032744200,6.968744140625,9.062417030334473,3.6997756958007812,-0.5955258011817932
1748007511048552400,6.984552490234375,9.086420059204102,3.653547763824463,-0.5088584423065186
1748007511064330000,7.000330078125,9.109370231628418,3.6097187995910645,-0.39961525797843933
1748007511080138000,7.016137939453125,9.128790855407715,3.5720174312591553,-0.27614274621009827
1748007511095915500,7.03191552734375,9.144171714782715,3.540419816970825,-0.14119301736354828
1748007511111754200,7.047754150390625,9.157663345336914,3.5082156658172607,0.0019334523240104318
1748007511127684400,7.063684326171875,9.173128128051758,3.46455454826355,0.14479191601276398
1748007511143492600,7.07949267578125,9.194785118103027,3.3970115184783936,0.2943335771560669
1748007511159270100,7.095270263671875,9.222193717956543,3.3021624088287354,0.46609658002853394
1748007511175047700,7.111047607421875,9.248821258544922,3.195680618286133,0.6460020542144775
1748007511190825200,7.1268251953125,9.27221393585205,3.084465980529785,0.8261472582817078
1748007511206633500,7.142633544921875,9.294275283813477,2.9654150009155273,0.9965709447860718
1748007511222411000,7.158410888671875,9.315942764282227,2.8390915393829346,1.1502821445465088
1748007511238188500,7.1741884765625,9.335917472839355,2.716233730316162,1.2779353857040405
1748007511253996500,7.18999658203125,9.351411819458008,2.6170811653137207,1.3683491945266724
1748007511269835300,7.205835205078125,9.360309600830078,2.557468891143799,1.419277310371399
1748007511285674000,7.221674072265625,9.36357307434082,2.525719165802002,1.4541772603988647
1748007511301451500,7.237451416015625,9.360661506652832,2.510260581970215,1.4990025758743286
1748007511317320700,7.25332080078125,9.354573249816895,2.4991705417633057,1.5545068979263306
1748007511333128700,7.269128662109375,9.349040031433105,2.4833953380584717,1.6120119094848633
1748007511348906200,7.28490625,9.347769737243652,2.4551782608032227,1.6618342399597168
1748007511364653300,7.3006533203125,9.350796699523926,2.4134411811828613,1.7053686380386353
1748007511380431000,7.31643115234375,9.35504150390625,2.3693013191223145,1.7435572147369385
1748007511396239000,7.332239013671875,9.336859703063965,2.2399165630340576,1.994043231010437
1748007511412108300,7.3481083984375,9.319544792175293,2.0834455490112305,2.230634927749634
1748007511427916300,7.363916259765625,9.303694725036621,2.1042122840881348,2.2768266201019287
1748007511443755000,7.379755126953125,9.27946662902832,2.151142120361328,2.3311970233917236
1748007511459563000,7.39556298828125,9.247971534729004,2.2271344661712646,2.384382724761963
1748007511475401700,7.411401611328125,9.211177825927734,2.331317186355591,2.426841974258423
1748007511491179300,7.42717919921875,9.172430992126465,2.4495139122009277,2.4569854736328125
1748007511507079000,7.443078857421875,9.137031555175781,2.559689998626709,2.4764962196350098
1748007511522887200,7.45888720703125,9.108692169189453,2.6490702629089355,2.4868762493133545
1748007511538664700,7.474664794921875,9.090723991394043,2.7167835235595703,2.479558229446411
1748007511554472700,7.49047265625,9.079248428344727,2.7737481594085693,2.4584479331970215
1748007511570342000,7.506341796875,9.068544387817383,2.8235385417938232,2.4412121772766113
1748007511586150000,7.52214990234375,9.052655220031738,2.875209093093872,2.439875841140747
1748007511601958100,7.537958251953125,9.033162117004395,2.9282031059265137,2.449082374572754
1748007511617735700,7.553735595703125,9.014045715332031,2.9724490642547607,2.466151475906372
1748007511633543700,7.569543701171875,8.998705863952637,3.0002238750457764,2.4884419441223145
1748007511649352000,7.58535205078125,8.98746109008789,3.0127930641174316,2.5137643814086914
1748007511665190400,7.6011904296875,8.980488777160645,3.0192792415618896,2.530839443206787
1748007511680998700,7.61699853515625,8.977060317993164,3.0281927585601807,2.532353639602661
1748007511704680200,7.64068017578125,8.979093551635742,3.046828269958496,2.5026204586029053
1748007511720488400,7.656488525390625,8.985895156860352,3.0534701347351074,2.469895601272583
1748007511736296400,7.67229638671875,8.995908737182617,3.0493781566619873,2.438297986984253
1748007511752074000,7.688073974609375,9.008162498474121,3.0316245555877686,2.4150896072387695
1748007511767851500,7.7038515625,9.021738052368164,3.000821352005005,2.402853012084961
1748007511783659800,7.71965966796875,9.037399291992188,2.9586427211761475,2.396296262741089
1748007511799467800,7.7354677734375,9.056851387023926,2.9041748046875,2.389479160308838
1748007511815306500,7.751306396484375,9.083757400512695,2.8339171409606934,2.371635675430298
1748007511831053600,7.767053466796875,9.119035720825195,2.752305030822754,2.3320345878601074
1748007511846892300,7.782892333984375,9.158620834350586,2.6702637672424316,2.2715046405792236
1748007511862669800,7.798669921875,9.197269439697266,2.599095344543457,2.1966612339019775
1748007511878569500,7.814569580078125,9.23147201538086,2.5465495586395264,2.1131482124328613
1748007511894347000,7.830346923828125,9.258959770202637,2.518935203552246,2.0241055488586426
1748007511910124500,7.84612451171875,9.278511047363281,2.506906509399414,1.9480869770050049
1748007511925963300,7.86196337890625,9.291184425354004,2.5039539337158203,1.8906317949295044
1748007511941771300,7.877771240234375,9.301040649414062,2.5080597400665283,1.835935354232788
1748007511957548800,7.893548828125,9.313101768493652,2.5110859870910645,1.7694528102874756
1748007511973387500,7.909387451171875,9.328256607055664,2.505979061126709,1.6953160762786865
1748007511989134600,7.925134521484375,9.3435640335083,2.498201847076416,1.6208584308624268
1748007512005034200,7.9410341796875,9.357857704162598,2.4944772720336914,1.5422298908233643
1748007512020811800,7.956811767578125,9.370227813720703,2.4975924491882324,1.4598768949508667
1748007512036650500,7.972650390625,9.286283493041992,2.655863046646118,1.6975659132003784
1748007512052397600,7.9883974609375,9.283303260803223,2.688598871231079,1.661957859992981
1748007512068175000,8.004175048828126,9.292302131652832,2.693998098373413,1.601838231086731
1748007512083952600,8.01995263671875,9.297762870788574,2.7070178985595703,1.5472743511199951
1748007512099761000,8.035760986328125,9.301037788391113,2.7280499935150146,1.4895704984664917
1748007512115538400,8.051538330078126,9.318053245544434,2.7197375297546387,1.395453929901123
1748007512131377200,8.067377197265625,9.340032577514648,2.714946985244751,1.250299096107483
1748007512147185200,8.08318505859375,9.372940063476562,2.692328691482544,1.0342915058135986
1748007512162993200,8.0989931640625,9.40453052520752,2.6694142818450928,0.7742220759391785
1748007512178832000,8.114831787109376,9.426115036010742,2.6539247035980225,0.5248037576675415
1748007512194609400,8.130609375,9.436497688293457,2.6492931842803955,0.322688490152359
1748007512210387000,8.146386962890626,9.439750671386719,2.651641607284546,0.17402100563049316
1748007512226195200,8.1621953125,9.441758155822754,2.649628162384033,0.055415526032447815
1748007512241972700,8.17797265625,9.447623252868652,2.628903388977051,-0.041016705334186554
1748007512257811500,8.1938115234375,9.451191902160645,2.6142101287841797,-0.10618139803409576
1748007512281523500,8.2175234375,9.449889183044434,2.6160953044891357,-0.16136516630649567
1748007512297331700,8.233331787109375,9.44456672668457,2.6328325271606445,-0.1968451291322708
1748007512313139700,8.2491396484375,9.440357208251953,2.6436588764190674,-0.24721571803092957
1748007512328978400,8.264978515625,9.44037914276123,2.637906074523926,-0.3017917275428772
1748007512344786400,8.280786376953126,9.441790580749512,2.628262996673584,-0.33942142128944397
1748007512360564000,8.29656396484375,9.44204330444336,2.6245601177215576,-0.36040839552879333
1748007512376372200,8.312372314453125,9.440415382385254,2.628317356109619,-0.37535718083381653
1748007512392210700,8.328210693359376,9.435112953186035,2.644723653793335,-0.39303046464920044
1748007512407988500,8.343988525390625,9.451452255249023,2.5719003677368164,-0.47515061497688293
1748007512423766000,8.35976611328125,9.477344512939453,2.44138503074646,-0.6244750022888184
1748007512439574000,8.375573974609376,9.46906852722168,2.455653190612793,-0.6905798316001892
1748007512455382300,8.39138232421875,9.456009864807129,2.486311197280884,-0.756644606590271
1748007512471159800,8.407159912109375,9.435365676879883,2.547666072845459,-0.8084946870803833
1748007512486907000,8.422906982421875,9.408388137817383,2.635913848876953,-0.8393893241882324
1748007512502715000,8.43871484375,9.38174819946289,2.722397565841675,-0.8612473011016846
1748007512518492400,8.454492431640626,9.358894348144531,2.7945010662078857,-0.8787744641304016
1748007512534331100,8.4703310546875,9.338343620300293,2.8582441806793213,-0.8922747373580933
1748007512550169900,8.486169921875,9.337013244628906,2.857783079147339,-0.9075518846511841
1748007512565947400,8.501947509765625,9.336050033569336,2.870020627975464,-0.8783693313598633
1748007512581816600,8.517816650390625,9.326542854309082,2.901547431945801,-0.8757936358451843
1748007512597655000,8.533655029296876,9.323382377624512,2.9127156734466553,-0.87236088514328
1748007512613432600,8.5494326171875,9.321924209594727,2.915323495864868,-0.8792085647583008
1748007512629271300,8.565271240234376,9.31813907623291,2.9221272468566895,-0.8965755701065063
1748007512645048800,8.581048828125,9.318076133728027,2.904392957687378,-0.9530777335166931
1748007512660796000,8.5967958984375,9.326370239257812,2.8853936195373535,-0.9293640851974487
1748007512676573400,8.612573486328126,9.330668449401855,2.888467788696289,-0.8750844597816467
1748007512692381700,8.628381591796876,9.333146095275879,2.894948720932007,-0.825860857963562
1748007512708189700,8.644189697265626,9.333236694335938,2.905661106109619,-0.7862582802772522
1748007512723998000,8.659998046875,9.328730583190918,2.927034378051758,-0.7600265741348267
1748007512739806000,8.675805908203126,9.319981575012207,2.9569904804229736,-0.7513580322265625
1748007512755583500,8.69158349609375,9.298176765441895,3.0178425312042236,-0.7790516018867493
1748007512779265300,8.715265380859375,9.27890396118164,3.0723843574523926,-0.7954686880111694
1748007512795103700,8.731103759765626,9.257139205932617,3.13566255569458,-0.8021073341369629
1748007512810881500,8.746881591796875,9.234292030334473,3.203094959259033,-0.7990162968635559
1748007512826689500,8.762689453125,9.213257789611816,3.266094207763672,-0.7866993546485901
1748007512842528300,8.7785283203125,9.131080627441406,3.4369421005249023,-0.9905480742454529
1748007512858397200,8.794397216796876,9.071562767028809,3.5514626502990723,-1.1243879795074463
1748007512874205400,8.810205322265626,9.074033737182617,3.544304132461548,-1.127037525177002
1748007512890013400,8.826013427734376,9.080964088439941,3.522794723510742,-1.1385966539382935
1748007512905760500,8.841760498046876,9.091553688049316,3.496958017349243,-1.13371741771698
1748007512921599200,8.85759912109375,9.108603477478027,3.467186689376831,-1.087355136871338
1748007512937376800,8.873376708984376,9.133872985839844,3.429439067840576,-0.9908066987991333
1748007512953184800,8.889184814453126,9.163849830627441,3.3851258754730225,-0.8574169278144836
1748007512968962600,8.904962646484375,9.19182014465332,3.343946695327759,-0.7062987685203552
1748007512984892700,8.920892578125,9.216362953186035,3.304964303970337,-0.5534068942070007
1748007513000670200,8.936670166015626,9.239821434020996,3.260049343109131,-0.4100790023803711
1748007513016478500,8.952478515625,9.26919174194336,3.189171552658081,-0.2857551574707031
1748007513032286500,8.968286376953126,9.308385848999023,3.08168363571167,-0.16603030264377594
1748007513048094500,8.984094482421876,9.360132217407227,2.9254560470581055,0.00475428206846118
1748007513063872300,8.999872314453125,9.41047191619873,2.750947952270508,0.21372495591640472
1748007513079649800,9.01564990234375,9.45331859588623,2.5738627910614014,0.42471832036972046
1748007513095457800,9.031457763671876,9.489460945129395,2.399407386779785,0.6028028130531311
1748007513111235300,9.0472353515625,9.521214485168457,2.2445151805877686,0.6921001672744751
1748007513127043600,9.063043701171875,9.549952507019043,2.0924324989318848,0.7684528827667236
1748007513142851600,9.0788515625,9.574965476989746,1.9296742677688599,0.8756542801856995
1748007513158659800,9.094659912109375,9.586445808410645,1.7485888004302979,1.1013060808181763
1748007513174467800,9.1104677734375,9.581192016601562,1.7005277872085571,1.2162835597991943
1748007513190306600,9.126306640625,9.579187393188477,1.6488478183746338,1.3003313541412354
1748007513206084000,9.142083984375,9.575828552246094,1.62090003490448,1.358893632888794
1748007513221892000,9.15789208984375,9.549777030944824,1.6428202390670776,1.507739782333374
1748007513237700400,9.173700439453125,9.511975288391113,1.7264748811721802,1.6468147039413452
1748007513253569500,9.189569580078125,9.454972267150879,1.8431873321533203,1.837541937828064
1748007513269408000,9.205407958984376,9.395256996154785,1.921963095664978,2.0507540702819824
1748007513285216300,9.22121630859375,9.365059852600098,1.9091403484344482,2.195729970932007
1748007513300993800,9.236993896484375,9.323017120361328,1.7919811010360718,2.457751512527466
1748007513316801800,9.2528017578125,9.301764488220215,1.7552839517593384,2.5625264644622803
1748007513332610000,9.268610107421875,9.265223503112793,1.6552021503448486,2.754328966140747
1748007513348387600,9.2843876953125,9.23623275756836,1.494173288345337,2.9376604557037354
1748007513364165000,9.3001650390625,9.215991020202637,1.2666302919387817,3.1034717559814453
1748007513379973000,9.31597314453125,9.196746826171875,1.0192009210586548,3.248302698135376
1748007513395751000,9.3317509765625,9.180273056030273,0.8005940914154053,3.354405164718628
1748007513411528400,9.347528564453125,9.178324699401855,0.6746230721473694,3.3872737884521484
1748007513427306000,9.363305908203126,9.202226638793945,0.6574772596359253,3.325228214263916
1748007513443114000,9.379114013671876,9.236372947692871,0.7446328997612,3.2101902961730957
1748007513458922200,9.394922119140626,9.291504859924316,0.8621881604194641,3.015784740447998
1748007513474699800,9.41069970703125,9.365469932556152,0.9693728089332581,2.7420215606689453
1748007513490507800,9.4265078125,9.437738418579102,1.0542981624603271,2.447026014328003
1748007513506346500,9.442346435546876,9.49093246459961,1.0677732229232788,2.225409507751465
1748007513522124000,9.4581240234375,9.47641372680664,1.153483271598816,2.244425058364868
1748007513537901600,9.473901611328126,9.448169708251953,1.32117760181427,2.2708990573883057
1748007513553709800,9.489709716796876,9.416065216064453,1.5094741582870483,2.286827802658081
1748007513569487400,9.5054873046875,9.38090705871582,1.6896744966506958,2.305206298828125
1748007513585265000,9.521264892578126,9.348787307739258,1.8264573812484741,2.331228733062744
1748007513601073200,9.5370732421875,9.315948486328125,1.904071569442749,2.399583101272583
1748007513616850700,9.5528505859375,9.281379699707031,1.9212859869003296,2.5169484615325928
1748007513632658700,9.56865869140625,9.259730339050293,1.908362865447998,2.6049814224243164
1748007513648436500,9.5844365234375,9.254812240600586,1.9095234870910645,2.62155818939209
1748007513664244500,9.600244384765626,9.25015926361084,1.9563305377960205,2.6034064292907715
1748007513679991600,9.615991455078126,9.237725257873535,2.0488638877868652,2.576233148574829
1748007513695830300,9.631830322265625,9.212506294250488,2.1708474159240723,2.566619873046875
1748007513711607800,9.64760791015625,9.183784484863281,2.2908406257629395,2.565256118774414
1748007513727415800,9.663415771484376,9.160400390625,2.3754053115844727,2.5719454288482666
1748007513743224000,9.67922412109375,9.145187377929688,2.458773612976074,2.547619104385376
1748007513759032000,9.695031982421876,9.140225410461426,2.5517098903656006,2.4729433059692383
1748007513774901200,9.7109013671875,9.140192031860352,2.655392646789551,2.361393451690674
1748007513790709200,9.726709228515626,9.13825511932373,2.76200795173645,2.243656635284424
1748007513806548000,9.7425478515625,9.132271766662598,2.868379831314087,2.1317577362060547
1748007513822356000,9.75835595703125,9.120132446289062,2.964409828186035,2.0508170127868652
1748007513838164200,9.774164306640625,9.11550235748291,3.033318519592285,1.9690015316009521
1748007513853911300,9.789911376953125,9.126665115356445,3.0685417652130127,1.8596832752227783
1748007513869719300,9.80571923828125,9.140183448791504,3.092994451522827,1.7495213747024536
1748007513885496800,9.821496826171876,9.152170181274414,3.1206095218658447,1.6340057849884033
1748007513901274400,9.8372744140625,9.161526679992676,3.1574575901031494,1.5057463645935059
1748007513917082600,9.85308251953125,9.167037963867188,3.1996636390686035,1.377662181854248
1748007513932860200,9.868860107421876,9.104010581970215,3.27901291847229,1.5923141241073608
1748007513948668400,9.88466845703125,9.105710983276367,3.3056373596191406,1.5261634588241577
1748007513964476400,9.900476318359376,9.109501838684082,3.315006971359253,1.4826033115386963
1748007513980254000,9.91625390625,9.120699882507324,3.2947354316711426,1.4587504863739014
1748007513996062200,9.932062255859375,9.132429122924805,3.2669949531555176,1.4477126598358154
1748007514011931100,9.94793115234375,9.138232231140137,3.261557102203369,1.423149585723877
1748007514027769900,9.963769775390626,9.136054992675781,3.293816566467285,1.3614919185638428
1748007514043608600,9.979608642578125,9.124640464782715,3.34700083732605,1.307252049446106
1748007514059386000,9.99538623046875,9.106257438659668,3.401357889175415,1.2950798273086548
1748007514075224600,10.011224609375,9.084918022155762,3.4529836177825928,1.308264970779419
1748007514090971600,10.0269716796875,9.054640769958496,3.5078890323638916,1.3706138134002686
1748007514106810400,10.042810302734376,9.01700210571289,3.5781004428863525,1.435703158378601
1748007514122588000,10.058587890625,8.982918739318848,3.657522439956665,1.449164867401123
1748007514138396200,10.074396240234375,8.95398235321045,3.7398951053619385,1.4176652431488037
1748007514154204200,10.0902041015625,8.926019668579102,3.8219656944274902,1.3744574785232544
1748007514170012200,10.10601220703125,8.900100708007812,3.8980863094329834,1.3279718160629272
1748007514185820400,10.1218203125,8.87916374206543,3.958799123764038,1.2879225015640259
1748007514201659100,10.1376591796875,8.864810943603516,4.0021843910217285,1.2522172927856445
1748007514217467100,10.153467041015626,8.85886287689209,4.0271806716918945,1.2135754823684692
1748007514233275100,10.169275146484376,8.859467506408691,4.031160354614258,1.1958130598068237
1748007514249053000,10.185052978515625,8.862929344177246,4.020960807800293,1.2044718265533447
1748007514264891400,10.200891357421876,8.87703800201416,3.984741687774658,1.2208255529403687
1748007514280699600,10.21669970703125,8.901833534240723,3.9239578247070312,1.2370591163635254
1748007514296507600,10.232507568359376,8.943058967590332,3.8322184085845947,1.2272659540176392
1748007514312346400,10.248346435546875,8.986298561096191,3.7319962978363037,1.2202547788619995
1748007514328154400,10.264154296875,9.014158248901367,3.655442237854004,1.246229887008667
1748007514343932000,10.279931884765626,9.02296257019043,3.6205289363861084,1.28386390209198
1748007514359709400,10.29570947265625,9.017827033996582,3.627622365951538,1.2998255491256714
1748007514375548200,10.311548095703126,9.004315376281738,3.6659538745880127,1.28587806224823
1748007514399229700,10.335229736328126,8.984038352966309,3.741370677947998,1.2081362009048462
1748007514415068400,10.351068359375,8.989340782165527,3.758066415786743,1.113141417503357
1748007514430846000,10.366845947265626,9.011717796325684,3.7368602752685547,0.9975965023040771
1748007514446593000,10.382593017578126,9.042940139770508,3.6887850761413574,0.8879697322845459
1748007514462431700,10.398431640625,9.070258140563965,3.645397663116455,0.7822351455688477
1748007514478209300,10.414209228515626,9.08312702178955,3.6301651000976562,0.6993575096130371
1748007514493986800,10.42998681640625,9.082700729370117,3.6366164684295654,0.6707897186279297
1748007514509825500,10.445825439453126,9.07768440246582,3.647627115249634,0.6788609623908997
1748007514525633500,10.461633544921876,9.07608413696289,3.654998540878296,0.6603622436523438
1748007514549345800,10.485345703125,9.070385932922363,3.6853678226470947,0.5626295208930969
1748007514565153800,10.50115380859375,9.05296516418457,3.739924907684326,0.4766443967819214
1748007514580931600,10.516931640625,9.022607803344727,3.8212268352508545,0.40144869685173035
1748007514596739600,10.532739501953126,8.984210968017578,3.915030002593994,0.35620611906051636
1748007514612547600,10.548547607421876,8.943917274475098,4.007796764373779,0.33809542655944824
1748007514628355800,10.56435595703125,8.907377243041992,4.089711666107178,0.32136523723602295
1748007514644133400,10.58013330078125,8.861059188842773,4.188893795013428,0.32432451844215393
1748007514659972000,10.59597216796875,8.81436538696289,4.286397457122803,0.3227328062057495
1748007514675780000,10.611780029296876,8.774481773376465,4.3689069747924805,0.302494615316391
1748007514691557600,10.6275576171875,8.74326229095459,4.433521747589111,0.26390403509140015
1748007514707366000,10.643365966796875,8.715499877929688,4.490729331970215,0.2092762291431427
1748007514723174000,10.659173828125,8.685820579528809,4.550227642059326,0.14944924414157867
1748007514738951400,10.674951416015626,8.65269660949707,4.6143975257873535,0.09256335347890854
1748007514754759700,10.690759765625,8.622002601623535,4.672248840332031,0.03942570835351944
1748007514770567700,10.706567626953126,8.599263191223145,4.714122772216797,-0.010342822410166264
1748007514786376000,10.7223759765625,8.576233863830566,4.755563735961914,-0.05672507360577583
1748007514802184000,10.738183837890626,8.54287052154541,4.814747333526611,-0.0891912430524826
1748007514818022700,10.754022705078125,8.500232696533203,4.889155864715576,-0.1122211143374443
1748007514833830700,10.76983056640625,8.468421936035156,4.943226337432861,-0.1440058797597885
1748007514849608200,10.785608154296876,8.452797889709473,4.969876289367676,-0.14462050795555115
1748007514865447000,10.801447021484375,8.451586723327637,4.9723405838012695,-0.1300482302904129
1748007514881224400,10.817224365234376,8.454718589782715,4.967695713043213,-0.1005856990814209
1748007514897063200,10.833063232421875,8.45695972442627,4.964642524719238,-0.050399232655763626
1748007514912840700,10.8488408203125,8.45848274230957,4.962278842926025,0.01538154762238264
1748007514928648700,10.864648681640626,8.46309757232666,4.953616619110107,0.08966828882694244
1748007514944457000,10.88045703125,8.471850395202637,4.936797618865967,0.16177411377429962
1748007514960204000,10.8962041015625,8.483785629272461,4.913261890411377,0.23587138950824738
1748007514976012000,10.912011962890626,8.560717582702637,4.768336296081543,0.3840273916721344
1748007514991820000,10.927820068359376,8.577563285827637,4.732081413269043,0.4507824182510376
1748007515007597800,10.943597900390625,8.591322898864746,4.703420162200928,0.4872334897518158
1748007515023405800,10.95940576171875,8.599778175354004,4.6874260902404785,0.4921891391277313
1748007515039213800,10.9752138671875,8.600706100463867,4.690520763397217,0.44413602352142334
1748007515054991600,10.99099169921875,8.599682807922363,4.697876930236816,0.3818340301513672
1748007515070799600,11.006799560546876,8.600013732910156,4.7007365226745605,0.33649078011512756
1748007515086638300,11.022638427734375,8.605757713317871,4.690248012542725,0.33600860834121704
1748007515102446300,11.0384462890625,8.618368148803711,4.663051605224609,0.38738787174224854
1748007515118224000,11.054223876953126,8.635049819946289,4.625168323516846,0.4627358019351959
1748007515134032100,11.0700322265625,8.652395248413086,4.58410120010376,0.5407928824424744
1748007515149870600,11.08587060546875,8.66609001159668,4.550165176391602,0.6043714880943298
1748007515165678800,11.101678955078125,8.674003601074219,4.529730319976807,0.6431121826171875
1748007515181486800,11.11748681640625,8.674640655517578,4.52632474899292,0.658312976360321
1748007515197295000,11.133295166015625,8.672670364379883,4.529984474182129,0.6591010689735413
1748007515213133600,11.149133544921876,8.671146392822266,4.532834529876709,0.6595619320869446
1748007515228941800,11.16494189453125,8.673321723937988,4.526582717895508,0.6737488508224487
1748007515244689000,11.18068896484375,8.68438720703125,4.500550270080566,0.7048805356025696
1748007515260527400,11.19652734375,8.704117774963379,4.453853607177734,0.7562441825866699
1748007515276366000,11.212365966796876,8.727622985839844,4.394885540008545,0.8270220160484314
1748007515300047600,11.236047607421876,8.75664234161377,4.314821720123291,0.934838593006134
1748007515315794700,11.251794677734376,8.767753601074219,4.281375885009766,0.9832123517990112
1748007515339507000,11.2755068359375,8.763664245605469,4.285339832305908,1.00221586227417
1748007515355315000,11.29131494140625,8.750920295715332,4.31479549407959,0.9870778322219849
1748007515371092500,11.307092529296876,8.734978675842285,4.354939937591553,0.9513372182846069
1748007515386870300,11.322870361328125,8.716930389404297,4.400797367095947,0.904705286026001
1748007515402647800,11.338647705078126,8.696002960205078,4.450376510620117,0.862591028213501
1748007515418455800,11.354455810546876,8.675531387329102,4.495794773101807,0.8326938152313232
1748007515434233600,11.370233642578125,8.679253578186035,4.516027450561523,0.6681585907936096
1748007515450072000,11.386072021484376,8.676009178161621,4.53378963470459,0.5848246216773987
1748007515465849600,11.401849609375,8.66454029083252,4.556285858154297,0.5799807906150818
1748007515481657900,11.417657958984375,8.677316665649414,4.544269561767578,0.4734766185283661
1748007515497465900,11.4334658203125,8.694326400756836,4.521337985992432,0.3695749044418335
1748007515513274000,11.449274169921875,8.697901725769043,4.517974853515625,0.32371729612350464
1748007515529082000,11.46508203125,8.694587707519531,4.525790214538574,0.302901953458786
1748007515544890000,11.48089013671875,8.691494941711426,4.532401084899902,0.2926563322544098
1748007515560668000,11.49666796875,8.687694549560547,4.539454460144043,0.2961464524269104
1748007515576506400,11.51250634765625,8.684038162231445,4.545766353607178,0.3064025938510895
1748007515592314600,11.528314697265625,8.684654235839844,4.54424524307251,0.3114320933818817
1748007515608061700,11.544061767578125,8.689727783203125,4.534817695617676,0.3073265552520752
1748007515623869700,11.55986962890625,8.697466850280762,4.5202717781066895,0.3026480972766876
1748007515639647200,11.575647216796876,8.704351425170898,4.507128715515137,0.3007364571094513
1748007515655455500,11.59145556640625,8.709488868713379,4.4973015785217285,0.29914307594299316
1748007515671263500,11.607263427734376,8.713211059570312,4.490713596343994,0.28952670097351074
1748007515687041000,11.623041015625,8.714776992797852,4.488677978515625,0.2735100984573364
1748007515702879700,11.638879638671876,8.715583801269531,4.488274574279785,0.2537170648574829
1748007515718718500,11.654718505859375,8.71670913696289,4.487563610076904,0.22616533935070038
1748007515734496000,11.67049609375,8.71843147277832,4.485927581787109,0.18918858468532562
1748007515750273500,11.6862734375,8.72091293334961,4.482547283172607,0.15109971165657043
1748007515766112300,11.7021123046875,8.723196983337402,4.4791259765625,0.11681187897920609
1748007515781920300,11.717920166015626,8.726180076599121,4.474053859710693,0.0837472677230835
1748007515797697800,11.73369775390625,8.729349136352539,4.468295097351074,0.05641867592930794
1748007515813506000,11.749506103515625,8.732361793518066,4.462547779083252,0.043821897357702255
1748007515829283600,11.76528369140625,8.733824729919434,4.459646224975586,0.04730108380317688
1748007515845091600,11.781091552734376,8.734895706176758,4.457333087921143,0.06457111239433289
1748007515860899800,11.79689990234375,8.73595142364502,4.4549560546875,0.08307981491088867
1748007515876707800,11.812707763671876,8.706872940063477,4.511562347412109,0.08096253126859665
1748007515892515800,11.828515869140626,8.680340766906738,4.562448978424072,0.07829148322343826
1748007515908324000,11.844323974609376,8.664993286132812,4.591288089752197,0.09141575545072556
1748007515924132000,11.860132080078126,8.653071403503418,4.6129608154296875,0.12390275299549103
1748007515939909600,11.87590966796875,8.650684356689453,4.61605167388916,0.16767770051956177
1748007515955656700,11.89165673828125,8.654715538024902,4.606265544891357,0.22048498690128326
1748007515971495400,11.907495361328126,8.658015251159668,4.5976433753967285,0.2661665678024292
1748007515987303400,11.923303466796876,8.65868854522705,4.5949506759643555,0.2897132337093353
1748007516003142100,11.93914208984375,8.658513069152832,4.5940937995910645,0.30794161558151245
1748007516026854400,11.9628544921875,8.657773971557617,4.594124794006348,0.3276609778404236
1748007516042692900,11.97869287109375,8.658442497253418,4.592623710632324,0.3310127854347229
1748007516058440000,11.99443994140625,8.661327362060547,4.587498188018799,0.3265853226184845
1748007516074217700,12.0102177734375,8.668222427368164,4.575036525726318,0.318358838558197
1748007516090025700,12.026025634765626,8.679935455322266,4.553448677062988,0.30859118700027466
1748007516105803300,12.04180322265625,8.695561408996582,4.524136066436768,0.2996469736099243
1748007516121642000,12.05764208984375,8.714274406433105,4.488475799560547,0.2922116219997406
1748007516137480400,12.07348046875,8.733434677124023,4.451947212219238,0.2786809206008911
1748007516153258200,12.08925830078125,8.749703407287598,4.421563148498535,0.2507266700267792
1748007516169066200,12.105066162109376,8.759407043457031,4.404733180999756,0.20374159514904022
1748007516184902400,12.12090234375,8.761632919311523,4.40272855758667,0.14200100302696228
1748007516200741000,12.1367412109375,8.759295463562012,4.409000396728516,0.07653408497571945
1748007516216549000,12.152549072265625,8.756782531738281,4.41457986831665,0.025314802303910255
1748007516232326700,12.16832666015625,8.731535911560059,4.460018157958984,-0.1972479373216629
1748007516248165400,12.184165283203125,8.735913276672363,4.4511590003967285,-0.2034376561641693
1748007516263973400,12.199973388671875,8.743855476379395,4.436091423034668,-0.19098211824893951
1748007516279751000,12.2157509765625,8.756414413452148,4.412381649017334,-0.16273392736911774
1748007516295498000,12.231498046875,8.774937629699707,4.3765459060668945,-0.12924052774906158
1748007516311336700,12.247336669921875,8.796849250793457,4.33310604095459,-0.10016991943120956
1748007516327144700,12.263144775390625,8.81834888458252,4.289651393890381,-0.0774758905172348
1748007516342953000,12.278952880859375,8.698275566101074,4.526853084564209,0.13411594927310944
1748007516358730500,12.29473046875,8.689680099487305,4.540745735168457,0.20365069806575775
1748007516382412000,12.318412109375,8.703591346740723,4.512826442718506,0.22866639494895935
1748007516398250800,12.334250732421875,8.696860313415527,4.525656223297119,0.2312067300081253
1748007516414028300,12.3500283203125,8.703357696533203,4.512064456939697,0.2514464557170868
1748007516429805800,12.365805908203125,8.718573570251465,4.47982931137085,0.2966310977935791
1748007516445614000,12.381614013671875,8.736522674560547,4.4399733543396,0.36083149909973145
1748007516461422000,12.397422119140625,8.751933097839355,4.404116630554199,0.4216821491718292
1748007516477230300,12.413230224609375,8.759895324707031,4.382884502410889,0.4742954969406128
1748007516492977400,12.428977294921875,8.7608003616333,4.378483295440674,0.49763455986976624
1748007516508816000,12.44481591796875,8.76147174835205,4.375319004058838,0.5134148597717285
1748007516524654600,12.460654541015625,8.762229919433594,4.372284889221191,0.5261543393135071
1748007516540462600,12.476462646484375,8.761106491088867,4.373526573181152,0.5344836115837097
1748007516556301300,12.49230126953125,8.759958267211914,4.376160621643066,0.5317317247390747
1748007516572109300,12.508109375,8.763158798217773,4.371922969818115,0.5135418176651001
1748007516587887000,12.52388720703125,8.775450706481934,4.350766181945801,0.4823766350746155
1748007516603695000,12.539695068359375,8.803241729736328,4.299159049987793,0.43652164936065674
1748007516619472600,12.55547265625,8.85000991821289,4.207368850708008,0.3817833662033081
1748007516635311400,12.571311279296875,8.90873908996582,4.085629463195801,0.33524763584136963
1748007516651119400,12.587119384765625,8.963601112365723,3.9656450748443604,0.31288325786590576
1748007516666927600,12.602927734375,9.002592086791992,3.875406503677368,0.3239836096763611
1748007516682766000,12.61876611328125,9.030191421508789,3.8086915016174316,0.34626495838165283
1748007516698543600,12.634543701171875,9.054337501525879,3.7502264976501465,0.353792667388916
1748007516714321400,12.6503212890625,9.075882911682129,3.6974315643310547,0.35740917921066284
1748007516730129400,12.66612939453125,9.085722923278809,3.67012882232666,0.3875284194946289
1748007516745968000,12.681968017578125,9.080280303955078,3.676009178161621,0.45371463894844055
1748007516761745700,12.69774560546875,9.060482025146484,3.7121009826660156,0.546226441860199
1748007516777523200,12.713523193359375,9.0286226272583,3.775242805480957,0.633950412273407
1748007516793331500,12.72933154296875,8.989920616149902,3.8563432693481445,0.6930555701255798
1748007516809139500,12.745139404296875,8.950316429138184,3.9435720443725586,0.7144631147384644
1748007516824947500,12.760947509765625,8.91623306274414,4.02158784866333,0.7056936025619507
1748007516840755700,12.776755615234375,8.890600204467773,4.079319477081299,0.6976898908615112
1748007516856594200,12.79259423828125,8.871903419494629,4.117114067077637,0.7135101556777954
1748007516872433000,12.808432861328125,8.85544490814209,4.143365859985352,0.7642032504081726
1748007516888271600,12.824271728515624,8.833334922790527,4.177057266235352,0.8335334658622742
1748007516904079600,12.84007958984375,8.80029296875,4.229610919952393,0.9141286015510559
1748007516919887600,12.8558876953125,8.756921768188477,4.3029375076293945,0.9856160879135132
1748007516935696000,12.87169580078125,8.70641803741455,4.394610404968262,1.027654767036438
1748007516951504000,12.88750390625,8.650721549987793,4.495317459106445,1.061852216720581
1748007516967312100,12.90331201171875,8.593533515930176,4.5980329513549805,1.0861278772354126
1748007516983089700,12.919089599609375,8.537306785583496,4.695015907287598,1.114273190498352
1748007516998928400,12.934928466796874,8.483275413513184,4.784976959228516,1.143864631652832
1748007517014736400,12.950736328125,8.433064460754395,4.866891384124756,1.1692687273025513
1748007517030544400,12.96654443359375,8.387275695800781,4.940756320953369,1.188664197921753
1748007517046322200,12.982322265625,8.341571807861328,5.012382984161377,1.2102009057998657
1748007517062099700,12.998099609375,8.295289993286133,5.083834648132324,1.2301093339920044
1748007517077907700,13.01390771484375,8.250971794128418,5.155350685119629,1.2305328845977783
1748007517093654800,13.02965478515625,8.212226867675781,5.223545551300049,1.2017853260040283
1748007517109432300,13.045432373046875,8.181403160095215,5.282733917236328,1.1522819995880127
1748007517125240600,13.061240478515625,8.158124923706055,5.329872131347656,1.0990124940872192
1748007517141018000,13.07701806640625,8.146191596984863,5.356194019317627,1.0588343143463135
1748007517156795600,13.092795654296875,8.147892951965332,5.358706951141357,1.0327134132385254
1748007517172604000,13.10860400390625,8.170757293701172,5.327199459075928,1.0149245262145996
1748007517188412000,13.124411865234375,8.211213111877441,5.267785549163818,0.9984012246131897
1748007517204189400,13.140189453125,8.26266098022461,5.191645622253418,0.9724350571632385
1748007517219967000,13.155967041015625,8.307400703430176,5.127718925476074,0.9295048117637634
1748007517235744800,13.171744873046874,8.330291748046875,5.101182460784912,0.8686524629592896
1748007517251522300,13.187522216796875,8.32196044921875,5.123438358306885,0.8159275650978088
1748007517267299800,13.2032998046875,8.291945457458496,5.178713321685791,0.7713443040847778
1748007517283107800,13.21910791015625,8.258160591125488,5.237921237945557,0.7330395579338074
1748007517298977000,13.23497705078125,8.234172821044922,5.282031536102295,0.6847879886627197
1748007517314785300,13.250785400390624,8.219412803649902,5.313900947570801,0.6116349697113037
1748007517330562800,13.266562744140625,8.213659286499023,5.33251953125,0.5200327038764954
1748007517346370800,13.282370849609375,8.204418182373047,5.351463317871094,0.4687730073928833
1748007517362179000,13.298178955078125,8.202077865600586,5.355519771575928,0.46336978673934937
1748007517377956600,13.31395654296875,8.21714973449707,5.330365180969238,0.4858453869819641
1748007517393764600,13.3297646484375,8.2441987991333,5.285863876342773,0.5130370855331421
1748007517409572900,13.34557275390625,8.280505180358887,5.2269086837768555,0.5320246815681458
1748007517425380900,13.361380859375,8.321722984313965,5.159238338470459,0.549155592918396
1748007517441219600,13.377219482421875,8.366982460021973,5.083326816558838,0.569025993347168
1748007517457027600,13.393027587890625,8.412805557250977,5.004855155944824,0.5886507630348206
1748007517472835800,13.4088359375,8.58945083618164,4.658718585968018,0.8294955492019653
1748007517488643800,13.424643798828125,8.619173049926758,4.609421730041504,0.7959186434745789
1748007517504391000,13.440390869140625,8.627302169799805,4.598275184631348,0.7719500064849854
1748007517520199000,13.456198974609375,8.619572639465332,4.612406253814697,0.7739927768707275
1748007517536037600,13.47203759765625,8.606085777282715,4.630393981933594,0.8155553936958313
1748007517551876400,13.48787646484375,8.597879409790039,4.636456489562988,0.866104781627655
1748007517567684400,13.503684326171875,8.594234466552734,4.637154579162598,0.8979507684707642
1748007517583492400,13.519492431640625,8.586976051330566,4.648512363433838,0.9086118340492249
1748007517599331000,13.5353310546875,8.570860862731934,4.680905342102051,0.8943454027175903
1748007517615139300,13.551139404296874,8.546845436096191,4.73187780380249,0.8550710678100586
1748007517630947300,13.566947265625,8.520892143249512,4.786346912384033,0.8097348213195801
1748007517646786000,13.5827861328125,8.50146198272705,4.8265252113342285,0.7747242450714111
1748007517662624500,13.59862451171875,8.491862297058105,4.848146915435791,0.7444008588790894
1748007517678432800,13.614432861328124,8.49645709991455,4.843669891357422,0.720733106136322
1748007517694240800,13.63024072265625,8.513900756835938,4.815158843994141,0.705780029296875
1748007517710048800,13.646048828125,8.539371490478516,4.768869876861572,0.7123288512229919
1748007517725826600,13.66182666015625,8.566335678100586,4.716186046600342,0.7388366460800171
1748007517741604000,13.67760400390625,8.592549324035645,4.665325164794922,0.7571184039115906
1748007517757381600,13.693381591796875,8.613819122314453,4.624080657958984,0.768372654914856
1748007517773159200,13.7091591796875,8.548473358154297,4.742780685424805,0.774603009223938
1748007517788967400,13.724967529296874,8.525479316711426,4.786684989929199,0.7577886581420898
1748007517804714500,13.740714599609374,8.550445556640625,4.743103981018066,0.7504869699478149
1748007517820553000,13.756552978515625,8.573915481567383,4.6991167068481445,0.7593855857849121
1748007517836361200,13.772361328125,8.580188751220703,4.680852890014648,0.8002309203147888
1748007517852138800,13.788138671875,8.571407318115234,4.687351226806641,0.8544579148292542
1748007517867977200,13.803977294921875,8.555258750915527,4.707574367523193,0.9036986231803894
1748007517883785500,13.819785400390625,8.533397674560547,4.740837097167969,0.9359370470046997
1748007517899593500,13.835593505859375,8.509474754333496,4.779905319213867,0.954842746257782
1748007517915401700,13.851401611328125,8.485143661499023,4.82004976272583,0.9694549441337585
1748007517931179300,13.86717919921875,8.461935997009277,4.8572211265563965,0.9866290092468262
1748007517946987300,13.8829873046875,8.474533081054688,4.848886966705322,0.9170411825180054
1748007517962765000,13.89876513671875,8.476162910461426,4.8568196296691895,0.8581154346466064
1748007517978573000,13.914572998046875,8.459589958190918,4.884029388427734,0.8671723008155823
1748007517994381000,13.930381103515625,8.45170783996582,4.897220134735107,0.8696316480636597
1748007518010158800,13.946158935546874,8.453171730041504,4.894590377807617,0.8701995015144348
1748007518025966800,13.961966796875,8.460906982421875,4.880222320556641,0.8757119178771973
1748007518041774800,13.97777490234375,8.470184326171875,4.862207412719727,0.8861738443374634
1748007518057522000,13.99352197265625,8.476298332214355,4.849109172821045,0.8993889689445496
1748007518073330200,14.009330078125,8.675384521484375,4.473233699798584,0.947770357131958
1748007518089168600,14.025168701171875,8.671133041381836,4.482200622558594,0.944307267665863
1748007518104977000,14.040976806640625,8.66374683380127,4.500234127044678,0.9261571168899536
1748007518120754400,14.05675439453125,8.6828031539917,4.465359687805176,0.9164555072784424
1748007518136562400,14.0725625,8.688618659973145,4.455132961273193,0.9110872745513916
1748007518152370700,14.08837060546875,8.67730712890625,4.4777398109436035,0.908061683177948
1748007518168148200,14.104148193359375,8.643238067626953,4.539737701416016,0.9249883890151978
1748007518183925800,14.11992578125,8.581955909729004,4.652738571166992,0.9340497255325317
1748007518199672800,14.1356728515625,8.511448860168457,4.785679340362549,0.9071381688117981
1748007518215481000,14.151481201171874,8.523371696472168,4.776589870452881,0.8406571745872498
1748007518231289000,14.1672890625,8.543295860290527,4.752676486968994,0.7710792422294617
1748007518247066600,14.183066650390625,8.567289352416992,4.7178635597229,0.7167238593101501
1748007518262905300,14.1989052734375,8.594179153442383,4.6727681159973145,0.6897194981575012
1748007518278713300,14.21471337890625,8.620049476623535,4.624561786651611,0.6917886734008789
1748007518294521600,14.230521484375,8.641204833984375,4.582010269165039,0.7107391953468323
1748007518310329600,14.24632958984375,8.657376289367676,4.547736644744873,0.7337085008621216
1748007518326137900,14.262137939453124,8.669875144958496,4.521231174468994,0.7497529983520508
1748007518341945900,14.27794580078125,8.680109977722168,4.500723838806152,0.7547007203102112
1748007518357723400,14.293723388671875,8.690225601196289,4.482444763183594,0.7470291256904602
1748007518373531600,14.30953173828125,8.7030668258667,4.458661079406738,0.7398379445075989
1748007518389370000,14.3253701171875,8.71864128112793,4.428471565246582,0.7377836108207703
1748007518405147600,14.341147705078125,8.735563278198242,4.394960403442383,0.7380016446113586
1748007518420956000,14.356955810546875,8.751862525939941,4.363547325134277,0.7312628626823425
1748007518436764000,14.372763916015625,8.7659330368042,4.338238716125488,0.7130872011184692
1748007518452541400,14.38854150390625,8.75753116607666,4.357267379760742,0.7001867890357971
1748007518468380200,14.404380126953125,8.745373725891113,4.384097099304199,0.6844927072525024
1748007518484188200,14.420188232421875,8.731780052185059,4.414018630981445,0.6654694676399231
1748007518499966000,14.435966064453124,8.718131065368652,4.444429397583008,0.6415819525718689
1748007518515774000,14.45177392578125,8.704967498779297,4.474471092224121,0.6107708811759949
1748007518531582000,14.46758203125,8.691676139831543,4.505549907684326,0.5702412724494934
1748007518547390200,14.48339013671875,8.678946495056152,4.5364251136779785,0.5168351531028748
1748007518563229000,14.49922900390625,8.66561508178711,4.568874359130859,0.4504384994506836
1748007518579006500,14.51500634765625,8.649820327758789,4.604392051696777,0.38803961873054504
1748007518594753500,14.53075341796875,8.634230613708496,4.637885093688965,0.332385778427124
1748007518610592000,14.546592041015625,8.622513771057129,4.662899971008301,0.282857745885849
1748007518626369800,14.562369873046874,8.617966651916504,4.673655986785889,0.24076628684997559
1748007518642147300,14.578147216796875,8.619144439697266,4.673342704772949,0.20147505402565002
1748007518657955300,14.593955322265625,8.623645782470703,4.66660737991333,0.16092908382415771
1748007518673763600,14.609763671875,8.630478858947754,4.655249118804932,0.11783023178577423
1748007518689571600,14.625571533203125,8.568795204162598,4.769291400909424,0.0006058021681383252
1748007518705379600,14.641379638671875,8.506315231323242,4.878705024719238,-0.10594657808542252
1748007518721157400,14.657157470703124,8.456235885620117,4.962242603302002,-0.19649668037891388
1748007518736904400,14.672904541015624,8.438248634338379,4.9896368980407715,-0.2643217444419861
1748007518752682000,14.688681884765625,8.42922306060791,5.001891136169434,-0.31568464636802673
1748007518768490000,14.704489990234375,8.419130325317383,5.017311096191406,-0.339458167552948
1748007518784328700,14.72032861328125,8.429764747619629,4.998347759246826,-0.3549344837665558
1748007518800106200,14.736106201171875,8.443385124206543,4.974776268005371,-0.3622676730155945
1748007518815914200,14.751914306640625,8.458489418029785,4.948464870452881,-0.37020525336265564
1748007518831722500,14.767722412109375,8.473860740661621,4.921464443206787,-0.37850743532180786
1748007518847561000,14.78356103515625,8.490657806396484,4.891483306884766,-0.3905077576637268
1748007518863369200,14.799369140625,8.507536888122559,4.861708164215088,-0.39496973156929016
1748007518879238400,14.81523828125,8.523405075073242,4.833461284637451,-0.3995075523853302
1748007518895076900,14.831076904296875,8.535264015197754,4.812329292297363,-0.4014245569705963
1748007518910854700,14.846854736328124,8.541977882385254,4.800142288208008,-0.4045233428478241
1748007518926662700,14.86266259765625,8.543091773986816,4.797997951507568,-0.40643367171287537
1748007518942470700,14.878470703125,8.539935111999512,4.804250240325928,-0.3988429009914398
1748007518958309400,14.894309326171875,8.532376289367676,4.818687915802002,-0.38624903559684753
1748007518974056400,14.910056396484375,8.521748542785645,4.838310718536377,-0.37541720271110535
1748007518989864400,14.925864501953125,8.54638957977295,4.800055027008057,-0.29844930768013
1748007519005611500,14.941611572265625,8.60395336151123,4.702967166900635,-0.1564389169216156
1748007519021419800,14.957419677734375,8.649328231811523,4.621514320373535,-0.033471256494522095
1748007519037258200,14.97325830078125,8.67824935913086,4.566497802734375,0.07398480176925659
1748007519053066500,14.98906640625,8.680547714233398,4.560155391693115,0.15317291021347046
1748007519068844000,15.004843994140625,8.668744087219238,4.580674648284912,0.20171493291854858
1748007519084652000,15.020652099609375,8.656859397888184,4.602676868438721,0.2110450714826584
1748007519100490800,15.03649072265625,8.653294563293457,4.60946798324585,0.20900899171829224
1748007519116298800,15.052298828125,8.656013488769531,4.6042633056640625,0.21114414930343628
1748007519132107000,15.06810693359375,8.664017677307129,4.588763236999512,0.22010153532028198
1748007519147915000,15.0839150390625,8.674413681030273,4.568723201751709,0.22739271819591522
1748007519163723300,15.09972314453125,8.688578605651855,4.541962146759033,0.22262148559093475
1748007519179500800,15.115500732421875,8.70838451385498,4.50463342666626,0.2066504806280136
1748007519195308800,15.131308837890625,8.736682891845703,4.450695037841797,0.17910419404506683
1748007519211117000,15.147116943359375,8.772638320922852,4.380842208862305,0.13939233124256134
1748007519226955500,15.16295556640625,8.813878059387207,4.298594951629639,0.08961097151041031
1748007519242763800,15.178763671875,8.855300903320312,4.213440418243408,0.030934469774365425
1748007519258571800,15.19457177734375,8.890151023864746,4.139262676239014,-0.045829806476831436
1748007519274380000,15.210380126953124,8.910700798034668,4.091972827911377,-0.15985709428787231
1748007519290218500,15.226218505859375,8.920083999633789,4.061172008514404,-0.3307299315929413
1748007519305996000,15.24199609375,8.928827285766602,4.0201826095581055,-0.5334434509277344
1748007519321834800,15.257834716796875,8.951425552368164,3.9426863193511963,-0.7054018378257751
1748007519337642800,15.273642822265625,9.007145881652832,3.798774003982544,-0.7816829085350037
1748007519353420500,15.289420654296874,9.080028533935547,3.6250431537628174,-0.7632335424423218
1748007519369259000,15.305259033203125,9.143824577331543,3.47674560546875,-0.6878224015235901
1748007519385067300,15.3210673828125,9.18352222442627,3.380436897277832,-0.6371463537216187
1748007519400875300,15.336875244140625,9.191970825195312,3.352950096130371,-0.6601372361183167
1748007519416714000,15.3527138671875,9.17521858215332,3.3825788497924805,-0.7375000715255737
1748007519432491500,15.368491455078125,9.14204216003418,3.45220947265625,-0.8220073580741882
1748007519448330200,15.384330322265624,9.105247497558594,3.5367701053619385,-0.8695464730262756
1748007519464138200,15.40013818359375,9.072763442993164,3.617805242538452,-0.8756952881813049
1748007519479915800,15.415915771484375,9.049176216125488,3.6761646270751953,-0.8767110705375671
1748007519495754500,15.43175439453125,9.028098106384277,3.732872247695923,-0.8541085720062256
1748007519511562500,15.4475625,9.002376556396484,3.8027138710021973,-0.8166831731796265
1748007519527401200,15.463401123046875,8.970046997070312,3.885472536087036,-0.7821378111839294
1748007519543209200,15.479209228515625,8.930188179016113,3.981590747833252,-0.7543652653694153
1748007519558986800,15.49498681640625,8.882506370544434,4.091829299926758,-0.7269152998924255
1748007519574764500,15.5107646484375,8.824756622314453,4.21936559677124,-0.7007238864898682
1748007519590603000,15.52660302734375,8.760709762573242,4.353331089019775,-0.6847425699234009
1748007519606411300,15.542411376953124,8.694512367248535,4.485271453857422,-0.6768953800201416
1748007519622249700,15.558249755859375,8.62965202331543,4.611710548400879,-0.6569778323173523
1748007519638058000,15.57405810546875,8.569554328918457,4.726941108703613,-0.6238294839859009
1748007519653835500,15.58983544921875,8.518336296081543,4.823988437652588,-0.5809247493743896
1748007519669643500,15.6056435546875,8.477547645568848,4.899785041809082,-0.5419217944145203
1748007519685451800,15.62145166015625,8.450601577758789,4.948400974273682,-0.5206231474876404
1748007519701229300,15.637229248046875,8.44018268585205,4.966709613800049,-0.5152634978294373
1748007519717068000,15.653068115234374,8.45093059539795,4.948875904083252,-0.5106791257858276
1748007519732876000,15.6688759765625,8.48621940612793,4.889883995056152,-0.4934576153755188
1748007519748684000,15.68468408203125,8.544693946838379,4.789552688598633,-0.4677402675151825
1748007519764522800,15.700522705078125,8.612810134887695,4.668116569519043,-0.4456263482570648
1748007519780300300,15.71630029296875,8.671481132507324,4.559589385986328,-0.4312184751033783
1748007519796047400,15.73204736328125,8.707073211669922,4.492317199707031,-0.4199426770210266
1748007519811825000,15.747824951171875,8.710548400878906,4.487366199493408,-0.40034914016723633
1748007519827663600,15.76366357421875,8.691923141479492,4.52513313293457,-0.3795192539691925
1748007519843471600,15.7794716796875,8.662293434143066,4.582474231719971,-0.36878064274787903
1748007519859280000,15.79527978515625,8.63874340057373,4.626399517059326,-0.3727198839187622
1748007519875088000,15.811087890625,8.628202438354492,4.645474910736084,-0.3795913755893707
1748007519890926600,15.826926513671875,8.628242492675781,4.6453471183776855,-0.3802187740802765
1748007519906704100,15.8427041015625,8.634968757629395,4.633333683013916,-0.37405338883399963
1748007519922512100,15.85851220703125,8.645270347595215,4.614861965179443,-0.3643517792224884
1748007519938320400,15.8743203125,8.655580520629883,4.595790386199951,-0.360596239566803
1748007519954128400,15.89012841796875,8.661664009094238,4.584464073181152,-0.35868754982948303
1748007519969906200,15.90590625,8.668295860290527,4.573235988616943,-0.34140899777412415
1748007519985744600,15.92174462890625,8.673094749450684,4.561775207519531,-0.37152767181396484
1748007520001522200,15.937522216796875,8.679617881774902,4.547303676605225,-0.39578306674957275
1748007520017300000,15.953300048828124,8.69664192199707,4.510313510894775,-0.44258609414100647
1748007520033108000,15.96910791015625,8.709979057312012,4.481369972229004,-0.4732556641101837
1748007520048885500,15.984885498046875,8.719600677490234,4.4611077308654785,-0.4873093366622925
1748007520064693800,16.00069384765625,8.725112915039062,4.449889183044434,-0.49120020866394043
1748007520080471300,16.01647119140625,8.725008964538574,4.447970390319824,-0.5100612044334412
1748007520096309800,16.032309814453125,8.720915794372559,4.455268859863281,-0.5163252353668213
1748007520112118000,16.048117919921875,8.710902214050293,4.47523307800293,-0.5126962065696716
1748007520127956500,16.06395654296875,8.69603443145752,4.5030293464660645,-0.5216352939605713
1748007520143734300,16.079734375,8.674674034118652,4.534385681152344,-0.5997925400733948
1748007520159542300,16.095542236328125,8.650653839111328,4.55352783203125,-0.7758631706237793
1748007520175319800,16.11131982421875,8.651717185974121,4.525482654571533,-0.9155289530754089
1748007520191158500,16.127158447265625,8.679149627685547,4.45593786239624,-0.9936633110046387
1748007520206936000,16.14293603515625,8.728917121887207,4.348207473754883,-1.0341562032699585
1748007520222774800,16.15877490234375,8.791683197021484,4.218196868896484,-1.0409218072891235
1748007520238582800,16.174582763671875,8.825580596923828,4.150788307189941,-1.0249229669570923
1748007520254390800,16.190390869140625,8.83601188659668,4.1325273513793945,-1.0087175369262695
1748007520270229500,16.2062294921875,8.84961223602295,4.107358455657959,-0.9921542406082153
1748007520286037800,16.222037841796876,8.863364219665527,4.081153392791748,-0.9774166345596313
1748007520301845800,16.237845703125,8.873208045959473,4.062471389770508,-0.9658560156822205
1748007520317653800,16.25365380859375,8.875833511352539,4.057043075561523,-0.964555025100708
1748007520333492500,16.269492431640625,8.870899200439453,4.065382480621338,-0.9747837781906128
1748007520349270000,16.28527001953125,8.855386734008789,4.093414306640625,-0.9982317686080933
1748007520365078300,16.301078369140626,8.834556579589844,4.130618572235107,-1.029075026512146
1748007520380855800,16.316855712890625,8.812902450561523,4.167860984802246,-1.0639861822128296
1748007520396663800,16.332663818359375,8.792635917663574,4.202057838439941,-1.0966609716415405
1748007520412472000,16.34847216796875,8.773000717163086,4.2359938621521,-1.1230340003967285
1748007520428310500,16.364310546875,8.753351211547852,4.272034645080566,-1.1397167444229126
1748007520444088000,16.380088134765625,8.733426094055176,4.310364246368408,-1.1482247114181519
1748007520459865900,16.395865966796876,8.71581745147705,4.345417499542236,-1.1498925685882568
1748007520475643400,16.411643310546875,8.700883865356445,4.376709938049316,-1.144294023513794
1748007520491421000,16.4274208984375,8.688742637634277,4.403745651245117,-1.1327686309814453
1748007520507229000,16.44322900390625,8.679009437561035,4.4269304275512695,-1.1169053316116333
1748007520523006700,16.4590068359375,8.669306755065918,4.450878143310547,-1.0968977212905884
1748007520538784300,16.4747841796875,8.658157348632812,4.477613925933838,-1.0759564638137817
1748007520554592300,16.49059228515625,8.649412155151367,4.499184608459473,-1.0561186075210571
1748007520570431000,16.506430908203125,8.645322799682617,4.512423038482666,-1.0328733921051025
1748007520586208500,16.52220849609375,8.645833969116211,4.5175018310546875,-1.0060429573059082
1748007520602016800,16.538016845703126,8.648138999938965,4.519608497619629,-0.9763329029083252
1748007520617794300,16.553794189453125,8.650081634521484,4.522680282592773,-0.9443714618682861
1748007520633602300,16.569602294921875,8.650776863098145,4.526934623718262,-0.917235255241394
1748007520649379800,16.5853798828125,8.649187088012695,4.533849239349365,-0.8978654146194458
1748007520665218600,16.601218505859375,8.645061492919922,4.543823719024658,-0.8871065378189087
1748007520680996000,16.61699609375,8.639010429382324,4.5556416511535645,-0.8854510188102722
1748007520696773600,16.632773681640625,8.633095741271973,4.566508769989014,-0.8871482610702515
1748007520712612400,16.6486123046875,8.626956939697266,4.57792854309082,-0.8880164623260498
1748007520728420400,16.66442041015625,8.617777824401855,4.595354080200195,-0.8871331214904785
1748007520744228600,16.680228515625,8.603388786315918,4.621526718139648,-0.8908312916755676
1748007520760036600,16.69603662109375,8.58530044555664,4.652646541595459,-0.9032673239707947
1748007520775814100,16.711814208984375,8.566503524780273,4.68368673324585,-0.9211312532424927
1748007520791622400,16.727622314453125,8.551586151123047,4.707882404327393,-0.9362719655036926
1748007520807400000,16.74339990234375,8.542842864990234,4.7238593101501465,-0.9356194138526917
1748007520823208000,16.7592080078125,8.538044929504395,4.73611307144165,-0.9172821044921875
1748007520839016200,16.77501611328125,8.533452033996582,4.748688220977783,-0.8947330117225647
1748007520854793700,16.790793701171875,8.529794692993164,4.759576320648193,-0.8714534044265747
1748007520870571300,16.8065712890625,8.531224250793457,4.761439800262451,-0.8469299077987671
1748007520886379500,16.822379638671876,8.538838386535645,4.752331256866455,-0.8209707736968994
1748007520902187500,16.8381875,8.551695823669434,4.733923435211182,-0.793006420135498
1748007520917995500,16.85399560546875,8.570828437805176,4.705130100250244,-0.7569866180419922
1748007520933773300,16.869773193359375,8.59720516204834,4.6633477210998535,-0.715297281742096
1748007520949611800,16.88561181640625,8.62927532196045,4.610262393951416,-0.6719074845314026
1748007520965358800,16.90135888671875,8.659772872924805,4.559086799621582,-0.6272445321083069
1748007520981167000,16.9171669921875,8.685508728027344,4.515536785125732,-0.5850227475166321
1748007520996975000,16.93297509765625,8.70486831665039,4.482405662536621,-0.5510833859443665
1748007521012752600,16.948752685546875,8.712206840515137,4.470025062561035,-0.5354617238044739
1748007521028561000,16.964560791015625,8.70837688446045,4.476161479949951,-0.5463845729827881
1748007521044338400,16.98033837890625,8.701708793640137,4.486271858215332,-0.5692235827445984
1748007521060177200,16.99617724609375,8.696438789367676,4.4924774169921875,-0.5999882817268372
1748007521075985200,17.011985107421875,8.690544128417969,4.498891353607178,-0.636249840259552
1748007521091762700,17.0277626953125,8.683862686157227,4.5061774253845215,-0.6747416853904724
1748007521107571000,17.043571044921876,8.700934410095215,4.4712371826171875,-0.6871397495269775
1748007521123379000,17.05937890625,8.720954895019531,4.4301886558532715,-0.6991152167320251
1748007521139187000,17.07518701171875,8.73790168762207,4.3946075439453125,-0.7119548916816711
1748007521154995200,17.0909951171875,8.747570037841797,4.366669654846191,-0.7632853388786316
1748007521170864400,17.106864501953126,8.753045082092285,4.348337650299072,-0.8040808439254761
1748007521186672400,17.12267236328125,8.754167556762695,4.34105920791626,-0.8307486176490784
1748007521202450000,17.138449951171875,8.750896453857422,4.3417439460754395,-0.8610858917236328
1748007521218258200,17.154258056640625,8.741504669189453,4.353505611419678,-0.8963721394538879
1748007521234066200,17.170066162109375,8.736773490905762,4.356685638427734,-0.9265366196632385
1748007521249843700,17.18584375,8.740888595581055,4.34611701965332,-0.9372943639755249
1748007521265621500,17.20162158203125,8.746505737304688,4.33503532409668,-0.9362091422080994
1748007521281460000,17.2174599609375,8.749593734741211,4.329037189483643,-0.9351137280464172
1748007521297237500,17.233237548828125,8.751724243164062,4.324331760406494,-0.9369396567344666
1748007521313045800,17.249045654296875,8.754659652709961,4.317798614501953,-0.9396443963050842
1748007521328823300,17.2648232421875,8.757647514343262,4.312284469604492,-0.9371289014816284
1748007521344631300,17.28063134765625,8.75899600982666,4.3110527992248535,-0.9301565885543823
1748007521360439600,17.296439453125,8.757983207702637,4.314525127410889,-0.9235803484916687
1748007521376217000,17.312217041015625,8.755407333374023,4.320103645324707,-0.9219202995300293
1748007521392025000,17.328025146484375,8.752326965332031,4.326526641845703,-0.921046793460846
1748007521407863800,17.34386376953125,8.749543190002441,4.333014488220215,-0.9169939160346985
1748007521423641300,17.359641357421875,8.747029304504395,4.33991003036499,-0.9083236455917358
1748007521439419000,17.3754189453125,8.743890762329102,4.348876476287842,-0.8955639600753784
1748007521455196700,17.39119677734375,8.738587379455566,4.362711429595947,-0.8799038529396057
1748007521471004700,17.407004638671875,8.731517791748047,4.3797712326049805,-0.8652108311653137
1748007521486782200,17.4227822265625,8.72482681274414,4.396306037902832,-0.8486956357955933
1748007521502590500,17.438590576171876,8.719465255737305,4.411012172698975,-0.8272152543067932
1748007521518368000,17.454367919921875,8.714799880981445,4.425393581390381,-0.7990919351577759
1748007521534115000,17.470114990234375,8.709757804870605,4.440985679626465,-0.7669217586517334
1748007521549892600,17.485892578125,8.70389175415039,4.458106517791748,-0.7334460020065308
1748007521565670100,17.501670166015625,8.696364402770996,4.477908134460449,-0.701401948928833
1748007521581508900,17.5175087890625,8.688088417053223,4.498589038848877,-0.6709750294685364
1748007521597286400,17.533286376953125,8.681357383728027,4.515498638153076,-0.6439624428749084
1748007521613064000,17.54906396484375,8.676998138427734,4.527726650238037,-0.6162625551223755
1748007521628872200,17.5648720703125,8.6732177734375,4.5390825271606445,-0.5851640105247498
1748007521644710700,17.580710693359375,8.668648719787598,4.552463054656982,-0.5477240681648254
1748007521660549400,17.59654931640625,8.663191795349121,4.567379474639893,-0.508460521697998
1748007521676296400,17.61229638671875,8.657012939453125,4.582808494567871,-0.473685085773468
1748007521692074000,17.628073974609375,8.650227546691895,4.598845958709717,-0.4410989284515381
1748007521707882200,17.64388232421875,8.644288063049316,4.613104343414307,-0.40736252069473267
1748007521723751200,17.659751220703125,8.640840530395508,4.622621536254883,-0.3709910809993744
1748007521739559400,17.675559326171875,8.641138076782227,4.625226974487305,-0.32924219965934753
1748007521755398000,17.69139794921875,8.643905639648438,4.62308931350708,-0.28343144059181213
1748007521771145000,17.70714501953125,8.647980690002441,4.618088722229004,-0.23680099844932556
1748007521786953200,17.722953125,8.652942657470703,4.610935688018799,-0.19041341543197632
1748007521802791700,17.738791748046875,8.658002853393555,4.603184700012207,-0.1416330188512802
1748007521818569500,17.754569580078126,8.66102409362793,4.598792552947998,-0.09033332765102386
1748007521834377500,17.77037744140625,8.661365509033203,4.598836898803711,-0.0427829846739769
1748007521850155000,17.786155029296875,8.66024398803711,4.6011433601379395,-0.00690634548664093
1748007521865932500,17.8019326171875,8.659919738769531,4.601743698120117,0.011877338401973248
1748007521881771300,17.817771240234375,8.662346839904785,4.597149848937988,0.01870097406208515
1748007521897610000,17.83360986328125,8.6701078414917,4.582492351531982,0.019466185942292213
1748007521913387500,17.849387451171875,8.685280799865723,4.553671836853027,0.01898234896361828
1748007521929195500,17.865195556640625,8.704150199890137,4.517458915710449,0.027014117687940598
1748007521945003800,17.881003662109375,8.722404479980469,4.482023239135742,0.038955315947532654
1748007521960781300,17.89678125,8.737407684326172,4.452651500701904,0.04468195140361786
1748007521976620000,17.9126201171875,8.749309539794922,4.4292893409729,0.03690715134143829
1748007521992397600,17.9283974609375,8.760730743408203,4.4067702293396,0.018843306228518486
1748007522008205600,17.94420556640625,8.774435043334961,4.379460334777832,-0.0011166559997946024
1748007522024044300,17.960044189453125,8.790290832519531,4.347528457641602,-0.013128215447068214
1748007522039821800,17.97582177734375,8.810542106628418,4.306356906890869,-0.003644420998170972
1748007522055660500,17.99166064453125,8.815671920776367,4.295846462249756,0.004738353658467531
1748007522071468500,18.007468505859375,8.820432662963867,4.28590202331543,0.0372941792011261
1748007522087246000,18.02324609375,8.81498908996582,4.296185493469238,0.09557795524597168
1748007522110958300,18.046958251953125,8.784404754638672,4.354079723358154,0.21589575707912445
1748007522126736000,18.06273583984375,8.750497817993164,4.417600154876709,0.28981703519821167
1748007522142513400,18.078513427734375,8.712937355041504,4.487193584442139,0.34671515226364136
1748007522158352100,18.09435205078125,8.681437492370605,4.544692516326904,0.3857450485229492
1748007522174129700,18.110129638671875,8.656951904296875,4.588476657867432,0.4164774417877197
1748007522189907200,18.1259072265625,8.6349458694458,4.625974655151367,0.4565587043762207
1748007522205746000,18.141745849609375,8.610221862792969,4.666478633880615,0.5083808898925781
1748007522221554000,18.157553955078125,8.583340644836426,4.7102437019348145,0.556999921798706
1748007522237331700,18.173331787109376,8.559969902038574,4.747903823852539,0.5955862402915955
1748007522253139700,18.1891396484375,8.543858528137207,4.77334451675415,0.6229398250579834
1748007522268978400,18.204978515625,8.53635311126709,4.783829689025879,0.6450093388557434
1748007522284817000,18.22081689453125,8.533313751220703,4.785989761352539,0.6687641739845276
1748007522300594400,18.236594482421875,8.528237342834473,4.791028022766113,0.6968637704849243
1748007522316433200,18.25243310546875,8.516022682189941,4.807384490966797,0.7326703071594238
1748007522332210700,18.268210693359375,8.493176460266113,4.84228515625,0.7672231793403625
1748007522348049400,18.28404931640625,8.46119213104248,4.8932108879089355,0.7969364523887634
1748007522363827000,18.299826904296875,8.42149543762207,4.957981586456299,0.8168389797210693
1748007522379635000,18.315635009765625,8.37769603729248,5.029212951660156,0.8316372036933899
1748007522395473700,18.3314736328125,8.331364631652832,5.1049652099609375,0.8355129957199097
1748007522411281700,18.34728173828125,8.281784057617188,5.1849260330200195,0.8360521793365479
1748007522427090000,18.36308984375,8.232522964477539,5.262087821960449,0.8404694199562073
1748007522442928400,18.378928466796875,8.188430786132812,5.329002380371094,0.8495426774024963
1748007522458706200,18.3947060546875,8.154169082641602,5.378746032714844,0.8654544949531555
1748007522474514200,18.41051416015625,8.135075569152832,5.403069019317627,0.8931783437728882
1748007522490261200,18.42626123046875,8.135754585266113,5.3956298828125,0.9311635494232178
1748007522506100000,18.442099853515625,8.154526710510254,5.359450817108154,0.9748736619949341
1748007522521877500,18.45787744140625,8.183182716369629,5.307600975036621,1.0174884796142578
1748007522537655000,18.473655029296875,8.215163230895996,5.2509260177612305,1.0532126426696777
1748007522553493800,18.48949365234375,8.24997615814209,5.190963268280029,1.0780401229858398
1748007522569271300,18.505271240234375,8.287866592407227,5.126370429992676,1.0963503122329712
1748007522585048800,18.521048828125,8.326952934265137,5.059804439544678,1.109332799911499
1748007522600857000,18.536857177734376,8.361940383911133,5.000894069671631,1.1132922172546387
1748007522616634600,18.552634521484375,8.38998031616211,4.954410076141357,1.1101574897766113
1748007522632473000,18.56847314453125,8.40781021118164,4.926358699798584,1.1000523567199707
1748007522648281300,18.58428125,8.415916442871094,4.916247844696045,1.0831633806228638
1748007522664089300,18.60008935546875,8.415643692016602,4.920679092407227,1.065012812614441
1748007522679836400,18.61583642578125,8.410500526428223,4.932697296142578,1.049936056137085
1748007522695644700,18.631644775390626,8.401062965393066,4.951765537261963,1.0356441736221313
1748007522711483100,18.647483154296875,8.389001846313477,4.975026607513428,1.021836280822754
1748007522727291400,18.66329150390625,8.376919746398926,4.997978687286377,1.008866548538208
1748007522743069000,18.67906884765625,8.597906112670898,4.5959248542785645,1.0601263046264648
1748007522758877000,18.694876953125,8.611466407775879,4.572876453399658,1.0496913194656372
1748007522774654500,18.710654541015625,8.605429649353027,4.587295055389404,1.0361931324005127
1748007522790523600,18.726523681640625,8.592863082885742,4.614419937133789,1.0199074745178223
1748007522806332000,18.742331787109375,8.570703506469727,4.65969181060791,1.0003488063812256
1748007522822140000,18.758139892578125,8.544310569763184,4.7142791748046875,0.9699108600616455
1748007522837917400,18.77391748046875,8.546513557434082,4.716643333435059,0.9384976029396057
1748007522853695200,18.7896953125,8.545842170715332,4.725092887878418,0.9013745784759521
1748007522869472800,18.80547265625,8.5416259765625,4.740776062011719,0.8579369783401489
1748007522885280800,18.82128076171875,8.534278869628906,4.762388229370117,0.8100162148475647
1748007522901058300,18.837058349609375,8.52468204498291,4.7867512702941895,0.7662949562072754
1748007522916866600,18.852866455078125,8.517250061035156,4.805560111999512,0.730367124080658
1748007522932644000,18.86864404296875,8.517314910888672,4.809179782867432,0.7053530812263489
1748007522948421600,18.884421630859375,8.52159309387207,4.803564548492432,0.6918148398399353
1748007522964199200,18.90019921875,8.525042533874512,4.798083782196045,0.6873355507850647
1748007522980007400,18.91600732421875,8.52578067779541,4.796533584594727,0.689005434513092
1748007522995815400,18.9318154296875,8.523775100708008,4.799428462982178,0.6936374306678772
1748007523011593000,18.947593017578125,8.51900863647461,4.806657791137695,0.7020851969718933
1748007523027401200,18.963401123046875,8.511240005493164,4.8184990882873535,0.7150148153305054
1748007523043209200,18.979209228515625,8.502439498901367,4.831977844238281,0.7286380529403687
1748007523059017500,18.995017578125,8.494704246520996,4.843771457672119,0.7404441237449646
1748007523074856000,19.01085595703125,8.488698959350586,4.853318214416504,0.7467827200889587
1748007523090664200,19.026664306640626,8.48183822631836,4.864419460296631,0.7524763941764832
1748007523106441700,19.042441650390625,8.472043991088867,4.879763126373291,0.7633960247039795
1748007523122249700,19.058249755859375,8.461013793945312,4.897266387939453,0.7735706567764282
1748007523138088400,19.07408837890625,8.452197074890137,4.912353038787842,0.7742972373962402
1748007523153866000,19.089865966796875,8.444664001464844,4.925461292266846,0.7732211947441101
1748007523169674200,19.10567431640625,8.436668395996094,4.938960075378418,0.7743898630142212
1748007523185451800,19.12145166015625,8.426749229431152,4.955474376678467,0.7768880724906921
1748007523201259800,19.137259765625,8.411620140075684,4.980007171630859,0.7839434742927551
1748007523217068000,19.153068115234376,8.392618179321289,5.0114850997924805,0.7869970798492432
1748007523232906500,19.168906494140625,8.371840476989746,5.0467000007629395,0.7832583785057068
1748007523248684000,19.18468408203125,8.357870101928711,5.071427345275879,0.7726715803146362
1748007523264492300,19.2004921875,8.360751152038574,5.06831693649292,0.7618354558944702
1748007523280300300,19.21630029296875,8.377031326293945,5.041380882263184,0.7617209553718567
1748007523296047400,19.23204736328125,8.39498519897461,5.009775638580322,0.7725074887275696
1748007523311825000,19.247824951171875,8.409697532653809,4.983384132385254,0.7831066250801086
1748007523335476200,19.271476318359376,8.49366283416748,4.7978339195251465,1.0044306516647339
1748007523351284200,19.2872841796875,8.537779808044434,4.6835246086120605,1.1581460237503052
1748007523367061800,19.303061767578125,8.534767150878906,4.692612648010254,1.1434682607650757
1748007523382870000,19.3188701171875,8.528791427612305,4.705362796783447,1.1356325149536133
1748007523398678000,19.334677978515625,8.529064178466797,4.655548095703125,1.323377251625061
1748007523414455600,19.35045556640625,8.514317512512207,4.616768836975098,1.5369536876678467
1748007523430233000,19.366233154296875,8.493621826171875,4.624885082244873,1.624564290046692
1748007523446041300,19.382041259765625,8.468710899353027,4.647451400756836,1.6889450550079346
1748007523461879800,19.3978798828125,8.418990135192871,4.697011470794678,1.7969632148742676
1748007523477688000,19.41368798828125,8.402374267578125,4.715266704559326,1.8266782760620117
1748007523493465600,19.429465576171875,8.393000602722168,4.716535568237305,1.8660706281661987
1748007523509273600,19.445273681640625,8.3895845413208,4.70405912399292,1.9123495817184448
1748007523525051400,19.461051513671876,8.389097213745117,4.687259674072266,1.9552586078643799
1748007523540829000,19.476828857421875,8.386208534240723,4.680211067199707,1.984317660331726
1748007523556667600,19.492667724609376,8.378402709960938,4.691035270690918,1.9917194843292236
1748007523572445200,19.508445068359375,8.364267349243164,4.719452381134033,1.9839839935302734
1748007523588283600,19.52428369140625,8.341235160827637,4.767802715301514,1.965259075164795
1748007523604092000,19.540091796875,8.313185691833496,4.825469493865967,1.9432404041290283
1748007523619930400,19.555930419921875,8.282480239868164,4.8870930671691895,1.9202152490615845
1748007523635677400,19.571677490234375,8.251614570617676,4.944674968719482,1.9056296348571777
1748007523651455200,19.587455322265626,8.22687816619873,5.007575511932373,1.8474422693252563
1748007523667263200,19.60326318359375,8.199076652526855,5.051933765411377,1.850268840789795
1748007523683040800,19.619040771484375,8.174397468566895,5.090939521789551,1.852547526359558
1748007523698879500,19.63487939453125,8.151017189025879,5.127707481384277,1.854164719581604
1748007523714657000,19.650656982421875,8.23402214050293,5.241617202758789,0.9469523429870605
1748007523730556700,19.666556640625,8.221283912658691,5.318374156951904,0.5438514351844788
1748007523746364700,19.68236474609375,8.182502746582031,5.380802154541016,0.5138190984725952
1748007523762142500,19.698142578125,8.15265941619873,5.427080154418945,0.5013306140899658
1748007523777920000,19.713919921875,8.147245407104492,5.4370951652526855,0.48040056228637695
1748007523793697500,19.729697509765625,8.151381492614746,5.432384014129639,0.46321409940719604
1748007523809444600,19.745444580078125,8.160985946655273,5.419056415557861,0.4500309228897095
1748007523825252600,19.761252685546875,8.172527313232422,5.402349948883057,0.44136080145835876
1748007523841060900,19.777060791015625,8.18311595916748,5.387002944946289,0.43265703320503235
1748007523856868900,19.792868896484375,8.073126792907715,5.537106513977051,0.5791953802108765
1748007523872646400,19.808646484375,7.995980262756348,5.641895294189453,0.6353841423988342
1748007523888485000,19.824485107421875,7.974948883056641,5.671872615814209,0.6328083872795105
1748007523904232200,19.840232177734375,7.987836837768555,5.65359354019165,0.6338261961936951
1748007523920040400,19.85604052734375,8.017412185668945,5.609167575836182,0.654782235622406
1748007523935818000,19.87181787109375,8.050113677978516,5.557904243469238,0.6897521615028381
1748007523951595500,19.887595458984375,8.078512191772461,5.511712074279785,0.7273712158203125
1748007523967403500,19.903403564453125,8.10325813293457,5.4706902503967285,0.7610201835632324
1748007523983211800,19.919211669921875,8.20107650756836,5.284886837005615,0.9913097620010376
1748007523999019800,19.935019775390625,8.27243423461914,5.129919528961182,1.1921234130859375
1748007524014797300,19.95079736328125,8.31332015991211,5.042174816131592,1.2788901329040527
1748007524030605600,19.96660546875,8.327238082885742,5.018787384033203,1.2803391218185425
1748007524046352600,19.9823525390625,8.33537769317627,5.007160663604736,1.2728686332702637
1748007524062160600,19.99816064453125,8.334192276000977,5.013819217681885,1.2542904615402222
1748007524077969000,20.013968994140626,8.324007034301758,5.036466121673584,1.23097562789917
1748007524093807400,20.029807373046875,8.306964874267578,5.071593761444092,1.2015212774276733
1748007524109585000,20.0455849609375,8.289102554321289,5.109179496765137,1.1650958061218262
1748007524125454000,20.0614541015625,8.27298641204834,5.143695831298828,1.1271594762802124
1748007524141262300,20.077262451171876,8.370168685913086,5.002293586730957,1.0429364442825317
1748007524157070300,20.0930703125,8.444686889648438,4.901556015014648,0.9123561978340149
1748007524172909000,20.108908935546875,8.459324836730957,4.895424842834473,0.8031391501426697
1748007524188717000,20.124717041015625,8.463019371032715,4.899384021759033,0.7373866438865662
1748007524204494600,20.14049462890625,8.464639663696289,4.899311065673828,0.719038188457489
1748007524220302800,20.156302734375,8.458036422729492,4.945118427276611,0.42167946696281433
1748007524236080400,20.172080322265625,8.428869247436523,5.00800085067749,0.21091629564762115
1748007524251858000,20.18785791015625,8.384342193603516,5.08636474609375,0.04569287970662117
1748007524267666200,20.203666259765626,8.33720588684082,5.162723064422607,-0.08767766505479813
1748007524283474200,20.21947412109375,8.29338264465332,5.230109214782715,-0.19013485312461853
1748007524299251700,20.235251708984375,8.250922203063965,5.293735504150391,-0.26273804903030396
1748007524315060000,20.25106005859375,8.243951797485352,5.303509712219238,-0.28359803557395935
1748007524330898400,20.2668984375,8.227216720581055,5.32788610458374,-0.3113318681716919
1748007524346737200,20.282737060546875,8.205190658569336,5.359860420227051,-0.34223076701164246
1748007524362484200,20.298484130859375,8.185173988342285,5.3880934715271,-0.3765271008014679
1748007524378292200,20.314292236328125,8.169983863830566,5.408494472503662,-0.4122524857521057
1748007524394100500,20.3301005859375,8.164046287536621,5.414808750152588,-0.44562479853630066
1748007524409878000,20.3458779296875,8.164560317993164,5.41220760345459,-0.46729010343551636
1748007524425686000,20.36168603515625,8.16856861114502,5.405666828155518,-0.47291848063468933
1748007524441433000,20.37743310546875,8.17620849609375,5.394871711730957,-0.46406859159469604
1748007524457241300,20.393241455078126,8.189087867736816,5.37733268737793,-0.4399122893810272
1748007524473019000,20.409018798828125,8.204936027526855,5.355538845062256,-0.409431517124176
1748007524488827000,20.424826904296875,8.220630645751953,5.333474636077881,-0.38166582584381104
1748007524504635100,20.44063525390625,8.250165939331055,5.2975945472717285,-0.2015942931175232
1748007524520412700,20.45641259765625,8.288378715515137,5.241464138031006,0.014717750251293182
1748007524536220700,20.472220703125,8.315343856811523,5.1967291831970215,0.13944362103939056
1748007524552029000,20.48802880859375,8.308627128601074,5.207700252532959,0.13025932013988495
1748007524567837000,20.5038369140625,8.301708221435547,5.218829154968262,0.12588760256767273
1748007524583584000,20.519583984375,8.3289213180542,5.17224645614624,0.21752002835273743
1748007524599392300,20.535392333984376,8.381634712219238,5.077714443206787,0.36796894669532776
1748007524615169800,20.551169677734375,8.414896965026855,5.015285968780518,0.4547537863254547
1748007524630977800,20.566977783203125,8.43146800994873,4.981584548950195,0.5143404603004456
1748007524646786000,20.5827861328125,8.435548782348633,4.966240882873535,0.5902181267738342
1748007524662594000,20.598593994140625,8.432082176208496,4.961391448974609,0.67451411485672
1748007524678402000,20.614402099609375,8.427943229675293,4.960587024688721,0.729888379573822
1748007524694210300,20.630210205078125,8.429570198059082,4.953561782836914,0.7582581639289856
