time,seconds_elapsed,z,y,x
1748007504165848800,0.101848876953125,7.134721279144287,3.5434184074401855,-0.7829039692878723
1748007504181657000,0.117656982421875,6.45476770401001,3.5649664402008057,-0.5506663918495178
1748007504197465000,0.133465087890625,6.5050458908081055,3.6176388263702393,-0.7469909191131592
1748007504213212200,0.149212158203125,7.283161640167236,3.6080620288848877,-1.0007762908935547
1748007504229020200,0.165020263671875,8.078036308288574,3.509899616241455,-1.139639973640442
1748007504244828400,0.180828369140625,8.576030731201172,3.620033025741577,-1.3479355573654175
1748007504260606000,0.19660595703125,8.71728801727295,3.8714241981506348,-1.455674648284912
1748007504276383500,0.212383544921875,8.482656478881836,3.995922565460205,-1.335964560508728
1748007504292191700,0.228191650390625,8.255207061767578,4.240131378173828,-1.3503297567367554
1748007504307969300,0.24396923828125,8.161833763122559,4.484339714050293,-1.3551181554794312
1748007504323777300,0.25977734375,8.180987358093262,4.58968448638916,-1.0797849893569946
1748007504339554800,0.275554931640625,8.094796180725098,4.661510944366455,-0.7110779285430908
1748007504355393500,0.2913935546875,7.977479934692383,4.55616569519043,-0.31364041566848755
1748007504371232300,0.307232177734375,7.872135162353516,4.417302131652832,-0.10055647045373917
1748007504387040300,0.323040283203125,7.936778545379639,4.402936935424805,-0.2968810200691223
1748007504402848500,0.3388486328125,8.281543731689453,4.338293552398682,-0.751779317855835
1748007504418626000,0.3546259765625,8.62391471862793,4.129997730255127,-1.0127472877502441
1748007504434434000,0.37043408203125,8.959102630615234,4.036623954772949,-1.278503656387329
1748007504450242300,0.3862421875,9.14345645904541,4.189853191375732,-1.4652514457702637
1748007504466080800,0.402080810546875,8.875306129455566,4.28322696685791,-1.1971008777618408
1748007504481858300,0.4178583984375,8.60236644744873,4.431667327880859,-0.8978256583213806
1748007504497636000,0.433635986328125,8.370129585266113,4.558559894561768,-0.7254431247711182
1748007504513444000,0.449444091796875,8.44434928894043,4.546588897705078,-0.7254431247711182
1748007504529221600,0.4652216796875,8.597578048706055,4.467580318450928,-0.9552865028381348
1748007504544999200,0.480999267578125,8.60236644744873,4.424484729766846,-1.3096283674240112
1748007504560807400,0.496807373046875,8.556877136230469,4.359841346740723,-1.403002142906189
1748007504576615400,0.512615478515625,8.789113998413086,4.304774761199951,-1.3335703611373901
1748007504592423700,0.528423583984375,9.07641887664795,4.273650169372559,-0.993593692779541
1748007504608170800,0.544170654296875,9.26795482635498,4.170699596405029,-0.6416460275650024
1748007504623948300,0.5599482421875,9.169792175292969,4.132391929626465,-0.5123591423034668
1748007504639756300,0.57575634765625,8.860940933227539,4.225766181945801,-0.47644615173339844
1748007504655564500,0.591564453125,8.427590370178223,4.182670593261719,-0.3064578175544739
1748007504671342000,0.607342041015625,8.250418663024902,3.9863457679748535,-0.014365210197865963
1748007504687150000,0.623150146484375,7.807491779327393,3.9264907836914062,0.20111294090747833
1748007504702927600,0.638927734375,7.2352776527404785,4.005499362945557,0.2585737705230713
1748007504718736000,0.65473583984375,6.586448669433594,4.343081951141357,0.2944868206977844
1748007504734574300,0.67057421875,6.495469093322754,4.371812343597412,0.3423708379268646
1748007504750382600,0.686382568359375,7.201758861541748,4.481945514678955,0.07661445438861847
1748007504766160100,0.70216015625,8.157045364379883,4.333505153656006,-0.22744916379451752
1748007504781937700,0.717937744140625,9.08838939666748,3.93367338180542,-0.5746083855628967
1748007504797776400,0.7337763671875,10.017339706420898,3.56017804145813,-1.3910311460494995
1748007504813554000,0.749553955078125,10.984597206115723,3.2537200450897217,-1.9967641830444336
1748007504829331500,0.76533154296875,11.6430025100708,2.853888511657715,-2.456450939178467
1748007504845109200,0.781109130859375,12.524068832397461,2.652775526046753,-2.9520506858825684
1748007504860886800,0.79688671875,12.567164421081543,2.9281086921691895,-2.6623523235321045
1748007504876664300,0.812664306640625,11.944672584533691,3.0334534645080566,-2.027888774871826
1748007504892472300,0.828472412109375,11.049241065979004,3.1507694721221924,-1.4676456451416016
1748007504908280600,0.844280517578125,10.077195167541504,3.490746021270752,-1.1540051698684692
1748007504924058000,0.86005810546875,9.437943458557129,3.9193081855773926,-0.6488286852836609
1748007504939835600,0.875835693359375,8.78193187713623,3.620033025741577,-0.8595184087753296
1748007504955644000,0.891643798828125,8.62630844116211,3.2345664501190186,-3.4979286193847656
1748007504971482400,0.907482421875,9.955090522766113,4.218583583831787,-4.106055736541748
1748007504987321000,0.923321044921875,10.611102104187012,4.393360137939453,-4.113238334655762
1748007505003159600,0.93915966796875,7.108384609222412,4.525041103363037,-0.06464344263076782
1748007505018937300,0.954937255859375,6.476315498352051,7.623138427734375,-0.08619125932455063
1748007505034715000,0.97071484375,9.581595420837402,4.93923807144165,1.45806884765625
1748007505050553300,0.98655322265625,13.148955345153809,1.039083480834961,3.4308910369873047
1748007505066331100,1.0023310546875,14.449007034301758,0.7924807667732239,1.6376339197158813
1748007505082139100,1.01813916015625,12.808979034423828,1.1276689767837524,-0.6991068720817566
1748007505097947100,1.033947021484375,10.359710693359375,0.8451532125473022,-1.8531121015548706
1748007505113755400,1.04975537109375,8.925583839416504,1.2713210582733154,-2.4636335372924805
1748007505129563400,1.0655634765625,8.975862503051758,1.8411411046981812,-2.628833532333374
1748007505145371600,1.08137158203125,8.508993148803711,1.9153614044189453,-2.0853497982025146
1748007505161179600,1.0971796875,8.307879447937012,1.3646949529647827,-2.365471363067627
1748007505176957200,1.112957275390625,10.970232009887695,1.577778935432434,-2.3127987384796143
1748007505192735000,1.12873486328125,10.3549222946167,2.0159177780151367,-0.3447650372982025
1748007505208482000,1.14448193359375,11.91354751586914,0.7038952708244324,0.6775590777397156
1748007505224290000,1.1602900390625,9.093177795410156,-0.11971008777618408,1.338358759880066
1748007505240098000,1.17609814453125,7.182605266571045,0.43095630407333374,0.8451532125473022
1748007505255936800,1.191936767578125,7.158663272857666,1.5203180313110352,-1.039083480834961
1748007505271744800,1.207744873046875,10.457873344421387,2.5019407272338867,-3.5889084339141846
1748007505287553000,1.223552978515625,11.920730590820312,0.7948749661445618,-1.6160861253738403
1748007505303391500,1.2393916015625,12.641385078430176,-0.27054479718208313,0.1604115068912506
1748007505319199700,1.25519970703125,13.24711799621582,0.5913678407669067,0.38307225704193115
1748007505335038200,1.2710380859375,11.978191375732422,1.2425906658172607,1.335964560508728
1748007505350877000,1.286876953125,9.2033109664917,1.37906014919281,1.1994950771331787
1748007505366715600,1.302715576171875,7.252037048339844,1.680729627609253,0.3256114423274994
1748007505382523600,1.318523681640625,6.320692539215088,1.9536685943603516,-0.8188169598579407
1748007505398362400,1.3343623046875,7.12035608291626,2.3558945655822754,-1.8124107122421265
1748007505414140000,1.350139892578125,9.026140213012695,2.3942017555236816,-1.0893617868423462
1748007505429948000,1.365947998046875,10.089165687561035,2.126051187515259,0.2106897532939911
1748007505445786600,1.38178662109375,10.295066833496094,2.2242133617401123,0.8667010068893433
1748007505461625300,1.397625244140625,9.782708168029785,2.3918075561523438,0.8068459630012512
1748007505477433300,1.413433349609375,9.478644371032715,2.559401512145996,0.3998316824436188
1748007505493211000,1.4292109375,9.854534149169922,2.8610711097717285,-0.06224924325942993
1748007505509019100,1.44501904296875,10.326191902160645,3.021482467651367,0.06464344263076782
1748007505524857600,1.460857666015625,10.508151054382324,2.940079689025879,0.3998316824436188
1748007505540665900,1.476665771484375,10.321403503417969,2.7964274883270264,0.6871358752250671
1748007505556473900,1.492473876953125,9.988609313964844,2.9281086921691895,0.6823474764823914
1748007505572281900,1.50828173828125,9.406818389892578,2.9041666984558105,0.4189853072166443
1748007505588059600,1.5240595703125,9.126696586608887,2.6192567348480225,-0.21308395266532898
1748007505603837200,1.539837158203125,9.44991397857666,2.432508945465088,-0.9481038451194763
1748007505619645200,1.555645263671875,10.06043529510498,2.559401512145996,-1.7477672100067139
1748007505635544800,1.571544921875,10.496180534362793,2.513911724090576,-1.886630892753601
1748007505651322600,1.587322509765625,10.924742698669434,2.367865562438965,-1.4772224426269531
1748007505667100200,1.60310009765625,10.587160110473633,2.322375535964966,-0.6943184733390808
1748007505682969300,1.61896923828125,10.002974510192871,2.2146365642547607,-0.363918662071228
1748007505698777300,1.63477734375,9.983820915222168,2.169146776199341,-0.17238251864910126
1748007505714585300,1.65058544921875,10.505757331848145,1.867477297782898,-0.629675030708313
1748007505730393600,1.6663935546875,10.472238540649414,1.8818424940109253,-1.139639973640442
1748007505746140700,1.682140625,10.041281700134277,1.7549498081207275,-0.9959878921508789
1748007505761979100,1.697979248046875,10.077195167541504,1.3862427473068237,0.15322890877723694
1748007505777787400,1.713787353515625,10.773907661437988,1.3670891523361206,0.5674257874488831
1748007505793595400,1.729595458984375,11.111490249633789,1.1420341730117798,0.9409212470054626
1748007505809373000,1.745373046875,10.553641319274902,0.9959878921508789,0.8954314589500427
1748007505825181200,1.76118115234375,9.586383819580078,1.1563993692398071,0.42616790533065796
1748007505840958700,1.776958740234375,8.645462036132812,1.4437036514282227,0.1867477297782898
1748007505856736300,1.792736328125,8.236053466796875,1.5969325304031372,0.569819986820221
1748007505872575000,1.808574951171875,8.176198959350586,1.778891921043396,1.314416766166687
1748007505888413700,1.82441357421875,8.47786808013916,1.9249382019042969,1.9249382019042969
1748007505904252200,1.840252197265625,8.937555313110352,2.032677173614502,2.3319525718688965
1748007505920121300,1.856121337890625,8.674192428588867,2.3989901542663574,1.8483237028121948
1748007505935929300,1.871929443359375,8.427590370178223,2.6240451335906982,1.5873557329177856
1748007505951829000,1.8878291015625,8.662221908569336,2.518700122833252,1.7501614093780518
1748007505967637200,1.90363720703125,9.727641105651855,2.3271639347076416,2.121262788772583
1748007505983475700,1.919475830078125,11.434707641601562,2.142810583114624,2.8395233154296875
1748007505999284000,1.935283935546875,12.935872077941895,2.1116859912872314,3.1483752727508545
1748007506015092000,1.951092041015625,13.098677635192871,2.2433669567108154,2.032677173614502
1748007506030900200,1.966900146484375,12.320562362670898,2.3104045391082764,0.790086567401886
1748007506046708200,1.982708251953125,12.078747749328613,2.6862943172454834,0.5674257874488831
1748007506062516500,1.9985166015625,11.959037780761719,3.1268274784088135,1.3192051649093628
1748007506078324500,2.014324462890625,10.984597206115723,3.5170822143554688,1.9919757843017578
1748007506094132500,2.030132568359375,9.890447616577148,3.801992416381836,2.3942017555236816
1748007506110032100,2.0460322265625,8.633491516113281,4.089296340942383,2.3774423599243164
1748007506125870800,2.061870849609375,7.438784599304199,4.3191399574279785,1.7070658206939697
1748007506141678800,2.077678955078125,6.947973251342773,4.388571739196777,1.3192051649093628
1748007506157517600,2.093517578125,6.912060260772705,4.331110954284668,1.2761094570159912
1748007506181199000,2.11719921875,7.1251444816589355,4.278438568115234,1.2641384601593018
1748007506204881000,2.140880859375,6.701370716094971,4.388571739196777,0.9672574996948242
1748007506220689000,2.15668896484375,6.325480937957764,4.3861775398254395,0.4429273009300232
1748007506236466400,2.172466552734375,6.291962146759033,4.436455726623535,-0.15083470940589905
1748007506252213500,2.188213623046875,7.094019412994385,4.3191399574279785,0.14604631066322327
1748007506268021800,2.204021728515625,8.24084186553955,4.165910720825195,0.8690952062606812
1748007506283829800,2.219829833984375,8.99740982055664,3.9408559799194336,1.1228805780410767
1748007506299638000,2.235637939453125,9.315838813781738,3.7924153804779053,0.9361328482627869
1748007506315476500,2.2514765625,9.141061782836914,3.7493197917938232,0.08140286058187485
1748007506331284700,2.26728466796875,8.834604263305664,3.6559460163116455,-0.3878606855869293
1748007506347092700,2.2830927734375,8.822632789611816,3.6343982219696045,-0.6344634294509888
1748007506362901000,2.29890087890625,9.232041358947754,3.4380736351013184,-0.19632454216480255
1748007506378709000,2.314708984375,9.47146224975586,3.378218650817871,0.038307227194309235
1748007506394547700,2.330547607421875,9.308655738830566,3.2824504375457764,0.13168109953403473
1748007506410355700,2.346355712890625,9.014169692993164,3.31118106842041,-0.14844051003456116
1748007506426102800,2.362102783203125,8.880094528198242,3.2968156337738037,-0.26815059781074524
1748007506441910800,2.377910888671875,9.014169692993164,3.2776620388031006,-0.6488286852836609
1748007506465623000,2.401623046875,8.820239067077637,3.378218650817871,-0.42856210470199585
1748007506481461800,2.417461669921875,8.595184326171875,3.5960910320281982,-0.15801730751991272
1748007506497239300,2.4332392578125,8.037335395812988,3.7181951999664307,0.14604631066322327
1748007506513016800,2.449016845703125,7.752425193786621,3.952826976776123,0.5171475410461426
1748007506528855600,2.46485546875,8.267178535461426,4.220977783203125,-0.026336219161748886
1748007506544724500,2.480724365234375,8.884882926940918,4.371812343597412,-0.2801215946674347
1748007506560471600,2.496471435546875,9.761159896850586,4.525041103363037,-0.08858546614646912
1748007506576279800,2.51227978515625,11.190498352050781,4.963180065155029,0.5195417404174805
1748007506592087800,2.528087890625,11.918335914611816,5.475539207458496,1.9632453918457031
1748007506607865600,2.543865478515625,11.66455078125,5.5760955810546875,2.300827741622925
1748007506623673600,2.559673583984375,10.917559623718262,5.542576789855957,2.5306711196899414
1748007506639451100,2.575451171875,11.202469825744629,5.2911858558654785,3.2609026432037354
1748007506655259400,2.59125927734375,12.06198787689209,4.417302131652832,3.576937437057495
1748007506671037000,2.607036865234375,12.471396446228027,3.4524388313293457,2.741360902786255
1748007506686814500,2.622814453125,12.878411293029785,2.6024973392486572,2.3558945655822754
1748007506702622500,2.63862255859375,12.744335174560547,2.248155355453491,2.3558945655822754
1748007506718430700,2.6544306640625,11.135432243347168,2.233790159225464,1.946485996246338
1748007506734269200,2.670269287109375,9.32302188873291,2.2242133617401123,1.192312479019165
1748007506750077400,2.686077392578125,8.04930591583252,2.3367409706115723,0.38067805767059326
1748007506765885400,2.701885498046875,7.2137298583984375,2.4372973442077637,-0.011971008032560349
1748007506781632500,2.717632568359375,6.900089263916016,2.585737943649292,-0.6823474764823914
1748007506797471200,2.73347119140625,6.785167694091797,2.5546131134033203,-0.3902548849582672
1748007506813279200,2.749279296875,6.605602264404297,2.6024973392486572,-0.30885201692581177
1748007506829056800,2.765056884765625,6.052541732788086,2.6886885166168213,-0.22505496442317963
1748007506844926000,2.780926025390625,5.78678560256958,2.7509377002716064,-0.17956513166427612
1748007506860673000,2.796673095703125,6.337451934814453,2.82515811920166,-0.3256114423274994
1748007506876511700,2.81251171875,7.16584587097168,2.9233202934265137,-0.4812345504760742
1748007506892381000,2.828380859375,7.50582218170166,3.1675288677215576,-0.8858546018600464
1748007506908219400,2.844219482421875,7.1921820640563965,3.5266590118408203,-1.137245774269104
1748007506924027600,2.860027587890625,6.957550048828125,3.9695863723754883,-1.2976573705673218
1748007506939835600,2.875835693359375,7.343016624450684,4.1874589920043945,-0.849941611289978
1748007506955674400,2.89167431640625,8.5903959274292,4.268861770629883,-0.28730419278144836
1748007506971452000,2.907451904296875,10.87446403503418,4.015076160430908,0.6105214357376099
1748007506987229400,2.9232294921875,13.022063255310059,3.6583402156829834,1.6950948238372803
1748007507003007000,2.939007080078125,14.104242324829102,3.4093432426452637,2.0661959648132324
1748007507018784800,2.95478466796875,13.752294540405273,3.2776620388031006,1.7621324062347412
1748007507034592800,2.9705927734375,13.105859756469727,3.066972494125366,1.7262194156646729
1748007507050370300,2.986370361328125,12.040440559387207,2.846705913543701,1.6376339197158813
1748007507066147800,3.00214794921875,11.276689529418945,2.779668092727661,1.316810965538025
1748007507081956000,3.0179560546875,10.745177268981934,2.9759926795959473,1.0893617868423462
1748007507097733600,3.033733642578125,10.441113471984863,3.069366693496704,0.8786720037460327
1748007507113541600,3.049541748046875,9.96945571899414,3.136404275894165,0.6607996821403503
1748007507129350000,3.065349853515625,9.481039047241211,3.1196448802948,1.2473790645599365
1748007507145127400,3.08112744140625,9.028534889221191,3.406949043273926,1.6400281190872192
1748007507160874500,3.09687451171875,8.465897560119629,3.584120035171509,1.656787633895874
1748007507176652000,3.112652099609375,8.360552787780762,3.732560396194458,1.4867992401123047
1748007507192429600,3.1284296875,8.712499618530273,3.794809579849243,1.7142484188079834
1748007507208207400,3.144207275390625,9.169792175292969,3.7828385829925537,2.1475989818573
1748007507224015400,3.160015380859375,9.411606788635254,3.7660791873931885,2.346317768096924
1748007507239793000,3.17579296875,9.344569206237793,3.7876269817352295,2.073378562927246
1748007507255601200,3.19160107421875,9.229647636413574,3.756502389907837,1.6376339197158813
1748007507271409200,3.2074091796875,9.32302188873291,3.801992416381836,1.6184803247451782
1748007507287217400,3.223217529296875,9.579200744628906,3.73016619682312,2.1116859912872314
1748007507303056000,3.239055908203125,9.720458984375,3.821146011352539,2.322375535964966
1748007507318864100,3.254864013671875,9.459490776062012,3.864241600036621,2.427720546722412
1748007507334672100,3.270672119140625,8.925583839416504,3.9600095748901367,2.537853717803955
1748007507350449700,3.28644970703125,8.188169479370117,4.0533833503723145,2.408566951751709
1748007507366196700,3.30219677734375,7.568071365356445,4.046200752258301,2.382230758666992
1748007507381974300,3.317974365234375,7.814674377441406,4.094084739685059,2.580949544906616
1748007507397782500,3.333782470703125,8.786720275878906,4.041412353515625,2.5450363159179688
1748007507413590500,3.349590576171875,10.055646896362305,3.507505416870117,2.434903144836426
1748007507429368000,3.3653681640625,11.068394660949707,3.552995204925537,1.9847931861877441
1748007507445176300,3.38117626953125,11.413159370422363,3.4356794357299805,2.2385785579681396
1748007507460984300,3.396984375,10.625467300415039,3.581725835800171,2.492363929748535
1748007507476792600,3.41279248046875,9.564835548400879,3.97916316986084,2.3367409706115723
1748007507492570000,3.428570068359375,8.53293514251709,4.738125324249268,1.5969325304031372
1748007507508378000,3.444378173828125,8.001421928405762,5.377377033233643,2.097320795059204
1748007507524186400,3.460186279296875,7.642292022705078,5.774814605712891,3.045424461364746
1748007507540055300,3.47605517578125,7.496245384216309,6.026205539703369,3.737348794937134
1748007507555863600,3.491863525390625,7.038952827453613,5.846640586853027,4.424484729766846
1748007507571610600,3.507610595703125,6.789956092834473,5.4252610206604,4.548983097076416
1748007507587388200,3.52338818359375,7.108384609222412,4.707000732421875,4.031835556030273
1748007507603196200,3.539196044921875,7.5968017578125,3.840299606323242,3.5242648124694824
1748007507618974000,3.554973876953125,8.89685344696045,2.7006595134735107,2.7222073078155518
1748007507634843100,3.570843017578125,10.319009780883789,1.5969325304031372,1.3335703611373901
1748007507650681600,3.586681640625,11.947066307067871,0.706289529800415,1.0606313943862915
1748007507666459100,3.602459228515625,11.918335914611816,1.3407529592514038,-1.5705963373184204
1748007507682297900,3.6182978515625,9.543288230895996,1.2186486721038818,-2.0254945755004883
1748007507698136600,3.634136474609375,9.387664794921875,1.1779472827911377,-1.039083480834961
1748007507713975000,3.64997509765625,8.93037223815918,1.5059528350830078,-0.2992752194404602
1748007507729783300,3.665783203125,8.56884765625,2.0901381969451904,-0.545877993106842
1748007507745591300,3.68159130859375,7.747636795043945,2.5282769203186035,-1.0199298858642578
1748007507761399300,3.6973994140625,6.471527099609375,2.7964274883270264,-0.849941611289978
1748007507777238000,3.713238037109375,7.433996200561523,2.58813214302063,0.4141969084739685
1748007507793211600,3.729211669921875,9.23443603515625,2.7988216876983643,1.158793568611145
1748007507809020000,3.74502001953125,10.668562889099121,3.002328872680664,1.6065093278884888
1748007507824797400,3.76079736328125,10.991780281066895,2.9305028915405273,1.4413094520568848
1748007507840605400,3.77660546875,10.92953109741211,2.7078421115875244,0.8810662031173706
1748007507856413700,3.79241357421875,10.536881446838379,2.695871114730835,0.1388636976480484
1748007507872252200,3.808252197265625,10.283096313476562,2.631227731704712,-0.2298433631658554
1748007507888030000,3.824030029296875,10.067618370056152,2.8610711097717285,-1.0414776802062988
1748007507903838000,3.839837890625,9.514557838439941,2.741360902786255,-1.3335703611373901
1748007507919615500,3.855615478515625,9.153033256530762,2.827552318572998,-1.1803414821624756
1748007507935393000,3.87139306640625,8.868123054504395,3.07415509223938,-0.9313444495201111
1748007507951201300,3.887201171875,9.05247688293457,3.1531636714935303,-0.038307227194309235
1748007507966948400,3.9029482421875,8.927978515625,3.2130186557769775,0.21547815203666687
1748007507982756400,3.91875634765625,8.643068313598633,3.134010076522827,0.22505496442317963
1748007507998534000,3.934533935546875,8.341399192810059,3.1268274784088135,0.035913024097681046
1748007508014342100,3.950342041015625,8.47786808013916,3.112462282180786,-0.16759411990642548
1748007508030150100,3.966150146484375,8.81784439086914,3.045424461364746,-0.2059013396501541
1748007508046049800,3.9820498046875,8.920795440673828,3.0526070594787598,-0.07900865375995636
1748007508061888500,3.997888427734375,9.339780807495117,3.141192674636841,0.38546648621559143
1748007508077696500,4.013696533203125,9.995792388916016,3.2154128551483154,0.8188169598579407
1748007508093474300,4.029474365234375,10.251971244812012,3.2154128551483154,0.6727706789970398
1748007508109221400,4.045221435546875,10.232817649841309,3.155557870864868,0.33279404044151306
1748007508125029400,4.061029296875,10.223240852355957,3.0358476638793945,0.15801730751991272
1748007508140837400,4.07683740234375,10.002974510192871,3.0573954582214355,0.31364041566848755
1748007508156645600,4.092645751953125,9.622296333312988,3.095702886581421,1.015141487121582
1748007508172484000,4.108484130859375,9.976638793945312,3.136404275894165,1.292868971824646
1748007508188322800,4.12432275390625,10.539276123046875,2.978386878967285,1.558625340461731
1748007508204100400,4.140100341796875,10.6925048828125,2.760514497756958,1.381454348564148
1748007508219908600,4.15590869140625,10.625467300415039,2.52109432220459,0.9457096457481384
1748007508235716600,4.171716552734375,10.077195167541504,2.4851813316345215,0.6775590777397156
1748007508251524600,4.187524658203125,9.378087997436523,2.585737943649292,0.7805097699165344
1748007508267302400,4.203302490234375,8.607154846191406,2.7269957065582275,1.2234370708465576
1748007508283140900,4.219140869140625,7.90086555480957,2.9448680877685547,1.4484920501708984
1748007508298979600,4.2349794921875,7.829039573669434,3.0765492916107178,1.5131354331970215
1748007508314757000,4.250757080078125,8.04691219329834,3.1244332790374756,1.256955862045288
1748007508330504200,4.266504150390625,8.348581314086914,3.028665065765381,1.1540051698684692
1748007508346343000,4.282343017578125,8.78432559967041,2.9520506858825684,1.4532804489135742
1748007508362181400,4.298181396484375,8.851364135742188,2.9520506858825684,1.5969325304031372
1748007508377989600,4.31398974609375,8.956708908081055,2.9759926795959473,1.7286136150360107
1748007508393797600,4.329797607421875,9.232041358947754,3.0550012588500977,1.8411411046981812
1748007508409666800,4.345666748046875,9.232041358947754,3.1052796840667725,1.6974890232086182
1748007508425474800,4.361474853515625,9.27034854888916,3.0310592651367188,1.5298948287963867
1748007508441283000,4.377282958984375,9.224859237670898,3.1052796840667725,1.137245774269104
1748007508457121500,4.39312158203125,9.081207275390625,3.1196448802948,0.9696516990661621
1748007508472929800,4.4089296875,9.35654067993164,3.1890766620635986,1.3072341680526733
1748007508488737800,4.42473779296875,9.718064308166504,3.2800562381744385,1.7334020137786865
1748007508504546000,4.440546142578125,9.890447616577148,3.265691041946411,1.5897499322891235
1748007508520293000,4.456293212890625,9.816226959228516,3.2393548488616943,1.1899182796478271
1748007508536131600,4.472131591796875,9.555258750915527,3.313575267791748,0.7637503147125244
1748007508551909400,4.487909423828125,9.643844604492188,3.490746021270752,0.751779317855835
1748007508567778300,4.5037783203125,9.907206535339355,3.5745432376861572,0.6727706789970398
1748007508583586600,4.519586669921875,10.014945983886719,3.643975019454956,0.6536170840263367
1748007508599394600,4.53539453125,9.710882186889648,3.818751811981201,0.7781155705451965
1748007508615202800,4.551202880859375,9.53849983215332,4.122815132141113,0.9289502501487732
1748007508630980400,4.56698046875,9.41639518737793,4.417302131652832,0.9313444495201111
1748007508646788400,4.582788330078125,9.318233489990234,4.527435302734375,0.9792284965515137
1748007508662596600,4.5985966796875,9.351752281188965,4.4077253341674805,1.2473790645599365
1748007508678435000,4.61443505859375,9.308655738830566,4.333505153656006,0.8906430602073669
1748007508694212600,4.630212646484375,9.153033256530762,4.307168960571289,0.4118026793003082
1748007508710051300,4.64605126953125,8.645462036132812,4.235342979431152,0.21308395266532898
1748007508725859300,4.661859375,8.367734909057617,4.467580318450928,-0.009576806798577309
1748007508741667600,4.67766748046875,8.427590370178223,4.584896087646484,0.1604115068912506
1748007508757506300,4.69350634765625,8.983044624328613,4.592078685760498,0.5626373887062073
1748007508773314300,4.709314208984375,9.459490776062012,4.63517427444458,0.6727706789970398
1748007508789091800,4.725091796875,9.390059471130371,4.563348293304443,0.45489832758903503
1748007508804930600,4.7409306640625,9.5408935546875,4.49870491027832,0.08140286058187485
1748007508820708000,4.7567080078125,10.038887977600098,4.393360137939453,-0.23702596127986908
1748007508836516000,4.77251611328125,10.560823440551758,4.307168960571289,-0.40462008118629456
1748007508852263200,4.78826318359375,11.209651947021484,4.2329487800598145,-0.090979665517807
1748007508868071400,4.804071533203125,11.815385818481445,4.211400985717773,0.31842881441116333
1748007508883910000,4.819909912109375,12.174515724182129,4.175487995147705,0.4572925269603729
1748007508899657000,4.835656982421875,12.552799224853516,3.974374771118164,0.2513911724090576
1748007508915526100,4.851526123046875,12.938265800476074,3.603273630142212,0.5506663918495178
1748007508931303700,4.8673037109375,13.225569725036621,3.361459255218506,1.5155296325683594
1748007508947112000,4.88311181640625,13.189657211303711,3.1292216777801514,2.319981336593628
1748007508962920000,4.898919921875,13.165715217590332,2.6455929279327393,2.3247697353363037
1748007508978697500,4.914697509765625,13.524845123291016,1.9393033981323242,2.030282974243164
1748007508994505700,4.930505615234375,13.500903129577637,1.6352397203445435,1.6328455209732056
1748007509010283300,4.946283203125,12.38759994506836,1.280897855758667,1.5059528350830078
1748007509026091300,4.96209130859375,10.982203483581543,1.37906014919281,1.580173134803772
1748007509041869000,4.977869140625,9.75397777557373,1.6041151285171509,1.7310078144073486
1748007509057646600,4.993646484375,8.78193187713623,1.9584569931030273,1.6280571222305298
1748007509073454600,5.00945458984375,8.403648376464844,2.1787235736846924,1.2234370708465576
1748007509089262800,5.025262939453125,8.40843677520752,2.1571757793426514,0.8571242094039917
1748007509105070800,5.04107080078125,8.561665534973145,2.0661959648132324,0.8762778043746948
1748007509120879000,5.056879150390625,8.698134422302246,2.0638017654418945,0.8427590131759644
1748007509136687000,5.07268701171875,8.523358345031738,2.03507137298584,0.6655880808830261
1748007509152434200,5.08843408203125,8.346187591552734,2.051830768585205,0.5722141861915588
1748007509168242200,5.1042421875,8.42040729522705,2.006340980529785,0.4357447028160095
1748007509184050400,5.120050537109375,8.738836288452148,1.9129672050476074,0.38546648621559143
1748007509199889000,5.135888916015625,9.490615844726562,1.946485996246338,0.6823474764823914
1748007509215697200,5.151697265625,10.137049674987793,1.9153614044189453,0.6847416758537292
1748007509231444200,5.1674443359375,10.24000072479248,1.8100165128707886,0.4620809257030487
1748007509247221800,5.1832216796875,10.189722061157227,1.745373010635376,0.1628057211637497
1748007509263029800,5.19902978515625,9.8784761428833,1.7070658206939697,0.019153613597154617
1748007509278776800,5.21477685546875,9.361329078674316,1.7573440074920654,0
1748007509294585000,5.230585205078125,8.336610794067383,1.7764976024627686,0.05985504388809204
1748007509310423600,5.246423583984375,7.12035608291626,1.723825216293335,-0.07661445438861847
1748007509326170600,5.262170654296875,6.1530985832214355,1.6927006244659424,-0.28969839215278625
1748007509341979000,5.277978759765625,5.595249176025391,1.6376339197158813,-0.3974374830722809
1748007509357787000,5.293786865234375,5.559336185455322,1.659181833267212,-0.10534487664699554
1748007509373564400,5.309564453125,5.588066577911377,1.941697597503662,0.3687070608139038
1748007509389372700,5.32537255859375,6.495469093322754,2.274491548538208,1.01753568649292
1748007509405150200,5.341150146484375,7.5417351722717285,2.609679937362671,0.8523358106613159
1748007509420958200,5.356958251953125,7.860164165496826,2.741360902786255,-0.031124621629714966
1748007509436736000,5.372736083984375,7.594407558441162,2.911349296569824,-1.015141487121582
1748007509452483000,5.388483154296875,7.407660007476807,3.141192674636841,-1.4484920501708984
1748007509468382700,5.4043828125,7.843404769897461,3.464409828186035,-1.1013327836990356
1748007509484160300,5.42016015625,8.789113998413086,3.6990416049957275,-0.3447650372982025
1748007509499968300,5.43596826171875,9.600749015808105,3.825934410095215,0.10773907601833344
1748007509515776500,5.451776611328125,10.18493366241455,3.818751811981201,-0.08858546614646912
1748007509531584500,5.46758447265625,10.572794914245605,3.708618402481079,-0.5937620401382446
1748007509547362000,5.483362060546875,10.718840599060059,3.5673606395721436,-1.1803414821624756
1748007509563139800,5.499139892578125,10.647014617919922,3.529053211212158,-1.3120225667953491
1748007509579039500,5.51503955078125,10.589553833007812,3.5386300086975098,-1.256955862045288
1748007509594817000,5.530817138671875,10.74996566772461,3.5913026332855225,-0.8379706144332886
1748007509610655500,5.546655517578125,10.682928085327148,3.6846764087677,-0.6129156351089478
1748007509626494200,5.562494140625,10.319009780883789,3.5936968326568604,-0.9361328482627869
1748007509650206500,5.58620654296875,9.983820915222168,3.313575267791748,-1.5418659448623657
1748007509665984000,5.60198388671875,10.043676376342773,3.2848446369171143,-1.3551181554794312
1748007509689696000,5.625696044921875,10.213664054870605,3.404554843902588,-0.6105214357376099
1748007509705504300,5.641504150390625,10.170568466186523,3.5194764137268066,-0.4141969084739685
1748007509721281800,5.65728173828125,9.837775230407715,3.5697548389434814,-0.6607996821403503
1748007509737090000,5.673090087890625,9.607931137084961,3.4308910369873047,-1.237802267074585
1748007509752867600,5.68886767578125,9.299078941345215,3.3207578659057617,-1.7310078144073486
1748007509768645000,5.70464501953125,8.59997272491455,3.3279404640197754,-2.231395959854126
1748007509784392200,5.72039208984375,8.027758598327637,3.488351821899414,-2.140416383743286
1748007509800200200,5.7362001953125,8.190564155578613,3.7493197917938232,-1.6041151285171509
1748007509815947300,5.751947265625,8.461109161376953,4.02465295791626,-1.1827356815338135
1748007509831755500,5.767755615234375,8.736441612243652,4.1395745277404785,-1.1851298809051514
1748007509847533000,5.783532958984375,8.87291145324707,4.0078935623168945,-1.3431471586227417
1748007509863280000,5.799280029296875,9.105149269104004,3.8115692138671875,-1.414973258972168
1748007509879118800,5.815118896484375,9.0859956741333,3.7708675861358643,-1.5131354331970215
1748007509894866000,5.830865966796875,9.14585018157959,3.6774938106536865,-1.3431471586227417
1748007509910643500,5.8466435546875,9.3828763961792,3.706224203109741,-1.161187767982483
1748007509926451500,5.862451416015625,9.959878921508789,3.624821424484253,-1.115697979927063
1748007509942259700,5.878259765625,10.230423927307129,3.4763808250427246,-1.357512354850769
1748007509958037200,5.894037353515625,9.938331604003906,3.399766445159912,-1.7286136150360107
1748007509973845200,5.90984521484375,9.509769439697266,3.4165258407592773,-1.9105730056762695
1748007509989622800,5.925622802734375,8.923190116882324,3.531447410583496,-1.8148049116134644
1748007510005431000,5.94143115234375,8.255207061767578,3.73016619682312,-1.6184803247451782
1748007510021269500,5.95726953125,7.659051418304443,3.9887399673461914,-1.4532804489135742
1748007510037077800,5.973077880859375,7.599195957183838,4.091690540313721,-1.3239935636520386
1748007510052885800,5.9888857421875,8.092401504516602,4.098873138427734,-1.2856862545013428
1748007510068755000,6.0047548828125,8.834604263305664,3.912125587463379,-1.4532804489135742
1748007510084593700,6.02059375,9.011775016784668,3.907337188720703,-1.9919757843017578
1748007510100371200,6.03637109375,9.181763648986816,3.8379054069519043,-2.3702597618103027
1748007510116179200,6.05217919921875,9.272743225097656,3.9049429893493652,-2.3774423599243164
1748007510131987500,6.067987548828125,9.193734169006348,4.01268196105957,-2.2385785579681396
1748007510147765000,6.083764892578125,9.119514465332031,4.043806552886963,-1.8938134908676147
1748007510163573000,6.099572998046875,9.102754592895508,4.05817174911499,-1.6208745241165161
1748007510179411700,6.11541162109375,8.789113998413086,4.01268196105957,-1.6160861253738403
1748007510195219700,6.1312197265625,8.482656478881836,3.974374771118164,-1.8938134908676147
1748007510210997500,6.14699755859375,8.38688850402832,3.9863457679748535,-2.1954829692840576
1748007510226775000,6.162775146484375,8.070854187011719,3.9432501792907715,-2.3032219409942627
1748007510242583000,6.1785830078125,7.783549785614014,3.971980571746826,-2.3271639347076416
1748007510258330000,6.194330078125,8.054094314575195,3.9911341667175293,-2.255337953567505
1748007510274138400,6.210138427734375,8.47547435760498,3.890577793121338,-2.252943754196167
1748007510289916000,6.225916015625,8.458714485168457,3.773261785507202,-2.516305923461914
1748007510305724000,6.241723876953125,8.60236644744873,3.643975019454956,-2.6168625354766846
1748007510321501400,6.25750146484375,8.856152534484863,3.6559460163116455,-2.5498247146606445
1748007510337248500,6.27324853515625,8.700529098510742,3.5936968326568604,-2.427720546722412
1748007510353087200,6.289087158203125,8.35097599029541,3.622427225112915,-2.4588451385498047
1748007510368864800,6.30486474609375,8.101978302001953,3.6846764087677,-2.389413356781006
1748007510384703500,6.320703369140625,8.523358345031738,3.734954595565796,-2.0829553604125977
1748007510400511500,6.336511474609375,9.081207275390625,3.778050184249878,-1.7501614093780518
1748007510416350200,6.35235009765625,9.198522567749023,3.732560396194458,-1.7405846118927002
1748007510432127700,6.368127685546875,8.973467826843262,3.77565598487854,-1.9919757843017578
1748007510447966500,6.383966552734375,8.93037223815918,3.778050184249878,-2.1092917919158936
1748007510463805000,6.399804931640625,9.155426979064941,3.8139634132385254,-2.011129379272461
1748007510479582700,6.415582763671875,9.622296333312988,3.825934410095215,-1.745373010635376
1748007510495421200,6.431421142578125,10.02691650390625,3.8307228088378906,-1.556231141090393
1748007510511198700,6.44719873046875,10.244789123535156,3.756502389907837,-1.6903064250946045
1748007510527007000,6.463007080078125,10.218452453613281,3.6846764087677,-1.8722656965255737
1748007510542784500,6.478784423828125,10.04846477508545,3.6942532062530518,-1.9967641830444336
1748007510558623200,6.494623291015625,9.892841339111328,3.823540210723877,-1.8962076902389526
1748007510574461700,6.510461669921875,9.524134635925293,3.950432777404785,-1.6687586307525635
1748007510590239200,6.5262392578125,9.263166427612305,4.019864559173584,-1.4101848602294922
1748007510606047500,6.542047607421875,9.229647636413574,4.0749311447143555,-1.3048399686813354
1748007510621825000,6.557824951171875,9.454702377319336,4.091690540313721,-1.3000515699386597
1748007510637633000,6.573633056640625,9.476250648498535,4.098873138427734,-1.3263877630233765
1748007510653441300,6.589441162109375,9.402029991149902,4.122815132141113,-1.2066776752471924
1748007510669218800,6.60521875,9.332598686218262,4.1180267333984375,-0.9959878921508789
1748007510684996400,6.620996337890625,8.951920509338379,4.158728122711182,-1.0031704902648926
1748007510700835000,6.6368349609375,8.42040729522705,4.163516521453857,-1.1468225717544556
1748007510716643000,6.65264306640625,8.020575523376465,4.228160381317139,-1.1300631761550903
1748007510732390100,6.66839013671875,7.931990146636963,4.278438568115234,-0.950498104095459
1748007510748228900,6.684228759765625,7.94635534286499,4.335899353027344,-0.8379706144332886
1748007510764006400,6.70000634765625,8.20492935180664,4.302380561828613,-0.7374141216278076
1748007510779875600,6.71587548828125,8.549694061279297,4.201824188232422,-0.8523358106613159
1748007510795683600,6.73168359375,8.561665534973145,4.05817174911499,-1.0630255937576294
1748007510811522300,6.747522216796875,8.372523307800293,4.015076160430908,-1.2114660739898682
1748007510827269400,6.763269287109375,8.35097599029541,4.034229755401611,-1.115697979927063
1748007510843077400,6.779077392578125,8.525752067565918,4.086902141571045,-1.1109095811843872
1748007510858855200,6.794855224609375,8.734047889709473,4.046200752258301,-1.1875240802764893
1748007510874663200,6.8106630859375,8.89685344696045,4.003105163574219,-1.2545616626739502
1748007510890440700,6.826440673828125,8.813055992126465,3.957615375518799,-1.3670891523361206
1748007510906249000,6.8422490234375,8.796297073364258,3.955221176147461,-1.3982137441635132
1748007510922087400,6.85808740234375,8.901641845703125,3.9815573692321777,-1.403002142906189
1748007510937895700,6.873895751953125,9.2033109664917,3.9432501792907715,-1.403002142906189
1748007510953703700,6.88970361328125,9.696516990661621,3.77565598487854,-1.2425906658172607
1748007510969450800,6.90545068359375,10.232817649841309,3.533841609954834,-1.1779472827911377
1748007510985228300,6.921228271484375,10.778696060180664,3.3279404640197754,-1.2449848651885986
1748007511001128000,6.9371279296875,11.403582572937012,3.2752678394317627,-1.41257905960083
1748007511016905500,6.952905517578125,11.654973983764648,3.3901896476745605,-1.5634137392044067
1748007511032744200,6.968744140625,12.085929870605469,3.426102638244629,-1.0654197931289673
1748007511048552400,6.984552490234375,12.45703125,3.5434184074401855,-0.5003881454467773
1748007511064330000,7.000330078125,12.54561710357666,3.6152446269989014,0.08619125932455063
1748007511080138000,7.016137939453125,12.162544250488281,3.7038300037384033,0.35673606395721436
1748007511095915500,7.03191552734375,11.532869338989258,3.794809579849243,0.5099649429321289
1748007511111754200,7.047754150390625,10.824186325073242,3.9169139862060547,0.9552865028381348
1748007511127684400,7.063684326171875,10.237606048583984,3.9624037742614746,1.7166426181793213
1748007511143492600,7.07949267578125,10.247182846069336,3.6846764087677,2.985569477081299
1748007511159270100,7.095270263671875,10.759542465209961,3.7445313930511475,3.1914708614349365
1748007511175047700,7.111047607421875,10.83855152130127,3.5051112174987793,3.6296098232269287
1748007511190825200,7.1268251953125,10.845733642578125,3.1866824626922607,3.734954595565796
1748007511206633500,7.142633544921875,11.291055679321289,2.8850131034851074,3.667917013168335
1748007511222411000,7.158410888671875,11.894393920898438,2.6384103298187256,3.5625722408294678
1748007511238188500,7.1741884765625,12.418724060058594,2.4803929328918457,3.3901896476745605
1748007511253996500,7.18999658203125,12.236764907836914,2.3918075561523438,3.1100680828094482
1748007511269835300,7.205835205078125,11.288661003112793,2.3511061668395996,3.0119056701660156
1748007511285674000,7.221674072265625,10.457873344421387,2.3726539611816406,3.1651346683502197
1748007511301451500,7.237451416015625,9.734824180603027,2.449268341064453,3.272873640060425
1748007511317320700,7.25332080078125,9.107542991638184,2.382230758666992,3.378218650817871
1748007511333128700,7.269128662109375,8.683769226074219,2.229001760482788,3.1914708614349365
1748007511348906200,7.28490625,8.729259490966797,2.051830768585205,2.832340717315674
1748007511364653300,7.3006533203125,8.995016098022461,1.8818424940109253,2.406172752380371
1748007511380431000,7.31643115234375,9.38048267364502,1.7477672100067139,2.049436569213867
1748007511396239000,7.332239013671875,9.428366661071777,1.7046716213226318,1.889025092124939
1748007511412108300,7.3481083984375,9.217676162719727,1.6496049165725708,1.9177556037902832
1748007511427916300,7.363916259765625,9.045293807983398,1.5179238319396973,1.6065093278884888
1748007511443755000,7.379755126953125,8.712499618530273,1.2952631711959839,1.4197616577148438
1748007511459563000,7.39556298828125,8.068459510803223,0.9433154463768005,1.216254472732544
1748007511475401700,7.411401611328125,7.12035608291626,0.7398083209991455,0.9385270476341248
1748007511491179300,7.42717919921875,6.311115741729736,0.6488286852836609,0.5674257874488831
1748007511507079000,7.443078857421875,6.011840343475342,0.6392518281936646,0.12449848651885986
1748007511522887200,7.45888720703125,6.1315507888793945,0.7254431247711182,0.19393034279346466
1748007511538664700,7.474664794921875,6.4380083084106445,1.0223240852355957,0.7445967197418213
1748007511554472700,7.49047265625,6.761225700378418,1.3694833517074585,1.5203180313110352
1748007511570342000,7.506341796875,7.2352776527404785,1.821987509727478,1.867477297782898
1748007511586150000,7.52214990234375,7.158663272857666,2.145204782485962,2.0374655723571777
1748007511601958100,7.537958251953125,6.950367450714111,2.341529369354248,2.389413356781006
1748007511617735700,7.553735595703125,6.931213855743408,2.7006595134735107,2.801215887069702
1748007511633543700,7.569543701171875,7.371747016906738,3.00711727142334,3.3710360527038574
1748007511649352000,7.58535205078125,7.931990146636963,3.203441858291626,3.641580820083618
1748007511665190400,7.6011904296875,8.415618896484375,3.2585084438323975,3.845088005065918
1748007511680998700,7.61699853515625,8.456320762634277,3.361459255218506,3.7684733867645264
1748007511704680200,7.64068017578125,8.058882713317871,3.5218706130981445,3.3710360527038574
1748007511720488400,7.656488525390625,7.8314337730407715,3.6080620288848877,3.3207578659057617
1748007511736296400,7.67229638671875,7.702147006988525,3.6391866207122803,3.5218706130981445
1748007511752074000,7.688073974609375,7.939172744750977,3.5482068061828613,3.7852327823638916
1748007511767851500,7.7038515625,8.288725852966309,3.31118106842041,3.6822822093963623
1748007511783659800,7.71965966796875,8.65743350982666,2.9520506858825684,3.4141316413879395
1748007511799467800,7.7354677734375,8.918401718139648,2.671929121017456,3.1268274784088135
1748007511815306500,7.751306396484375,9.241618156433105,2.4684219360351562,3.0550012588500977
1748007511831053600,7.767053466796875,9.50737476348877,2.4684219360351562,3.294421434402466
1748007511846892300,7.782892333984375,10.031704902648926,2.5067291259765625,3.2106244564056396
1748007511862669800,7.798669921875,10.395624160766602,2.3989901542663574,2.5067291259765625
1748007511878569500,7.814569580078125,10.211270332336426,2.2433669567108154,2.0853497982025146
1748007511894347000,7.830346923828125,9.758766174316406,2.3918075561523438,2.118868589401245
1748007511910124500,7.84612451171875,9.402029991149902,2.628833532333374,2.604891538619995
1748007511925963300,7.86196337890625,9.028534889221191,2.784456491470337,3.246537446975708
1748007511941771300,7.877771240234375,8.47547435760498,2.9281086921691895,3.584120035171509
1748007511957548800,7.893548828125,8.5903959274292,2.956839084625244,3.114856481552124
1748007511973387500,7.909387451171875,8.899248123168945,2.8850131034851074,2.1308395862579346
1748007511989134600,7.925134521484375,9.23682975769043,2.652775526046753,1.6089035272598267
1748007512005034200,7.9410341796875,9.457097053527832,2.5953147411346436,1.4484920501708984
1748007512020811800,7.956811767578125,9.478644371032715,2.8419175148010254,1.455674648284912
1748007512036650500,7.972650390625,9.59835433959961,3.0166940689086914,1.3263877630233765
1748007512052397600,7.9883974609375,10.038887977600098,2.806004285812378,1.2976573705673218
1748007512068175000,8.004175048828126,10.362105369567871,2.7437551021575928,1.3551181554794312
1748007512083952600,8.01995263671875,10.04846477508545,2.715024709701538,1.5155296325683594
1748007512099761000,8.035760986328125,9.75397777557373,2.5546131134033203,1.2689268589019775
1748007512115538400,8.051538330078126,9.57441234588623,2.499546527862549,0.7134721279144287
1748007512131377200,8.067377197265625,9.880870819091797,2.5019407272338867,0.2298433631658554
1748007512147185200,8.08318505859375,10.1753568649292,2.6192567348480225,-0.11252748221158981
1748007512162993200,8.0989931640625,9.80904483795166,2.5785553455352783,-0.272938996553421
1748007512178832000,8.114831787109376,9.524134635925293,2.537853717803955,-0.6416460275650024
1748007512194609400,8.130609375,9.006986618041992,2.3702597618103027,-0.6200982332229614
1748007512210387000,8.146386962890626,8.123526573181152,2.3558945655822754,-1.5849615335464478
1748007512226195200,8.1621953125,8.542511940002441,2.2649147510528564,-2.2888567447662354
1748007512241972700,8.17797265625,9.339780807495117,1.9800047874450684,-2.2864625453948975
1748007512257811500,8.1938115234375,10.14902114868164,2.2697031497955322,-0.6775590777397156
1748007512281523500,8.2175234375,10.06043529510498,2.434903144836426,1.05105459690094
1748007512297331700,8.233331787109375,9.169792175292969,2.449268341064453,0.10773907601833344
1748007512313139700,8.2491396484375,9.131484985351562,2.4827871322631836,-0.6823474764823914
1748007512328978400,8.264978515625,9.890447616577148,2.3295583724975586,-0.8355764150619507
1748007512344786400,8.280786376953126,10.046070098876953,2.1475989818573,-1.091755986213684
1748007512360564000,8.29656396484375,10.18493366241455,2.0901381969451904,-1.0965443849563599
1748007512376372200,8.312372314453125,10.527304649353027,2.250549554824829,-0.6943184733390808
1748007512392210700,8.328210693359376,10.168174743652344,2.3511061668395996,-0.5219359993934631
1748007512407988500,8.343988525390625,9.62947940826416,2.403778553009033,-0.7805097699165344
1748007512423766000,8.35976611328125,9.751583099365234,2.276885747909546,-1.338358759880066
1748007512439574000,8.375573974609376,10.651803016662598,2.22660756111145,-1.8938134908676147
1748007512455382300,8.39138232421875,11.104307174682617,2.1739351749420166,-2.1380221843719482
1748007512471159800,8.407159912109375,10.465055465698242,2.4444799423217773,-1.8411411046981812
1748007512486907000,8.422906982421875,9.531316757202148,2.652775526046753,-1.1468225717544556
1748007512502715000,8.43871484375,9.349357604980469,2.849100112915039,-0.871489405632019
1748007512518492400,8.454492431640626,9.581595420837402,2.8419175148010254,-0.8619126081466675
1748007512534331100,8.4703310546875,9.5624418258667,2.8993782997131348,-0.8212111592292786
1748007512550169900,8.486169921875,9.222464561462402,3.0621838569641113,-0.43335050344467163
1748007512565947400,8.501947509765625,8.650250434875488,3.2321722507476807,-0.15801730751991272
1748007512581816600,8.517816650390625,8.772355079650879,3.2537200450897217,-0.38067805767059326
1748007512597655000,8.533655029296876,9.469067573547363,3.1531636714935303,-0.751779317855835
1748007512613432600,8.5494326171875,10.137049674987793,3.399766445159912,-0.9648633003234863
1748007512629271300,8.565271240234376,8.042123794555664,3.622427225112915,-1.0127472877502441
1748007512645048800,8.581048828125,10.211270332336426,4.158728122711182,-2.846705913543701
1748007512660796000,8.5967958984375,9.751583099365234,3.3279404640197754,-1.8818424940109253
1748007512676573400,8.612573486328126,9.311050415039062,3.318363666534424,-1.5682021379470825
1748007512692381700,8.628381591796876,9.509769439697266,3.5936968326568604,-1.3072341680526733
1748007512708189700,8.644189697265626,9.641449928283691,3.4308910369873047,-0.9744400978088379
1748007512723998000,8.659998046875,9.564835548400879,3.2154128551483154,-0.933738648891449
1748007512739806000,8.675805908203126,9.44752025604248,3.3039982318878174,-1.2665326595306396
1748007512755583500,8.69158349609375,9.349357604980469,3.4763808250427246,-1.7405846118927002
1748007512779265300,8.715265380859375,9.050082206726074,3.466804027557373,-2.0901381969451904
1748007512795103700,8.731103759765626,8.916007041931152,3.469198226928711,-1.8100165128707886
1748007512810881500,8.746881591796875,8.650250434875488,3.732560396194458,-1.4652514457702637
1748007512826689500,8.762689453125,8.145073890686035,3.6296098232269287,-0.9241618514060974
1748007512842528300,8.7785283203125,8.106766700744629,4.01268196105957,-1.434126853942871
1748007512858397200,8.794397216796876,8.224082946777344,3.773261785507202,-1.556231141090393
1748007512874205400,8.810205322265626,8.757989883422852,3.5721490383148193,-1.3886369466781616
1748007512890013400,8.826013427734376,8.99740982055664,3.4548330307006836,-1.0319008827209473
1748007512905760500,8.841760498046876,8.731653213500977,3.670311212539673,-1.2952631711959839
1748007512921599200,8.85759912109375,8.528146743774414,3.7038300037384033,-1.3479355573654175
1748007512937376800,8.873376708984376,8.765172004699707,3.44765043258667,-1.1013327836990356
1748007512953184800,8.889184814453126,9.105149269104004,3.203441858291626,-0.790086567401886
1748007512968962600,8.904962646484375,8.844181060791016,3.0861260890960693,0.023942016065120697
1748007512984892700,8.920892578125,8.14028549194336,3.1196448802948,1.1468225717544556
1748007513000670200,8.936670166015626,7.232883453369141,3.1052796840667725,1.9129672050476074
1748007513016478500,8.952478515625,6.337451934814453,3.179499864578247,2.0422539710998535
1748007513032286500,8.968286376953126,7.292738437652588,3.6774938106536865,1.5658079385757446
1748007513048094500,8.984094482421876,8.418013572692871,3.509899616241455,1.5394717454910278
1748007513063872300,8.999872314453125,8.813055992126465,3.3255462646484375,1.9297266006469727
1748007513079649800,9.01564990234375,8.552088737487793,2.9951462745666504,2.959233283996582
1748007513095457800,9.031457763671876,8.094796180725098,3.4835634231567383,3.045424461364746
1748007513111235300,9.0472353515625,8.2312650680542,3.3686418533325195,3.315969467163086
1748007513127043600,9.063043701171875,8.552088737487793,2.8179752826690674,2.6384103298187256
1748007513142851600,9.0788515625,9.974244117736816,1.6376339197158813,2.470816135406494
1748007513158659800,9.094659912109375,18.801666259765625,-1.1444283723831177,6.447585105895996
1748007513174467800,9.1104677734375,10.170568466186523,-0.3495534360408783,3.713406801223755
1748007513190306600,9.126306640625,11.848904609680176,-0.3016694188117981,2.1523873805999756
1748007513206084000,9.142083984375,11.966219902038574,-0.8188169598579407,1.4700398445129395
1748007513221892000,9.15789208984375,11.688492774963379,-0.7445967197418213,0.9097966551780701
1748007513237700400,9.173700439453125,12.433089256286621,0.5482721924781799,0.811634361743927
1748007513253569500,9.189569580078125,9.27034854888916,2.47560453414917,-1.8171991109848022
1748007513269408000,9.205407958984376,6.744466304779053,2.6815059185028076,-3.471592426300049
1748007513285216300,9.22121630859375,8.020575523376465,3.2776620388031006,1.4772224426269531
1748007513300993800,9.236993896484375,8.597578048706055,2.604891538619995,6.282385349273682
1748007513316801800,9.2528017578125,6.14831018447876,1.9608511924743652,4.857835292816162
1748007513332610000,9.268610107421875,6.098031520843506,1.6400281190872192,3.177105665206909
1748007513348387600,9.2843876953125,7.769184589385986,2.82515811920166,2.734178304672241
1748007513364165000,9.3001650390625,10.20648193359375,3.251325845718384,0.8595184087753296
1748007513379973000,9.31597314453125,12.725181579589844,2.3032219409942627,2.0829553604125977
1748007513395751000,9.3317509765625,12.452242851257324,1.4652514457702637,3.998316764831543
1748007513411528400,9.347528564453125,13.496114730834961,0.6129156351089478,6.174646377563477
1748007513427306000,9.363305908203126,13.283031463623047,0.30885201692581177,5.937620162963867
1748007513443114000,9.379114013671876,11.678915977478027,0.4692635238170624,3.9432501792907715
1748007513458922200,9.394922119140626,10.041281700134277,0.849941611289978,2.889801502227783
1748007513474699800,9.41069970703125,9.186552047729492,0.3758896589279175,2.360682964324951
1748007513490507800,9.4265078125,9.02135181427002,1.0247182846069336,3.141192674636841
1748007513506346500,9.442346435546876,14.444218635559082,2.7916390895843506,3.469198226928711
1748007513522124000,9.4581240234375,10.819397926330566,1.3120225667953491,2.425326347351074
1748007513537901600,9.473901611328126,10.005369186401367,0.7326257228851318,2.652775526046753
1748007513553709800,9.489709716796876,9.246406555175781,1.7501614093780518,2.205059766769409
1748007513569487400,9.5054873046875,7.979874134063721,2.1332337856292725,1.2258312702178955
1748007513585265000,9.521264892578126,7.247248649597168,2.1045033931732178,1.599326729774475
1748007513601073200,9.5370732421875,6.921637058258057,1.292868971824646,2.5737667083740234
1748007513616850700,9.5528505859375,7.489062786102295,0.7876923680305481,2.7030537128448486
1748007513632658700,9.56865869140625,9.564835548400879,0.8954314589500427,4.0078935623168945
1748007513648436500,9.5844365234375,11.24795913696289,0.6631938815116882,3.88818359375
1748007513664244500,9.600244384765626,11.044452667236328,0.7948749661445618,2.849100112915039
1748007513679991600,9.615991455078126,10.249577522277832,0.9409212470054626,3.162740468978882
1748007513695830300,9.631830322265625,8.597578048706055,1.137245774269104,3.6583402156829834
1748007513711607800,9.64760791015625,8.200140953063965,1.745373010635376,3.825934410095215
1748007513727415800,9.663415771484376,8.56645393371582,2.43011474609375,3.375824451446533
1748007513743224000,9.67922412109375,8.35336971282959,2.911349296569824,3.421314239501953
1748007513759032000,9.695031982421876,8.611943244934082,3.380612850189209,3.141192674636841
1748007513774901200,9.7109013671875,8.611943244934082,3.56017804145813,2.3750481605529785
1748007513790709200,9.726709228515626,8.451532363891602,3.8091750144958496,2.205059766769409
1748007513806548000,9.7425478515625,8.118738174438477,3.799597978591919,2.4827871322631836
1748007513822356000,9.75835595703125,6.998251438140869,3.6080620288848877,2.896984100341797
1748007513838164200,9.774164306640625,7.362170219421387,3.931279182434082,2.920926094055176
1748007513853911300,9.789911376953125,8.372523307800293,4.000710964202881,2.6791117191314697
1748007513869719300,9.80571923828125,9.121908187866211,3.6583402156829834,2.2242133617401123
1748007513885496800,9.821496826171876,9.586383819580078,3.471592426300049,1.3311761617660522
1748007513901274400,9.8372744140625,9.785101890563965,3.292027235031128,0.9672574996948242
1748007513917082600,9.85308251953125,9.600749015808105,2.9257144927978516,1.3479355573654175
1748007513932860200,9.868860107421876,9.763554573059082,3.4979286193847656,2.118868589401245
1748007513948668400,9.88466845703125,9.23682975769043,3.9600095748901367,2.736572504043579
1748007513964476400,9.900476318359376,9.066842079162598,3.7038300037384033,2.10210919380188
1748007513980254000,9.91625390625,10.290278434753418,3.2345664501190186,1.01753568649292
1748007513996062200,9.932062255859375,11.03248119354248,2.956839084625244,1.1276689767837524
1748007514011931100,9.94793115234375,10.864887237548828,2.8371291160583496,1.8555063009262085
1748007514027769900,9.963769775390626,10.500968933105469,2.7724854946136475,2.1954829692840576
1748007514043608600,9.979608642578125,10.031704902648926,2.7437551021575928,1.968033790588379
1748007514059386000,9.99538623046875,10.053253173828125,2.8634653091430664,1.9919757843017578
1748007514075224600,10.011224609375,10.42195987701416,3.2848446369171143,2.276885747909546
1748007514090971600,10.0269716796875,9.928754806518555,3.4548330307006836,1.5514427423477173
1748007514106810400,10.042810302734376,8.978256225585938,3.754108190536499,1.3503297567367554
1748007514122588000,10.058587890625,8.803479194641113,3.5170822143554688,1.6208745241165161
1748007514138396200,10.074396240234375,8.609549522399902,3.667917013168335,0.8595184087753296
1748007514154204200,10.0902041015625,8.166622161865234,4.2760443687438965,0.586579442024231
1748007514170012200,10.10601220703125,7.762001991271973,4.503493309020996,-0.27054479718208313
1748007514185820400,10.1218203125,7.642292022705078,4.750096321105957,0.8212111592292786
1748007514201659100,10.1376591796875,7.522581577301025,4.910507678985596,1.1755530834197998
1748007514217467100,10.153467041015626,7.797914981842041,4.994304656982422,2.140416383743286
1748007514233275100,10.169275146484376,7.948749542236328,4.551377296447754,3.181894063949585
1748007514249053000,10.185052978515625,7.793126583099365,3.928884983062744,4.067748546600342
1748007514264891400,10.200891357421876,8.26239013671875,3.778050184249878,4.280832767486572
1748007514280699600,10.21669970703125,8.882488250732422,3.754108190536499,2.669534921646118
1748007514296507600,10.232507568359376,10.395624160766602,4.072536945343018,0.5770025849342346
1748007514312346400,10.248346435546875,11.614272117614746,4.247313976287842,-0.395043283700943
1748007514328154400,10.264154296875,12.121843338012695,4.20421838760376,0
1748007514343932000,10.279931884765626,11.908759117126465,4.084507942199707,0.8571242094039917
1748007514359709400,10.29570947265625,11.499350547790527,4.036623954772949,1.45806884765625
1748007514375548200,10.311548095703126,10.76193618774414,4.364629745483398,1.900996208190918
1748007514399229700,10.335229736328126,10.029311180114746,5.4659624099731445,1.335964560508728
1748007514415068400,10.351068359375,11.065999984741211,5.638344764709473,0.272938996553421
1748007514430846000,10.366845947265626,12.595894813537598,5.224148273468018,-0.49799394607543945
1748007514446593000,10.382593017578126,14.286201477050781,4.446032524108887,-0.06224924325942993
1748007514462431700,10.398431640625,15.004462242126465,3.734954595565796,0.13168109953403473
1748007514478209300,10.414209228515626,14.077905654907227,2.911349296569824,0.5195417404174805
1748007514493986800,10.42998681640625,11.84650993347168,2.4803929328918457,1.280897855758667
1748007514509825500,10.445825439453126,10.685321807861328,2.6815059185028076,0.9026140570640564
1748007514525633500,10.461633544921876,10.824186325073242,2.87064790725708,0.033518824726343155
1748007514549345800,10.485345703125,11.39161205291748,2.9688100814819336,-1.4891934394836426
1748007514565153800,10.50115380859375,10.766724586486816,2.760514497756958,-1.45806884765625
1748007514580931600,10.516931640625,9.251194953918457,2.2361843585968018,-0.9983820915222168
1748007514596739600,10.532739501953126,7.953537940979004,2.1787235736846924,-0.9552865028381348
1748007514612547600,10.548547607421876,7.060500621795654,2.2026655673980713,-1.1180921792984009
1748007514628355800,10.56435595703125,6.236895561218262,1.9800047874450684,-0.6631938815116882
1748007514644133400,10.58013330078125,5.317522048950195,2.145204782485962,-0.14365209639072418
1748007514659972000,10.59597216796875,4.180276393890381,2.5282769203186035,0.15322890877723694
1748007514675780000,10.611780029296876,4.520252704620361,2.9496564865112305,0.14604631066322327
1748007514691557600,10.6275576171875,5.188235282897949,3.224989652633667,0.44771572947502136
1748007514707366000,10.643365966796875,6.054935932159424,3.3734302520751953,0.5985504388809204
1748007514723174000,10.659173828125,6.540958881378174,3.5242648124694824,0.8044517636299133
1748007514738951400,10.674951416015626,6.251260757446289,3.6774938106536865,1.0989385843276978
1748007514754759700,10.690759765625,6.464344501495361,3.845088005065918,0.8786720037460327
1748007514770567700,10.706567626953126,7.582436561584473,4.0078935623168945,0.31603461503982544
1748007514786376000,10.7223759765625,8.786720275878906,3.998316764831543,-0.019153613597154617
1748007514802184000,10.738183837890626,8.65743350982666,4.10366153717041,0.20350714027881622
1748007514818022700,10.754022705078125,6.9910688400268555,3.7229835987091064,0.1412578970193863
1748007514833830700,10.76983056640625,7.747636795043945,4.206612586975098,0.8140285611152649
1748007514849608200,10.785608154296876,8.300697326660156,3.971980571746826,0.8140285611152649
1748007514865447000,10.801447021484375,9.27034854888916,3.866635799407959,0.5003881454467773
1748007514881224400,10.817224365234376,9.543288230895996,3.8977603912353516,0.26815059781074524
1748007514897063200,10.833063232421875,8.973467826843262,4.017470359802246,0.2753331959247589
1748007514912840700,10.8488408203125,8.382100105285645,4.199429988861084,0.26575639843940735
1748007514928648700,10.864648681640626,8.128314971923828,4.201824188232422,0.3423708379268646
1748007514944457000,10.88045703125,8.176198959350586,4.199429988861084,0.6727706789970398
1748007514960204000,10.8962041015625,7.663839817047119,4.173093795776367,0.5578489899635315
1748007514976012000,10.912011962890626,7.931990146636963,4.163516521453857,1.1061211824417114
1748007514991820000,10.927820068359376,8.216899871826172,4.757278919219971,0.33039984107017517
1748007515007597800,10.943597900390625,8.44434928894043,5.552153587341309,-0.9193734526634216
1748007515023405800,10.95940576171875,8.583212852478027,6.172252178192139,-1.9057846069335938
1748007515039213800,10.9752138671875,8.89445972442627,6.469132900238037,-2.4420857429504395
1748007515054991600,10.99099169921875,9.241618156433105,6.2416839599609375,-2.276885747909546
1748007515070799600,11.006799560546876,9.334992408752441,5.609614372253418,-1.4532804489135742
1748007515086638300,11.022638427734375,9.069235801696777,4.90571928024292,-0.2106897532939911
1748007515102446300,11.0384462890625,8.899248123168945,4.3622355461120605,0.8307880163192749
1748007515118224000,11.054223876953126,8.71728801727295,4.0294413566589355,1.6184803247451782
1748007515134032100,11.0700322265625,8.973467826843262,3.7229835987091064,2.0685901641845703
1748007515149870600,11.08587060546875,9.069235801696777,3.60566782951355,2.051830768585205
1748007515165678800,11.101678955078125,9.157821655273438,3.5434184074401855,1.944091796875
1748007515181486800,11.11748681640625,9.023746490478516,3.6391866207122803,1.8626888990402222
1748007515197295000,11.133295166015625,9.050082206726074,3.6750996112823486,1.6400281190872192
1748007515213133600,11.149133544921876,8.777143478393555,3.804386615753174,1.3862427473068237
1748007515228941800,11.16494189453125,8.38688850402832,3.955221176147461,1.3886369466781616
1748007515244689000,11.18068896484375,8.635885238647461,3.9480385780334473,1.335964560508728
1748007515260527400,11.19652734375,9.136273384094238,3.9049429893493652,1.5203180313110352
1748007515276366000,11.212365966796876,9.437943458557129,4.046200752258301,1.556231141090393
1748007515300047600,11.236047607421876,9.80904483795166,4.244919776916504,1.6376339197158813
1748007515315794700,11.251794677734376,10.077195167541504,4.474762916564941,1.2713210582733154
1748007515339507000,11.2755068359375,9.677363395690918,4.733336925506592,0.8379706144332886
1748007515355315000,11.29131494140625,9.35893440246582,4.888959884643555,0.5578489899635315
1748007515371092500,11.307092529296876,9.50737476348877,4.982333660125732,0.047884032130241394
1748007515386870300,11.322870361328125,9.615114212036133,4.9583916664123535,-0.2322375625371933
1748007515402647800,11.338647705078126,9.26795482635498,4.869806289672852,-0.08379705995321274
1748007515418455800,11.354455810546876,9.035717010498047,4.819528102874756,-0.1388636976480484
1748007515434233600,11.370233642578125,8.925583839416504,4.709394931793213,-0.05746084079146385
1748007515450072000,11.386072021484376,8.769960403442383,4.570530891418457,0.22505496442317963
1748007515465849600,11.401849609375,8.650250434875488,4.417302131652832,0.40940847992897034
1748007515481657900,11.417657958984375,8.578424453735352,4.335899353027344,0.22744916379451752
1748007515497465900,11.4334658203125,8.480262756347656,4.302380561828613,0.15322890877723694
1748007515513274000,11.449274169921875,8.195352554321289,4.338293552398682,0.18914192914962769
1748007515529082000,11.46508203125,8.128314971923828,4.37420654296875,0.15562310814857483
1748007515544890000,11.48089013671875,8.259995460510254,4.371812343597412,0.2322375625371933
1748007515560668000,11.49666796875,7.881711959838867,4.431667327880859,0.3878606855869293
1748007515576506400,11.51250634765625,7.603984832763672,4.5154643058776855,0.5674257874488831
1748007515592314600,11.528314697265625,7.4770917892456055,4.616020679473877,0.5506663918495178
1748007515608061700,11.544061767578125,8.039729118347168,4.6471452713012695,0.3064578175544739
1748007515623869700,11.55986962890625,8.437167167663574,4.60165548324585,0.1628057211637497
1748007515639647200,11.575647216796876,8.492233276367188,4.570530891418457,0.3232172429561615
1748007515655455500,11.59145556640625,8.508993148803711,4.517858505249023,0.5746083855628967
1748007515671263500,11.607263427734376,8.678980827331543,4.532223701477051,0.6009446382522583
1748007515687041000,11.623041015625,8.576030731201172,4.570530891418457,0.49320554733276367
1748007515702879700,11.638879638671876,8.604761123657227,4.668693542480469,0.2585737705230713
1748007515718718500,11.654718505859375,8.71489429473877,4.8051629066467285,-0.07182604819536209
1748007515734496000,11.67049609375,9.117119789123535,4.93923807144165,-0.2801215946674347
1748007515750273500,11.6862734375,9.251194953918457,4.948814868927002,-0.07661445438861847
1748007515766112300,11.7021123046875,9.23443603515625,4.99669885635376,-0.009576806798577309
1748007515781920300,11.717920166015626,9.473855972290039,5.099649429321289,-0.2537853717803955
1748007515797697800,11.73369775390625,9.528923034667969,5.171475887298584,-0.42616790533065796
1748007515813506000,11.749506103515625,9.521739959716797,5.200206279754639,-0.31842881441116333
1748007515829283600,11.76528369140625,9.198522567749023,5.118803024291992,-0.06703764945268631
1748007515845091600,11.781091552734376,8.7268648147583,5.118803024291992,0.019153613597154617
1748007515860899800,11.79689990234375,8.710105895996094,4.944026470184326,0.181959331035614
1748007515876707800,11.812707763671876,8.93037223815918,4.776432514190674,0.17238251864910126
1748007515892515800,11.828515869140626,8.947132110595703,4.6950297355651855,0.10055647045373917
1748007515908324000,11.844323974609376,8.437167167663574,4.632780075073242,0.272938996553421
1748007515924132000,11.860132080078126,8.406042098999023,4.55616569519043,0.4596867263317108
1748007515939909600,11.87590966796875,8.796297073364258,4.49870491027832,0.5315127968788147
1748007515955656700,11.89165673828125,8.769960403442383,4.448426723480225,0.5961562395095825
1748007515971495400,11.907495361328126,8.614337921142578,4.4723687171936035,0.6272808313369751
1748007515987303400,11.923303466796876,8.588001251220703,4.436455726623535,0.6033388376235962
1748007516003142100,11.93914208984375,8.559270858764648,4.345476150512695,0.5937620401382446
1748007516026854400,11.9628544921875,8.243236541748047,4.292803764343262,0.569819986820221
1748007516042692900,11.97869287109375,8.303091049194336,4.3191399574279785,0.3926490843296051
1748007516058440000,11.99443994140625,8.236053466796875,4.213795185089111,0.33997663855552673
1748007516074217700,12.0102177734375,8.47547435760498,4.153939723968506,0.35673606395721436
1748007516090025700,12.026025634765626,8.803479194641113,4.108449935913086,0.26815059781074524
1748007516105803300,12.04180322265625,8.975862503051758,4.086902141571045,0.2944868206977844
1748007516121642000,12.05764208984375,9.057265281677246,4.050989151000977,0.40701428055763245
1748007516137480400,12.07348046875,9.093177795410156,4.110844135284424,0.3232172429561615
1748007516153258200,12.08925830078125,9.181763648986816,4.280832767486572,0.0071826050989329815
1748007516169066200,12.105066162109376,9.167398452758789,4.395754337310791,-0.20350714027881622
1748007516184902400,12.12090234375,9.038111686706543,4.5154643058776855,-0.35673606395721436
1748007516200741000,12.1367412109375,9.002198219299316,4.709394931793213,-0.6584054827690125
1748007516216549000,12.152549072265625,8.746018409729004,4.896142482757568,-0.8020575642585754
1748007516232326700,12.16832666015625,8.549694061279297,5.058948040008545,-0.8954314589500427
1748007516248165400,12.184165283203125,8.449137687683105,5.094861030578613,-0.7709329724311829
1748007516263973400,12.199973388671875,7.929595947265625,5.130774021148682,-0.5410895943641663
1748007516279751000,12.2157509765625,7.675810813903809,5.195417881011963,-0.2992752194404602
1748007516295498000,12.231498046875,7.886500358581543,4.941632270812988,0.19632454216480255
1748007516311336700,12.247336669921875,8.482656478881836,4.5154643058776855,0.8188169598579407
1748007516327144700,12.263144775390625,8.96149730682373,4.400542736053467,0.8930372595787048
1748007516342953000,12.278952880859375,9.160215377807617,4.460397720336914,0.6727706789970398
1748007516358730500,12.29473046875,9.17697525024414,4.6255974769592285,0.2585737705230713
1748007516382412000,12.318412109375,8.87051773071289,4.93923807144165,-0.019153613597154617
1748007516398250800,12.334250732421875,9.057265281677246,4.932055473327637,0.24660277366638184
1748007516414028300,12.3500283203125,9.361329078674316,4.7405195236206055,0.6727706789970398
1748007516429805800,12.365805908203125,9.66299819946289,4.613626480102539,0.9911994934082031
1748007516445614000,12.381614013671875,9.979032516479492,4.618414878845215,1.0462661981582642
1748007516461422000,12.397422119140625,9.998186111450195,4.630385875701904,1.158793568611145
1748007516477230300,12.413230224609375,9.694122314453125,4.788403511047363,1.2449848651885986
1748007516492977400,12.428977294921875,9.490615844726562,4.857835292816162,1.2066776752471924
1748007516508816000,12.44481591796875,9.730035781860352,5.023035049438477,1.1875240802764893
1748007516524654600,12.460654541015625,10.022128105163574,5.082890033721924,1.1683704853057861
1748007516540462600,12.476462646484375,10.017339706420898,5.279214859008789,1.2114660739898682
1748007516556301300,12.49230126953125,10.1753568649292,5.43723201751709,1.1851298809051514
1748007516572109300,12.508109375,10.225635528564453,5.705382823944092,0.6009446382522583
1748007516587887000,12.52388720703125,10.326191902160645,6.030993938446045,-0.07900865375995636
1748007516603695000,12.539695068359375,10.931924819946289,6.165069580078125,-0.8451532125473022
1748007516619472600,12.55547265625,12.713211059570312,5.78678560256958,-1.0558429956436157
1748007516635311400,12.571311279296875,14.769830703735352,5.011064052581787,-0.4644751250743866
1748007516651119400,12.587119384765625,15.140931129455566,4.54419469833374,0.1364694982767105
1748007516666927600,12.602927734375,13.84566879272461,4.747702121734619,0.021547814831137657
1748007516682766000,12.61876611328125,12.485761642456055,5.219359874725342,-0.545877993106842
1748007516698543600,12.634543701171875,12.94305419921875,5.035006046295166,-0.7972691655158997
1748007516714321400,12.6503212890625,13.735535621643066,4.3622355461120605,-0.4213795065879822
1748007516730129400,12.66612939453125,13.481749534606934,3.6750996112823486,0.5386953949928284
1748007516745968000,12.681968017578125,12.344504356384277,3.160346269607544,1.3958195447921753
1748007516761745700,12.69774560546875,10.958261489868164,2.9927520751953125,1.7693150043487549
1748007516777523200,12.713523193359375,9.591172218322754,3.043030261993408,1.5849615335464478
1748007516793331500,12.72933154296875,8.645462036132812,3.1483752727508545,1.3311761617660522
1748007516809139500,12.745139404296875,8.250418663024902,3.19865345954895,1.0414776802062988
1748007516824947500,12.760947509765625,8.544905662536621,2.937685489654541,0.7613561153411865
1748007516840755700,12.776755615234375,8.803479194641113,2.4396915435791016,0.9217676520347595
1748007516856594200,12.79259423828125,8.688557624816895,1.920149803161621,0.9888052940368652
1748007516872433000,12.808432861328125,8.070854187011719,1.3838485479354858,1.3623007535934448
1748007516888271600,12.824271728515624,7.599195957183838,1.05105459690094,1.4221558570861816
1748007516904079600,12.84007958984375,7.003039836883545,0.9193734526634216,1.292868971824646
1748007516919887600,12.8558876953125,6.167463779449463,0.6392518281936646,0.6799532771110535
1748007516935696000,12.87169580078125,5.949591159820557,0.7086837291717529,1.338358759880066
1748007516951504000,12.88750390625,5.669469833374023,0.2849099934101105,1.338358759880066
1748007516967312100,12.90331201171875,5.659893035888672,0.3902548849582672,1.5466543436050415
1748007516983089700,12.919089599609375,5.609614372253418,0.4572925269603729,1.764526605606079
1748007516998928400,12.934928466796874,5.681440830230713,0.7661445140838623,1.699883222579956
1748007517014736400,12.950736328125,5.9735331535339355,1.5634137392044067,1.338358759880066
1748007517030544400,12.96654443359375,6.347028732299805,2.073378562927246,0.12449848651885986
1748007517046322200,12.982322265625,6.414066314697266,2.7317841053009033,-0.6775590777397156
1748007517062099700,12.998099609375,6.528987884521484,3.531447410583496,0.31364041566848755
1748007517077907700,13.01390771484375,6.998251438140869,4.005499362945557,0.8810662031173706
1748007517093654800,13.02965478515625,7.398083209991455,4.4723687171936035,0.4644751250743866
1748007517109432300,13.045432373046875,7.800309181213379,5.286397457122803,-0.004788403399288654
1748007517125240600,13.061240478515625,8.1139497756958,5.521028995513916,-0.21787235140800476
1748007517141018000,13.07701806640625,8.188169479370117,5.331887245178223,0.5339069962501526
1748007517156795600,13.092795654296875,8.281543731689453,5.027823448181152,1.0821791887283325
1748007517172604000,13.10860400390625,8.645462036132812,4.76924991607666,1.4413094520568848
1748007517188412000,13.124411865234375,9.425971984863281,4.599261283874512,1.2186486721038818
1748007517204189400,13.140189453125,10.163386344909668,4.69024133682251,0.48602294921875
1748007517219967000,13.155967041015625,10.697293281555176,4.525041103363037,0.20350714027881622
1748007517235744800,13.171744873046874,11.022904396057129,4.778826713562012,0.1628057211637497
1748007517251522300,13.187522216796875,9.761159896850586,4.903325080871582,0.40462008118629456
1748007517267299800,13.2032998046875,8.329427719116211,4.7620673179626465,0.8595184087753296
1748007517283107800,13.21910791015625,7.101202011108398,5.073313236236572,0.7876923680305481
1748007517298977000,13.23497705078125,6.629544734954834,5.190629482269287,0.5746083855628967
1748007517314785300,13.250785400390624,6.777985095977783,4.886565685272217,0.6584054827690125
1748007517330562800,13.266562744140625,9.375694274902344,4.72376012802124,1.0295066833496094
1748007517346370800,13.282370849609375,7.661445617675781,4.649539470672607,0.7230489253997803
1748007517362179000,13.298178955078125,7.06528902053833,4.759673118591309,0.8331822156906128
1748007517377956600,13.31395654296875,7.527369976043701,4.752490520477295,0.8092401623725891
1748007517393764600,13.3297646484375,8.142680168151855,4.5154643058776855,0.7374141216278076
1748007517409572900,13.34557275390625,8.83699893951416,4.2975921630859375,0.9385270476341248
1748007517425380900,13.361380859375,9.411606788635254,3.9839515686035156,1.37906014919281
1748007517441219600,13.377219482421875,9.622296333312988,3.778050184249878,2.054224967956543
1748007517457027600,13.393027587890625,9.674968719482422,3.7636849880218506,2.0901381969451904
1748007517472835800,13.4088359375,10.47702693939209,3.708618402481079,1.2042834758758545
1748007517488643800,13.424643798828125,11.322179794311523,4.170699596405029,0.7733271718025208
1748007517504391000,13.440390869140625,10.807426452636719,4.185064792633057,0.5267243981361389
1748007517520199000,13.456198974609375,9.727641105651855,4.477157115936279,0.42856210470199585
1748007517536037600,13.47203759765625,8.695740699768066,4.833893299102783,0.8547300100326538
1748007517551876400,13.48787646484375,8.425195693969727,4.800374507904053,0.9840168952941895
1748007517567684400,13.503684326171875,8.89685344696045,4.869806289672852,0.7565677165985107
1748007517583492400,13.519492431640625,8.916007041931152,4.941632270812988,0.4692635238170624
1748007517599331000,13.5353310546875,8.525752067565918,5.006275653839111,-0.23942017555236816
1748007517615139300,13.551139404296874,7.888894557952881,4.946420669555664,0.20350714027881622
1748007517630947300,13.566947265625,7.371747016906738,5.102043628692627,0.5889736413955688
1748007517646786000,13.5827861328125,6.971915245056152,5.116408824920654,1.1252747774124146
1748007517662624500,13.59862451171875,6.775590896606445,5.2480902671813965,1.01753568649292
1748007517678432800,13.614432861328124,7.074865818023682,5.295974254608154,0.6847416758537292
1748007517694240800,13.63024072265625,7.841010570526123,5.307945251464844,0.40222588181495667
1748007517710048800,13.646048828125,8.516175270080566,5.152322292327881,0.4429273009300232
1748007517725826600,13.66182666015625,8.707711219787598,4.750096321105957,0.29209262132644653
1748007517741604000,13.67760400390625,8.863334655761719,5.1116204261779785,1.1803414821624756
1748007517757381600,13.693381591796875,8.827422142028809,5.458779811859131,1.0797849893569946
1748007517773159200,13.7091591796875,8.918401718139648,4.908113479614258,0.790086567401886
1748007517788967400,13.724967529296874,9.615114212036133,4.845864295959473,0.5339069962501526
1748007517804714500,13.740714599609374,10.309432983398438,4.886565685272217,0.6512228846549988
1748007517820553000,13.756552978515625,10.541669845581055,4.67827033996582,0.5913678407669067
1748007517836361200,13.772361328125,10.218452453613281,4.529829502105713,1.0821791887283325
1748007517852138800,13.788138671875,9.734824180603027,4.632780075073242,1.2665326595306396
1748007517867977200,13.803977294921875,9.545681953430176,4.702212333679199,1.2880805730819702
1748007517883785500,13.819785400390625,9.493009567260742,4.884171485900879,0.9074024558067322
1748007517899593500,13.835593505859375,9.287108421325684,4.991910457611084,0.4836287498474121
1748007517915401700,13.851401611328125,9.191340446472168,4.929661273956299,0.2298433631658554
1748007517931179300,13.86717919921875,9.174580574035645,5.216965675354004,0.035913024097681046
1748007517946987300,13.8829873046875,8.540117263793945,5.027823448181152,0.2346317619085312
1748007517962765000,13.89876513671875,7.99184513092041,4.836287498474121,0.35673606395721436
1748007517978573000,13.914572998046875,7.833827972412109,4.469974517822266,0.6512228846549988
1748007517994381000,13.930381103515625,7.860164165496826,4.189853191375732,0.849941611289978
1748007518010158800,13.946158935546874,8.300697326660156,3.866635799407959,0.9696516990661621
1748007518025966800,13.961966796875,8.710105895996094,3.687070608139038,0.9792284965515137
1748007518041774800,13.97777490234375,8.932766914367676,3.5482068061828613,1.1276689767837524
1748007518057522000,13.99352197265625,8.741230010986328,3.514688014984131,1.2258312702178955
1748007518073330200,14.009330078125,8.489839553833008,3.7038300037384033,1.0773907899856567
1748007518089168600,14.025168701171875,8.29830265045166,3.8594532012939453,0.9528923034667969
1748007518104977000,14.040976806640625,8.121131896972656,4.07014274597168,0.8978256583213806
1748007518120754400,14.05675439453125,8.001421928405762,4.278438568115234,0.912190854549408
1748007518136562400,14.0725625,7.90086555480957,4.489128112792969,1.0127472877502441
1748007518152370700,14.08837060546875,7.838616371154785,4.774038314819336,1.1803414821624756
1748007518168148200,14.104148193359375,7.560888767242432,5.04218864440918,1.094150185585022
1748007518183925800,14.11992578125,7.371747016906738,5.398924827575684,0.849941611289978
1748007518199672800,14.1356728515625,7.371747016906738,5.521028995513916,0.4668693244457245
1748007518215481000,14.151481201171874,8.255207061767578,5.556941986083984,-0.0454898327589035
1748007518231289000,14.1672890625,8.992621421813965,5.408501625061035,-0.4381389021873474
1748007518247066600,14.183066650390625,9.464279174804688,5.216965675354004,-0.3256114423274994
1748007518262905300,14.1989052734375,9.854534149169922,5.0014872550964355,0.05027823522686958
1748007518278713300,14.21471337890625,9.821015357971191,4.831499099731445,0.38546648621559143
1748007518294521600,14.230521484375,9.607931137084961,4.78122091293335,0.6943184733390808
1748007518310329600,14.24632958984375,9.390059471130371,4.680664539337158,0.9600749015808105
1748007518326137900,14.262137939453124,9.315838813781738,4.620809078216553,1.0606313943862915
1748007518341945900,14.27794580078125,9.445125579833984,4.51067590713501,1.01753568649292
1748007518357723400,14.293723388671875,9.552865028381348,4.417302131652832,0.9911994934082031
1748007518373531600,14.30953173828125,9.658209800720215,4.311957359313965,0.9528923034667969
1748007518389370000,14.3253701171875,9.667786598205566,4.307168960571289,0.950498104095459
1748007518405147600,14.341147705078125,9.607931137084961,4.304774761199951,0.7805097699165344
1748007518420956000,14.356955810546875,9.715670585632324,4.3191399574279785,0.6033388376235962
1748007518436764000,14.372763916015625,9.832986831665039,4.323928356170654,0.2801215946674347
1748007518452541400,14.38854150390625,9.727641105651855,4.338293552398682,0.1604115068912506
1748007518468380200,14.404380126953125,9.50498104095459,4.220977783203125,0.19153612852096558
1748007518484188200,14.420188232421875,9.318233489990234,4.213795185089111,0.16519992053508759
1748007518499966000,14.435966064453124,9.11233139038086,4.247313976287842,-0.08619125932455063
1748007518515774000,14.45177392578125,8.820239067077637,4.376600742340088,-0.3495534360408783
1748007518531582000,14.46758203125,8.422801971435547,4.455609321594238,-0.31364041566848755
1748007518547390200,14.48339013671875,8.20492935180664,4.517858505249023,-0.3471592366695404
1748007518563229000,14.49922900390625,8.01339340209961,4.6255974769592285,-0.4189853072166443
1748007518579006500,14.51500634765625,7.671022415161133,4.716577529907227,-0.4213795065879822
1748007518594753500,14.53075341796875,7.311892032623291,4.7836151123046875,-0.48602294921875
1748007518610592000,14.546592041015625,7.359776020050049,4.790797710418701,-0.3734954595565796
1748007518626369800,14.562369873046874,7.42681360244751,4.788403511047363,-0.21547815203666687
1748007518642147300,14.578147216796875,7.558494567871094,4.809951305389404,-0.090979665517807
1748007518657955300,14.593955322265625,7.654263019561768,4.867412090301514,-0.12449848651885986
1748007518673763600,14.609763671875,7.836222171783447,4.953603267669678,-0.17717093229293823
1748007518689571600,14.625571533203125,7.996633529663086,4.972756862640381,-0.181959331035614
1748007518705379600,14.641379638671875,8.26478385925293,5.097255229949951,-0.33758243918418884
1748007518721157400,14.657157470703124,8.573636054992676,5.147533416748047,-0.38546648621559143
1748007518736904400,14.672904541015624,8.786720275878906,5.195417881011963,-0.4908113479614258
1748007518752682000,14.688681884765625,8.702922821044922,5.284003257751465,-0.40462008118629456
1748007518768490000,14.704489990234375,8.494627952575684,5.365406036376953,-0.19871874153614044
1748007518784328700,14.72032861328125,8.458714485168457,5.3797712326049805,-0.07900865375995636
1748007518800106200,14.736106201171875,8.753201484680176,5.420472621917725,-0.14365209639072418
1748007518815914200,14.751914306640625,9.059659004211426,5.458779811859131,-0.21547815203666687
1748007518831722500,14.767722412109375,9.071630477905273,5.1595048904418945,-0.06224924325942993
1748007518847561000,14.78356103515625,9.473855972290039,5.535394191741943,-0.17717093229293823
1748007518863369200,14.799369140625,9.773131370544434,5.195417881011963,-0.13168109953403473
1748007518879238400,14.81523828125,9.928754806518555,5.190629482269287,-0.181959331035614
1748007518895076900,14.831076904296875,9.916783332824707,5.037400245666504,-0.15083470940589905
1748007518910854700,14.846854736328124,9.830592155456543,4.8051629066467285,-0.047884032130241394
1748007518926662700,14.86266259765625,9.720458984375,4.817133903503418,-0.043095629662275314
1748007518942470700,14.878470703125,9.378087997436523,4.697423934936523,-0.14365209639072418
1748007518958309400,14.894309326171875,9.131484985351562,4.584896087646484,0.05027823522686958
1748007518974056400,14.910056396484375,8.959102630615234,4.572925090789795,0.22505496442317963
1748007518989864400,14.925864501953125,8.865729331970215,4.4939165115356445,0.33758243918418884
1748007519005611500,14.941611572265625,8.949525833129883,4.4723687171936035,0.35913026332855225
1748007519021419800,14.957419677734375,9.114726066589355,4.469974517822266,0.4213795065879822
1748007519037258200,14.97325830078125,8.762778282165527,4.522646903991699,0.4908113479614258
1748007519053066500,14.98906640625,8.446743965148926,4.697423934936523,0.5386953949928284
1748007519068844000,15.004843994140625,8.40843677520752,4.838681697845459,0.3016694188117981
1748007519084652000,15.020652099609375,8.580819129943848,4.98472785949707,0.19871874153614044
1748007519100490800,15.03649072265625,8.932766914367676,5.04218864440918,0.38307225704193115
1748007519116298800,15.052298828125,9.457097053527832,4.9583916664123535,0.8978256583213806
1748007519132107000,15.06810693359375,9.761159896850586,4.8937482833862305,1.2665326595306396
1748007519147915000,15.0839150390625,9.959878921508789,4.9799394607543945,1.3527239561080933
1748007519163723300,15.09972314453125,9.99339771270752,5.1810526847839355,1.1061211824417114
1748007519179500800,15.115500732421875,9.99339771270752,5.389348030090332,0.8547300100326538
1748007519195308800,15.131308837890625,10.596736907958984,5.542576789855957,0.4572925269603729
1748007519211117000,15.147116943359375,11.192893028259277,5.5329999923706055,0.16759411990642548
1748007519226955500,15.16295556640625,11.930307388305664,5.4444146156311035,0.22744916379451752
1748007519242763800,15.178763671875,12.22000503540039,5.2049946784973145,0.24660277366638184
1748007519258571800,15.19457177734375,11.906365394592285,5.070919036865234,0.08858546614646912
1748007519274380000,15.210380126953124,10.960655212402344,5.365406036376953,-1.3048399686813354
1748007519290218500,15.226218505859375,10.417171478271484,5.717353820800781,-2.9759926795959473
1748007519305996000,15.24199609375,10.053253173828125,5.556941986083984,-4.165910720825195
1748007519321834800,15.257834716796875,10.079588890075684,5.20978307723999,-4.776432514190674
1748007519337642800,15.273642822265625,11.556811332702637,4.256890773773193,-4.290409564971924
1748007519353420500,15.289420654296874,12.284648895263672,3.529053211212158,-3.28963303565979
1748007519369259000,15.305259033203125,11.338939666748047,3.1220390796661377,-2.892195701599121
1748007519385067300,15.3210673828125,10.8720703125,3.246537446975708,-3.466804027557373
1748007519400875300,15.336875244140625,10.524910926818848,3.2609026432037354,-4.218583583831787
1748007519416714000,15.3527138671875,10.606313705444336,3.114856481552124,-4.02465295791626
1748007519432491500,15.368491455078125,9.751583099365234,2.5282769203186035,-3.292027235031128
1748007519448330200,15.384330322265624,8.616731643676758,2.31758713722229,-2.5761611461639404
1748007519464138200,15.40013818359375,7.620744228363037,1.9847931861877441,-1.8315643072128296
1748007519479915800,15.415915771484375,7.189787864685059,1.7908629179000854,-1.359906554222107
1748007519495754500,15.43175439453125,7.067683219909668,1.656787633895874,-1.0534487962722778
1748007519511562500,15.4475625,6.823474884033203,1.5753847360610962,-0.727837324142456
1748007519527401200,15.463401123046875,6.574477672576904,1.5729905366897583,-0.4668693244457245
1748007519543209200,15.479209228515625,6.710947513580322,1.6304513216018677,-0.07661445438861847
1748007519558986800,15.49498681640625,6.404489517211914,1.723825216293335,0.07182604819536209
1748007519574764500,15.5107646484375,5.738901615142822,1.9704279899597168,-0.009576806798577309
1748007519590603000,15.52660302734375,5.674258232116699,2.3511061668395996,-0.17477671802043915
1748007519606411300,15.542411376953124,6.023811340332031,2.765302896499634,-0.40701428055763245
1748007519622249700,15.558249755859375,5.810727596282959,3.1866824626922607,-0.3016694188117981
1748007519638058000,15.57405810546875,5.676652431488037,3.5194764137268066,0.15801730751991272
1748007519653835500,15.58983544921875,5.7125654220581055,3.8594532012939453,0.6799532771110535
1748007519669643500,15.6056435546875,5.698200225830078,4.20421838760376,0.912190854549408
1748007519685451800,15.62145166015625,6.172252178192139,4.546588897705078,0.45010992884635925
1748007519701229300,15.637229248046875,6.567295074462891,4.742913722991943,-0.272938996553421
1748007519717068000,15.653068115234374,7.050923824310303,4.771644115447998,-0.6105214357376099
1748007519732876000,15.6688759765625,7.857769966125488,4.659116744995117,-0.40462008118629456
1748007519748684000,15.68468408203125,9.193734169006348,4.639962673187256,-0.44532153010368347
1748007519764522800,15.700522705078125,11.097125053405762,4.7405195236206055,-0.8690952062606812
1748007519780300300,15.71630029296875,12.251130104064941,4.967968463897705,-1.9632453918457031
1748007519796047400,15.73204736328125,12.009315490722656,5.207388877868652,-2.889801502227783
1748007519811825000,15.747824951171875,10.374075889587402,5.190629482269287,-2.580949544906616
1748007519827663600,15.76366357421875,8.453926086425781,4.917690277099609,-1.280897855758667
1748007519843471600,15.7794716796875,7.038952827453613,4.649539470672607,-0.18914192914962769
1748007519859280000,15.79527978515625,6.835445880889893,4.460397720336914,0.2585737705230713
1748007519875088000,15.811087890625,7.376535415649414,4.443638324737549,0.004788403399288654
1748007519890926600,15.826926513671875,7.733271598815918,4.49870491027832,-0.2968810200691223
1748007519906704100,15.8427041015625,8.092401504516602,4.4723687171936035,-0.3423708379268646
1748007519922512100,15.85851220703125,8.370129585266113,4.448426723480225,-0.2059013396501541
1748007519938320400,15.8743203125,8.537723541259766,4.400542736053467,-0.0694318488240242
1748007519954128400,15.89012841796875,8.796297073364258,4.37420654296875,0.1173158809542656
1748007519969906200,15.90590625,8.999804496765137,4.455609321594238,-0.17477671802043915
1748007519985744600,15.92174462890625,9.334992408752441,4.639962673187256,-0.7972691655158997
1748007520001522200,15.937522216796875,9.5624418258667,4.754884719848633,-1.0247182846069336
1748007520017300000,15.953300048828124,9.720458984375,4.824316501617432,-0.9959878921508789
1748007520033108000,15.96910791015625,9.581595420837402,4.8051629066467285,-0.7398083209991455
1748007520048885500,15.984885498046875,9.615114212036133,4.884171485900879,-0.8068459630012512
1748007520064693800,16.00069384765625,9.715670585632324,5.013458251953125,-1.0342950820922852
1748007520080471300,16.01647119140625,9.708487510681152,5.085284233093262,-1.278503656387329
1748007520096309800,16.032309814453125,9.708487510681152,5.109226226806641,-1.5394717454910278
1748007520112118000,16.048117919921875,9.232041358947754,5.080495834350586,-1.4748282432556152
1748007520127956500,16.06395654296875,8.7268648147583,4.855441093444824,-1.2952631711959839
1748007520143734300,16.079734375,8.537723541259766,4.651933670043945,-1.280897855758667
1748007520159542300,16.095542236328125,8.789113998413086,4.443638324737549,-1.278503656387329
1748007520175319800,16.11131982421875,9.11233139038086,4.163516521453857,-1.256955862045288
1748007520191158500,16.127158447265625,9.229647636413574,3.8810009956359863,-1.139639973640442
1748007520206936000,16.14293603515625,9.141061782836914,3.6727054119110107,-0.9576807022094727
1748007520222774800,16.15877490234375,8.927978515625,3.5386300086975098,-0.8403648138046265
1748007520238582800,16.174582763671875,8.619126319885254,3.445256233215332,-0.7326257228851318
1748007520254390800,16.190390869140625,8.607154846191406,3.490746021270752,-0.8044517636299133
1748007520270229500,16.2062294921875,8.652645111083984,3.7205893993377686,-0.8930372595787048
1748007520286037800,16.222037841796876,8.89445972442627,3.9169139862060547,-0.8212111592292786
1748007520301845800,16.237845703125,8.954314231872559,4.223371982574463,-0.8259995579719543
1748007520317653800,16.25365380859375,8.887276649475098,4.55616569519043,-0.8738836050033569
1748007520333492500,16.269492431640625,8.683769226074219,4.920084476470947,-1.139639973640442
1748007520349270000,16.28527001953125,8.621520042419434,5.147533416748047,-1.2856862545013428
1748007520365078300,16.301078369140626,8.645462036132812,5.2672438621521,-1.4293384552001953
1748007520380855800,16.316855712890625,8.822632789611816,5.34625244140625,-1.6687586307525635
1748007520396663800,16.332663818359375,8.820239067077637,5.324704647064209,-1.8363527059555054
1748007520412472000,16.34847216796875,8.755595207214355,5.157110691070557,-1.558625340461731
1748007520428310500,16.364310546875,8.576030731201172,4.960785865783691,-0.9528923034667969
1748007520444088000,16.380088134765625,8.501810073852539,4.8602294921875,-0.727837324142456
1748007520459865900,16.395865966796876,8.671798706054688,4.8482584953308105,-0.6488286852836609
1748007520475643400,16.411643310546875,8.707711219787598,4.809951305389404,-0.6512228846549988
1748007520491421000,16.4274208984375,8.860940933227539,4.728548526763916,-0.5770025849342346
1748007520507229000,16.44322900390625,8.947132110595703,4.683058738708496,-0.5410895943641663
1748007520523006700,16.4590068359375,8.71489429473877,4.654327869415283,-0.4357447028160095
1748007520538784300,16.4747841796875,8.554482460021973,4.6471452713012695,-0.4429273009300232
1748007520554592300,16.49059228515625,8.678980827331543,4.587290287017822,-0.5674257874488831
1748007520570431000,16.506430908203125,8.80587387084961,4.4939165115356445,-0.7110779285430908
1748007520586208500,16.52220849609375,8.927978515625,4.484339714050293,-0.7613561153411865
1748007520602016800,16.538016845703126,8.81784439086914,4.350264549255371,-0.6033388376235962
1748007520617794300,16.553794189453125,8.645462036132812,4.395754337310791,-0.5434837937355042
1748007520633602300,16.569602294921875,8.638279914855957,4.443638324737549,-0.5937620401382446
1748007520649379800,16.5853798828125,8.561665534973145,4.5394062995910645,-0.6799532771110535
1748007520665218600,16.601218505859375,8.480262756347656,4.697423934936523,-0.8762778043746948
1748007520680996000,16.61699609375,8.283937454223633,4.845864295959473,-1.0271124839782715
1748007520696773600,16.632773681640625,8.391676902770996,4.93923807144165,-1.1180921792984009
1748007520712612400,16.6486123046875,8.449137687683105,5.013458251953125,-1.0319008827209473
1748007520728420400,16.66442041015625,8.348581314086914,5.116408824920654,-1.0462661981582642
1748007520744228600,16.680228515625,8.26478385925293,5.303156852722168,-1.173158884048462
1748007520760036600,16.69603662109375,8.283937454223633,5.4013190269470215,-1.3431471586227417
1748007520775814100,16.711814208984375,8.480262756347656,5.384559631347656,-1.5083470344543457
1748007520791622400,16.727622314453125,8.786720275878906,5.3582234382629395,-1.3886369466781616
1748007520807400000,16.74339990234375,8.911218643188477,5.2911858558654785,-1.0414776802062988
1748007520823208000,16.7592080078125,8.71489429473877,5.2672438621521,-0.8403648138046265
1748007520839016200,16.77501611328125,8.585607528686523,5.1331682205200195,-0.8236053586006165
1748007520854793700,16.790793701171875,8.525752067565918,4.965574264526367,-0.7565677165985107
1748007520870571300,16.8065712890625,8.647856712341309,4.656722068786621,-0.5722141861915588
1748007520886379500,16.822379638671876,8.779537200927734,4.388571739196777,-0.38546648621559143
1748007520902187500,16.8381875,8.937555313110352,4.189853191375732,-0.48602294921875
1748007520917995500,16.85399560546875,8.860940933227539,4.106055736541748,-0.43335050344467163
1748007520933773300,16.869773193359375,8.96389102935791,4.036623954772949,-0.42856210470199585
1748007520949611800,16.88561181640625,9.246406555175781,3.993528366088867,-0.3423708379268646
1748007520965358800,16.90135888671875,9.181763648986816,3.9600095748901367,-0.07900865375995636
1748007520981167000,16.9171669921875,9.102754592895508,3.9432501792907715,0.2106897532939911
1748007520996975000,16.93297509765625,8.89685344696045,4.022258758544922,0.0694318488240242
1748007521012752600,16.948752685546875,8.508993148803711,4.206612586975098,-0.3495534360408783
1748007521028561000,16.964560791015625,8.202534675598145,4.371812343597412,-0.730231523513794
1748007521044338400,16.98033837890625,8.020575523376465,4.546588897705078,-0.9696516990661621
1748007521060177200,16.99617724609375,8.010998725891113,4.656722068786621,-1.05105459690094
1748007521075985200,17.011985107421875,8.02536392211914,4.608838081359863,-0.8858546018600464
1748007521091762700,17.0277626953125,8.429984092712402,4.55616569519043,-0.8403648138046265
1748007521107571000,17.043571044921876,8.789113998413086,4.575319290161133,-0.9983820915222168
1748007521123379000,17.05937890625,9.44752025604248,4.546588897705078,-1.237802267074585
1748007521139187000,17.07518701171875,9.634267807006836,4.496310710906982,-1.216254472732544
1748007521154995200,17.0909951171875,9.437943458557129,4.4532151222229,-0.9696516990661621
1748007521170864400,17.106864501953126,9.016563415527344,4.438849925994873,-0.768538773059845
1748007521186672400,17.12267236328125,8.731653213500977,4.4939165115356445,-0.9217676520347595
1748007521202450000,17.138449951171875,8.552088737487793,4.5825018882751465,-1.015141487121582
1748007521218258200,17.154258056640625,8.743624687194824,4.60165548324585,-1.115697979927063
1748007521234066200,17.170066162109375,9.01895809173584,4.491522312164307,-1.1468225717544556
1748007521249843700,17.18584375,9.100360870361328,4.479551315307617,-1.0534487962722778
1748007521265621500,17.20162158203125,8.841787338256836,4.529829502105713,-0.8643068075180054
1748007521281460000,17.2174599609375,8.702922821044922,4.55616569519043,-0.7350199222564697
1748007521297237500,17.233237548828125,8.78193187713623,4.620809078216553,-0.8643068075180054
1748007521313045800,17.249045654296875,9.064447402954102,4.704606533050537,-1.0534487962722778
1748007521328823300,17.2648232421875,9.08838939666748,4.656722068786621,-0.9792284965515137
1748007521344631300,17.28063134765625,8.932766914367676,4.692635536193848,-0.8547300100326538
1748007521360439600,17.296439453125,8.877699851989746,4.776432514190674,-0.8858546018600464
1748007521376217000,17.312217041015625,8.980650901794434,4.793191909790039,-1.0989385843276978
1748007521392025000,17.328025146484375,9.071630477905273,4.829104900360107,-1.1037269830703735
1748007521407863800,17.34386376953125,9.141061782836914,4.797980308532715,-1.039083480834961
1748007521423641300,17.359641357421875,9.210494041442871,4.76924991607666,-1.0989385843276978
1748007521439419000,17.3754189453125,9.160215377807617,4.802768707275391,-1.1468225717544556
1748007521455196700,17.39119677734375,8.966285705566406,4.8602294921875,-1.216254472732544
1748007521471004700,17.407004638671875,8.992621421813965,4.855441093444824,-1.2545616626739502
1748007521486782200,17.4227822265625,9.033323287963867,4.817133903503418,-1.1971008777618408
1748007521502590500,17.438590576171876,9.119514465332031,4.697423934936523,-0.9911994934082031
1748007521518368000,17.454367919921875,9.07641887664795,4.639962673187256,-0.7541735172271729
1748007521534115000,17.470114990234375,9.028534889221191,4.613626480102539,-0.7876923680305481
1748007521549892600,17.485892578125,8.944737434387207,4.654327869415283,-0.8643068075180054
1748007521565670100,17.501670166015625,8.822632789611816,4.613626480102539,-0.7876923680305481
1748007521581508900,17.5175087890625,8.719682693481445,4.587290287017822,-0.7445967197418213
1748007521597286400,17.533286376953125,8.83699893951416,4.599261283874512,-0.8331822156906128
1748007521613064000,17.54906396484375,8.990227699279785,4.568136692047119,-0.8834604024887085
1748007521628872200,17.5648720703125,9.074024200439453,4.568136692047119,-0.7134721279144287
1748007521644710700,17.580710693359375,8.863334655761719,4.46518611907959,-0.43335050344467163
1748007521660549400,17.59654931640625,8.786720275878906,4.4723687171936035,-0.363918662071228
1748007521676296400,17.61229638671875,8.75080680847168,4.525041103363037,-0.4668693244457245
1748007521692074000,17.628073974609375,8.542511940002441,4.548983097076416,-0.43095630407333374
1748007521707882200,17.64388232421875,8.401253700256348,4.572925090789795,-0.38307225704193115
1748007521723751200,17.659751220703125,8.44195556640625,4.5825018882751465,-0.272938996553421
1748007521739559400,17.675559326171875,8.523358345031738,4.616020679473877,-0.05267243832349777
1748007521755398000,17.69139794921875,8.549694061279297,4.616020679473877,0.2059013396501541
1748007521771145000,17.70714501953125,8.44434928894043,4.656722068786621,0.43335050344467163
1748007521786953200,17.722953125,8.741230010986328,4.692635536193848,0.5003881454467773
1748007521802791700,17.738791748046875,8.968679428100586,4.73573112487793,0.524330198764801
1748007521818569500,17.754569580078126,8.853757858276367,4.838681697845459,0.6368576288223267
1748007521834377500,17.77037744140625,8.760383605957031,5.013458251953125,0.5746083855628967
1748007521850155000,17.786155029296875,8.834604263305664,5.22175407409668,0.35913026332855225
1748007521865932500,17.8019326171875,9.141061782836914,5.367800235748291,0.2561795711517334
1748007521881771300,17.817771240234375,9.41639518737793,5.506663799285889,0.3016694188117981
1748007521897610000,17.83360986328125,9.785101890563965,5.837063789367676,0.26815059781074524
1748007521913387500,17.849387451171875,10.283096313476562,6.098031520843506,0.20350714027881622
1748007521929195500,17.865195556640625,10.87446403503418,6.229712963104248,0.47884035110473633
1748007521945003800,17.881003662109375,11.355698585510254,6.418854713439941,0.7613561153411865
1748007521960781300,17.89678125,11.674127578735352,6.564900875091553,0.8259995579719543
1748007521976620000,17.9126201171875,11.899182319641113,6.782773494720459,0.4836287498474121
1748007521992397600,17.9283974609375,12.155362129211426,6.9024834632873535,-0.06464344263076782
1748007522008205600,17.94420556640625,12.600683212280273,6.821080684661865,-0.6751648783683777
1748007522024044300,17.960044189453125,13.002909660339355,6.411672115325928,-0.9696516990661621
1748007522039821800,17.97582177734375,12.78503704071045,5.8203043937683105,-1.0295066833496094
1748007522055660500,17.99166064453125,12.710816383361816,5.293580055236816,-1.2042834758758545
1748007522071468500,18.007468505859375,12.277466773986816,4.721365928649902,-0.8810662031173706
1748007522087246000,18.02324609375,11.252747535705566,4.1611223220825195,-0.15562310814857483
1748007522103054300,18.039054443359376,9.952696800231934,3.7660791873931885,0.47644615173339844
1748007522118831900,18.054831787109375,8.59997272491455,3.6990416049957275,0.8020575642585754
1748007522134639900,18.070639892578125,7.450755596160889,3.734954595565796,0.9145850539207458
1748007522150448000,18.0864482421875,7.000645637512207,3.7229835987091064,1.0271124839782715
1748007522166256000,18.102256103515625,7.33583402633667,3.4979286193847656,0.7398083209991455
1748007522182033700,18.11803369140625,7.750030994415283,3.380612850189209,0.6033388376235962
1748007522197811200,18.133811279296875,7.515398979187012,3.5673606395721436,0.9983820915222168
1748007522213650000,18.14964990234375,6.854599475860596,3.706224203109741,1.4077905416488647
1748007522229458200,18.165458251953126,6.447585105895996,3.93367338180542,1.5107412338256836
1748007522245235700,18.181235595703125,6.378153324127197,4.046200752258301,1.3287819623947144
1748007522261043700,18.197043701171875,6.818686485290527,3.9911341667175293,1.0127472877502441
1748007522276913000,18.212912841796875,7.4770917892456055,3.8379054069519043,0.8619126081466675
1748007522292690400,18.2286904296875,7.955932140350342,3.627215623855591,0.9313444495201111
1748007522308498700,18.244498779296876,8.099584579467773,3.421314239501953,1.2282254695892334
1748007522324306700,18.260306640625,7.931990146636963,3.28963303565979,1.3096283674240112
1748007522340145400,18.2761455078125,7.448361396789551,3.251325845718384,1.3886369466781616
1748007522355953400,18.291953369140625,7.029376029968262,3.270479440689087,1.434126853942871
1748007522371761400,18.307761474609375,6.586448669433594,3.3303346633911133,1.3934253454208374
1748007522387569700,18.323569580078125,6.641515731811523,3.536235809326172,1.072602391242981
1748007522403347200,18.33934716796875,6.48828649520874,3.7229835987091064,0.9409212470054626
1748007522419155200,18.3551552734375,6.291962146759033,3.84269380569458,0.9576807022094727
1748007522435024400,18.3710244140625,6.098031520843506,3.9887399673461914,1.0582371950149536
1748007522450802000,18.386802001953125,6.088454723358154,4.1395745277404785,1.1563993692398071
1748007522474514200,18.41051416015625,5.999869346618652,4.182670593261719,1.4293384552001953
1748007522490261200,18.42626123046875,6.538564682006836,4.07014274597168,1.6519991159439087
1748007522506100000,18.442099853515625,7.589619159698486,3.993528366088867,1.7525556087493896
1748007522521877500,18.45787744140625,8.29590892791748,3.892971992492676,2.0829553604125977
1748007522537655000,18.473655029296875,8.78432559967041,3.758896589279175,2.1068975925445557
1748007522553493800,18.48949365234375,9.469067573547363,3.708618402481079,1.7932571172714233
1748007522569271300,18.505271240234375,9.964667320251465,3.711012601852417,1.6376339197158813
1748007522585048800,18.521048828125,10.201693534851074,3.758896589279175,1.7046716213226318
1748007522600857000,18.536857177734376,10.347740173339844,3.7421371936798096,1.7836803197860718
1748007522616634600,18.552634521484375,10.524910926818848,3.825934410095215,1.8076223134994507
1748007522632473000,18.56847314453125,10.524910926818848,3.9863457679748535,1.6352397203445435
1748007522648281300,18.58428125,10.237606048583984,4.173093795776367,1.316810965538025
1748007522664089300,18.60008935546875,9.916783332824707,4.2760443687438965,1.1109095811843872
1748007522679836400,18.61583642578125,9.53849983215332,4.338293552398682,1.113303780555725
1748007522695644700,18.631644775390626,9.093177795410156,4.343081951141357,1.1228805780410767
1748007522711483100,18.647483154296875,8.518569946289062,4.414907932281494,0.9217676520347595
1748007522727291400,18.66329150390625,7.924807548522949,4.455609321594238,0.8882488012313843
1748007522743069000,18.67906884765625,7.544129371643066,4.553771495819092,0.8547300100326538
1748007522758877000,18.694876953125,7.493851184844971,4.565742492675781,0.7661445140838623
1748007522774654500,18.710654541015625,7.570465564727783,4.611232280731201,0.8020575642585754
1748007522790523600,18.726523681640625,7.4770917892456055,4.649539470672607,0.8619126081466675
1748007522806332000,18.742331787109375,7.496245384216309,4.759673118591309,0.8571242094039917
1748007522822140000,18.758139892578125,7.860164165496826,4.869806289672852,0.6943184733390808
1748007522837917400,18.77391748046875,8.157045364379883,5.097255229949951,0.5027823448181152
1748007522853695200,18.7896953125,8.20732307434082,5.2911858558654785,0.28730419278144836
1748007522869472800,18.80547265625,8.377311706542969,5.504269599914551,0.1173158809542656
1748007522885280800,18.82128076171875,8.47786808013916,5.5545477867126465,0.19393034279346466
1748007522901058300,18.837058349609375,8.446743965148926,5.535394191741943,0.4141969084739685
1748007522916866600,18.852866455078125,8.695740699768066,5.518634796142578,0.3758896589279175
1748007522932644000,18.86864404296875,9.131484985351562,5.544970989227295,0.35913026332855225
1748007522948421600,18.884421630859375,9.344569206237793,5.439626216888428,0.524330198764801
1748007522964199200,18.90019921875,9.346963882446289,5.355829238891602,0.8930372595787048
1748007522980007400,18.91600732421875,9.20091724395752,5.238513469696045,1.1875240802764893
1748007522995815400,18.9318154296875,9.023746490478516,5.250484466552734,1.2689268589019775
1748007523011593000,18.947593017578125,8.949525833129883,5.231330871582031,1.3958195447921753
1748007523027401200,18.963401123046875,8.707711219787598,5.171475887298584,1.4628572463989258
1748007523043209200,18.979209228515625,8.674192428588867,5.135562419891357,1.3623007535934448
1748007523059017500,18.995017578125,8.829815864562988,5.099649429321289,1.1228805780410767
1748007523074856000,19.01085595703125,9.133879661560059,5.035006046295166,0.849941611289978
1748007523090664200,19.026664306640626,9.01895809173584,4.903325080871582,0.9720458984375
1748007523106441700,19.042441650390625,8.65982723236084,4.888959884643555,1.0103530883789062
1748007523122249700,19.058249755859375,8.346187591552734,4.967968463897705,0.828393816947937
1748007523138088400,19.07408837890625,8.528146743774414,5.066130638122559,0.37828385829925537
1748007523153866000,19.089865966796875,8.650250434875488,5.154716491699219,0.21547815203666687
1748007523169674200,19.10567431640625,8.678980827331543,5.094861030578613,0.28730419278144836
1748007523185451800,19.12145166015625,8.53293514251709,5.20978307723999,0.5650315880775452
1748007523201259800,19.137259765625,7.979874134063721,5.322310447692871,0.9145850539207458
1748007523217068000,19.153068115234376,7.539340972900391,5.451597213745117,0.9911994934082031
1748007523232906500,19.168906494140625,7.362170219421387,5.4659624099731445,0.8643068075180054
1748007523248684000,19.18468408203125,7.630321025848389,5.377377033233643,0.751779317855835
1748007523264492300,19.2004921875,8.329427719116211,5.07570743560791,0.7876923680305481
1748007523280300300,19.21630029296875,8.89685344696045,4.790797710418701,0.9241618514060974
1748007523296047400,19.23204736328125,9.081207275390625,4.5825018882751465,1.2641384601593018
1748007523311825000,19.247824951171875,9.121908187866211,4.400542736053467,1.4772224426269531
1748007523327602700,19.263602783203126,8.935160636901855,4.364629745483398,1.6352397203445435
1748007523343380200,19.279380126953125,8.676587104797363,4.335899353027344,1.6950948238372803
1748007523359188200,19.295188232421875,8.628703117370605,4.359841346740723,1.721431016921997
1748007523374965800,19.3109658203125,8.422801971435547,4.390965938568115,1.7597382068634033
1748007523390743600,19.32674365234375,8.212111473083496,4.496310710906982,1.9512743949890137
1748007523406551600,19.342551513671875,8.142680168151855,4.501099109649658,1.9823989868164062
1748007523422359600,19.358359619140625,8.300697326660156,4.644751071929932,1.9105730056762695
1748007523438137300,19.374137451171876,8.44195556640625,4.8051629066467285,1.944091796875
1748007523453975800,19.389975830078125,8.226476669311523,4.994304656982422,2.250549554824829
1748007523469753300,19.40575341796875,7.747636795043945,5.245696067810059,2.410961151123047
1748007523485592000,19.421592041015625,7.817068576812744,5.492298603057861,2.1978771686553955
1748007523501369600,19.43736962890625,8.346187591552734,5.549759387969971,2.051830768585205
1748007523517177900,19.453177734375,9.01895809173584,5.714959621429443,1.7525556087493896
1748007523532955400,19.468955322265625,9.363722801208496,5.861005783081055,1.3623007535934448
1748007523548733000,19.48473291015625,9.581595420837402,5.980715751647949,0.933738648891449
1748007523564541200,19.500541259765626,9.825803756713867,6.045359134674072,0.646434485912323
1748007523580349200,19.51634912109375,9.495404243469238,5.918466567993164,0.3998316824436188
1748007523596188000,19.53218798828125,9.258378028869629,5.987898349761963,-0.1388636976480484
1748007523611996000,19.547995849609375,9.01895809173584,6.076483726501465,-0.7015010714530945
1748007523627804000,19.563803955078125,8.880094528198242,5.96874475479126,-1.0127472877502441
1748007523643581700,19.579581787109376,8.7484130859375,5.793968200683594,-0.9289502501487732
1748007523659359200,19.595359130859375,8.547300338745117,5.5114521980285645,-0.608127236366272
1748007523675167200,19.611167236328125,8.458714485168457,5.2696380615234375,-0.2106897532939911
1748007523690975500,19.6269755859375,8.307879447937012,5.080495834350586,0.21787235140800476
1748007523706783500,19.642783447265625,7.814674377441406,4.960785865783691,0.6344634294509888
1748007523722622200,19.658622314453126,7.287950038909912,4.994304656982422,0.8882488012313843
1748007523738430200,19.67443017578125,6.775590896606445,5.185841083526611,0.9361328482627869
1748007523754238200,19.69023828125,6.567295074462891,5.360617637634277,0.9002198576927185
1748007523770046500,19.70604638671875,6.610390663146973,5.5114521980285645,0.7829039692878723
1748007523785793500,19.72179345703125,6.88332986831665,5.499481201171875,0.9217676520347595
1748007523801571000,19.737571044921875,7.292738437652588,5.477933406829834,1.0582371950149536
1748007523817348600,19.7533486328125,7.5848307609558105,5.485116004943848,1.0462661981582642
1748007523833156900,19.769156982421876,7.778761386871338,5.5545477867126465,0.9528923034667969
1748007523848964900,19.78496484375,7.757213592529297,5.784391403198242,0.6320692300796509
1748007523864773000,19.800773193359376,7.826645374298096,5.834669589996338,0.3926490843296051
1748007523880581000,19.8165810546875,8.008605003356934,5.829881191253662,0.33039984107017517
1748007523896358700,19.832358642578125,8.346187591552734,5.705382823944092,0.45250412821769714
1748007523912167000,19.8481669921875,8.604761123657227,5.552153587341309,0.6607996821403503
1748007523927944400,19.8639443359375,8.813055992126465,5.415684223175049,0.9672574996948242
1748007523943691500,19.87969140625,8.939949035644531,5.202600479125977,1.41257905960083
1748007523959469000,19.895468994140625,8.87051773071289,5.032611846923828,1.7525556087493896
1748007523975338200,19.911338134765625,8.798690795898438,4.963180065155029,1.9249382019042969
1748007523991146200,19.927146240234375,8.738836288452148,4.7836151123046875,2.0829553604125977
1748007524006893300,19.942893310546875,9.131484985351562,4.644751071929932,2.0925323963165283
1748007524022670800,19.9586708984375,9.428366661071777,4.489128112792969,2.145204782485962
1748007524038479000,19.97447900390625,9.643844604492188,4.357447147369385,2.032677173614502
1748007524054256600,19.990256591796875,9.78989028930664,4.398148536682129,1.6639702320098877
1748007524070095400,20.006095458984376,9.526528358459473,4.431667327880859,1.3886369466781616
1748007524085873000,20.021872802734375,8.959102630615234,4.517858505249023,1.280897855758667
1748007524101711400,20.03771142578125,8.585607528686523,4.63517427444458,0.9720458984375
1748007524117519600,20.05351953125,8.324639320373535,4.793191909790039,0.5889736413955688
1748007524133358000,20.069358154296875,8.058882713317871,4.900930881500244,0.3280056416988373
1748007524149166300,20.085166259765625,7.85537576675415,4.99669885635376,0.22744916379451752
1748007524165004800,20.1010048828125,8.032546997070312,4.857835292816162,0.1412578970193863
1748007524180782600,20.116782470703125,8.125920295715332,4.8722004890441895,0.090979665517807
1748007524196590600,20.132590576171875,8.343792915344238,4.922478675842285,-0.13407529890537262
1748007524212429300,20.14842919921875,8.269572257995605,5.04218864440918,-0.30885201692581177
1748007524228176400,20.16417626953125,8.056488990783691,5.17626428604126,-0.45010992884635925
1748007524243954000,20.179953857421875,7.82185697555542,5.319916248321533,-0.5650315880775452
1748007524259762000,20.195761962890625,7.908048152923584,5.427655220031738,-0.5889736413955688
1748007524275570200,20.211570068359375,8.092401504516602,5.537788391113281,-0.5722141861915588
1748007524291347700,20.22734765625,8.166622161865234,5.652710437774658,-0.47644615173339844
1748007524307186400,20.2431865234375,8.224082946777344,5.8203043937683105,-0.524330198764801
1748007524322964000,20.2589638671875,8.274360656738281,5.995080947875977,-0.49559974670410156
1748007524338802400,20.274802490234375,7.922413349151611,6.09324312210083,-0.36152446269989014
1748007524354610700,20.290610595703125,7.371747016906738,6.150704383850098,-0.26815059781074524
1748007524370388200,20.30638818359375,7.062894821166992,6.157886981964111,-0.3016694188117981
1748007524386227000,20.32222705078125,7.4555439949035645,6.042964935302734,-0.35913026332855225
1748007524401974000,20.33797412109375,7.977479934692383,5.990292549133301,-0.5339069962501526
1748007524417751600,20.35375146484375,8.209717750549316,5.899312973022461,-0.33758243918418884
1748007524433559600,20.3695595703125,8.434772491455078,5.722142219543457,0.2082955539226532
1748007524449337000,20.385337158203125,8.650250434875488,5.477933406829834,0.8307880163192749
1748007524465145300,20.401145263671875,8.853757858276367,5.3342814445495605,1.1276689767837524
1748007524480953300,20.416953369140625,9.059659004211426,5.2480902671813965,1.1755530834197998
1748007524496700400,20.432700439453125,9.375694274902344,5.245696067810059,0.8762778043746948
1748007524512508700,20.4485087890625,9.457097053527832,5.1810526847839355,0.811634361743927
1748007524528316700,20.464316650390625,9.344569206237793,5.202600479125977,0.6607996821403503
1748007524544124700,20.480124755859375,9.105149269104004,5.195417881011963,0.5506663918495178
1748007524559933000,20.495932861328125,8.810662269592285,5.142745018005371,0.608127236366272
1748007524575710500,20.51171044921875,8.695740699768066,5.044582843780518,0.667982280254364
1748007524591488000,20.527488037109375,8.676587104797363,4.948814868927002,0.6368576288223267
1748007524607296300,20.543296142578125,8.757989883422852,4.934449672698975,0.6248866319656372
1748007524623104300,20.559104248046875,8.518569946289062,4.912901878356934,0.6991068720817566
