time,seconds_elapsed,z,y,x
1748142881489481000,0.11248095703125,1.9032697677612305,-1.5841104984283447,0.09487946331501007
1748142881507748900,0.130748779296875,0.6548032760620117,-2.228621006011963,0.7726271152496338
1748142881526011100,0.14901123046875,-0.2900876998901367,-2.988291025161743,-0.9875897765159607
1748142881544276200,0.167276123046875,-0.8761558532714844,-1.4554212093353271,-2.0020859241485596
1748142881562539800,0.185539794921875,-2.874826431274414,1.1832079887390137,-1.2906904220581055
1748142881580804400,0.203804443359375,-1.6030631065368652,0.8779845237731934,1.7978384494781494
1748142881599070000,0.222070068359375,-1.160202980041504,-0.7458107471466064,3.694488048553467
1748142881617334500,0.24033447265625,-1.4120993614196777,-1.030592679977417,2.7542247772216797
1748142881635596500,0.258596435546875,-1.5551514625549316,-1.2106733322143555,2.47078275680542
1748142881653864000,0.276864013671875,-4.643827438354492,3.5402040481567383,-12.067289352416992
1748142881672126500,0.29512646484375,-0.09373283386230469,1.3568384647369385,-3.3595385551452637
1748142881690391800,0.313391845703125,1.7275705337524414,-3.0273630619049072,2.1251373291015625
1748142881708655900,0.33165576171875,5.532416343688965,-2.434107542037964,3.9029898643493652
1748142881726920200,0.349920166015625,5.04705810546875,-1.3180546760559082,4.2380876541137695
1748142881745179000,0.368178955078125,0.21602535247802734,-0.3539104461669922,-1.9081833362579346
1748142881763449600,0.38644970703125,-3.2892298698425293,1.432544231414795,-3.5515494346618652
1748142881781713200,0.404713134765625,-3.8660006523132324,1.8829495906829834,0.4153490662574768
1748142881799978200,0.422978271484375,-0.38806915283203125,-0.4625227451324463,1.2499275207519531
1748142881818237000,0.44123681640625,0.7558250427246094,-2.268894672393799,2.0257718563079834
1748142881836507400,0.45950732421875,1.7182769775390625,-3.079366445541382,1.971936821937561
1748142881854770400,0.4777705078125,-1.3666162490844727,-2.516392230987549,1.7845966815948486
1748142881873036000,0.4960361328125,-3.658510684967041,-3.0320703983306885,1.3458091020584106
1748142881891299600,0.514299560546875,-4.053890705108643,-3.895162582397461,0.27353429794311523
1748142881909565000,0.53256494140625,-5.643640518188477,-4.031539440155029,1.4185261726379395
1748142881927816700,0.550816650390625,-3.244570732116699,-3.4860007762908936,-0.12277340888977051
1748142881946094000,0.569093994140625,-1.7921419143676758,-4.284630298614502,-0.8179812431335449
1748142881964357000,0.587357177734375,-2.646362781524658,-4.553564071655273,0.7089285850524902
1748142881982616600,0.605616455078125,-1.76759672164917,-3.216360092163086,1.174635410308838
1748142882000886000,0.623885986328125,-1.0712389945983887,-3.3401336669921875,0.3408641815185547
1748142882019153200,0.642153076171875,0.5534462928771973,-5.244028568267822,-1.2671685218811035
1748142882037415000,0.660414794921875,-0.35265493392944336,-4.7967376708984375,-1.830571174621582
1748142882055680500,0.678680419921875,-2.567729949951172,-4.600196361541748,-2.925103187561035
1748142882073939000,0.69693896484375,-3.249460220336914,-3.96598744392395,-2.048367500305176
1748142882092205000,0.715205078125,-1.5903089046478271,-2.006476402282715,0.29293155670166016
1748142882110472700,0.73347265625,-0.7583162188529968,-0.9098730087280273,2.1200437545776367
1748142882128737800,0.75173779296875,1.9915574789047241,-0.4402364492416382,1.3980693817138672
1748142882147001000,0.7700009765625,2.8517422676086426,-1.14931321144104,0.035826683044433594
1748142882165267000,0.788266845703125,2.4018311500549316,-0.6619739532470703,-0.14767074584960938
1748142882183530000,0.806530029296875,1.5702584981918335,-0.9759056568145752,1.4314355850219727
1748142882201795300,0.82479541015625,1.6784956455230713,-0.9143228530883789,0.6040477752685547
1748142882220047400,0.84304736328125,1.369922161102295,0.5944244861602783,0.05051231384277344
1748142882238324500,0.861324462890625,-0.7271551489830017,0.2879025936126709,0.6785154342651367
1748142882256589000,0.879589111328125,-1.56413733959198,-0.6486263275146484,4.834966659545898
1748142882274852900,0.897852783203125,-0.42689868807792664,1.9333915710449219,5.241698265075684
1748142882293117000,0.916116943359375,-0.5267930030822754,2.801172971725464,4.700514793395996
1748142882311382300,0.93438232421875,-0.7246150970458984,2.2067131996154785,3.3091230392456055
1748142882329640000,0.952639892578125,-1.1211007833480835,1.5342082977294922,3.3664603233337402
1748142882347911000,0.970910888671875,-1.2054941654205322,1.9416618347167969,3.6614837646484375
1748142882366171000,0.9891708984375,-1.6617282629013062,2.86795711517334,5.2065958976745605
1748142882384439800,1.007439697265625,-1.68912935256958,3.4498584270477295,5.9928178787231445
1748142882402699500,1.025699462890625,-1.5455011129379272,3.4574296474456787,6.1007981300354
1748142882420971300,1.04397119140625,-1.488314151763916,2.4075541496276855,5.518463134765625
1748142882439233300,1.0622333984375,-1.1173713207244873,1.267061710357666,5.209278106689453
1748142882457497300,1.080497314453125,-0.4620662331581116,1.2666587829589844,5.2346601486206055
1748142882475760600,1.0987607421875,-1.9027074575424194,1.2309260368347168,6.235013484954834
1748142882494026500,1.117026611328125,-3.7794411182403564,0.8516058921813965,6.374660968780518
1748142882512290000,1.1352900390625,-3.7571983337402344,-1.4295806884765625,6.108514785766602
1748142882530555600,1.1535556640625,-4.170673847198486,-6.356839179992676,3.12229585647583
1748142882548818700,1.171818603515625,-3.959690570831299,-17.48788833618164,-7.538743019104004
1748142882567084300,1.190084228515625,3.4932050704956055,-9.506075859069824,-5.26256799697876
1748142882585343000,1.208343017578125,2.1681957244873047,-0.7639617919921875,3.024756908416748
1748142882603610400,1.2266103515625,-1.4696897268295288,1.981292724609375,6.399506568908691
1748142882621879300,1.24487939453125,-1.6094474792480469,1.7334699630737305,9.244318008422852
1748142882640142300,1.263142333984375,3.1500515937805176,1.8431649208068848,4.199037551879883
1748142882658405000,1.281405029296875,5.023364067077637,-0.08149528503417969,1.2175617218017578
1748142882676670500,1.29967041015625,2.9732720851898193,0.3825263977050781,-0.36930131912231445
1748142882694934000,1.31793408203125,0.4159649610519409,2.3671090602874756,-1.2712278366088867
1748142882713195300,1.3361953125,-0.8106909990310669,2.7075839042663574,-5.515091896057129
1748142882731463400,1.35446337890625,-2.5000131130218506,4.3225178718566895,-1.377762794494629
1748142882749728800,1.372728759765625,-1.8692080974578857,2.756632089614868,-5.044496536254883
1748142882767980300,1.390980224609375,-1.7195789813995361,-0.48197460174560547,-7.914893627166748
1748142882786257400,1.40925732421875,-2.0753724575042725,-1.969066858291626,-9.364933013916016
1748142882804506600,1.427506591796875,-0.6457995176315308,-0.05030679702758789,-5.877449035644531
1748142882822777000,1.445777099609375,-1.2198753356933594,2.489283800125122,-2.7014641761779785
1748142882841044200,1.464044189453125,-2.599318504333496,3.2323708534240723,-1.7792778015136719
1748142882859314700,1.482314697265625,-1.3020730018615723,3.574573278427124,-0.26494789123535156
1748142882877577500,1.500577392578125,0.820197582244873,1.7085416316986084,-0.10942268371582031
1748142882895847200,1.51884716796875,-0.16329413652420044,0.011049270629882812,0.34172630310058594
1748142882914111200,1.537111328125,0.30944734811782837,1.2969657182693481,-0.7121858596801758
1748142882932373200,1.555373291015625,0.18402260541915894,1.926084280014038,1.7247514724731445
1748142882950620200,1.5736201171875,0.0930778980255127,1.9933289289474487,3.5159053802490234
1748142882968902400,1.59190234375,0.697132408618927,1.0836483240127563,5.434028625488281
1748142882987161000,1.6101611328125,0.9091377258300781,-0.9020843505859375,5.204001426696777
1748142883005425700,1.62842578125,-1.1858785152435303,-2.2404661178588867,4.978734016418457
1748142883023694000,1.646694091796875,-4.604094505310059,-2.819159746170044,4.658418655395508
1748142883041955600,1.66495556640625,-1.9802114963531494,-3.3266797065734863,1.9546003341674805
1748142883060225000,1.68322509765625,0.5612757205963135,0.11115074157714844,0.06727409362792969
1748142883078488600,1.701488525390625,0.5730934143066406,2.920034170150757,-0.17170047760009766
1748142883096751900,1.719751953125,0.22906017303466797,4.38693904876709,0.17722511291503906
1748142883115018800,1.738018798828125,0.9368456602096558,2.9984211921691895,-0.5049295425415039
1748142883133279200,1.756279296875,4.394042015075684,1.5684762001037598,-2.8912763595581055
1748142883151546400,1.77454638671875,4.526003837585449,0.03455162048339844,-5.454590797424316
1748142883169809200,1.79280908203125,5.233850479125977,0.3313307762145996,-4.288417816162109
1748142883188075300,1.8110751953125,2.112304449081421,3.991943120956421,-5.060910701751709
1748142883206338600,1.829338623046875,-1.532160758972168,4.105812072753906,-3.7637381553649902
1748142883224603000,1.847602783203125,-2.176701545715332,-6.042168140411377,-3.841928482055664
1748142883242868500,1.865868408203125,0.36863136291503906,-22.93462371826172,-5.332985877990723
1748142883261132000,1.884132080078125,3.700791597366333,-18.770492553710938,3.3557209968566895
1748142883279397400,1.9023974609375,7.078157424926758,-3.8965845108032227,6.184088706970215
1748142883297662000,1.920661865234375,8.268081665039062,3.388601303100586,1.9937541484832764
1748142883315925000,1.938925048828125,7.5350341796875,5.004429817199707,-1.2901016473770142
1748142883334186000,1.95718603515625,6.885954856872559,5.0145721435546875,-3.8203797340393066
1748142883352454100,1.9754541015625,6.4269633293151855,4.443650722503662,-5.138911247253418
1748142883370718000,1.993718017578125,4.925145149230957,3.621377944946289,-3.1872525215148926
1748142883388984000,2.011984130859375,5.225572109222412,3.1279993057250977,-1.5813593864440918
1748142883407248600,2.03024853515625,3.404919147491455,1.9062814712524414,1.040585994720459
1748142883425508000,2.048508056640625,-6.648378372192383,-0.20671558380126953,-0.3445066213607788
1748142883443772700,2.066772705078125,-14.00655460357666,-2.8914432525634766,-2.9151577949523926
1748142883462040800,2.085040771484375,-22.778682708740234,-8.644386291503906,2.8834681510925293
1748142883480306400,2.103306396484375,-14.12044906616211,-9.400369644165039,0.803703784942627
1748142883498569500,2.121569580078125,-1.312415599822998,-1.7533721923828125,-1.3377660512924194
1748142883516835300,2.13983544921875,1.5683467388153076,4.795328140258789,-2.374882936477661
1748142883535098400,2.158098388671875,3.657197952270508,5.286377906799316,-2.377222776412964
1748142883553364000,2.176364013671875,6.624364852905273,0.6157150268554688,-1.5548176765441895
1748142883571625700,2.194625732421875,8.793746948242188,-7.538535118103027,-0.31150031089782715
1748142883589894100,2.21289404296875,7.923024654388428,-16.327136993408203,-1.574862003326416
1748142883608159200,2.2311591796875,4.603294372558594,-14.288599014282227,-6.415864944458008
1748142883626422000,2.249422119140625,3.1166725158691406,-2.4444961547851562,-3.696661949157715
1748142883644689700,2.267689697265625,2.5139620304107666,3.6190876960754395,-2.2603769302368164
1748142883662951000,2.285950927734375,2.454893112182617,6.827836990356445,-2.422207832336426
1748142883681209900,2.3042099609375,2.126591444015503,8.367195129394531,-2.5061354637145996
1748142883699474700,2.322474609375,2.191279649734497,6.835402488708496,-1.1280021667480469
1748142883717741600,2.340741455078125,2.010204553604126,2.1607704162597656,1.2401704788208008
1748142883736009700,2.359009765625,1.2929919958114624,-2.7976999282836914,4.020795822143555
1748142883754271500,2.377271484375,-0.3363693952560425,-5.920108795166016,3.750856876373291
1748142883772537600,2.39553759765625,-3.237807273864746,-2.5646419525146484,-0.11522173881530762
1748142883790799400,2.41379931640625,-3.982560873031616,0.16565704345703125,-0.46539878845214844
1748142883809067300,2.4320673828125,-1.754933476448059,1.4405031204223633,-1.252326488494873
1748142883827329300,2.450329345703125,0.8329969644546509,1.3651690483093262,-1.1110198497772217
1748142883845591800,2.468591796875,1.269209384918213,0.10354137420654297,-0.69903564453125
1748142883863853300,2.486853271484375,0.5768156051635742,0.2676239013671875,-0.6817667484283447
1748142883882123000,2.505123046875,0.15947389602661133,1.057413101196289,-0.6602234840393066
1748142883900388400,2.523388427734375,-0.12273192405700684,1.5350360870361328,-0.243072509765625
1748142883918655000,2.541655029296875,-0.43922683596611023,1.3654184341430664,0.20395469665527344
1748142883936915000,2.5599150390625,-0.6350111961364746,0.2306365966796875,0.6291310787200928
1748142883955177200,2.57817724609375,-1.9504948854446411,-0.7916584014892578,0.18268060684204102
1748142883973444000,2.596444091796875,-4.366284370422363,-1.1241559982299805,-0.2789425849914551
1748142883991712300,2.614712158203125,-6.880017280578613,0.12504863739013672,0.8902182579040527
1748142884009974000,2.63297412109375,-4.534677505493164,-0.07838630676269531,2.9531495571136475
1748142884028240000,2.651239990234375,-1.2436507940292358,-0.21356487274169922,4.305883407592773
1748142884046503200,2.669503173828125,-0.5933270454406738,0.32450008392333984,3.7374536991119385
1748142884064768500,2.6877685546875,-1.8880958557128906,0.6265754699707031,2.429609537124634
1748142884083032000,2.706031982421875,-3.9449973106384277,-1.2305774688720703,0.7685940265655518
1748142884101297400,2.72429736328125,-6.938941955566406,-4.6166791915893555,0.5095434188842773
1748142884119560700,2.742560791015625,-6.273197174072266,-6.224316596984863,3.2537097930908203
1748142884137826300,2.760826416015625,-3.9175708293914795,-3.1299047470092773,4.857046127319336
1748142884156089900,2.77908984375,-0.21568913757801056,-1.0705060958862305,2.4992337226867676
1748142884174355500,2.79735546875,0.9313054084777832,-0.7836771011352539,2.528103828430176
1748142884192617700,2.81561767578125,-0.24972784519195557,-2.5108070373535156,1.6346402168273926
1748142884210879700,2.833879638671875,1.896273136138916,-5.617710113525391,0.17878293991088867
1748142884229148200,2.852148193359375,4.4517316818237305,-5.847445487976074,-2.206516742706299
1748142884247414500,2.87041455078125,4.010137557983398,-4.631505966186523,-2.0098624229431152
1748142884265672000,2.888671875,3.69403076171875,-2.347248077392578,-2.1277577877044678
1748142884283942000,2.90694189453125,3.0194811820983887,-0.4011812210083008,-2.0807862281799316
1748142884302201000,2.925201171875,2.0755105018615723,1.0761165618896484,-0.6410114765167236
1748142884320471000,2.943470947265625,3.185262680053711,1.3278589248657227,1.332667350769043
1748142884338734600,2.961734619140625,6.00697135925293,1.1287627220153809,1.7609403133392334
1748142884357000000,2.98,3.624124526977539,1.441199779510498,2.327059030532837
1748142884375263500,2.998263427734375,1.941728115081787,0.9940829277038574,1.037567377090454
1748142884393526300,3.0165263671875,4.042072772979736,0.013005733489990234,-1.448232650756836
1748142884411794700,3.034794677734375,5.374136447906494,0.11537504196166992,-2.5259618759155273
1748142884430055200,3.05305517578125,5.5053815841674805,0.9400310516357422,-2.662548542022705
1748142884448323600,3.071323486328125,5.706203937530518,1.099320888519287,-3.8055198192596436
1748142884466581500,3.08958154296875,5.009051322937012,2.8229408264160156,-4.096109390258789
1748142884484849400,3.107849365234375,5.326494216918945,2.7219581604003906,-5.031561851501465
1748142884503116800,3.12611669921875,5.641247749328613,3.300166606903076,-5.182215690612793
1748142884521379000,3.144379150390625,5.456977367401123,3.133366107940674,-5.833741188049316
1748142884539643400,3.162643310546875,3.2289681434631348,3.0544543266296387,-6.393477439880371
1748142884557909000,3.180908935546875,-1.336155652999878,3.5496020317077637,-5.558839797973633
1748142884576169000,3.1991689453125,-7.034938335418701,2.928959846496582,-2.752354621887207
1748142884594436900,3.217436767578125,-8.583127975463867,-3.3840160369873047,1.9069242477416992
1748142884612702700,3.23570263671875,-15.0147705078125,-12.256964683532715,11.577451705932617
1748142884630964700,3.25396484375,-14.39815616607666,-13.277560234069824,10.16173267364502
1748142884649242400,3.272242431640625,-4.6635613441467285,-5.50174617767334,1.09499192237854
1748142884667495200,3.2904951171875,0.9364577531814575,-0.12594032287597656,-1.7904919385910034
1748142884685756700,3.308756591796875,7.735107421875,-3.0149593353271484,-3.8503308296203613
1748142884704023600,3.3270234375,9.468944549560547,-5.083367347717285,-3.506348133087158
1748142884722283500,3.345283447265625,5.264358043670654,-4.011847496032715,-1.9560308456420898
1748142884740551400,3.363551513671875,2.35292387008667,-0.39156150817871094,-1.4591784477233887
1748142884758819000,3.381819091796875,1.9892340898513794,2.9991722106933594,-2.1001102924346924
1748142884777081300,3.400081298828125,2.075777292251587,5.009497165679932,-1.9225298166275024
1748142884795351300,3.418351318359375,1.9446133375167847,6.193124771118164,-1.024802327156067
1748142884813604400,3.436604248046875,1.8270816802978516,6.369451522827148,0.4458467960357666
1748142884831876900,3.454876953125,1.827481746673584,4.8999433517456055,2.2782247066497803
1748142884850139100,3.47313916015625,1.9134385585784912,1.8473868370056152,3.6036198139190674
1748142884868404500,3.491404541015625,1.8949048519134521,-2.5780696868896484,1.9041671752929688
1748142884886668500,3.50966845703125,2.8985729217529297,-6.725702285766602,-2.753978729248047
1748142884904934000,3.527933837890625,2.008566379547119,-5.090838432312012,-2.266653299331665
1748142884923192300,3.5461923828125,0.1846569925546646,-1.6043672561645508,-0.8820817470550537
1748142884941462300,3.564462158203125,-3.4876720905303955,0.48659706115722656,-1.900155782699585
1748142884959726000,3.58272607421875,-4.87343168258667,0.4585990905761719,-1.693915605545044
1748142884977991400,3.600991455078125,-2.048649311065674,0.3102703094482422,-0.6826481819152832
1748142884996255200,3.619255126953125,-0.20845440030097961,-0.15996932983398438,0.04682183265686035
1748142885014520800,3.637520751953125,-0.32279300689697266,-0.8571462631225586,-0.3059525489807129
1748142885032784000,3.655783935546875,-0.4974854588508606,-0.11210441589355469,-0.09301018714904785
1748142885051048700,3.674048583984375,0.01597350835800171,0.1111297607421875,-1.2204813957214355
1748142885069309000,3.692308837890625,-0.4096232056617737,2.060718536376953,-0.0949244499206543
1748142885087579000,3.710578857421875,-0.7884743213653564,1.3502626419067383,1.0836012363433838
1748142885105842000,3.728842041015625,-1.351996898651123,0.642186164855957,2.423081636428833
1748142885124107500,3.747107421875,-3.3472156524658203,-0.12555789947509766,2.1407761573791504
1748142885142370800,3.765370849609375,-3.980523109436035,-1.0303421020507812,2.021488666534424
1748142885160635400,3.783635498046875,-2.261403799057007,-1.0254840850830078,3.1200971603393555
1748142885178900700,3.801900634765625,-2.450125217437744,-0.9231052398681641,2.720566749572754
1748142885197161500,3.820161376953125,-2.659959554672241,-0.5695610046386719,1.7127466201782227
1748142885215424000,3.838424072265625,-2.092393159866333,-1.3276395797729492,2.021470308303833
1748142885233694200,3.856694091796875,-2.5174779891967773,-2.230778694152832,5.09910774230957
1748142885251956500,3.87495654296875,-3.8226635456085205,-5.1476640701293945,6.6504106521606445
1748142885270226200,3.89322607421875,-2.9597551822662354,-6.0102081298828125,5.390279769897461
1748142885288486700,3.911486572265625,-0.5886037945747375,-1.4164409637451172,3.6922011375427246
1748142885306752300,3.929752197265625,-1.0865237712860107,1.7224855422973633,2.0634450912475586
1748142885325011000,3.948010986328125,-0.8863270282745361,0.7322635650634766,0.6488847732543945
1748142885343279900,3.96627978515625,1.0280340909957886,-0.5699338912963867,0.7393507957458496
1748142885361546000,3.9845458984375,2.8639676570892334,-1.865523338317871,0.05009651184082031
1748142885379810000,4.00281005859375,3.719311475753784,-4.881603240966797,-2.8893702030181885
1748142885398073600,4.021073486328125,4.482176780700684,-4.727619171142578,-2.5279390811920166
1748142885416339000,4.0393388671875,3.135488986968994,-3.0387096405029297,-3.585263729095459
1748142885434601500,4.0576015625,2.1767609119415283,-0.3193659782409668,-4.0726704597473145
1748142885452869000,4.075869140625,2.4957003593444824,1.4799838066101074,-1.9897210597991943
1748142885471131000,4.094130859375,4.263985633850098,1.7798385620117188,-0.5559394359588623
1748142885489397000,4.11239697265625,4.342992305755615,1.414353847503662,0.10954046249389648
1748142885507660500,4.13066064453125,2.190375566482544,0.2048039436340332,1.3577368259429932
1748142885525925600,4.148925537109375,1.2411377429962158,-1.1272058486938477,1.2341423034667969
1748142885544182000,4.16718212890625,3.5222482681274414,-1.1110796928405762,-0.7240762710571289
1748142885562457300,4.185457275390625,5.345063209533691,-0.07726240158081055,-2.046370506286621
1748142885580713500,4.20371337890625,5.406774044036865,1.2841191291809082,-3.3096816539764404
1748142885598982400,4.221982421875,5.072322845458984,2.447201728820801,-4.283742904663086
1748142885617248300,4.240248291015625,4.996363639831543,2.907320976257324,-5.266057968139648
1748142885635508500,4.258508544921875,4.551853656768799,3.021421432495117,-5.479085922241211
1748142885653776100,4.276776123046875,3.568345069885254,3.164224147796631,-5.266347885131836
1748142885672041500,4.29504150390625,2.2705674171447754,3.201744556427002,-5.03345251083374
1748142885690304800,4.3133046875,0.8431065082550049,2.229666233062744,-4.800541877746582
1748142885708571000,4.33157080078125,-1.980731725692749,0.20183849334716797,-3.4411463737487793
1748142885726834000,4.349833984375,-5.504103183746338,-3.389012336730957,1.1402759552001953
1748142885745099800,4.368099853515625,-14.946011543273926,-8.899691581726074,10.350460052490234
1748142885763362600,4.386362548828125,-12.40552043914795,-10.51331615447998,12.382667541503906
1748142885781627400,4.40462744140625,-10.018806457519531,-5.69260311126709,8.805200576782227
1748142885799887400,4.422887451171875,-7.344999313354492,-1.412282943725586,3.986711025238037
1748142885818161200,4.4411611328125,1.3197499513626099,-1.2707242965698242,2.67141056060791
1748142885836416000,4.459416015625,10.420297622680664,-4.980025291442871,-1.8712644577026367
1748142885854685400,4.477685546875,8.991207122802734,-6.003989219665527,-4.431812286376953
1748142885872950800,4.49595068359375,6.382429599761963,-2.046236991882324,-4.099714279174805
1748142885891211800,4.514211669921875,4.100592136383057,1.9507427215576172,-4.5717058181762695
1748142885909478400,4.532478515625,3.4975595474243164,4.433826446533203,-5.515174865722656
1748142885927744300,4.550744140625,3.040431022644043,5.663963317871094,-5.683435916900635
1748142885946007600,4.569007568359375,2.2777047157287598,4.71766471862793,-4.352525234222412
1748142885964258300,4.58725830078125,1.7232246398925781,0.6923551559448242,-2.563129425048828
1748142885982539300,4.605539306640625,1.7115750312805176,-3.4694814682006836,-1.5008304119110107
1748142886000801300,4.62380126953125,-0.6846839785575867,-4.845615386962891,-0.4771730899810791
1748142886019066000,4.642066162109375,-4.22575569152832,-1.901479721069336,0.7913236618041992
1748142886037331200,4.660331298828125,-3.7283976078033447,0.844635009765625,1.6428656578063965
1748142886055594500,4.678594482421875,-0.6251991987228394,1.4514217376708984,0.6526994705200195
1748142886073860000,4.696860107421875,1.8425712585449219,1.0877323150634766,-0.21171927452087402
1748142886092124000,4.7151240234375,2.1800994873046875,0.8058815002441406,0.1416010856628418
1748142886110388000,4.733387939453125,1.0932176113128662,0.9196872711181641,0.7190160751342773
1748142886128655400,4.7516552734375,-0.5901880264282227,1.1353979110717773,0.8259274959564209
1748142886146916900,4.769916748046875,-2.4680685997009277,1.1577057838439941,0.9357914924621582
1748142886165176600,4.788176513671875,-2.266308069229126,0.9532499313354492,1.184046745300293
1748142886183442400,4.8064423828125,-1.012345790863037,0.7130680084228516,1.0359890460968018
1748142886201710300,4.82471044921875,-0.3389171063899994,0.4368247985839844,0.6127467155456543
1748142886219976000,4.842975830078125,-0.4047442078590393,0.28576087951660156,-0.09634542465209961
1748142886238239500,4.861239501953125,-1.9315391778945923,-0.018874168395996094,-0.6279900074005127
1748142886256505000,4.879505126953125,-5.080985069274902,0.5195817947387695,-0.3214402198791504
1748142886274768600,4.8977685546875,-5.889355659484863,1.3026766777038574,2.3849430084228516
1748142886293034200,4.9160341796875,-2.7255139350891113,0.5602931976318359,4.871816635131836
1748142886311297300,4.93429736328125,-0.797266960144043,0.21397972106933594,5.163826942443848
1748142886329563000,4.95256298828125,-1.3605986833572388,1.186478614807129,3.920217752456665
1748142886347826400,4.970826416015625,-3.1244053840637207,-0.23337078094482422,3.465719699859619
1748142886366090500,4.989090576171875,-5.796257972717285,-3.661052703857422,3.9196996688842773
1748142886384356900,5.00735693359375,-5.542324542999268,-5.457432746887207,4.824671745300293
1748142886402620000,5.025619873046875,-2.5705511569976807,-4.615978240966797,3.962258815765381
1748142886420884700,5.043884765625,-1.5480979681015015,-3.3535985946655273,1.5827949047088623
1748142886439151000,5.062151123046875,-1.7197318077087402,-3.1783103942871094,-0.650592565536499
1748142886457413400,5.080413330078125,-1.5090892314910889,-5.198794364929199,-1.7624895572662354
1748142886475679000,5.098678955078125,2.443341016769409,-6.683560371398926,-3.204608917236328
1748142886493942500,5.116942626953125,4.2739386558532715,-6.4978485107421875,-4.287414073944092
1748142886512204000,5.1352041015625,4.118077278137207,-5.037059783935547,-5.475682258605957
1748142886530471400,5.153471435546875,4.388493061065674,-1.2197580337524414,-3.6791012287139893
1748142886548737000,5.171737060546875,5.792263984680176,1.9183297157287598,-1.9028337001800537
1748142886567000000,5.19,7.2265214920043945,3.4747891426086426,0.45122575759887695
1748142886585266000,5.208265869140625,5.654844284057617,4.099691867828369,1.7662034034729004
1748142886603529200,5.226529296875,2.5407674312591553,3.643825054168701,3.9133596420288086
1748142886621792500,5.24479248046875,-0.5874500274658203,3.659205913543701,6.768163681030273
1748142886640061000,5.26306103515625,1.9255547523498535,2.3319239616394043,5.554946422576904
1748142886658323700,5.28132373046875,4.311798572540283,-0.22403669357299805,0.9593138694763184
1748142886676588000,5.299588134765625,4.8101115226745605,-1.269336223602295,-2.5575356483459473
1748142886694847000,5.317846923828125,5.118884563446045,-0.8635144233703613,-4.056604862213135
1748142886713115100,5.336115234375,5.319496154785156,0.6585230827331543,-4.765429496765137
1748142886731382800,5.3543828125,5.083197593688965,1.9823942184448242,-5.635115623474121
1748142886749644300,5.372644287109375,5.016092300415039,2.7307982444763184,-6.13789176940918
1748142886767912000,5.390911865234375,3.8589696884155273,3.0027565956115723,-6.625104904174805
1748142886786169600,5.409169677734375,2.3242783546447754,3.225515365600586,-7.229750156402588
1748142886804439800,5.427439697265625,0.6315524578094482,2.4007720947265625,-7.79391622543335
1748142886822703000,5.445703125,-1.5953242778778076,0.3034524917602539,-7.284790992736816
1748142886840967400,5.463967529296875,-4.966228485107422,-2.0639305114746094,-4.00913143157959
1748142886859231700,5.482231689453125,-11.317896842956543,-6.561155319213867,4.53787899017334
1748142886877485600,5.500485595703125,-17.78084373474121,-12.213408470153809,17.44097137451172
1748142886895761000,5.518760986328125,-7.972613334655762,-8.096320152282715,12.680500030517578
1748142886914026200,5.537026123046875,-6.849388122558594,0.19193458557128906,7.025961875915527
1748142886932290000,5.5552900390625,2.7710533142089844,-0.08722782135009766,7.027740955352783
1748142886950550500,5.573550537109375,7.665241241455078,-6.518440246582031,0.9057741165161133
1748142886968822300,5.591822265625,7.459760665893555,-8.010980606079102,-0.9692537784576416
1748142886987085600,5.61008544921875,5.570272445678711,-3.267430305480957,-1.624614953994751
1748142887005350700,5.6283505859375,4.6538286209106445,2.0678935050964355,-4.923410415649414
1748142887023612200,5.646612060546875,3.1913697719573975,4.100652694702148,-5.80982780456543
1748142887041878300,5.664878173828125,2.903346300125122,5.552613258361816,-6.424371719360352
1748142887060142800,5.683142822265625,2.5198874473571777,5.331225395202637,-6.172958850860596
1748142887078406100,5.70140625,2.0885088443756104,1.9652981758117676,-4.150664329528809
1748142887096671500,5.71967138671875,1.7693969011306763,-2.457582473754883,-2.3280811309814453
1748142887114934800,5.737934814453125,0.9803276062011719,-6.153526306152344,-2.1943986415863037
1748142887133195800,5.75619580078125,-0.029787778854370117,-3.667586326599121,-2.0979225635528564
1748142887151464000,5.7744638671875,-2.226536512374878,0.22844314575195312,-0.48813843727111816
1748142887169729300,5.792729248046875,-2.5905520915985107,2.620615005493164,0.4849863052368164
1748142887187992800,5.810992919921875,-0.18334360420703888,2.5893850326538086,-0.1928873062133789
1748142887206254000,5.829254150390625,1.4280524253845215,1.7605628967285156,0.27236199378967285
1748142887224520700,5.847520751953125,1.9764783382415771,1.2201499938964844,0.9131796360015869
1748142887242788900,5.865788818359375,1.7963523864746094,1.0143709182739258,1.558473825454712
1748142887261051100,5.884051025390625,0.36605674028396606,1.3910059928894043,2.836446762084961
1748142887279316700,5.902316650390625,-1.7274692058563232,1.9344029426574707,3.1434433460235596
1748142887297580300,5.920580322265625,-2.2024335861206055,2.369513988494873,2.319610595703125
1748142887315845400,5.938845458984375,-1.1166824102401733,1.3832249641418457,1.7255730628967285
1748142887334109000,5.95710888671875,-1.0632524490356445,-0.28221797943115234,0.841944694519043
1748142887352374500,5.97537451171875,-2.0970029830932617,-1.6160402297973633,-0.1439197063446045
1748142887370636800,5.99363671875,-4.374678611755371,-2.230663299560547,-1.4218378067016602
1748142887388904400,6.011904541015625,-6.206353664398193,-1.5676546096801758,-1.2693942785263062
1748142887407162600,6.03016259765625,-3.0596914291381836,-0.5119762420654297,1.6722874641418457
1748142887425427700,6.048427734375,-0.5131715536117554,0.047969818115234375,4.417417049407959
1748142887443695900,6.06669580078125,-0.2416822910308838,0.7071027755737305,4.4169206619262695
1748142887461961500,6.08496142578125,-0.7696962952613831,1.472585678100586,3.9125492572784424
1748142887480224300,6.103224365234375,-3.8007850646972656,-1.1818914413452148,4.611869812011719
1748142887498491600,6.12149169921875,-9.017278671264648,-4.617061614990234,5.11729621887207
1748142887516754000,6.13975390625,-5.770583152770996,-4.314830780029297,6.103100299835205
1748142887535019500,6.15801953125,-0.5771548748016357,-2.4846649169921875,4.6260762214660645
1748142887553278200,6.1762783203125,0.3427823781967163,-1.4457244873046875,2.076436996459961
1748142887571548200,6.194548095703125,-0.24915972352027893,-1.9308414459228516,0.2788689136505127
1748142887589811700,6.212811767578125,-0.2137531042098999,-3.2041282653808594,-1.2340447902679443
1748142887608077600,6.23107763671875,1.6268349885940552,-5.124306678771973,-1.884177327156067
1748142887626340900,6.2493408203125,2.361771583557129,-6.198423385620117,-3.350494146347046
1748142887644605400,6.26760546875,2.184485912322998,-5.937643051147461,-4.8265533447265625
1748142887662870800,6.285870849609375,2.718549966812134,-2.6711645126342773,-4.632508277893066
1748142887681135600,6.304135498046875,4.041121482849121,0.8255486488342285,-2.568599224090576
1748142887699398100,6.322398193359375,5.387927055358887,2.7843503952026367,-0.830406665802002
1748142887717665300,6.340665283203125,6.056209087371826,2.961716651916504,0.04714655876159668
1748142887735926800,6.3589267578125,4.624449729919434,1.9087810516357422,1.2167184352874756
1748142887754190600,6.377190673828125,1.052854061126709,1.9720878601074219,4.72231388092041
1748142887772457000,6.39545703125,-0.22562217712402344,2.3015570640563965,5.845705986022949
1748142887790722300,6.413722412109375,3.109889507293701,1.2021903991699219,2.5131328105926514
1748142887808985900,6.43198583984375,5.0630202293396,0.40671730041503906,-0.705927848815918
1748142887827251500,6.45025146484375,5.296573638916016,0.6512255668640137,-2.492248058319092
1748142887845529600,6.468529541015625,5.072487831115723,1.4308404922485352,-3.16247820854187
1748142887863762400,6.486762451171875,4.814799785614014,2.1544790267944336,-4.10067892074585
1748142887882046700,6.505046630859375,4.812663555145264,2.7861857414245605,-5.009487628936768
1748142887900309500,6.5233095703125,4.114746570587158,3.5143184661865234,-5.757421016693115
1748142887918572500,6.541572509765625,2.692654848098755,4.535062789916992,-6.24606466293335
1748142887936838700,6.559838623046875,0.2973060607910156,4.655257225036621,-6.213476181030273
1748142887955088000,6.578087890625,-1.8452236652374268,2.2251529693603516,-4.584243297576904
1748142887973367600,6.596367431640625,-2.5494089126586914,-2.290005683898926,-1.0260488986968994
1748142887991629600,6.614629638671875,-5.5841264724731445,-7.836260795593262,6.280400276184082
1748142888009897700,6.632897705078125,-22.554128646850586,-11.33928108215332,17.35951805114746
1748142888028164600,6.65116455078125,-10.694412231445312,-3.2428932189941406,11.837587356567383
1748142888046425600,6.669425537109375,-2.795863628387451,3.951237201690674,7.0949883460998535
1748142888064677000,6.687677001953125,2.1108076572418213,4.759647846221924,2.343825101852417
1748142888082953200,6.705953125,7.419120788574219,-1.5341777801513672,0.12222528457641602
1748142888101227000,6.72422705078125,7.8243818283081055,-7.91141414642334,-0.2698063850402832
1748142888119483400,6.7424833984375,5.133347034454346,-10.600753784179688,0.46634817123413086
1748142888137747000,6.760746826171875,4.504371166229248,-5.276825904846191,-0.6774082183837891
1748142888156012500,6.779012451171875,-0.10267126560211182,-1.8068790435791016,-5.928086280822754
1748142888174275600,6.797275634765625,-4.56198787689209,2.2677087783813477,-8.175765037536621
1748142888192541700,6.815541748046875,-0.43810176849365234,3.7339792251586914,-7.141195297241211
1748142888210803500,6.833803466796875,2.2229859828948975,3.6491122245788574,-4.324365615844727
1748142888229071600,6.852071533203125,2.964484453201294,2.085258960723877,-2.4739766120910645
1748142888247334100,6.870334228515625,3.869291305541992,-1.5711631774902344,-0.9611642360687256
1748142888265598200,6.88859814453125,3.4720804691314697,-3.6574134826660156,-1.0589971542358398
1748142888283863800,6.90686376953125,1.3076403141021729,-2.6132659912109375,-1.3843462467193604
1748142888302128400,6.92512841796875,-1.5745426416397095,0.009572029113769531,-0.8606603145599365
1748142888320387000,6.943386962890625,-3.7462058067321777,1.473283290863037,-1.4703102111816406
1748142888338656300,6.96165625,-1.1728144884109497,2.266805648803711,-1.1788721084594727
1748142888356922000,6.979922119140625,1.2894115447998047,1.7823023796081543,-0.6686341762542725
1748142888375182000,6.99818212890625,1.3642964363098145,0.6740961074829102,0.18233799934387207
1748142888393450000,7.016449951171875,0.43373873829841614,-0.07079792022705078,1.1670961380004883
1748142888411715600,7.034715576171875,-0.09328567981719971,0.3447246551513672,1.3637282848358154
1748142888429979100,7.052979248046875,-0.7017936110496521,1.2720637321472168,1.725097894668579
1748142888448244700,7.07124462890625,-1.3083590269088745,1.7808799743652344,1.8235712051391602
1748142888466507800,7.0895078125,-1.4424887895584106,1.9136757850646973,1.402071237564087
1748142888484774000,7.10777392578125,-2.324521541595459,1.226020336151123,0.7717263698577881
1748142888503038500,7.12603857421875,-4.569932460784912,0.3106555938720703,0.7636146545410156
1748142888521301000,7.144301025390625,-5.372995376586914,0.19785118103027344,2.732732057571411
1748142888539566000,7.162566162109375,-3.256582736968994,0.09809494018554688,4.531742095947266
1748142888557831700,7.180831787109375,-1.9528495073318481,-0.27907276153564453,4.639278411865234
1748142888576090400,7.19909033203125,-1.3334665298461914,0.0890798568725586,2.972221851348877
1748142888594357800,7.217357666015625,-1.4131481647491455,-0.3140134811401367,2.039905071258545
1748142888612626000,7.2356259765625,-4.751374244689941,-1.7887754440307617,-0.28315305709838867
1748142888630890200,7.25389013671875,-9.346452713012695,-3.631378173828125,-2.7548668384552
1748142888649154600,7.272154541015625,-6.8877105712890625,-4.468164443969727,0.2364487648010254
1748142888667418600,7.290418701171875,-1.3516778945922852,-3.9390745162963867,5.153032302856445
1748142888685682200,7.30868212890625,0.07199203968048096,-2.621029853820801,6.54871940612793
1748142888703948800,7.32694873046875,-0.2957642078399658,-0.7856349945068359,5.631784915924072
1748142888722205700,7.345205810546875,-1.6284538507461548,-0.31754589080810547,4.221706390380859
1748142888740474400,7.363474365234375,-1.2591904401779175,-2.947650909423828,1.5948891639709473
1748142888758742500,7.381742431640625,1.4876774549484253,-5.282434463500977,-0.6319215297698975
1748142888777003000,7.4000029296875,3.9946322441101074,-6.8316144943237305,-2.091104030609131
1748142888795271700,7.418271728515625,3.445601463317871,-8.567447662353516,-4.179696083068848
1748142888813534700,7.43653466796875,2.985901117324829,-5.607400894165039,-5.890902519226074
1748142888831798000,7.454798095703125,3.605109453201294,-0.06401443481445312,-4.351650238037109
1748142888850062600,7.4730625,4.421781539916992,2.662780284881592,-3.4961774349212646
1748142888868328200,7.491328125,5.386115074157715,3.7280592918395996,-1.4312970638275146
1748142888886593800,7.50959375,4.507882118225098,3.3805036544799805,-0.20998048782348633
1748142888904855300,7.527855224609375,1.032458782196045,2.1669626235961914,1.814560890197754
1748142888923122000,7.546121826171875,-0.5325398445129395,1.1333136558532715,3.9976818561553955
1748142888941385200,7.56438525390625,3.6421241760253906,0.03972673416137695,3.4806437492370605
1748142888959649800,7.58264990234375,5.2381181716918945,-0.3543086051940918,0.35620880126953125
1748142888977915100,7.6009150390625,4.513271808624268,1.3237395286560059,-2.5564277172088623
1748142888996165400,7.619165283203125,4.37141227722168,2.9318785667419434,-3.8037052154541016
1748142889014443300,7.637443359375,4.4935102462768555,3.4095540046691895,-5.276618003845215
1748142889032695800,7.65569580078125,4.563141345977783,3.2292518615722656,-5.890406608581543
1748142889050971100,7.67397119140625,3.979459285736084,2.9462642669677734,-5.891597747802734
1748142889069238300,7.69223828125,3.0957846641540527,3.127976417541504,-5.780418872833252
1748142889087496200,7.71049609375,2.275186061859131,3.0562005043029785,-5.585768699645996
1748142889105765400,7.728765380859375,1.2130334377288818,1.5344247817993164,-4.859293460845947
1748142889124031500,7.747031494140625,-1.0309903621673584,-1.5461091995239258,-2.438845157623291
1748142889142295800,7.7652958984375,-5.60389518737793,-4.154444694519043,2.226883888244629
1748142889160559400,7.783559326171875,-23.16047477722168,-7.1468610763549805,13.773228645324707
1748142889178824700,7.80182470703125,-11.457942008972168,-6.947700500488281,17.077322006225586
1748142889197088300,7.820088134765625,-0.5465043783187866,-1.266982078552246,9.108392715454102
1748142889215349800,7.838349853515625,-1.8363423347473145,4.130218505859375,4.458276748657227
1748142889233616400,7.856616455078125,-0.8979707956314087,5.7305827140808105,0.6487197875976562
1748142889251884000,7.874884033203125,2.728893280029297,2.3069310188293457,0.48244619369506836
1748142889270146300,7.893146240234375,6.014205455780029,-4.742547988891602,1.4558424949645996
1748142889288411600,7.91141162109375,5.758148193359375,-11.290546417236328,2.3256301879882812
1748142889306675200,7.92967529296875,5.143660545349121,-13.381340980529785,-1.6077930927276611
1748142889324941000,7.947941162109375,-0.6908951997756958,-5.446722030639648,-6.7807936668396
1748142889343199700,7.96619970703125,-2.6441802978515625,1.3419198989868164,-9.166173934936523
1748142889361470000,7.984469970703125,0.32843250036239624,3.8847780227661133,-9.004310607910156
1748142889379733500,8.0027333984375,2.5221285820007324,4.855210304260254,-7.075273513793945
1748142889397999000,8.0209990234375,2.4342212677001953,4.1495361328125,-4.170199394226074
1748142889416262400,8.039262451171876,1.8338950872421265,1.022632122039795,-1.2021102905273438
1748142889434523100,8.057523193359375,1.5822054147720337,-2.6530323028564453,-1.110262393951416
1748142889452790300,8.075790283203125,1.9290962219238281,-4.25794792175293,-2.4119045734405518
1748142889471057700,8.0940576171875,2.272334575653076,-2.736996650695801,-2.038820266723633
1748142889489320400,8.112320556640626,-0.9238189458847046,-0.06989097595214844,1.529597282409668
1748142889507586300,8.13058642578125,-5.411110877990723,1.1801724433898926,2.3951544761657715
1748142889525849300,8.148849365234375,-4.409053325653076,1.6808719635009766,2.1314549446105957
1748142889544115000,8.167114990234374,-1.4122333526611328,1.5960040092468262,2.540635585784912
1748142889562378500,8.18537841796875,0.5425427556037903,1.8380827903747559,2.7277543544769287
1748142889580643000,8.20364306640625,-0.21661752462387085,1.6625728607177734,2.499249219894409
1748142889598900500,8.221900390625,-1.2311797142028809,1.8327159881591797,2.0963470935821533
1748142889617168600,8.240168701171875,-0.9771726727485657,2.060464382171631,1.6902692317962646
1748142889635432200,8.25843212890625,-0.6658689379692078,1.7284531593322754,1.4337596893310547
1748142889653702100,8.2767021484375,-1.1681054830551147,0.8692054748535156,0.906975507736206
1748142889671965200,8.294965087890626,-2.094128131866455,0.2117300033569336,0.31713318824768066
1748142889690226400,8.313226318359375,-3.011463165283203,-0.08208179473876953,0.025709152221679688
1748142889708494300,8.331494384765625,-3.561582088470459,-0.38870716094970703,0.2640397548675537
1748142889726760200,8.34976025390625,-3.5896501541137695,-0.6691579818725586,1.2745933532714844
1748142889745023700,8.368023681640626,-2.863878011703491,-0.7898731231689453,3.3857760429382324
1748142889763289300,8.386289306640625,-1.6991420984268188,0.14508628845214844,3.9113423824310303
1748142889781553000,8.404552978515625,-0.12392210960388184,1.6531262397766113,3.639662981033325
1748142889799818000,8.42281787109375,0.32107698917388916,1.2148542404174805,3.9747397899627686
1748142889818081800,8.441081787109376,-2.8040664196014404,-0.9409370422363281,4.253390789031982
1748142889836347400,8.459347412109375,-7.311878204345703,-3.626943588256836,6.731508255004883
1748142889854610000,8.47760986328125,-6.778811931610107,-4.563994407653809,6.469252586364746
1748142889872877000,8.495876953125,-3.8501319885253906,-3.6871042251586914,2.7004311084747314
1748142889891139600,8.5141396484375,-0.7355733513832092,-2.2937660217285156,0.7721011638641357
1748142889909405200,8.5324052734375,-1.231264591217041,-1.9425544738769531,-1.1116340160369873
1748142889927668700,8.550668701171874,-0.31876304745674133,-2.1942834854125977,-1.4193594455718994
1748142889964196400,8.5871962890625,4.968147277832031,-1.1070594787597656,-1.0348176956176758
1748142889982464500,8.605464599609375,2.52909779548645,-2.7514591217041016,-1.4553792476654053
1748142890000726500,8.6237265625,-1.5147793292999268,-2.474574089050293,-0.48969483375549316
1748142890018992400,8.641992431640626,-0.09154319763183594,-1.4805545806884766,-0.3433701992034912
1748142890037256000,8.660255859375,1.450518012046814,-0.7039279937744141,-0.2618837356567383
1748142890055529500,8.678529541015624,2.0982189178466797,-0.0874795913696289,-0.690932035446167
1748142890073784300,8.696784423828126,2.910594940185547,-0.05808448791503906,-1.9017606973648071
1748142890092050700,8.71505078125,4.678260803222656,-0.09084892272949219,-2.1606898307800293
1748142890110299400,8.73329931640625,5.484120845794678,0.7403311729431152,-1.949021577835083
1748142890128579600,8.75157958984375,5.299829483032227,1.959078311920166,-1.0740468502044678
1748142890146842400,8.76984228515625,4.020923614501953,2.5291714668273926,-0.6695542335510254
1748142890165108200,8.788108154296875,3.2051010131835938,2.8689422607421875,-0.992790699005127
1748142890183371800,8.806371826171874,3.5656919479370117,3.3150229454040527,-2.7602267265319824
1748142890201636400,8.82463623046875,3.891192674636841,4.309859275817871,-4.14738130569458
1748142890219900400,8.842900390625,3.465332508087158,5.047389030456543,-4.669991970062256
1748142890238163700,8.861163818359374,2.0676801204681396,4.9544572830200195,-4.738278388977051
1748142890256429600,8.8794296875,-0.17038941383361816,4.1522536277771,-4.585906028747559
1748142890274696000,8.897696044921876,-2.830383539199829,2.1236743927001953,-2.1492905616760254
1748142890292958700,8.915958740234375,-3.633869171142578,-1.6399641036987305,4.510802745819092
1748142890311225600,8.9342255859375,-18.301898956298828,-8.613812446594238,12.908029556274414
1748142890329488000,8.95248779296875,-13.123231887817383,-10.761495590209961,12.197490692138672
1748142890347753700,8.970753662109376,-8.725395202636719,-1.0920734405517578,4.597515106201172
1748142890366017000,8.98901708984375,-4.251569747924805,2.268315315246582,-0.8006880283355713
1748142890384283000,9.007282958984375,-0.9954955577850342,-2.3295841217041016,-1.3343021869659424
1748142890402546200,9.025546142578126,7.931496620178223,-8.598129272460938,0.4573092460632324
1748142890420810500,9.043810546875,10.611437797546387,-11.657158851623535,0.00783848762512207
1748142890439076400,9.062076416015625,7.7316741943359375,-5.058825492858887,-1.4870414733886719
1748142890457336000,9.080336181640625,5.091782569885254,1.3032469749450684,-3.041085720062256
1748142890475603000,9.09860302734375,4.387668132781982,4.823104381561279,-4.071590900421143
1748142890493871000,9.11687109375,3.8849339485168457,6.645590782165527,-4.334926128387451
1748142890512133400,9.13513330078125,2.7635812759399414,6.735543251037598,-2.9124183654785156
1748142890530399000,9.15339892578125,1.8467400074005127,4.189473628997803,-1.6110177040100098
1748142890548662500,9.17166259765625,1.6917235851287842,-0.1766366958618164,-0.7334706783294678
1748142890566927600,9.189927734375,1.926820993423462,-4.337775230407715,-0.680718183517456
1748142890585186600,9.2081865234375,3.61195707321167,-5.268571853637695,-2.306821823120117
1748142890603456800,9.226456787109376,-2.654214859008789,-1.6945829391479492,-0.7004399299621582
1748142890621720300,9.24472021484375,-9.509598731994629,0.7477254867553711,0.7197887897491455
1748142890639986000,9.26298583984375,-6.123813629150391,2.3026585578918457,1.0929787158966064
1748142890658249200,9.281249267578126,-1.1491087675094604,2.153665542602539,2.1258933544158936
1748142890676515000,9.29951513671875,0.10155625641345978,1.4661846160888672,2.301990509033203
1748142890694778400,9.3177783203125,-0.4873505234718323,1.1989021301269531,2.273984909057617
1748142890713043700,9.336043701171874,-0.6807209253311157,1.4697933197021484,2.1291003227233887
1748142890731306200,9.35430615234375,-0.061172544956207275,1.8288230895996094,2.0829684734344482
1748142890749574400,9.372574462890626,0.16626489162445068,1.870729923248291,1.2692770957946777
1748142890767836400,9.39083642578125,-0.057946622371673584,1.7570161819458008,0.6966753005981445
1748142890786102300,9.409102294921874,-0.019155383110046387,1.1284255981445312,0.532855749130249
1748142890804360700,9.427360595703124,-1.202013611793518,0.40650367736816406,0.43810296058654785
1748142890822630000,9.4456298828125,-3.7067031860351562,0.23732662200927734,0.6438887119293213
1748142890840894500,9.46389453125,-5.257874488830566,-0.009769439697265625,1.405663251876831
1748142890859163400,9.482163330078125,-2.9430041313171387,-0.5151042938232422,3.373603105545044
1748142890877426000,9.500426025390626,-0.0574876070022583,0.010560989379882812,4.52540922164917
1748142890895689200,9.518689208984375,0.8659454584121704,0.19753551483154297,5.308080673217773
1748142890913952800,9.536952880859374,-0.22046446800231934,-1.5422496795654297,7.321148872375488
1748142890932224500,9.555224609375,-4.209300994873047,-3.7249603271484375,8.79468822479248
1748142890950482700,9.573482666015625,-4.927191734313965,-4.854748725891113,6.932929039001465
1748142890968742400,9.591742431640625,-3.56050968170166,-5.744280815124512,3.2873547077178955
1748142890987009300,9.61000927734375,-2.045501708984375,-5.167417526245117,-1.828041911125183
1748142891005277200,9.628277099609376,-1.6971166133880615,-5.042123794555664,-2.6363108158111572
1748142891023540000,9.6465400390625,-0.45188069343566895,-4.770673751831055,-3.6086409091949463
1748142891041805300,9.664805419921874,1.9800151586532593,-3.5724029541015625,-4.390082836151123
1748142891060071200,9.6830712890625,3.2453579902648926,-1.6694307327270508,-5.120703220367432
1748142891078337300,9.701337158203126,3.7211079597473145,0.8596758842468262,-4.394166946411133
1748142891096597000,9.719596923828124,4.02763032913208,2.3979859352111816,-2.9937591552734375
1748142891114864000,9.737864013671874,4.66187858581543,2.7576889991760254,-1.7000179290771484
1748142891133127000,9.756126953125,5.676539421081543,1.8700203895568848,-0.5679843425750732
1748142891151396900,9.77439697265625,5.45810604095459,0.7334661483764648,-0.5927200317382812
1748142891169656000,9.792656005859374,4.401050567626953,0.4407033920288086,1.0942883491516113
1748142891187910400,9.810910400390625,0.32971620559692383,1.051048755645752,4.209352016448975
1748142891206180000,9.82918017578125,-1.996500015258789,0.9104557037353516,4.973879337310791
1748142891224450300,9.8474501953125,0.9459726810455322,0.3115239143371582,2.687749147415161
1748142891242713900,9.8657138671875,3.8020684719085693,0.37262392044067383,-0.6387853622436523
1748142891260977700,9.883977783203125,4.177123069763184,1.405970573425293,-3.5672035217285156
1748142891279244000,9.902244140625,4.31715202331543,2.7463555335998535,-4.920225143432617
1748142891297508400,9.92050830078125,4.590821743011475,3.3510780334472656,-5.398613929748535
1748142891315767000,9.93876708984375,3.827772378921509,3.447551727294922,-5.4463324546813965
1748142891334036000,9.957035888671875,2.222893238067627,3.550034523010254,-5.251903533935547
1748142891352302300,9.97530224609375,0.6174979209899902,3.9614920616149902,-4.662137985229492
1748142891370566100,9.993566162109374,-0.8853914737701416,3.421395778656006,-3.902344226837158
1748142891388830000,10.011829833984375,-1.985358715057373,0.7828493118286133,-2.228632926940918
1748142891407095300,10.03009521484375,-2.2857792377471924,-3.5610179901123047,2.1525864601135254
1748142891425354800,10.048354736328125,-5.392796516418457,-7.857436180114746,8.102899551391602
1748142891443623200,10.066623046875,-20.68507957458496,-11.449238777160645,15.602581977844238
1748142891461889000,10.084888916015625,-15.138155937194824,-4.648083686828613,12.115853309631348
1748142891480156000,10.103156005859375,-7.901045322418213,1.3848185539245605,3.3573532104492188
1748142891498417400,10.12141748046875,2.108840227127075,2.47503662109375,1.2291655540466309
1748142891516682500,10.1396826171875,12.115406036376953,-2.9914932250976562,-2.474123001098633
1748142891534946300,10.1579462890625,8.951216697692871,-6.397974014282227,-2.696479320526123
1748142891553207600,10.17620751953125,6.326544284820557,-3.9243831634521484,-1.5795412063598633
1748142891571470000,10.194469970703125,4.214378833770752,0.01590728759765625,-3.1857540607452393
1748142891589739500,10.212739501953125,3.5319933891296387,2.698850154876709,-4.095607757568359
1748142891608005000,10.231005126953125,2.785031318664551,4.384013652801514,-4.293400764465332
1748142891626270000,10.24927001953125,2.148824453353882,4.1377272605896,-4.498457908630371
1748142891644533200,10.267533203125,1.819350004196167,1.3559727668762207,-4.073466777801514
1748142891662798800,10.285798828125,1.545841932296753,-2.0210437774658203,-3.016676425933838
1748142891681062100,10.304062255859375,-0.7593446969985962,-3.7050046920776367,-2.1931800842285156
1748142891699327700,10.32232763671875,-5.064108848571777,-2.3190231323242188,0.17656183242797852
1748142891717592300,10.34059228515625,-5.012075424194336,-0.14081478118896484,0.8951809406280518
1748142891735856000,10.358856201171875,-1.8968894481658936,1.1904911994934082,0.7709536552429199
1748142891754120400,10.377120361328124,0.37972670793533325,1.4209480285644531,0.22040319442749023
1748142891772385800,10.3953857421875,1.0513226985931396,1.1624064445495605,0.0049285888671875
1748142891790648300,10.4136484375,0.8566900491714478,1.160606861114502,0.6714420318603516
1748142891808916000,10.431916015625,0.3504345417022705,1.2615442276000977,1.2095413208007812
1748142891827174000,10.450173828125,-0.5292879343032837,1.5029067993164062,1.6720564365386963
1748142891845438700,10.468438720703125,-1.300561785697937,1.6185526847839355,1.9817473888397217
1748142891863698200,10.4866982421875,-1.6442220211029053,1.2958645820617676,1.7640483379364014
1748142891881973200,10.50497314453125,-1.738558292388916,0.7793569564819336,1.0790612697601318
1748142891900236300,10.523236328125,-1.9907755851745605,0.14331436157226562,0.24410080909729004
1748142891918502000,10.541501953125,-2.653433322906494,-0.6735897064208984,-0.3108072280883789
1748142891936765400,10.559765380859375,-3.8894670009613037,-0.9967441558837891,0.08885622024536133
1748142891955031300,10.57803125,-4.468512535095215,-0.5547714233398438,1.235534906387329
1748142891973291500,10.59629150390625,-3.6937451362609863,-0.4053812026977539,3.4892313480377197
1748142891991563300,10.614563232421874,-2.503537654876709,0.2791929244995117,4.378752708435059
1748142892009820700,10.632820556640626,-1.4493584632873535,1.1823387145996094,3.86556339263916
1748142892028092400,10.651092529296875,-1.815818428993225,0.1420764923095703,4.023903846740723
1748142892046352600,10.6693525390625,-3.9170784950256348,-2.845919609069824,4.664709091186523
1748142892064605200,10.687605224609374,-5.466813564300537,-5.266219139099121,6.149408340454102
1748142892082878000,10.7058779296875,-4.166464328765869,-4.984439849853516,5.883646488189697
1748142892101148000,10.72414794921875,-2.5071353912353516,-2.67067813873291,3.8778748512268066
1748142892119410700,10.74241064453125,-1.902678370475769,-1.6651058197021484,1.259523868560791
1748142892137676500,10.760676513671875,-1.0457810163497925,-2.837984085083008,0.4773547649383545
1748142892155927800,10.778927734375,1.4325995445251465,-4.441768646240234,-1.2299399375915527
1748142892174201000,10.797201171875,2.956068515777588,-4.204897880554199,-1.986503005027771
1748142892192469000,10.815468994140625,3.45131778717041,-2.439244270324707,-2.785098075866699
1748142892210734600,10.833734619140625,3.428539991378784,-0.11229324340820312,-2.8236684799194336
1748142892228985600,10.851985595703125,3.408698558807373,1.3113188743591309,-2.487177848815918
1748142892247263500,10.870263427734375,3.295990467071533,2.0356955528259277,-2.4662892818450928
1748142892265516500,10.8885166015625,3.5403666496276855,1.9300117492675781,-2.094877243041992
1748142892283792600,10.906792724609375,3.301593542098999,1.1717534065246582,-1.4296224117279053
1748142892302055700,10.9250556640625,2.2524726390838623,0.6277670860290527,0.019047260284423828
1748142892320321500,10.943321533203125,0.9365460872650146,0.2610950469970703,1.9227116107940674
1748142892338580200,10.961580322265625,1.0999197959899902,0.01780414581298828,2.697293281555176
1748142892356849400,10.979849365234376,3.3915882110595703,0.11203336715698242,1.363356351852417
1748142892375115000,10.998114990234376,4.424614429473877,0.7832479476928711,-2.472846031188965
1748142892393379600,11.016379638671875,4.06107759475708,1.8287172317504883,-4.769770622253418
1748142892411641900,11.034641845703124,4.038375377655029,2.252938747406006,-5.52211856842041
1748142892429905000,11.05290478515625,4.310378074645996,1.8898096084594727,-5.276337146759033
1748142892448167700,11.071167724609374,4.107730388641357,1.8980169296264648,-4.658891201019287
1748142892466437400,11.089437255859375,3.1559500694274902,2.741847038269043,-4.481640815734863
1748142892484701000,11.107700927734374,2.0041799545288086,3.8027267456054688,-4.854443550109863
1748142892502966800,11.125966796875,1.015170693397522,3.5897393226623535,-5.075172424316406
1748142892521230000,11.14422998046875,-0.9167413711547852,2.152751922607422,-3.665330171585083
1748142892539496000,11.162495849609375,-5.462140083312988,-1.2966909408569336,1.420698642730713
1748142892557759200,11.18075927734375,-19.25459861755371,-7.578311920166016,12.659300804138184
1748142892576024800,11.19902490234375,-12.139581680297852,-11.640907287597656,14.905569076538086
1748142892594287400,11.217287353515625,-11.462553977966309,-5.4157609939575195,11.873575210571289
1748142892612553700,11.2355537109375,-6.426181793212891,0.9122343063354492,5.151820182800293
1748142892630817500,11.253817626953126,2.7037737369537354,0.5941896438598633,3.387568712234497
1748142892649084200,11.272084228515626,10.755716323852539,-4.258964538574219,-2.2067806720733643
1748142892667346400,11.290346435546875,8.792531967163086,-5.198155403137207,-2.7556824684143066
1748142892685606100,11.308606201171875,6.084577560424805,-2.1634302139282227,-2.309920072555542
1748142892703875600,11.32687548828125,4.111254692077637,1.3879985809326172,-3.312736749649048
1748142892722142500,11.345142578125,2.841824531555176,3.8039193153381348,-3.9219160079956055
1748142892740404500,11.363404541015624,2.167752504348755,4.85715913772583,-4.1216840744018555
1748142892758670000,11.381670166015626,1.5436186790466309,3.948857307434082,-3.6282474994659424
1748142892776933600,11.39993359375,0.6876782774925232,0.5856380462646484,-2.512464761734009
1748142892795194600,11.418194580078126,-0.19565962255001068,-2.876582145690918,-1.564561367034912
1748142892813462800,11.436462890625,-3.162672758102417,-4.078484535217285,-1.2123303413391113
1748142892831728400,11.454728271484376,-5.812539577484131,-1.4890689849853516,0.27425146102905273
1748142892849991400,11.472991455078125,-3.667531967163086,-0.005749702453613281,0.43541765213012695
1748142892868257300,11.49125732421875,-0.04894724488258362,0.5810070037841797,-0.11098241806030273
1748142892886520800,11.509520751953126,1.5752309560775757,0.841069221496582,-0.19925332069396973
1748142892904786400,11.527786376953125,1.4591500759124756,1.085777759552002,0.1377873420715332
1748142892923049700,11.5460498046875,1.1832621097564697,1.6685609817504883,0.2845282554626465
1748142892941310500,11.564310546875,0.6755826473236084,2.031984329223633,0.5945146083831787
1748142892959579100,11.5825791015625,-0.4159098267555237,2.2179222106933594,1.4629476070404053
1748142892977844200,11.60084423828125,-1.432602882385254,1.8655219078063965,2.2085816860198975
1748142892996108000,11.61910791015625,-1.4432066679000854,1.3696184158325195,2.471637725830078
1748142893014373600,11.63737353515625,-1.2174725532531738,0.41281795501708984,1.8541266918182373
1748142893032636200,11.65563623046875,-2.1936914920806885,-0.6676311492919922,0.721876859664917
1748142893050903800,11.67390380859375,-5.355019569396973,-1.623556137084961,-0.15703153610229492
1748142893069161500,11.692161376953125,-7.260621070861816,-0.8985366821289062,0.5352747440338135
1748142893087428000,11.710427978515625,-4.365278244018555,-0.6513900756835938,2.662358045578003
1748142893105698800,11.72869873046875,-1.8674662113189697,-0.3996858596801758,4.364004611968994
1748142893123960600,11.746960693359375,-1.3380893468856812,0.8188982009887695,4.610596656799316
1748142893142225400,11.765225341796874,-2.1984920501708984,1.0941123962402344,4.111884117126465
1748142893160489700,11.78348974609375,-4.521598815917969,-1.2305526733398438,3.124739408493042
1748142893178753300,11.801753173828125,-6.969801425933838,-4.554390907287598,3.5873963832855225
1748142893197014000,11.820013916015625,-5.723628997802734,-5.446958541870117,4.309409141540527
1748142893215281200,11.83828125,-3.298548698425293,-3.252865791320801,2.522977352142334
1748142893233549300,11.85654931640625,-1.4854915142059326,-1.2012310028076172,1.2392427921295166
1748142893251811300,11.874811279296875,-1.5239335298538208,-1.6186542510986328,1.557870864868164
1748142893270076400,11.893076416015624,-0.9890966415405273,-3.5850143432617188,0.549046516418457
1748142893288340500,11.911340576171876,1.8917759656906128,-5.926058769226074,-1.2545552253723145
1748142893306592800,11.9295927734375,3.408536434173584,-6.047852516174316,-3.208360195159912
1748142893324870400,11.947870361328125,2.89839243888855,-3.95375919342041,-3.5871312618255615
1748142893343118300,11.966118408203124,2.96655011177063,-0.8047237396240234,-2.5601460933685303
1748142893361398500,11.9843984375,3.148498058319092,1.6895489692687988,-1.856462001800537
1748142893379664100,12.0026640625,3.680479049682617,2.976499557495117,-0.9845764636993408
1748142893397927400,12.020927490234374,4.281198501586914,2.855961799621582,1.1055264472961426
1748142893416188400,12.0391884765625,3.0742180347442627,2.219937324523926,2.7281787395477295
1748142893434456600,12.05745654296875,0.6064865589141846,2.534882068634033,5.088000297546387
1748142893452722200,12.07572216796875,1.0674195289611816,2.224008560180664,4.29929256439209
1748142893470984000,12.09398388671875,4.2682108879089355,0.9900484085083008,-0.11592960357666016
1748142893489252400,12.11225244140625,5.911215782165527,0.4486546516418457,-2.65407657623291
1748142893507514600,12.1305146484375,5.460160732269287,0.6029438972473145,-4.012831687927246
1748142893525780000,12.148780029296875,4.759291648864746,1.759115219116211,-4.220432281494141
1748142893544043800,12.167043701171876,4.29031229019165,2.5544018745422363,-5.463223934173584
1748142893562309000,12.18530908203125,4.207871913909912,2.744462013244629,-5.899256229400635
1748142893580573000,12.203572998046875,3.5595054626464844,3.1626534461975098,-5.014340400695801
1748142893598822000,12.22182177734375,2.6815028190612793,3.6151585578918457,-4.406558513641357
1748142893617099000,12.24009912109375,1.2662630081176758,3.366821765899658,-4.46599817276001
1748142893635366400,12.258366455078125,-2.2087392807006836,1.4219551086425781,-2.7351479530334473
1748142893653629700,12.276629638671874,-6.303229331970215,-1.6687469482421875,2.4901602268218994
1748142893671897000,12.29489697265625,-13.178323745727539,-6.607176780700684,10.219747543334961
1748142893690164500,12.31316455078125,-14.282276153564453,-11.897316932678223,15.77621078491211
1748142893708420600,12.331420654296876,-9.991909980773926,-4.091463088989258,7.929929256439209
1748142893726687700,12.349687744140626,-5.469743728637695,2.921977996826172,2.435809850692749
1748142893744956000,12.367955810546874,-1.3132141828536987,2.8064351081848145,0.5755031108856201
1748142893763225900,12.386225830078125,5.24296236038208,-2.9454593658447266,1.0611019134521484
1748142893781483500,12.4044833984375,9.259803771972656,-7.998967170715332,-0.3977079391479492
1748142893799742000,12.422741943359375,7.646312713623047,-9.196635246276855,-0.7403314113616943
1748142893818012700,12.4410126953125,5.851700782775879,-2.728102684020996,-1.830686092376709
1748142893836276200,12.459276123046875,2.871720790863037,1.8306660652160645,-4.137454032897949
1748142893854541800,12.477541748046875,1.9766826629638672,4.736664295196533,-4.705540657043457
1748142893872805000,12.49580517578125,1.9200210571289062,6.135407447814941,-5.442215919494629
1748142893891071000,12.514071044921875,1.2913862466812134,5.126944065093994,-4.387825012207031
1748142893909334300,12.532334228515625,0.8870669603347778,1.2336077690124512,-2.0668160915374756
1748142893927598800,12.550598876953124,0.7634164094924927,-3.6138153076171875,-1.4820868968963623
1748142893945864200,12.5688642578125,0.26775988936424255,-4.960963249206543,-1.8831214904785156
1748142893964125200,12.587125244140625,-1.7883776426315308,-2.2260026931762695,-1.161818265914917
1748142893982391300,12.605391357421874,-3.945432424545288,0.8204479217529297,0.8085885047912598
1748142894000658000,12.623657958984374,-3.2733373641967773,1.8761935234069824,1.0143773555755615
1748142894018922800,12.6419228515625,-1.4643878936767578,1.891359806060791,1.0915513038635254
1748142894037182500,12.660182373046876,-0.26745209097862244,1.4459443092346191,1.4597649574279785
1748142894055446300,12.6784462890625,-0.12617188692092896,1.0824031829833984,2.2178714275360107
1748142894073715000,12.69671484375,-0.1103658676147461,1.2496461868286133,2.631580352783203
1748142894091980800,12.714980712890625,-0.03766798973083496,1.8653836250305176,2.6795578002929688
1748142894110245000,12.7332451171875,-0.23843783140182495,2.3286843299865723,2.6553754806518555
1748142894128505600,12.751505615234375,-0.6957911252975464,2.4138059616088867,2.468449354171753
1748142894146777000,12.769777099609374,-0.8597460985183716,1.838953971862793,2.184540271759033
1748142894165037600,12.78803759765625,-1.5521118640899658,0.4198894500732422,1.3772525787353516
1748142894183303400,12.806303466796875,-2.907836437225342,-0.9031658172607422,0.8810315132141113
1748142894201566500,12.82456640625,-5.255877494812012,-1.6837263107299805,0.9625492095947266
1748142894219832300,12.842832275390625,-5.54484748840332,-0.8722057342529297,2.9746413230895996
1748142894238094800,12.8610947265625,-2.824162721633911,0.4895486831665039,4.440317153930664
1748142894256362500,12.879362548828125,-0.9526920318603516,1.5224580764770508,4.948596000671387
1748142894274613500,12.897613525390625,-0.629693865776062,1.4145102500915527,5.435375213623047
1748142894292893400,12.9158935546875,-1.2105128765106201,-0.7094860076904297,6.883401870727539
1748142894311149300,12.9341494140625,-3.9674367904663086,-4.717024803161621,8.778361320495605
1748142894329419800,12.952419677734374,-5.700128078460693,-6.476806640625,7.378582954406738
1748142894347682800,12.970682861328125,-3.5827417373657227,-4.307260513305664,3.028371810913086
1748142894365948400,12.988948486328125,-1.448148250579834,-2.782822608947754,-0.06438851356506348
1748142894384199700,13.00719970703125,-0.9378165006637573,-3.432039260864258,-1.6575385332107544
1748142894402477600,13.0254775390625,0.2431582808494568,-4.240234375,-2.352983236312866
1748142894420729900,13.043729736328125,2.0039920806884766,-3.864450454711914,-3.041486978530884
1748142894439006500,13.06200634765625,2.031519651412964,-1.9103021621704102,-4.46347713470459
1748142894457269800,13.080269775390626,2.0337862968444824,0.8145303726196289,-4.1668524742126465
1748142894475537700,13.09853759765625,2.2926833629608154,1.948988914489746,-3.1367669105529785
1748142894493799000,13.116798828125,3.0193588733673096,1.95619535446167,-1.9950287342071533
1748142894512064800,13.135064697265625,4.3651580810546875,1.1580710411071777,-0.8431518077850342
1748142894530327800,13.153327880859376,4.0009965896606445,0.40372562408447266,-0.38773488998413086
1748142894548595200,13.17159521484375,3.3739683628082275,0.5487513542175293,0.7784576416015625
1748142894566851000,13.18985107421875,0.5115530490875244,0.9339747428894043,3.0063636302948
1748142894585122000,13.2081220703125,-0.8975632190704346,1.093292236328125,3.7488303184509277
1748142894603387100,13.22638720703125,2.6156420707702637,0.45709896087646484,1.7997653484344482
1748142894621651200,13.244651123046875,4.174008369445801,0.46454620361328125,-1.1204566955566406
1748142894639916300,13.262916259765625,3.5910863876342773,1.124189853668213,-3.5084595680236816
1748142894658176300,13.28117626953125,3.5385029315948486,2.2170495986938477,-4.649921894073486
1748142894676444400,13.2994443359375,3.3653981685638428,3.2278380393981934,-5.43654203414917
1748142894694710300,13.317710205078125,2.830514907836914,3.6523337364196777,-5.328028678894043
1748142894712973600,13.3359736328125,2.2495384216308594,3.2188196182250977,-4.8768815994262695
1748142894731239400,13.354239501953124,1.526523232460022,2.320590019226074,-4.291806697845459
1748142894749502700,13.372502685546875,0.3424091339111328,1.6456084251403809,-3.40519118309021
1748142894767768300,13.390768310546875,-1.776867389678955,1.0208377838134766,-2.2319984436035156
1748142894786031900,13.409031982421874,-5.609498500823975,-0.30092906951904297,1.8875977993011475
1748142894804297500,13.42729736328125,-7.757094860076904,-2.404538154602051,8.782158851623535
1748142894822556000,13.445555908203126,-10.449234962463379,-5.989738464355469,14.178038597106934
1748142894840825300,13.463825439453124,-8.408584594726562,-4.779815673828125,9.141853332519531
1748142894859088600,13.482088623046875,-6.798297882080078,-3.5820178985595703,4.695247650146484
1748142894877357800,13.50035791015625,-4.377321243286133,-5.511975288391113,1.2194547653198242
1748142894895617800,13.51861767578125,1.7911728620529175,-4.579804420471191,-0.7451314926147461
1748142894913885400,13.536885498046875,6.077223777770996,-5.116430282592773,-2.3986802101135254
1748142894932148500,13.5551484375,6.743786811828613,-3.834796905517578,-3.9380204677581787
1748142894950413600,13.57341357421875,5.912928581237793,0.18169021606445312,-5.8162384033203125
1748142894968677000,13.591677001953125,4.271810054779053,3.720242500305176,-5.8814263343811035
1748142894986942700,13.609942626953124,2.7871155738830566,5.71236515045166,-5.168843746185303
1748142895005202000,13.628201904296875,1.8660403490066528,5.98344612121582,-3.9098997116088867
1748142895023471900,13.646471923828125,1.419399380683899,3.0507025718688965,-2.593717098236084
1748142895041735200,13.664735107421874,1.8304102420806885,-0.53094482421875,-0.7539920806884766
1748142895060000800,13.683000732421876,2.355182647705078,-3.3149166107177734,-0.0027632713317871094
1748142895078259500,13.701259521484374,3.4860525131225586,-3.163649559020996,-0.4771885871887207
1748142895096529000,13.71952880859375,2.66691517829895,-0.9115171432495117,1.3013272285461426
1748142895114794500,13.73779443359375,-1.2020719051361084,0.12561702728271484,2.014695882797241
1748142895133058800,13.756058837890626,-7.329808712005615,1.0605363845825195,2.553439140319824
1748142895151322400,13.774322265625,-5.947819709777832,1.4739007949829102,2.4208083152770996
1748142895169583400,13.792583251953126,-1.5300507545471191,1.0917463302612305,2.252108335494995
1748142895187851000,13.81085107421875,-0.662972629070282,0.8044319152832031,1.37568998336792
1748142895206116900,13.829116943359375,-0.5721908807754517,0.8937845230102539,1.142651081085205
1748142895224380400,13.84738037109375,0.10417604446411133,1.1954565048217773,1.147740125656128
1748142895242642700,13.865642578125,0.18904900550842285,1.698735237121582,1.6562094688415527
1748142895260912400,13.883912353515624,-0.4431743025779724,1.919762134552002,1.9594829082489014
1748142895279171000,13.902171142578124,-1.2297749519348145,1.7515106201171875,2.0583579540252686
1748142895297438700,13.920438720703125,-2.2586894035339355,0.9540567398071289,1.542618989944458
1748142895315704000,13.9387041015625,-3.4294800758361816,0.44724559783935547,1.2895383834838867
1748142895333967600,13.956967529296875,-3.697899341583252,0.5403432846069336,2.287992238998413
1748142895352232200,13.975232177734375,-3.1150693893432617,0.77886962890625,3.5250084400177
1748142895370497500,13.99349755859375,-2.137218952178955,0.3199138641357422,4.786202430725098
1748142895388762400,14.011762451171874,-1.6024751663208008,-0.13752079010009766,4.655991554260254
1748142895407026000,14.03002587890625,-0.9224088191986084,1.46461820602417,3.3266167640686035
1748142895425286700,14.04828662109375,-2.3786656856536865,0.0044689178466796875,2.294018030166626
1748142895443555000,14.06655517578125,-6.564896106719971,-3.9015703201293945,1.968773603439331
1748142895461808000,14.08480810546875,-6.737774848937988,-6.529786109924316,4.229884147644043
1748142895480083700,14.103083740234375,-3.6512348651885986,-5.270801544189453,6.266556739807129
1748142895498331100,14.1213310546875,-1.0726004838943481,-1.9863405227661133,5.6026482582092285
1748142895516611600,14.139611572265625,-1.5531041622161865,-0.4040384292602539,2.9261093139648438
1748142895534879700,14.157879638671876,-2.0393006801605225,-0.7395114898681641,0.9715995788574219
1748142895553142500,14.176142578125,-0.7243359684944153,-2.314669609069824,-0.03306269645690918
1748142895571407600,14.19440771484375,1.5209510326385498,-3.565553665161133,-0.8391513824462891
1748142895589671200,14.212671142578126,1.858612060546875,-3.8144702911376953,-1.7953532934188843
1748142895607935200,14.230935302734375,1.5243330001831055,-2.7281675338745117,-2.1737942695617676
1748142895626197000,14.249197021484376,1.8070380687713623,-0.5403337478637695,-2.638483762741089
1748142895644465700,14.267465576171874,2.773432970046997,1.35089111328125,-2.0457863807678223
1748142895662729500,14.2857294921875,3.6470584869384766,2.464677333831787,-1.1918518543243408
1748142895680989000,14.303989013671876,4.309691429138184,2.35048770904541,-0.35428643226623535
1748142895699259100,14.322259033203125,4.770449638366699,1.3253273963928223,-0.1993720531463623
1748142895717523700,14.340523681640626,3.3182928562164307,0.7262177467346191,0.4965035915374756
1748142895735787500,14.35878759765625,0.383159875869751,0.0009412765502929688,2.0340588092803955
1748142895754053000,14.37705322265625,0.06942343711853027,-0.522150993347168,1.538766622543335
1748142895772316200,14.395316162109374,3.34447979927063,-0.1477222442626953,-0.07382893562316895
1748142895790582300,14.413582275390626,5.45887565612793,0.7433018684387207,-1.589857578277588
1748142895808845300,14.43184521484375,4.575341701507568,2.0849733352661133,-3.304985284805298
1748142895827111200,14.450111083984375,3.934913396835327,3.2456212043762207,-4.256394863128662
1748142895845370600,14.46837060546875,3.6782097816467285,3.5625486373901367,-5.14302396774292
1748142895863626800,14.486626708984375,2.967905282974243,3.343555450439453,-5.499636650085449
1748142895881905000,14.50490478515625,2.1128909587860107,2.92240571975708,-5.940316200256348
1748142895900164600,14.52316455078125,0.3206658363342285,3.110072135925293,-6.023552417755127
1748142895918432800,14.541432861328126,-1.639936923980713,2.705117702484131,-4.3452653884887695
1748142895936693800,14.55969384765625,-2.041015625,1.1706891059875488,-0.7727828025817871
1748142895954960600,14.577960693359374,-3.561765432357788,-3.2973270416259766,4.232564926147461
1748142895973228800,14.596228759765625,-19.26469612121582,-8.88003921508789,11.218975067138672
1748142895991490800,14.61449072265625,-11.108784675598145,-6.928065299987793,12.841038703918457
1748142896009756700,14.632756591796875,-8.806432723999023,-0.4215221405029297,7.634547233581543
1748142896028019700,14.651019775390624,-4.865218639373779,0.8661870956420898,3.9036593437194824
1748142896046285600,14.66928564453125,3.9148945808410645,-2.0702152252197266,2.75644850730896
1748142896064541400,14.68754150390625,8.322484970092773,-6.798967361450195,0.3971390724182129
1748142896082814700,14.705814697265625,7.198909759521484,-9.839731216430664,-1.80159592628479
1748142896101078000,14.724078125,4.7036871910095215,-5.545928955078125,-2.267326593399048
1748142896119343900,14.74234375,3.2776389122009277,0.39479637145996094,-3.9503512382507324
1748142896137606000,14.76060595703125,2.628962278366089,4.1508965492248535,-5.297423362731934
1748142896155874000,14.7788740234375,2.1163253784179688,6.263948440551758,-6.0915703773498535
1748142896174136300,14.79713623046875,1.4434432983398438,6.40358829498291,-5.624485969543457
1748142896192397300,14.815397216796875,0.7818200588226318,3.045750141143799,-3.337552309036255
1748142896210664000,14.833663818359375,0.6354310512542725,-1.5164422988891602,-1.791456699371338
1748142896228932000,14.85193212890625,0.9933716058731079,-3.925130844116211,-1.5940673351287842
1748142896247189800,14.870189697265625,0.7273759841918945,-2.9098596572875977,-1.5541343688964844
1748142896265455900,14.888455810546875,-0.6321268081665039,-1.1454877853393555,-0.344834566116333
1748142896283720400,14.906720458984376,-3.0029921531677246,0.4505033493041992,1.7651877403259277
1748142896301992400,14.924992431640625,-4.68519401550293,1.312363624572754,2.216994285583496
1748142896320251600,14.943251708984375,-3.359149932861328,1.6633753776550293,2.0868008136749268
1748142896338518800,14.961518798828125,-1.5267890691757202,1.373302936553955,2.6054744720458984
1748142896356781300,14.97978125,-0.8561729788780212,1.1042537689208984,2.3786721229553223
1748142896375047400,14.99804736328125,-0.4807942509651184,1.6597504615783691,1.619103193283081
1748142896393310500,15.016310546875,-0.19819188117980957,2.1868386268615723,1.7450602054595947
1748142896411576300,15.034576416015625,-0.6228002309799194,1.8102807998657227,2.0686888694763184
1748142896429839400,15.05283935546875,-0.6538866758346558,0.7964105606079102,2.2197070121765137
1748142896448100400,15.071100341796875,-0.7939649820327759,-0.2379913330078125,2.0464730262756348
1748142896466367200,15.0893671875,-1.3975050449371338,-0.6097803115844727,1.3149731159210205
1748142896484634600,15.107634521484375,-4.826985836029053,-0.8871250152587891,0.38573217391967773
1748142896502898700,15.125898681640624,-8.738146781921387,-0.7703256607055664,0.4113900661468506
1748142896521162200,15.144162353515625,-5.404940128326416,-0.5536270141601562,3.2367167472839355
1748142896539415800,15.162415771484374,-1.9239085912704468,-0.10935211181640625,5.27084493637085
1748142896557692400,15.1806923828125,-0.674054741859436,1.1669950485229492,4.8098835945129395
1748142896575955700,15.198955810546876,-0.963314414024353,1.9397292137145996,4.42475700378418
1748142896594225700,15.2172255859375,-3.26584792137146,-0.6261444091796875,5.798627853393555
1748142896612484600,15.235484619140625,-7.170483589172363,-4.848730087280273,7.2909770011901855
1748142896630750700,15.253750732421874,-5.547821044921875,-5.055098533630371,6.872841835021973
1748142896649014000,15.272013916015625,-1.764922857284546,-2.320362091064453,3.683156967163086
1748142896667279600,15.290279541015625,-1.3081704378128052,-2.185990333557129,0.24062561988830566
1748142896685538300,15.308538330078125,-1.760340929031372,-4.041640281677246,-0.3486154079437256
1748142896703808800,15.326808837890624,0.6979048252105713,-5.898795127868652,-1.030848503112793
1748142896722071000,15.345071044921875,2.616776704788208,-5.541408538818359,-1.8071495294570923
1748142896740338700,15.363338623046875,2.833946466445923,-3.75991153717041,-2.7931628227233887
1748142896758600200,15.38160009765625,2.2986083030700684,-0.5562887191772461,-2.287470817565918
1748142896776868000,15.3998681640625,1.4932961463928223,1.9175386428833008,-0.99739670753479
1748142896795130000,15.418130126953125,2.2664427757263184,2.7333450317382812,-0.6977965831756592
1748142896813396000,15.43639599609375,3.9350571632385254,2.6170120239257812,-0.12265872955322266
1748142896831659300,15.4546591796875,4.85627555847168,2.105935573577881,0.5270624160766602
1748142896849924900,15.4729248046875,3.281285285949707,1.4632225036621094,2.7658722400665283
1748142896868183800,15.491183837890626,-1.0530998706817627,0.43711376190185547,5.098153114318848
1748142896886454300,15.509454345703125,2.2873809337615967,-0.33582496643066406,0.7702419757843018
1748142896904717600,15.527717529296876,5.75453519821167,-0.4234285354614258,-1.406496524810791
1748142896922983400,15.5459833984375,5.570843696594238,-0.052242279052734375,-2.8790769577026367
1748142896941246700,15.564246826171875,4.4858551025390625,0.9200549125671387,-3.6512842178344727
1748142896959512300,15.58251220703125,4.319569110870361,2.116607666015625,-4.838562965393066
1748142896977774600,15.600774658203125,4.274637699127197,3.2331809997558594,-6.3004069328308105
1748142896996042800,15.619042724609375,3.936506509780884,4.115015983581543,-6.434967994689941
1748142897014305000,15.637304931640625,3.225850820541382,4.605018615722656,-6.089706897735596
1748142897032570600,15.655570556640624,2.241758346557617,4.659350395202637,-6.194979667663574
1748142897050828000,15.673828125,0.6598420143127441,2.9829301834106445,-6.085422039031982
1748142897069099000,15.69209912109375,-1.0556650161743164,-0.9896659851074219,-2.1136550903320312
1748142897087364400,15.7103642578125,-2.528019666671753,-4.726077079772949,6.086180686950684
1748142897105628000,15.7286279296875,-29.54830551147461,-12.057661056518555,15.666437149047852
1748142897123893200,15.746893310546875,-10.086220741271973,-8.964524269104004,14.490779876708984
1748142897142161200,15.7651611328125,-5.753220081329346,0.3803682327270508,8.039154052734375
1748142897160420600,15.783420654296876,-4.425918102264404,2.9713058471679688,3.041471004486084
1748142897178686700,15.801686767578126,0.5617412328720093,-1.4604988098144531,2.1330273151397705
1748142897196950300,15.8199501953125,6.348782539367676,-5.669197082519531,1.169571876525879
1748142897215211800,15.838211669921876,7.731783866882324,-8.69320297241211,-0.8711576461791992
1748142897233479400,15.8564794921875,6.4292192459106445,-5.59100341796875,-2.102574110031128
1748142897251745000,15.8747451171875,4.947070121765137,0.1560068130493164,-4.329970836639404
1748142897270007800,15.8930078125,3.389958381652832,4.044918060302734,-5.592042446136475
1748142897288274200,15.911274169921874,2.6208767890930176,6.056039810180664,-6.432758331298828
1748142897306532600,15.92953271484375,1.766364574432373,6.165299892425537,-6.161933898925781
1748142897324802000,15.947802001953125,0.6412425637245178,3.017886161804199,-3.4964964389801025
1748142897343067600,15.966067626953125,0.29221031069755554,-1.4725675582885742,-1.7884595394134521
1748142897361332200,15.984332275390624,-0.14884606003761292,-4.959763526916504,-1.5238420963287354
1748142897379595800,16.002595703125,-0.9680122137069702,-3.5803842544555664,-1.4122345447540283
1748142897397857000,16.02085693359375,-2.2025418281555176,-0.9027557373046875,-0.41169261932373047
1748142897416129000,16.03912890625,-2.550821304321289,1.0901603698730469,1.796593189239502
1748142897434390500,16.057390625,-2.2929091453552246,1.6990361213684082,1.895850419998169
1748142897452655000,16.075655029296875,-1.8506019115447998,1.708716869354248,1.5230762958526611
1748142897470929400,16.093929443359375,-0.9479091167449951,1.3612689971923828,2.5165774822235107
1748142897489181000,16.112180908203126,-0.795661449432373,0.8883790969848633,3.0738723278045654
1748142897507448600,16.130448486328124,-0.8245360851287842,1.1182613372802734,2.861377239227295
1748142897525712000,16.1487119140625,-0.6981106996536255,1.6327385902404785,2.423086404800415
1748142897543977500,16.1669775390625,-0.6228693723678589,1.7161297798156738,2.215540647506714
1748142897562236200,16.185236083984375,-0.7218806147575378,0.696563720703125,1.8942956924438477
1748142897580505300,16.20350537109375,-1.1954033374786377,-0.30176258087158203,0.837867021560669
1748142897598771700,16.221771728515623,-3.3774564266204834,-1.3893823623657227,-0.20394659042358398
1748142897617035500,16.240035400390624,-7.561809062957764,-1.1353883743286133,0.3531308174133301
1748142897635299000,16.258299072265626,-6.636468410491943,0.38770389556884766,3.3346543312072754
1748142897653564400,16.276564453125,-2.153628349304199,0.5546159744262695,6.291306018829346
1748142897671828000,16.294827880859376,-0.6842331886291504,0.8308935165405273,6.88486909866333
1748142897690093600,16.313093505859374,-1.5316534042358398,2.1119484901428223,5.036704063415527
1748142897708357400,16.331357421875,-4.481057167053223,1.743678092956543,5.152202606201172
1748142897726621400,16.349621337890625,-8.39799976348877,-1.5560321807861328,5.127801895141602
1748142897744887800,16.3678876953125,-6.674271583557129,-3.4254159927368164,6.2700066566467285
1748142897763152400,16.38615234375,-1.5921847820281982,-1.748753547668457,6.071244239807129
1748142897781415400,16.40441552734375,0.08259034156799316,-0.018526077270507812,3.7682549953460693
1748142897799681000,16.422680908203127,-1.6725022792816162,-1.0140914916992188,2.063048839569092
1748142897817939700,16.440939697265627,-2.0641300678253174,-3.9864940643310547,1.083984613418579
1748142897836204500,16.45920458984375,1.2110743522644043,-5.832141876220703,0.5298693180084229
1748142897854475000,16.47747509765625,1.5272135734558105,-8.404001235961914,-1.474185824394226
1748142897872739000,16.495739013671876,1.3946964740753174,-8.32357406616211,-4.18884801864624
1748142897891001600,16.514001708984374,2.703387975692749,-3.6141271591186523,-3.2280807495117188
1748142897909264600,16.5322646484375,4.3880462646484375,-0.4236764907836914,-2.66829252243042
1748142897927531800,16.55053173828125,5.405016899108887,1.9849085807800293,-1.9738508462905884
1748142897945797600,16.568797607421875,6.014451503753662,2.923774242401123,-1.0849664211273193
1748142897964057300,16.587057373046875,3.725109100341797,3.162034034729004,1.1130356788635254
1748142897982326500,16.605326416015625,-2.9279263019561768,2.4567575454711914,4.6153764724731445
1748142898000590600,16.623590576171875,-0.33223772048950195,1.0460095405578613,3.7272982597351074
1748142898018854700,16.641854736328124,4.167701721191406,-0.11578941345214844,-0.4595630168914795
1748142898037119000,16.660118896484374,5.779292583465576,-0.4206380844116211,-2.8658952713012695
1748142898055380000,16.6783798828125,5.98060417175293,0.10452508926391602,-3.832263231277466
1748142898073647000,16.696647216796876,5.625306606292725,1.4462919235229492,-4.2624640464782715
1748142898091913500,16.71491357421875,5.116845607757568,2.869248390197754,-5.197278022766113
1748142898110173700,16.733173583984374,4.6965012550354,3.788325786590576,-6.154180526733398
1748142898128443000,16.75144287109375,4.2368083000183105,4.451254844665527,-6.162851333618164
1748142898146706400,16.76970654296875,3.356659412384033,4.475506782531738,-5.909736156463623
1748142898164971500,16.787971435546876,2.2611522674560547,3.618868350982666,-6.0228190422058105
1748142898183235600,16.806235595703125,-1.9220433235168457,0.8955135345458984,-5.592747211456299
1748142898201500700,16.824500732421875,-9.579577445983887,-3.686213493347168,0.1917712688446045
1748142898219764500,16.842764404296876,-14.050542831420898,-10.030458450317383,11.267492294311523
1748142898238030000,16.861030029296874,-11.017172813415527,-14.616710662841797,15.69344711303711
1748142898256293400,16.87929345703125,-7.681206703186035,-7.247859954833984,9.271627426147461
1748142898274559500,16.8975595703125,-3.9281086921691895,2.135824203491211,1.5242297649383545
1748142898292822500,16.915822509765626,-0.9119149446487427,4.809919357299805,-0.6704747676849365
1748142898311088000,16.934088134765624,5.041937828063965,0.558741569519043,-0.35954713821411133
1748142898329351700,16.9523515625,8.099017143249512,-4.553089141845703,-2.514068365097046
1748142898347616300,16.9706162109375,7.11898136138916,-6.6741132736206055,-1.9401837587356567
1748142898365881600,16.988881591796876,6.061962127685547,-2.9070520401000977,-1.3094141483306885
1748142898384147200,17.007147216796874,3.9689080715179443,1.5062823295593262,-2.573878526687622
1748142898402410000,17.025409912109374,2.848971366882324,4.445005893707275,-3.0842440128326416
1748142898420670700,17.043670654296875,2.204200506210327,5.828670024871826,-3.1712775230407715
1748142898438938000,17.061938232421873,1.2271780967712402,4.40816068649292,-1.831187129020691
1748142898457201000,17.080200927734374,0.9931886196136475,0.5197429656982422,0.09695553779602051
1748142898475461000,17.098461181640626,0.17751581966876984,-2.104778289794922,2.3023738861083984
1748142898493736700,17.11673681640625,-1.737294316291809,-2.423290252685547,3.2404298782348633
1748142898511997200,17.1349970703125,-4.367051124572754,-0.5668697357177734,1.5700674057006836
1748142898530262800,17.1532626953125,-3.6754345893859863,0.6568365097045898,0.4618213176727295
1748142898548526000,17.171526123046874,-0.5939146876335144,1.3033275604248047,-0.07424044609069824
1748142898566791400,17.18979150390625,0.954584002494812,1.35683012008667,0.13872218132019043
1748142898585055200,17.20805517578125,1.1854923963546753,1.0604944229125977,0.5097503662109375
1748142898603320800,17.22632080078125,0.5866204500198364,0.8165607452392578,1.0817663669586182
1748142898621584600,17.244584716796876,-0.5716560482978821,0.9784784317016602,1.45501708984375
1748142898639849700,17.262849609375,-1.7199510335922241,1.5796375274658203,1.3567633628845215
1748142898658113300,17.28111328125,-1.7753509283065796,1.9125628471374512,1.3588685989379883
1748142898676374300,17.299374267578123,-1.1772526502609253,1.6395373344421387,1.198662281036377
1748142898694628900,17.31762890625,-0.935361385345459,1.0801172256469727,1.245290994644165
1748142898712909300,17.335909423828124,-1.4753907918930054,0.49581241607666016,1.6093597412109375
1748142898731154000,17.35415380859375,-2.869319438934326,-0.11470317840576172,1.934535264968872
1748142898749437400,17.3724375,-4.7743120193481445,-0.22939777374267578,2.6339993476867676
1748142898767688700,17.390688720703125,-4.162590503692627,-0.3652458190917969,4.00028133392334
1748142898785966300,17.40896630859375,-2.262613296508789,-0.5336122512817383,5.323973655700684
1748142898804229400,17.4272294921875,-1.197709321975708,0.08023357391357422,4.776505947113037
1748142898822495500,17.44549560546875,-0.5217690467834473,1.5359864234924316,3.1628735065460205
1748142898840758800,17.4637587890625,-0.804761528968811,0.9272518157958984,2.459655523300171
1748142898859024400,17.4820244140625,-2.9216043949127197,-1.4249496459960938,1.2970423698425293
1748142898877287700,17.50028759765625,-7.686990737915039,-4.6509904861450195,2.4588656425476074
1748142898895549000,17.518548828125,-7.43955659866333,-4.289776802062988,5.754593372344971
1748142898913816600,17.536816650390627,-3.08161997795105,-1.9556493759155273,4.926544189453125
1748142898932077800,17.555077880859375,0.31344717741012573,0.2395334243774414,4.136070728302002
1748142898950344400,17.573344482421874,0.13885551691055298,0.7955455780029297,3.458890199661255
1748142898968611600,17.591611572265624,-1.2020963430404663,-0.09988689422607422,2.1133487224578857
1748142898986876200,17.609876220703125,-0.5545768141746521,-2.841151237487793,0.2038564682006836
1748142899005141200,17.628141357421875,1.4707655906677246,-4.946530342102051,-1.4221689701080322
1748142899023404300,17.646404296875,2.2536773681640625,-6.287148475646973,-2.7322301864624023
1748142899041670000,17.664669921875,2.3675198554992676,-4.398990631103516,-2.959996223449707
1748142899059933400,17.682933349609375,2.542174816131592,-0.6027889251708984,-2.175065040588379
1748142899078194400,17.7011943359375,3.3426036834716797,1.8319811820983887,-1.255070686340332
1748142899096457500,17.71945751953125,4.2786478996276855,2.864720344543457,-0.008385419845581055
1748142899114728400,17.737728515625,4.5147809982299805,2.601408004760742,0.24672293663024902
1748142899132991500,17.755991455078124,4.492448806762695,2.1219844818115234,0.9381346702575684
1748142899151257300,17.77425732421875,2.6026997566223145,1.7427606582641602,3.11259126663208
1748142899169520000,17.79252001953125,0.8615298271179199,0.6770172119140625,3.700357437133789
1748142899187786500,17.810786376953125,2.6598503589630127,-0.3858938217163086,1.7899448871612549
1748142899206048500,17.829048583984374,4.649394512176514,-0.44031572341918945,-0.9718282222747803
1748142899224316700,17.847316650390624,4.671292781829834,0.6706533432006836,-3.036238670349121
1748142899242578700,17.86557861328125,3.945096969604492,2.000030994415283,-4.868246078491211
1748142899260843300,17.88384326171875,4.074336051940918,3.0629544258117676,-6.009986877441406
1748142899279109000,17.902109130859376,4.191640377044678,3.3335189819335938,-6.156972408294678
1748142899297373400,17.92037353515625,3.522897243499756,3.267573833465576,-5.920054912567139
1748142899315635700,17.9386357421875,2.131993532180786,3.1251401901245117,-5.542275428771973
1748142899333903400,17.9569033203125,0.43345046043395996,2.1213555335998535,-4.54625940322876
1748142899352161500,17.97516162109375,-1.3771913051605225,-0.7206993103027344,-1.6711318492889404
1748142899370431200,17.99343115234375,-6.833047866821289,-2.620990753173828,2.998344659805298
1748142899388695300,18.0116953125,-21.294830322265625,-8.316140174865723,12.744453430175781
1748142899406960600,18.029960693359374,-5.0716071128845215,-8.501760482788086,11.864826202392578
1748142899425219800,18.0482197265625,-5.526493072509766,-1.7798337936401367,6.664743423461914
1748142899443485200,18.066485107421876,-4.937496185302734,4.044099807739258,-0.6655552387237549
1748142899461752300,18.08475244140625,-2.7901575565338135,5.725513458251953,-2.934687614440918
1748142899480020000,18.10302001953125,3.116441249847412,1.856593132019043,-0.4958760738372803
1748142899498282500,18.121282470703125,8.9636869430542,-3.8210439682006836,2.565110921859741
1748142899516545300,18.139545166015626,7.580407619476318,-8.385008811950684,5.079752445220947
1748142899534814000,18.15781396484375,5.082378387451172,-9.06943416595459,3.62896466255188
1748142899553073400,18.176073486328125,2.8864586353302,-3.8488245010375977,-1.0675933361053467
1748142899571344000,18.19434375,-5.622493267059326,1.4428277015686035,-3.773613452911377
1748142899589605000,18.212605224609376,-11.734804153442383,4.228527069091797,-6.387032985687256
1748142899607870700,18.23087060546875,-2.4551122188568115,3.3006415367126465,-6.527632236480713
1748142899626135300,18.24913525390625,3.837709426879883,2.441831588745117,-3.655369997024536
1748142899644398600,18.267398681640625,4.950555801391602,0.8294467926025391,-0.8622341156005859
1748142899662664700,18.285664794921875,5.339888572692871,-1.8158140182495117,-0.19547510147094727
1748142899680926500,18.303926513671875,4.712918758392334,-1.4901123046875,-0.25490880012512207
1748142899699189800,18.322189697265625,3.28035831451416,-0.2824230194091797,-0.3406338691711426
1748142899717456000,18.340455810546874,1.44455885887146,-0.15648269653320312,-0.7364120483398438
1748142899735723800,18.358723876953125,0.9290298819541931,0.36714839935302734,-0.5635266304016113
1748142899753985800,18.37698583984375,0.2997158169746399,0.27347469329833984,0.5363178253173828
1748142899772240100,18.395240234375,-5.914290904998779,0.2147388458251953,3.5878102779388428
1748142899790510300,18.41351025390625,-9.564210891723633,0.6442794799804688,4.276925086975098
1748142899808766500,18.431766357421875,-4.347952842712402,1.3688297271728516,3.90014910697937
1748142899827045000,18.450045166015624,-0.8927618861198425,1.8997387886047363,2.968576431274414
1748142899845298000,18.4682978515625,-0.3313451409339905,2.184030532836914,1.7503023147583008
1748142899863572700,18.48657275390625,0.2639923095703125,2.538118839263916,1.204216718673706
1748142899881838600,18.504838623046876,0.42796528339385986,2.2545175552368164,1.5007376670837402
1748142899900102100,18.52310205078125,-0.6680576801300049,1.1008834838867188,1.5450537204742432
1748142899918367700,18.54136767578125,-3.1030845642089844,-0.31647682189941406,0.8776991367340088
1748142899936630300,18.55963037109375,-6.221096992492676,-0.5357189178466797,0.8210000991821289
1748142899954898000,18.57789794921875,-4.711797714233398,-0.18311500549316406,2.7291133403778076
1748142899973164500,18.59616455078125,-1.7303494215011597,-0.025366783142089844,4.359206199645996
1748142899991425800,18.61442578125,-0.3609715700149536,0.43018531799316406,3.5987937450408936
1748142900009689600,18.632689697265626,-0.21695446968078613,0.8985157012939453,2.839674234390259
1748142900027955000,18.650954833984375,-0.2503993511199951,-0.18365192413330078,2.6150612831115723
1748142900046214000,18.6692138671875,-2.389939308166504,-2.7318429946899414,1.7255339622497559
1748142900064466000,18.6874658203125,-9.55349063873291,-5.611798286437988,2.6598997116088867
1748142900082748000,18.705747802734376,-9.315234184265137,-4.375480651855469,5.663341522216797
1748142900101013200,18.72401318359375,-2.0686490535736084,-1.9490232467651367,5.747348785400391
1748142900119276800,18.74227685546875,0.9680726528167725,0.30675315856933594,5.421105861663818
1748142900137542400,18.76054248046875,-1.0102020502090454,1.2429580688476562,4.430415153503418
1748142900155806000,18.778805908203125,-2.172694206237793,1.0786371231079102,2.726740837097168
1748142900174071600,18.797071533203123,-0.7886915802955627,-1.6640911102294922,-0.16450095176696777
1748142900192334800,18.8153349609375,2.3276758193969727,-3.838733673095703,-1.8166084289550781
1748142900210599700,18.833599609375,3.4781856536865234,-4.593688011169434,-2.8575596809387207
1748142900228865300,18.851865234375,2.283965826034546,-4.245652198791504,-3.9713265895843506
1748142900247129900,18.8701298828125,1.748381495475769,-1.7485971450805664,-2.6977972984313965
1748142900265388300,18.88838818359375,2.53765869140625,0.22069072723388672,-1.5531635284423828
1748142900283659300,18.9066591796875,2.9896225929260254,1.1709661483764648,-0.5088961124420166
1748142900301917200,18.924917236328124,4.332721710205078,1.2918009757995605,-0.015674114227294922
1748142900320181800,18.943181640625,4.473384380340576,1.521885871887207,1.257033109664917
1748142900338452500,18.961452392578124,6.498846054077148,0.44891786575317383,-0.060878753662109375
1748142900356716800,18.979716796875,0.3581044673919678,-0.16549110412597656,1.0072500705718994
1748142900374980600,18.997980712890627,-0.5320138931274414,2.320613384246826,1.9429235458374023
1748142900393246200,19.01624609375,3.4366374015808105,1.0836377143859863,-1.822279930114746
1748142900411509500,19.034509521484374,3.8839967250823975,1.1742839813232422,-4.496701717376709
1748142900429775000,19.052775146484375,5.215006351470947,2.2675232887268066,-4.626783847808838
1748142900448038700,19.07103857421875,5.164409160614014,2.7612600326538086,-4.6070685386657715
1748142900466304300,19.08930419921875,3.9208617210388184,3.0461044311523438,-5.09926700592041
1748142900484567800,19.10756787109375,2.655170202255249,3.663978099822998,-5.186924457550049
1748142900502833200,19.125833251953125,1.685933232307434,3.8192100524902344,-5.076631546020508
1748142900521096700,19.1440966796875,0.2940833568572998,2.3760290145874023,-4.907969951629639
1748142900539362600,19.162362548828124,-2.0256152153015137,-0.08901405334472656,-2.6668434143066406
1748142900557624800,19.180624755859377,-5.372315406799316,-2.2362613677978516,2.1668829917907715
1748142900575891500,19.198891357421875,-18.684728622436523,-8.274206161499023,11.222554206848145
1748142900594155000,19.217155029296876,-10.934279441833496,-10.376593589782715,10.874290466308594
1748142900612424700,19.2354248046875,-9.77536392211914,-4.5460968017578125,5.467751502990723
1748142900630683600,19.25368359375,-6.292738914489746,3.23280668258667,0.7429640293121338
1748142900648950000,19.271949951171877,-0.41632843017578125,7.070896148681641,-1.157094955444336
1748142900667209200,19.290209228515625,8.460836410522461,4.680288791656494,-1.5592451095581055
1748142900685472800,19.30847265625,8.185184478759766,-2.052213668823242,-1.149989128112793
1748142900703744500,19.32674462890625,5.651223182678223,-9.282646179199219,2.631499767303467
1748142900722007800,19.3450078125,4.213841438293457,-11.017430305480957,4.462886333465576
1748142900740271400,19.363271240234376,2.4838309288024902,-4.054202079772949,-0.6121127605438232
1748142900758537200,19.381537109375,-4.026844501495361,1.6249518394470215,-1.9147496223449707
1748142900776800300,19.39980029296875,-4.039546966552734,4.348165988922119,-2.733027458190918
1748142900795065900,19.41806591796875,-0.4654078483581543,5.37161922454834,-3.3747756481170654
1748142900813324800,19.43632470703125,1.8914389610290527,4.957494258880615,-2.3782713413238525
1748142900831594000,19.454593994140627,2.8171913623809814,1.784919261932373,-0.8542757034301758
1748142900849859600,19.472859619140625,3.2808403968811035,-1.2165441513061523,0.9169301986694336
1748142900868124200,19.491124267578126,2.756744384765625,-2.365595817565918,0.7750098705291748
1748142900886387200,19.50938720703125,1.9323971271514893,-1.4801959991455078,0.4515080451965332
1748142900904655000,19.527655029296874,0.6284966468811035,-0.2342243194580078,-0.41031360626220703
1748142900922908400,19.545908447265624,-2.3427720069885254,0.9037084579467773,-0.6073954105377197
1748142900941177600,19.564177490234375,-4.204044342041016,1.4596190452575684,0.6073524951934814
1748142900959445500,19.582445556640625,-2.36297869682312,1.117950439453125,1.4808058738708496
1748142900977711400,19.60071142578125,-0.8096615076065063,0.6753025054931641,1.5270295143127441
1748142900995974700,19.618974609375,-0.8543795347213745,0.5507535934448242,1.079352617263794
1748142901014240500,19.637240478515626,-0.623131275177002,1.4327731132507324,0.8636422157287598
1748142901032503600,19.655503662109375,-0.22302985191345215,1.7485499382019043,0.8768057823181152
1748142901050769700,19.673769775390625,-0.21631866693496704,1.7924222946166992,0.8295414447784424
1748142901069032700,19.69203271484375,-0.4557837247848511,1.2213506698608398,0.7187259197235107
1748142901087297300,19.71029736328125,-0.9420114755630493,0.32784271240234375,0.5453267097473145
1748142901105558500,19.72855859375,-2.2815639972686768,-0.22814178466796875,1.0205771923065186
1748142901123827700,19.74682763671875,-3.986125946044922,-0.29746341705322266,2.4034106731414795
1748142901142090800,19.7650908203125,-5.1910176277160645,0.2580680847167969,3.620711088180542
1748142901160352000,19.78335205078125,-4.074872016906738,0.31633663177490234,4.847543716430664
1748142901178619100,19.801619140625,-2.3411238193511963,0.15832996368408203,5.502495765686035
1748142901196887300,19.81988720703125,-1.5660613775253296,0.5265789031982422,4.471940994262695
1748142901215149800,19.83814990234375,-1.3533121347427368,1.1344709396362305,3.418245792388916
1748142901233415200,19.856415283203123,-1.8156123161315918,-0.23191547393798828,2.899966239929199
1748142901251678500,19.874678466796876,-4.7123260498046875,-3.1730728149414062,2.583017349243164
1748142901269943600,19.892943603515626,-7.592498302459717,-5.09908390045166,4.151337623596191
1748142901288203500,19.91120361328125,-5.871126174926758,-4.041452407836914,5.105533123016357
1748142901306473500,19.929473388671877,-2.237436532974243,-0.9090423583984375,4.290770530700684
1748142901324736500,19.947736572265626,-0.5456331372261047,0.5880937576293945,3.4341964721679688
1748142901343002000,19.966002197265624,-0.8651611804962158,0.6470251083374023,2.4467573165893555
1748142901361265700,19.984265625,-0.43873563408851624,-0.9581480026245117,0.9549460411071777
1748142901379531300,20.00253125,1.3984720706939697,-3.0867834091186523,-0.436992883682251
1748142901397794800,20.020794921875,1.9920933246612549,-4.585244178771973,-1.2404465675354004
1748142901416060700,20.039060791015626,0.8177708387374878,-5.474780082702637,-2.3908627033233643
1748142901434324000,20.057323974609375,0.3137664794921875,-3.0115480422973633,-2.0112247467041016
1748142901452590600,20.075590576171876,2.114741802215576,-0.6390399932861328,-1.9212263822555542
1748142901470850600,20.0938505859375,3.2665350437164307,0.9228487014770508,-1.068575143814087
1748142901489119700,20.11211962890625,3.4751174449920654,1.9581217765808105,0.15174627304077148
1748142901507382000,20.130382080078125,3.612990140914917,2.2178573608398438,0.4389975070953369
1748142901525646800,20.148646728515626,3.9295825958251953,1.6611628532409668,0.3664529323577881
1748142901543912200,20.166912109375,3.2264492511749268,1.0884466171264648,0.8886377811431885
1748142901562172200,20.185172119140624,2.724379539489746,0.7792410850524902,1.3321568965911865
1748142901580440300,20.2034404296875,3.1745638847351074,0.6579241752624512,0.565833568572998
1748142901598706200,20.2217060546875,4.314797401428223,0.940004825592041,-1.7007551193237305
1748142901616969200,20.23996923828125,4.740955352783203,1.9076533317565918,-3.6376333236694336
1748142901635241700,20.25824169921875,4.561128616333008,3.076972484588623,-4.874115943908691
1748142901653498600,20.27649853515625,4.334921836853027,3.9100942611694336,-5.685700416564941
1748142901671759000,20.294759033203125,3.644926071166992,4.297776699066162,-5.767202377319336
1748142901690026200,20.313026123046875,2.1776671409606934,4.020287036895752,-5.474060535430908
1748142901708292900,20.33129296875,0.012591361999511719,2.4504241943359375,-5.060892105102539
1748142901726558000,20.349557861328126,-1.9087636470794678,-0.3088083267211914,-2.0928382873535156
1748142901744822300,20.367822265625,-4.302709102630615,-3.2872018814086914,3.750835657119751
1748142901763085600,20.38608544921875,-19.456127166748047,-7.426011085510254,10.699506759643555
1748142901781351400,20.404351318359375,-11.480820655822754,-8.939319610595703,13.047112464904785
1748142901799613400,20.422613525390624,-8.632322311401367,-2.8174686431884766,7.604118347167969
1748142901817881600,20.440881591796874,-6.100998878479004,0.7369852066040039,0.7157149314880371
1748142901836144400,20.459144287109375,-3.109800338745117,-0.9691696166992188,-1.2219834327697754
1748142901854409500,20.477409423828124,5.439025402069092,-4.801647186279297,1.1529252529144287
1748142901872673300,20.49567333984375,9.398425102233887,-6.095446586608887,-0.11059021949768066
1748142901890937600,20.5139375,8.521574974060059,-4.4208269119262695,-0.8536009788513184
1748142901909198600,20.532198486328124,5.547735691070557,0.2628946304321289,-2.109940528869629
1748142901927463000,20.550462890625,3.6349663734436035,3.4809842109680176,-3.372365951538086
1748142901945729800,20.568729736328127,2.531714916229248,5.45790958404541,-3.9668936729431152
1748142901963997400,20.58699755859375,2.1574573516845703,6.142474174499512,-4.140167236328125
1748142901982260200,20.60526025390625,1.6507322788238525,3.4475040435791016,-2.9097814559936523
1748142902000523300,20.623523193359375,1.3414511680603027,-0.5188322067260742,-0.802584171295166
1748142902018789400,20.641789306640625,1.6788623332977295,-3.708982467651367,0.19704008102416992
1748142902037054500,20.660054443359375,1.0960613489151,-3.398387908935547,0.5645411014556885
1748142902055318800,20.67831884765625,-1.776944637298584,-0.9549961090087891,0.5383596420288086
1748142902073583900,20.696583984375,-4.576933860778809,0.605443000793457,0.18521523475646973
1748142902091847400,20.714847412109375,-3.352142333984375,1.089242935180664,0.4152979850769043
1748142902110112500,20.733112548828124,-1.3793085813522339,0.9384756088256836,0.7793207168579102
1748142902128376600,20.75137646484375,-0.7598999738693237,0.6825056076049805,1.1955397129058838
1748142902146641000,20.769640869140623,-0.644582986831665,0.7272062301635742,1.416067123413086
1748142902164906200,20.78790625,-0.5100446939468384,1.2489538192749023,1.2343053817749023
1748142902183166500,20.80616650390625,-0.33963268995285034,1.7900047302246094,1.0799822807312012
1748142902201433000,20.82443310546875,-0.2321256399154663,1.619389533996582,0.9906384944915771
1748142902219701200,20.842701171875,-0.2957502603530884,1.240797996520996,1.329270839691162
1748142902237963800,20.8609638671875,-0.40093302726745605,0.9935827255249023,1.6119301319122314
1748142902256229600,20.879229736328124,-1.1522047519683838,0.8102941513061523,1.4353268146514893
1748142902274493000,20.897492919921874,-2.359686851501465,0.5185708999633789,1.4640889167785645
1748142902292758300,20.91575830078125,-3.723647356033325,0.4371623992919922,2.036365032196045
1748142902311022000,20.93402197265625,-4.030996322631836,0.0048828125,3.9596524238586426
1748142902329287700,20.95228759765625,-2.977086067199707,-0.16943740844726562,5.290581703186035
1748142902347551000,20.970551025390623,-2.2087807655334473,0.1988677978515625,3.9021666049957275
1748142902365816300,20.98881640625,-1.7016199827194214,0.6912498474121094,2.8752777576446533
1748142902384080100,21.007080078125,-2.308164596557617,0.0511932373046875,3.0485763549804688
1748142902402345700,21.025345703125,-5.282256126403809,-2.4040708541870117,4.42978572845459
1748142902420608000,21.04360791015625,-7.467865943908691,-4.090984344482422,6.746377944946289
1748142902438876200,21.061876220703127,-5.214338302612305,-2.9715213775634766,6.871344566345215
1748142902457137000,21.080136962890624,-1.252021312713623,-0.5847911834716797,5.483460903167725
1748142902475400400,21.098400390625,-0.11198492348194122,0.8554592132568359,4.0293192863464355
1748142902493667300,21.116667236328126,-1.2483530044555664,0.32860851287841797,2.3376269340515137
1748142902511933000,21.134932861328124,-0.9026349782943726,-2.3413944244384766,-0.14973211288452148
1748142902530192000,21.15319189453125,1.004601240158081,-5.529674530029297,-1.505367398262024
1748142902548461800,21.1714619140625,2.0520408153533936,-7.27642822265625,-2.909071683883667
1748142902566725400,21.189725341796876,1.5523537397384644,-5.441219329833984,-3.02254056930542
1748142902584991200,21.2079912109375,1.7700713872909546,-1.7518930435180664,-2.5491414070129395
1748142902603254500,21.226254638671875,2.784855604171753,0.6519603729248047,-2.154766082763672
1748142902621520100,21.24452001953125,4.065875053405762,1.9188618659973145,-1.5247600078582764
1748142902639783700,21.26278369140625,5.2201337814331055,2.0167245864868164,-0.9560701847076416
1748142902658049300,21.28104931640625,5.000131130218506,2.314371109008789,-0.39165711402893066
1748142902676312800,21.299312744140625,2.7948503494262695,2.7103776931762695,1.2348029613494873
1748142902694589000,21.3175888671875,-0.07781553268432617,2.3454060554504395,3.400912046432495
1748142902712840200,21.335840087890624,1.178971290588379,0.9998459815979004,2.053098440170288
1748142902731108600,21.354108642578126,4.198512554168701,-0.05454206466674805,-0.9441430568695068
1748142902749371000,21.372370849609375,4.603951930999756,0.3845705986022949,-2.590682029724121
1748142902767635500,21.390635498046876,3.701927661895752,1.4919252395629883,-3.600783586502075
1748142902785900800,21.40890087890625,3.814391613006592,2.7789974212646484,-4.6302056312561035
1748142902804161300,21.427161376953126,3.8529317378997803,3.3098092079162598,-5.366646766662598
1748142902822429200,21.44542919921875,3.241997241973877,3.4220199584960938,-5.383986473083496
1748142902840694500,21.463694580078126,2.655590295791626,3.7593579292297363,-4.851167678833008
1748142902858955000,21.481955078125,1.7703094482421875,3.1275105476379395,-4.461849689483643
1748142902877228000,21.50022802734375,-0.247786283493042,0.39098453521728516,-3.2449684143066406
1748142902895482600,21.518482666015625,-3.811610460281372,-2.7578916549682617,0.5567090511322021
1748142902913752800,21.5367529296875,-14.885940551757812,-6.11247444152832,6.071759223937988
1748142902932016000,21.55501611328125,-14.007166862487793,-8.807391166687012,14.147317886352539
1748142902950281700,21.57328173828125,-6.998049736022949,-3.2864809036254883,10.887289047241211
1748142902968545300,21.591545166015624,-4.612280368804932,3.0554232597351074,3.9688549041748047
1748142902986811100,21.60981103515625,-3.471235990524292,5.448314666748047,-1.2856581211090088
1748142903005074400,21.628074462890623,1.4912515878677368,2.667025089263916,-1.1994671821594238
1748142903023339800,21.64633984375,8.193452835083008,-4.010178565979004,-0.6152307987213135
1748142903041597000,21.664596923828125,7.603410243988037,-10.965276718139648,1.4448144435882568
1748142903059869200,21.682869140625,5.104612350463867,-11.798946380615234,1.9128425121307373
1748142903078127400,21.70112744140625,3.2054126262664795,-2.9151744842529297,-2.6646573543548584
1748142903096398000,21.719398193359375,-1.3449735641479492,2.494685173034668,-3.625964403152466
1748142903114661400,21.737661376953124,-2.593031883239746,5.0419793128967285,-5.326749801635742
1748142903132927200,21.75592724609375,-0.5420552492141724,5.679942607879639,-6.566682815551758
1748142903151185700,21.774185546875,1.6323903799057007,4.661223888397217,-3.966038703918457
1748142903169455900,21.792455810546876,2.008066177368164,0.7340707778930664,-1.7288544178009033
1748142903187719400,21.810719482421874,2.9069936275482178,-2.617283821105957,-0.356198787689209
1748142903205985300,21.8289853515625,3.9701242446899414,-3.2337417602539062,0.2127382755279541
1748142903224248600,21.84724853515625,2.08933687210083,-0.9469871520996094,0.8365237712860107
1748142903242514400,21.865514404296874,-1.5502309799194336,0.7767009735107422,1.0494964122772217
1748142903260778800,21.88377880859375,-4.791157245635986,1.5633115768432617,1.6546003818511963
1748142903279042300,21.902042236328125,-2.897430896759033,1.7654428482055664,1.9666800498962402
1748142903297302000,21.920302001953125,-0.9018951654434204,1.25883150100708,2.3647351264953613
1748142903315568000,21.938568115234375,-1.7767715454101562,1.0304841995239258,1.9595208168029785
1748142903333836000,21.9568359375,-1.7049576044082642,1.4570159912109375,1.1135063171386719
1748142903352101600,21.9751015625,-0.5484867095947266,1.8578581809997559,0.9088687896728516
1748142903370364700,21.99336474609375,-0.48105108737945557,1.9983596801757812,1.2712316513061523
1748142903388629500,22.01162939453125,-0.821865975856781,1.7637410163879395,1.6119799613952637
1748142903406895000,22.02989501953125,-0.8793514966964722,1.021407127380371,1.7254343032836914
1748142903425163300,22.048163330078125,-1.48736572265625,0.17195796966552734,1.2242369651794434
1748142903443423000,22.066423095703126,-3.025329113006592,-0.45465564727783203,0.7640929222106934
1748142903461689000,22.084689208984376,-4.525973320007324,-0.15551471710205078,1.3987643718719482
1748142903479952100,22.1029521484375,-3.5603771209716797,0.22821712493896484,3.3095767498016357
1748142903498225700,22.1212255859375,-1.9492840766906738,0.08558845520019531,5.141994476318359
1748142903516481500,22.1394814453125,-1.5141208171844482,0.22663497924804688,4.890894412994385
1748142903534747100,22.1577470703125,-1.1264605522155762,1.5176219940185547,3.684037923812866
1748142903553005600,22.176005615234374,-1.8257384300231934,0.7054519653320312,3.5224859714508057
1748142903571274500,22.1942744140625,-5.135558128356934,-2.0403261184692383,3.355243444442749
1748142903589540600,22.21254052734375,-7.332308769226074,-3.853036880493164,4.66680908203125
1748142903607805200,22.23080517578125,-4.459195613861084,-3.035076141357422,6.325801849365234
1748142903626068500,22.249068359375,-1.6587495803833008,-0.7815322875976562,5.912748336791992
1748142903644334300,22.267334228515626,-0.6606975197792053,0.6498775482177734,3.917445182800293
1748142903662596900,22.285596923828123,-2.397773504257202,-0.21783447265625,2.5252437591552734
1748142903680863000,22.303863037109377,-2.7739322185516357,-2.723177909851074,-0.03853249549865723
1748142903699127600,22.32212744140625,0.7474836111068726,-5.2626752853393555,-1.415409803390503
1748142903717392600,22.340392578125,2.7902097702026367,-6.793857574462891,-2.344358444213867
1748142903735654700,22.358654541015625,3.2216670513153076,-6.79246711730957,-3.8995563983917236
1748142903753922600,22.376922607421875,2.1274049282073975,-2.7002553939819336,-3.6709351539611816
1748142903772179700,22.3951796875,2.643514633178711,0.5163822174072266,-3.668039083480835
1748142903790450700,22.41345068359375,3.767256498336792,1.921163558959961,-2.541430950164795
1748142903808713700,22.431713623046875,4.030490875244141,2.0212550163269043,-0.5849566459655762
1748142903826976500,22.4499765625,3.329643726348877,1.7114372253417969,0.737933874130249
1748142903845246000,22.468245849609374,-0.09273815155029297,1.6353754997253418,2.90297269821167
1748142903863499000,22.4864990234375,-1.1630737781524658,1.5777111053466797,4.150075435638428
1748142903881786600,22.50478662109375,3.3465681076049805,0.9878730773925781,2.0525407791137695
1748142903900035000,22.52303515625,5.103424072265625,0.6315517425537109,-2.181370258331299
1748142903918303200,22.54130322265625,4.510036945343018,1.3185358047485352,-4.382169246673584
1748142903936566500,22.55956640625,3.95896577835083,2.2263522148132324,-5.252213478088379
1748142903954830000,22.577830078125,3.922266721725464,2.975490093231201,-5.55192756652832
1748142903973095700,22.596095703125,3.55789852142334,3.4806551933288574,-5.595146179199219
1748142903991359200,22.614359130859373,2.686647415161133,3.833354949951172,-5.331840991973877
1748142904009623600,22.63262353515625,1.6564068794250488,3.530360698699951,-4.841959476470947
1748142904027889400,22.650889404296876,0.3861875534057617,2.5890989303588867,-4.013344764709473
1748142904046156000,22.669156005859374,-1.1770389080047607,1.271376132965088,-1.8125196695327759
1748142904064403000,22.68740283203125,-5.01043701171875,-1.5412788391113281,2.905055046081543
1748142904082684700,22.7056845703125,-11.589681625366211,-6.260018348693848,11.362285614013672
1748142904100951300,22.723951416015623,-10.812981605529785,-10.987380981445312,16.332874298095703
1748142904119196200,22.742196044921876,-11.006547927856445,-7.923023223876953,11.806570053100586
1748142904137475300,22.760475341796877,-6.45488166809082,-1.9482202529907227,3.142315149307251
1748142904155732700,22.778732666015625,-1.9259490966796875,-1.2193412780761719,0.6813609600067139
1748142904174004700,22.797004638671876,7.168990135192871,-1.8718137741088867,-2.074761152267456
1748142904192269800,22.815269775390625,8.675393104553223,-2.345097541809082,-3.8465683460235596
1748142904210533600,22.83353369140625,6.949833869934082,-0.8667535781860352,-3.2981762886047363
1748142904228799000,22.851799072265624,5.772003650665283,2.1163816452026367,-3.669518232345581
1748142904247062800,22.870062744140625,4.238510608673096,4.308276653289795,-4.134747505187988
1748142904265328600,22.88832861328125,3.2107043266296387,5.393313407897949,-4.613473892211914
1748142904283592700,22.9065927734375,2.4416112899780273,4.174613952636719,-4.51292610168457
1748142904301856300,22.924856201171874,1.75614595413208,0.41823577880859375,-2.854757070541382
1748142904320120800,22.943120849609375,2.026942729949951,-3.416872978210449,-1.6813764572143555
1748142904338386200,22.96138623046875,0.4662339985370636,-3.9433164596557617,-0.15802264213562012
1748142904356648700,22.979648681640626,-3.2723495960235596,-1.0931158065795898,1.5189337730407715
1748142904374916000,22.997916015625,-4.234192371368408,1.060281753540039,2.0153884887695312
1748142904393174000,23.016174072265624,-2.228634834289551,1.5695090293884277,2.4197871685028076
1748142904411439600,23.034439697265626,-0.6708927154541016,1.2026443481445312,2.5534732341766357
1748142904429706800,23.052706787109376,-0.008506238460540771,0.8993072509765625,1.9357078075408936
1748142904447975000,23.070974853515626,-0.023212134838104248,1.2886395454406738,1.8574559688568115
1748142904466236700,23.089236572265627,-0.32165277004241943,1.7826423645019531,1.6247479915618896
1748142904484502800,23.107502685546876,-0.5941836833953857,1.8528971672058105,1.1161227226257324
1748142904502766300,23.125766357421874,-0.7609479427337646,1.5037522315979004,0.7960538864135742
1748142904521031700,23.14403173828125,-1.1614645719528198,1.0420808792114258,0.6900496482849121
1748142904539295200,23.162295166015625,-1.6630369424819946,0.6211338043212891,0.8992524147033691
1748142904557560800,23.180560791015626,-1.8273494243621826,0.10384654998779297,0.9507992267608643
1748142904575819300,23.1988193359375,-2.4889960289001465,-0.28617000579833984,0.4743626117706299
1748142904594088400,23.21708837890625,-4.206593036651611,-0.2111053466796875,0.48981237411499023
