time,seconds_elapsed,z,y,x
1748142881452945200,0.075945068359375,8.09252643585205,3.6269209384918213,-0.04486542567610741
1748142881471216400,0.09421630859375,8.803194046020508,4.084548473358154,0.7914260625839233
1748142881489481000,0.11248095703125,10.927422523498535,2.2259232997894287,-0.06699903309345245
1748142881507748900,0.130748779296875,9.6466646194458,1.6241283416748047,0.26979073882102966
1748142881526011100,0.14901123046875,8.630910873413086,0.9391828775405884,-1.9387845993041992
1748142881544276200,0.167276123046875,7.946564197540283,2.5902304649353027,-3.297907829284668
1748142881562539800,0.185539794921875,5.867799282073975,5.350949764251709,-2.730210542678833
1748142881580804400,0.203804443359375,7.144370079040527,5.0566325187683105,0.41874396800994873
1748142881599070000,0.222070068359375,7.591827869415283,3.4259238243103027,2.3234307765960693
1748142881617334500,0.24033447265625,7.354340553283691,3.136990547180176,1.4626128673553467
1748142881635596500,0.258596435546875,7.248457908630371,2.9521448612213135,1.43389892578125
1748142881653864000,0.276864013671875,4.213760852813721,7.672585964202881,-12.704691886901855
1748142881672126500,0.29512646484375,8.872586250305176,5.293521881103516,-3.6358940601348877
1748142881690391800,0.313391845703125,10.830513954162598,0.5886343717575073,1.934597134590149
1748142881708655900,0.33165576171875,14.732010841369629,0.9320043921470642,3.772883176803589
1748142881726920200,0.349920166015625,14.283954620361328,1.9459630250930786,4.143172264099121
1748142881745179000,0.368178955078125,9.445069313049316,2.9306094646453857,-2.0380866527557373
1748142881763449600,0.38644970703125,5.920441627502441,4.770689964294434,-3.6873397827148438
1748142881781713200,0.404713134765625,5.355136871337891,5.193621635437012,0.5084748268127441
1748142881799978200,0.422978271484375,8.861818313598633,2.7451658248901367,1.669592022895813
1748142881818237000,0.44123681640625,10.022337913513184,0.8303094506263733,2.788236618041992
1748142881836507400,0.45950732421875,10.988439559936523,-0.062213387340307236,2.9904301166534424
1748142881854770400,0.4777705078125,7.892127513885498,0.4701896607875824,2.988037347793579
1748142881873036000,0.4960361328125,5.583651542663574,-0.09870393574237823,2.791825771331787
1748142881891299600,0.514299560546875,5.162514686584473,-1.0707881450653076,2.0691933631896973
1748142881909565000,0.53256494140625,3.4995031356811523,-1.3567304611206055,3.7507495880126953
1748142881927816700,0.550816650390625,5.704489231109619,-0.96370929479599,3.0101709365844727
1748142881946094000,0.569093994140625,6.8279194831848145,-1.8999011516571045,3.226123094558716
1748142881964357000,0.587357177734375,5.577071189880371,-2.334796667098999,5.595615863800049
1748142881982616600,0.605616455078125,5.967101573944092,-1.1670992374420166,6.873981475830078
1748142882000886000,0.623885986328125,5.994618892669678,-1.4051851034164429,6.892525672912598
1748142882019153200,0.642153076171875,6.75792932510376,-3.4085757732391357,6.13699197769165
1748142882037415000,0.660414794921875,4.907081127166748,-3.129213809967041,6.313462734222412
1748142882055680500,0.678680419921875,1.7599210739135742,-3.2141590118408203,5.803791522979736
1748142882073939000,0.69693896484375,0.2027917206287384,-3.0305099487304688,7.1228346824646
1748142882092205000,0.715205078125,0.9930213689804077,-1.6319050788879395,9.787242889404297
1748142882110472700,0.73347265625,0.9337990283966064,-1.098305583000183,11.820544242858887
1748142882128737800,0.75173779296875,2.7984061241149902,-1.1455638408660889,11.190034866333008
1748142882147001000,0.7700009765625,2.871387243270874,-2.376671075820923,9.810572624206543
1748142882165267000,0.788266845703125,1.7772690057754517,-2.447857618331909,9.521040916442871
1748142882183530000,0.806530029296875,0.5886343717575073,-3.3296127319335938,10.947761535644531
1748142882201795300,0.82479541015625,0.6364908218383789,-3.8147575855255127,9.961320877075195
1748142882220047400,0.84304736328125,0.4570291340351105,-2.8833513259887695,9.221938133239746
1748142882238324500,0.861324462890625,-1.4315061569213867,-3.7908291816711426,9.616754531860352
1748142882256589000,0.879589111328125,-2.090728759765625,-5.30129861831665,13.499707221984863
1748142882274852900,0.897852783203125,-0.8554341197013855,-3.1932218074798584,13.63908863067627
1748142882293117000,0.916116943359375,-0.9128618240356445,-2.7044878005981445,12.855439186096191
1748142882311382300,0.93438232421875,-1.1258230209350586,-3.630510091781616,11.228320121765137
1748142882329640000,0.952639892578125,-1.5601203441619873,-4.6163530349731445,11.041680335998535
1748142882347911000,0.970910888671875,-1.688136339187622,-4.506283283233643,11.08475112915039
1748142882366171000,0.9891708984375,-2.1930220127105713,-3.8386857509613037,12.392428398132324
1748142882384439800,1.007439697265625,-2.252244234085083,-3.448655605316162,12.991231918334961
1748142882402699500,1.025699462890625,-2.1092731952667236,-3.562912940979004,12.976277351379395
1748142882420971300,1.04397119140625,-1.9818553924560547,-4.685146808624268,12.324233055114746
1748142882439233300,1.0622333984375,-1.4572290182113647,-5.870790481567383,11.976675987243652
1748142882457497300,1.080497314453125,-0.5312066078186035,-5.908477306365967,11.97009563446045
1748142882475760600,1.0987607421875,-1.6223337650299072,-5.950351715087891,12.957733154296875
1748142882494026500,1.117026611328125,-3.1507492065429688,-6.256034851074219,13.151551246643066
1748142882512290000,1.1352900390625,-2.8109683990478516,-8.409575462341309,12.980464935302734
1748142882530555600,1.1535556640625,-2.9617161750793457,-13.16112232208252,10.128219604492188
1748142882548818700,1.171818603515625,-2.6315066814422607,-24.13580322265625,-0.4049852192401886
1748142882567084300,1.190084228515625,4.801198482513428,-16.132410049438477,1.8951154947280884
1748142882585343000,1.208343017578125,3.5204403400421143,-7.420143127441406,10.14616584777832
1748142882603610400,1.2266103515625,-0.08315058797597885,-4.683950424194336,13.50568962097168
1748142882621879300,1.24487939453125,-0.25782662630081177,-4.829314231872559,16.452449798583984
1748142882640142300,1.263142333984375,4.457828521728516,-4.402195453643799,11.69312572479248
1748142882658405000,1.281405029296875,6.401997089385986,-5.956932067871094,8.994022369384766
1748142882676670500,1.29967041015625,4.59721040725708,-5.14576530456543,7.612166881561279
1748142882694934000,1.31793408203125,2.3748764991760254,-2.8462624549865723,6.845865726470947
1748142882713195300,1.3361953125,1.4644074440002441,-2.2121646404266357,2.7020950317382812
1748142882731463400,1.35446337890625,-0.01615155301988125,-0.29312077164649963,6.954739093780518
1748142882749728800,1.372728759765625,0.6245267391204834,-1.48055899143219,3.4845480918884277
1748142882777124400,1.400124267578125,0.15074782073497772,-5.43709135055542,-0.15493527054786682
1748142882795376600,1.418376708984375,0.4247260093688965,-5.433502197265625,0.6526423692703247
1748142882822777000,1.445777099609375,0.34695929288864136,-1.0456634759902954,6.355337142944336
1748142882841044200,1.464044189453125,-1.2029916048049927,-0.13519448041915894,7.369295597076416
1748142882859314700,1.482314697265625,-0.07477571070194244,0.4061816334724426,8.979066848754883
1748142882877577500,1.500577392578125,1.9196419715881348,-1.246660590171814,9.22134017944336
1748142882895847200,1.51884716796875,0.8261220455169678,-2.770888566970825,9.738189697265625
1748142882914111200,1.537111328125,1.1300104856491089,-1.3668999671936035,8.73499870300293
1748142882932373200,1.555373291015625,0.9002995491027832,-0.7040880918502808,11.190034866333008
1748142882950620200,1.5736201171875,0.7429714202880859,-0.6269195079803467,12.988839149475098
1748142882968902400,1.59190234375,1.2789636850357056,-1.4931213855743408,14.923436164855957
1748142882987161000,1.6101611328125,1.4141582250595093,-3.3984062671661377,14.71944808959961
1748142883005425700,1.62842578125,-0.7393822073936462,-4.642673969268799,14.521442413330078
1748142883023694000,1.646694091796875,-4.327419757843018,-5.143372058868408,14.22712516784668
1748142883041955600,1.66495556640625,-2.025524377822876,-5.6069817543029785,11.538190841674805
1748142883060225000,1.68322509765625,0.21236300468444824,-2.231307029724121,9.629914283752441
1748142883078488600,1.701488525390625,-0.19381862878799438,0.35473597049713135,9.309276580810547
1748142883096751900,1.719751953125,-1.210170030593872,1.4662020206451416,9.475577354431152
1748142883115018800,1.738018798828125,-1.430309772491455,-0.357128769159317,8.4502534866333
1748142883133279200,1.756279296875,1.012762188911438,-2.318047046661377,5.505286693572998
1748142883151546400,1.77454638671875,0.3122633695602417,-4.591228485107422,2.1511476039886475
1748142883169809200,1.79280908203125,0.6783652305603027,-5.210371494293213,2.455634355545044
1748142883188075300,1.8110751953125,-2.407777786254883,-2.3988046646118164,0.9068797826766968
1748142883206338600,1.829338623046875,-6.023332595825195,-3.0179476737976074,1.3256237506866455
1748142883224603000,1.847602783203125,-6.732206344604492,-13.731810569763184,0.26440688967704773
1748142883242868500,1.865868408203125,-4.320241451263428,-31.026535034179688,-2.300100803375244
1748142883261132000,1.884132080078125,-1.2335001230239868,-27.00898551940918,5.446662425994873
1748142883279397400,1.9023974609375,1.8346967697143555,-12.040085792541504,7.843074321746826
1748142883297662000,1.920661865234375,2.8079774379730225,-4.631308078765869,3.551547050476074
1748142883315925000,1.938925048828125,1.9615163803100586,-2.933002471923828,0.28953152894973755
1748142883334186000,1.95718603515625,1.2675977945327759,-2.8833513259887695,-2.200798511505127
1748142883352454100,1.9754541015625,0.8368897438049316,-3.4707891941070557,-3.5018959045410156
1748142883370718000,1.993718017578125,-0.4941178858280182,-4.447061061859131,-1.74496591091156
1748142883388984000,2.011984130859375,0.25064817070961,-5.276174068450928,-0.5186443328857422
1748142883407248600,2.03024853515625,-0.8195417523384094,-6.9236321449279785,1.85383939743042
1748142883425508000,2.048508056640625,-9.974481582641602,-9.403194427490234,0.5647061467170715
1748142883443772700,2.066772705078125,-16.655839920043945,-12.260225296020508,-1.6151553392410278
1748142883462040800,2.085040771484375,-25.226930618286133,-17.9886417388916,4.6749773025512695
1748142883480306400,2.103306396484375,-16.907684326171875,-18.561124801635742,3.0107691287994385
1748142883498569500,2.121569580078125,-4.398007869720459,-10.749755859375,1.1383854150772095
1748142883516835300,2.13983544921875,-1.5667005777359009,-4.12761926651001,0.3002992272377014
1748142883535098400,2.158098388671875,0.5838487148284912,-3.614956855773926,0.43968117237091064
1748142883553364000,2.176364013671875,3.666402578353882,-8.279764175415039,1.4021940231323242
1748142883571625700,2.194625732421875,6.029314994812012,-16.41356658935547,2.8869404792785645
1748142883589894100,2.21289404296875,5.458028316497803,-25.141984939575195,2.014756679534912
1748142883608159200,2.2311591796875,2.4424736499786377,-23.049463272094727,-2.5094728469848633
1748142883626422000,2.249422119140625,1.1928220987319946,-11.24207878112793,0.25064817070961
1748142883644689700,2.267689697265625,0.7812566161155701,-5.239683151245117,1.6372889280319214
1748142883662951000,2.285950927734375,0.8937192559242249,-2.0817556381225586,1.430907964706421
1748142883681209900,2.3042099609375,0.7369893789291382,-0.584446907043457,1.3142578601837158
1748142883699474700,2.322474609375,0.9918249845504761,-2.152942180633545,2.6697919368743896
1748142883717741600,2.340741455078125,1.0701899528503418,-6.869195461273193,5.011168956756592
1748142883736009700,2.359009765625,0.646660327911377,-11.84447193145752,7.812565803527832
1748142883754271500,2.377271484375,-0.7262216806411743,-14.934802055358887,7.6528449058532715
1748142883772537600,2.39553759765625,-3.37687087059021,-11.556137084960938,3.8566319942474365
1748142883790799400,2.41379931640625,-3.9397823810577393,-8.817551612854004,3.5270206928253174
1748142883809067300,2.4320673828125,-1.6546368598937988,-7.532007694244385,2.7631118297576904
1748142883827329300,2.450329345703125,0.966102123260498,-7.610372543334961,2.8965117931365967
1748142883845591800,2.468591796875,1.5014961957931519,-8.886344909667969,3.2709884643554688
1748142883863853300,2.486853271484375,0.9577272534370422,-8.73619556427002,3.2440693378448486
1748142883882123000,2.505123046875,0.7028916478157043,-7.960920810699463,3.211766242980957
1748142883900388400,2.523388427734375,0.5958128571510315,-7.499105930328369,3.5617165565490723
1748142883918655000,2.541655029296875,0.46719861030578613,-7.6839518547058105,3.930211305618286
1748142883936915000,2.5599150390625,0.4875376224517822,-8.833105087280273,4.2586259841918945
1748142883955177200,2.57817724609375,-0.5587241053581238,-9.859625816345215,3.7046875953674316
1748142883973444000,2.596444091796875,-2.700300455093384,-10.191629409790039,3.1208388805389404
1748142883991712300,2.614712158203125,-5.041677474975586,-8.959325790405273,4.150949001312256
1748142884009974000,2.63297412109375,-2.6985056400299072,-9.202198028564453,6.10169792175293
1748142884028240000,2.651239990234375,0.5120640397071838,-9.378069877624512,7.380661487579346
1748142884046503200,2.669503173828125,1.1479566097259521,-8.858827590942383,6.763313293457031
1748142884064768500,2.6877685546875,-0.15314064919948578,-8.563912391662598,5.43709135055542
1748142884083032000,2.706031982421875,-2.2510478496551514,-10.426126480102539,3.7842490673065186
1748142884101297400,2.72429736328125,-5.349154949188232,-13.831710815429688,3.5228331089019775
1748142884119560700,2.742560791015625,-4.942973613739014,-15.490535736083984,6.236293792724609
1748142884137826300,2.760826416015625,-3.035893678665161,-12.43968677520752,7.872386455535889
1748142884156089900,2.77908984375,0.064606212079525,-10.384251594543457,5.620141983032227
1748142884174355500,2.79735546875,0.5437689423561096,-10.049257278442383,5.782256126403809
1748142884192617700,2.81561767578125,-1.316650629043579,-11.665010452270508,5.052444934844971
1748142884210879700,2.833879638671875,0.17168502509593964,-14.613566398620605,3.7489547729492188
1748142884229148200,2.852148193359375,2.18045973777771,-14.671591758728027,1.4871392250061035
1748142884247414500,2.87041455078125,1.308275818824768,-13.2897367477417,1.7874385118484497
1748142884265672000,2.888671875,0.6065805554389954,-10.820941925048828,1.7922241687774658
1748142884283942000,2.90694189453125,-0.43908295035362244,-8.668598175048828,1.9698911905288696
1748142884302201000,2.925201171875,-1.755733609199524,-6.970292568206787,3.5198421478271484
1748142884320471000,2.943470947265625,-1.042074203491211,-6.502495765686035,5.523232936859131
1748142884338734600,2.961734619140625,1.3932210206985474,-6.561717987060547,5.7996039390563965
1748142884357000000,2.98,-1.2352946996688843,-6.20219612121582,6.1603217124938965
1748142884375263500,2.998263427734375,-3.040081262588501,-6.616752624511719,4.77667236328125
1748142884393526300,3.0165263671875,-1.007378339767456,-7.568498134613037,2.259422779083252
1748142884411794700,3.034794677734375,0.2793620526790619,-7.475177764892578,1.0995019674301147
1748142884430055200,3.05305517578125,0.3678964674472809,-6.677769660949707,0.8422735929489136
1748142884448323600,3.071323486328125,0.5132604837417603,-6.536593437194824,-0.4253242313861847
1748142884466581500,3.08958154296875,-0.2548356056213379,-4.8227338790893555,-0.851844847202301
1748142884484849400,3.107849365234375,0.004785645287483931,-4.9435715675354,-1.9334007501602173
1748142884503116800,3.12611669921875,0.3684946894645691,-4.446462631225586,-2.2061824798583984
1748142884521379000,3.144379150390625,0.45104706287384033,-4.803591251373291,-2.9001009464263916
1748142884539643400,3.162643310546875,-1.2939188480377197,-5.175675392150879,-3.4851462841033936
1748142884557909000,3.180908935546875,-5.215754985809326,-5.037489891052246,-2.7589244842529297
1748142884576169000,3.1991689453125,-10.220941543579102,-6.010172367095947,-0.19561325013637543
1748142884594436900,3.217436767578125,-11.147562026977539,-12.592827796936035,4.183252334594727
1748142884612702700,3.23570263671875,-17.159528732299805,-21.604196548461914,13.71506118774414
1748142884630964700,3.25396484375,-16.689340591430664,-22.557138442993164,12.440882682800293
1748142884649242400,3.272242431640625,-7.285546779632568,-14.635101318359375,3.6023945808410645
1748142884667495200,3.2904951171875,-1.7479569911956787,-9.21416187286377,0.8147560954093933
1748142884685756700,3.308756591796875,5.219344615936279,-12.1597261428833,-1.2759727239608765
1748142884704023600,3.3270234375,7.2783684730529785,-14.349757194519043,-1.0773683786392212
1748142884722283500,3.345283447265625,3.4618160724639893,-13.39561939239502,0.3332005441188812
1748142884740551400,3.363551513671875,0.8608179688453674,-9.834501266479492,0.8081758618354797
1748142884758819000,3.381819091796875,0.6963114142417908,-6.466004848480225,0.19621145725250244
1748142884777081300,3.400081298828125,0.9194421172142029,-4.471587181091309,0.380458801984787
1748142884795351300,3.418351318359375,0.893121063709259,-3.3026933670043945,1.26699960231781
1748142884813604400,3.436604248046875,0.8638089895248413,-3.1304101943969727,2.7595226764678955
1748142884831876900,3.454876953125,0.9349954724311829,-4.574478626251221,4.722833633422852
1748142884850139100,3.47313916015625,1.0516455173492432,-7.5427751541137695,6.368497371673584
1748142884868404500,3.491404541015625,0.9840483069419861,-11.799606323242188,5.18105936050415
1748142884886668500,3.50966845703125,1.950150489807129,-15.75853157043457,1.0079765319824219
1748142884904934000,3.527933837890625,1.333998680114746,-14.039886474609375,1.7479569911956787
1748142884923192300,3.5461923828125,-0.07118647545576096,-10.522438049316406,3.2482566833496094
1748142884941462300,3.564462158203125,-3.3589248657226562,-8.407182693481445,2.287538528442383
1748142884959726000,3.58272607421875,-4.537988185882568,-8.435297966003418,2.4813570976257324
1748142884977991400,3.600991455078125,-1.6671991348266602,-8.609973907470703,3.431307554244995
1748142884996255200,3.619255126953125,0.26620152592658997,-9.122037887573242,4.057629108428955
1748142885014520800,3.637520751953125,0.31405797600746155,-9.878170013427734,3.544966697692871
1748142885032784000,3.655783935546875,0.3068794906139374,-9.217751502990723,3.5168511867523193
1748142885051048700,3.674048583984375,0.9720842242240906,-9.09811019897461,2.0715861320495605
1748142885069309000,3.692308837890625,0.6903293132781982,-7.262814998626709,2.8013970851898193
1748142885087579000,3.710578857421875,0.4695914387702942,-8.063812255859375,3.59043025970459
1748142885105842000,3.728842041015625,0.09212367236614227,-8.816953659057617,4.6372904777526855
1748142885124107500,3.747107421875,-1.726421594619751,-9.592227935791016,4.190430641174316
1748142885142370800,3.765370849609375,-2.2654049396514893,-10.50209903717041,3.965505361557007
1748142885160635400,3.783635498046875,-0.5060819983482361,-10.509875297546387,4.961517810821533
1748142885178900700,3.801900634765625,-0.6735795736312866,-10.41894817352295,4.478765964508057
1748142885197161500,3.820161376953125,-0.9379864931106567,-10.085747718811035,3.4133615493774414
1748142885215424000,3.838424072265625,-0.50129634141922,-10.876575469970703,3.6646077632904053
1748142885233694200,3.856694091796875,-1.1078768968582153,-11.812767028808594,6.716054916381836
1748142885251956500,3.87495654296875,-2.6907291412353516,-14.749359130859375,8.37009334564209
1748142885270226200,3.89322607421875,-2.252842426300049,-15.6167573928833,7.306483745574951
1748142885288486700,3.911486572265625,-0.4055834412574768,-11.003993034362793,5.821139335632324
1748142885306752300,3.929752197265625,-1.4656038284301758,-7.802396297454834,4.4410786628723145
1748142885325011000,3.948010986328125,-1.8729819059371948,-8.679964065551758,3.2931220531463623
1748142885343279900,3.96627978515625,-0.5970092415809631,-9.811769485473633,3.661616802215576
1748142885361546000,3.9845458984375,0.6101697683334351,-10.87717342376709,3.2656047344207764
1748142885379810000,4.00281005859375,0.8548358678817749,-13.62054443359375,0.5874379873275757
1748142885398073600,4.021073486328125,1.0875378847122192,-13.184453010559082,1.1665010452270508
1748142885416339000,4.0393388671875,-0.6113662123680115,-11.228918075561523,0.3643072545528412
1748142885434601500,4.0576015625,-1.755733609199524,-8.311469078063965,0.09870393574237823
1748142885452869000,4.075869140625,-1.594218134880066,-6.387639999389648,2.2671995162963867
1748142885471131000,4.094130859375,-0.023330021649599075,-6.019145488739014,3.6323046684265137
1748142885489397000,4.11239697265625,-0.15254244208335876,-6.355337142944336,4.129413604736328
1748142885507660500,4.13066064453125,-2.489133834838867,-7.536194801330566,5.218746185302734
1748142885525925600,4.148925537109375,-3.5922250747680664,-8.790034294128418,5.061418056488037
1748142885544182000,4.16718212890625,-1.4291132688522339,-8.653642654418945,3.191427230834961
1748142885562457300,4.185457275390625,0.3194418251514435,-7.517650604248047,1.9698911905288696
1748142885580713500,4.20371337890625,0.35054850578308105,-6.102894306182861,0.7668996453285217
1748142885598982400,4.221982421875,0.03768695518374443,-4.933402061462402,-0.16869398951530457
1748142885617248300,4.240248291015625,0.061016976833343506,-4.525425910949707,-1.124626636505127
1748142885635508500,4.258508544921875,-0.17347964644432068,-4.529015064239502,-1.3058829307556152
1748142885653776100,4.276776123046875,-0.8410771489143372,-4.549354076385498,-1.0462616682052612
1748142885672041500,4.29504150390625,-1.7389838695526123,-4.701896667480469,-0.7668996453285217
1748142885690304800,4.3133046875,-2.678765058517456,-5.894120216369629,-0.5180460810661316
1748142885708571000,4.33157080078125,-4.894518852233887,-8.177471160888672,0.8039883971214294
1748142885726834000,4.349833984375,-7.738986492156982,-12.023933410644531,5.280959606170654
1748142885745099800,4.368099853515625,-16.646268844604492,-17.706289291381836,14.379667282104492
1748142885763362600,4.386362548828125,-14.193625450134277,-19.32742691040039,16.35673713684082
1748142885781627400,4.40462744140625,-11.953943252563477,-14.470595359802246,12.790833473205566
1748142885799887400,4.422887451171875,-9.251849174499512,-10.129416465759277,8.11824893951416
1748142885818161200,4.4411611328125,-0.49351966381073,-9.910472869873047,7.004390239715576
1748142885836416000,4.459416015625,8.613563537597656,-13.551751136779785,2.5986053943634033
1748142885854685400,4.477685546875,7.136593341827393,-14.58604907989502,-0.001794616924598813
1748142885872950800,4.49595068359375,4.536791801452637,-10.664212226867676,0.2632105052471161
1748142885891211800,4.514211669921875,2.3270199298858643,-6.687341213226318,-0.2189432680606842
1748142885909478400,4.532478515625,1.832902193069458,-4.22512674331665,-1.1611171960830688
1748142885927744300,4.550744140625,1.5176477432250977,-3.035893678665161,-1.3597214221954346
1748142885946007600,4.569007568359375,0.9296116232872009,-4.034897327423096,-0.07836493849754333
1748142885964258300,4.58725830078125,0.5599204897880554,-8.093722343444824,1.6959130764007568
1748142885982539300,4.605539306640625,0.7322037220001221,-12.265010833740234,2.7846474647521973
1748142886000801300,4.62380126953125,-1.428515076637268,-13.664812088012695,3.806382656097412
1748142886019066000,4.642066162109375,-4.750949382781982,-10.76530933380127,5.013561725616455
1748142886037331200,4.660331298828125,-4.146163463592529,-8.050651550292969,5.8097734451293945
1748142886055594500,4.678594482421875,-0.9954141974449158,-7.453044414520264,4.804189682006836
1748142886073860000,4.696860107421875,1.540379524230957,-7.82692289352417,3.923032760620117
1748142886092124000,4.7151240234375,2.008176326751709,-8.127820014953613,4.241876125335693
1748142886110388000,4.733387939453125,1.1120643615722656,-8.033304214477539,4.7796630859375
1748142886128655400,4.7516552734375,-0.34277185797691345,-7.836493968963623,4.835894584655762
1748142886146916900,4.769916748046875,-2.0135602951049805,-7.837690353393555,4.872983455657959
1748142886165176600,4.788176513671875,-1.679761528968811,-8.067401885986328,5.044070243835449
1748142886183442400,4.8064423828125,-0.3355933725833893,-8.330612182617188,4.825725078582764
1748142886201710300,4.82471044921875,0.43549370765686035,-8.6243314743042,4.340580463409424
1748142886219976000,4.842975830078125,0.5144568681716919,-8.786444664001465,3.570091485977173
1748142886238239500,4.861239501953125,-0.7920243144035339,-9.098708152770996,2.9551360607147217
1748142886256505000,4.879505126953125,-3.720839262008667,-8.5764741897583,3.139383316040039
1748142886274768600,4.8977685546875,-4.436891555786133,-7.830512046813965,5.705685615539551
1748142886293034200,4.9160341796875,-1.301695466041565,-8.61894702911377,8.074580192565918
1748142886311297300,4.93429736328125,0.592223584651947,-8.998209953308105,8.285148620605469
1748142886329563000,4.95256298828125,0.014955141581594944,-8.045866012573242,6.98704195022583
1748142886347826400,4.970826416015625,-1.7964116334915161,-9.481559753417969,6.505486488342285
1748142886366090500,4.989090576171875,-4.587040901184082,-12.926626205444336,6.956533432006836
1748142886384356900,5.00735693359375,-4.596612453460693,-14.745769500732422,7.886743545532227
1748142886402620000,5.025619873046875,-2.0751755237579346,-13.912468910217285,7.107281684875488
1748142886420884700,5.043884765625,-1.6558332443237305,-12.628121376037598,4.831707000732422
1748142886439151000,5.062151123046875,-2.53399920463562,-12.382259368896484,2.7008986473083496
1748142886457413400,5.080413330078125,-3.102294445037842,-14.256437301635742,1.7096717357635498
1748142886475679000,5.098678955078125,0.0687936544418335,-15.507285118103027,0.42412781715393066
1748142886493942500,5.116942626953125,1.2287144660949707,-15.019149780273438,-0.43908295035362244
1748142886512204000,5.1352041015625,0.5742774605751038,-13.244871139526367,-1.3770694732666016
1748142886530471400,5.153471435546875,0.5096712112426758,-9.181859016418457,0.5994020700454712
1748142886548737000,5.171737060546875,1.7018951177597046,-5.8851470947265625,2.4711875915527344
1748142886567000000,5.19,2.984447956085205,-4.256233215332031,4.809573650360107
1748142886585266000,5.208265869140625,1.2574282884597778,-3.6155550479888916,5.995815277099609
1748142886603529200,5.226529296875,-2.038684844970703,-4.078566074371338,7.929814338684082
1748142886621792500,5.24479248046875,-5.330012321472168,-4.028914928436279,10.65822982788086
1748142886640061000,5.26306103515625,-2.927020311355591,-5.237888813018799,9.541379928588867
1748142886658323700,5.28132373046875,-0.5850451588630676,-7.664210796356201,5.13320255279541
1748142886676588000,5.299588134765625,-0.11066804826259613,-8.651249885559082,1.6917256116867065
1748142886694847000,5.317846923828125,0.1782652884721756,-8.244470596313477,0.17108681797981262
1748142886713115100,5.336115234375,0.38285163044929504,-6.739983081817627,-0.5641079545021057
1748142886731382800,5.3543828125,0.19920247793197632,-5.4526448249816895,-1.4368900060653687
1748142886749644300,5.372644287109375,0.3008974492549896,-4.792823791503906,-1.9046868085861206
1748142886767912000,5.390911865234375,-0.5204389095306396,-4.670191764831543,-2.300100803375244
1748142886786169600,5.409169677734375,-1.5960127115249634,-4.641477584838867,-2.8139593601226807
1748142886804439800,5.427439697265625,-2.7517459392547607,-5.700301647186279,-3.3583266735076904
1748142886822703000,5.445703125,-4.364508628845215,-8.077570915222168,-2.946761131286621
1748142886840967400,5.463967529296875,-7.0546393394470215,-10.74257755279541,0.11605189740657806
1748142886859231700,5.482231689453125,-12.829118728637695,-15.485151290893555,8.37727165222168
1748142886877485600,5.500485595703125,-19.31606101989746,-21.19622039794922,21.129222869873047
1748142886895761000,5.518760986328125,-9.78245735168457,-16.99203109741211,16.456039428710938
1748142886914026200,5.537026123046875,-8.660821914672852,-8.639286041259766,10.950753211975098
1748142886932290000,5.5552900390625,1.0492527484893799,-8.851649284362793,11.139785766601562
1748142886950550500,5.573550537109375,5.977869033813477,-15.214762687683105,5.175076961517334
1748142886968822300,5.591822265625,5.680561065673828,-16.70608901977539,3.2650065422058105
1748142886987085600,5.61008544921875,3.7118661403656006,-11.979666709899902,2.5393829345703125
1748142887005350700,5.6283505859375,2.874976396560669,-6.643074035644531,-0.722034215927124
1748142887023612200,5.646612060546875,1.6013965606689453,-4.60857629776001,-1.5296118259429932
1748142887041878300,5.664878173828125,1.49611234664917,-3.1692936420440674,-2.1062822341918945
1748142887060142800,5.683142822265625,1.2855439186096191,-3.4295129776000977,-1.8813568353652954
1748142887078406100,5.70140625,1.0097711086273193,-6.8380889892578125,0.09451649338006973
1748142887096671500,5.71967138671875,0.8105686902999878,-11.273185729980469,1.9202401638031006
1748142887114934800,5.737934814453125,0.09930214285850525,-14.955739974975586,2.0985054969787598
1748142887133195800,5.75619580078125,-0.778863787651062,-12.491132736206055,2.1756739616394043
1748142887151464000,5.7744638671875,-2.77866530418396,-8.642276763916016,3.7160534858703613
1748142887169729300,5.792729248046875,-2.967698335647583,-6.289534091949463,4.623531341552734
1748142887187992800,5.810992919921875,-0.43489551544189453,-6.354140758514404,3.881756544113159
1748142887206254000,5.829254150390625,1.2813565731048584,-7.222136974334717,4.264009952545166
1748142887224520700,5.847520751953125,1.963310956954956,-7.800003528594971,4.820939540863037
1748142887242788900,5.865788818359375,2.0207388401031494,-8.047062873840332,5.361119270324707
1748142887261051100,5.884051025390625,0.9367900490760803,-7.708477973937988,6.507281303405762
1748142887279316700,5.902316650390625,-0.8177471160888672,-7.182655334472656,6.698108673095703
1748142887297580300,5.920580322265625,-1.0713863372802734,-6.754340171813965,5.79063081741333
1748142887315845400,5.938845458984375,0.15972091257572174,-7.743772506713867,5.136193752288818
1748142887334109000,5.95710888671875,0.3798605799674988,-9.403194427490234,4.2006001472473145
1748142887352374500,5.97537451171875,-0.4588237404823303,-10.729416847229004,3.1435706615448
1748142887370636800,5.99363671875,-2.536990165710449,-11.342577934265137,1.76051926612854
1748142887388904400,6.011904541015625,-4.2622151374816895,-10.702497482299805,1.7790635824203491
1748142887407162600,6.03016259765625,-1.1527422666549683,-9.69930648803711,4.5816569328308105
1748142887425427700,6.048427734375,1.3286148309707642,-9.192028045654297,7.197610378265381
1748142887443695900,6.06669580078125,1.545763373374939,-8.561519622802734,7.135995388031006
1748142887461961500,6.08496142578125,0.9649057388305664,-7.813164234161377,6.607181549072266
1748142887480224300,6.103224365234375,-2.0895323753356934,-10.4823579788208,7.269993305206299
1748142887498491600,6.12149169921875,-7.381857872009277,-13.943575859069824,7.731209754943848
1748142887516754000,6.13975390625,-4.456632137298584,-13.686347007751465,8.73918628692627
1748142887535019500,6.15801953125,0.24945175647735596,-11.875578880310059,7.392027378082275
1748142887553278200,6.1762783203125,0.6293123364448547,-10.814361572265625,5.0255255699157715
1748142887571548200,6.194548095703125,-0.5653043389320374,-11.237293243408203,3.4205398559570312
1748142887589811700,6.212811767578125,-1.2275179624557495,-12.403196334838867,2.076371908187866
1748142887608077600,6.23107763671875,-0.15194423496723175,-14.156537055969238,1.5643078088760376
1748142887626340900,6.2493408203125,-0.1537388563156128,-14.993426322937012,0.25304099917411804
1748142887644605400,6.26760546875,-0.9475577473640442,-14.4532470703125,-1.0360921621322632
1748142887662870800,6.285870849609375,-0.8703892230987549,-10.933404922485352,-0.6867401003837585
1748142887681135600,6.304135498046875,0.1423729509115219,-7.250850677490234,1.4685949087142944
1748142887699398100,6.322398193359375,1.2628121376037598,-5.175076961517334,3.214757204055786
1748142887717665300,6.340665283203125,1.7288143634796143,-4.9393839836120605,3.9936211109161377
1748142887735926800,6.3589267578125,0.09930214285850525,-5.985645771026611,4.947160720825195
1748142887754190600,6.377190673828125,-3.6634113788604736,-5.923432350158691,8.203194618225098
1748142887772457000,6.39545703125,-5.105685234069824,-5.517251014709473,9.273384094238281
1748142887790722300,6.413722412109375,-1.8855443000793457,-6.479165554046631,6.084349632263184
1748142887808985900,6.43198583984375,0.017946170642971992,-7.188039302825928,2.9802606105804443
1748142887827251500,6.45025146484375,0.24825534224510193,-6.942774772644043,1.1910275220870972
1748142887845529600,6.468529541015625,0.053240302950143814,-6.201598167419434,0.48035913705825806
1748142887863762400,6.486762451171875,-0.14656038582324982,-5.521438121795654,-0.4701896607875824
1748142887882046700,6.505046630859375,-0.013160524889826775,-4.957330226898193,-1.3399807214736938
1748142887900309500,6.5233095703125,-0.42771705985069275,-4.347758769989014,-1.9794625043869019
1748142887918572500,6.541572509765625,-1.4135600328445435,-3.497708559036255,-2.3300111293792725
1748142887936838700,6.559838623046875,-3.2608189582824707,-3.5886356830596924,-2.201396942138672
1748142887955088000,6.578087890625,-4.800002098083496,-6.254838466644287,-0.5760720372200012
1748142887973367600,6.596367431640625,-4.9052863121032715,-11.00279712677002,2.8755745887756348
1748142887991629600,6.614629638671875,-7.372884750366211,-16.736000061035156,10.056435585021973
1748142888009897700,6.632897705078125,-24.120250701904297,-20.304296493530273,21.0783748626709
1748142888037291000,6.660291015625,-8.107481002807617,-7.705487251281738,13.036097526550293
1748142888055553300,6.67855322265625,-2.2396819591522217,-3.384049415588379,8.514261245727539
1748142888073821400,6.696821533203125,3.5132617950439453,-6.072983741760254,5.365306377410889
1748142888092085500,6.71508544921875,6.412166595458984,-13.868800163269043,3.033500909805298
1748142888110350000,6.73335009765625,4.8161540031433105,-18.95294952392578,4.794020175933838
1748142888128613600,6.751613525390625,2.7834508419036865,-17.242679595947266,4.261018753051758
1748142888146880800,6.769880859375,2.65423846244812,-11.733205795288086,1.308275818824768
1748142888165143800,6.788143798828125,-4.734797954559326,-8.584251403808594,-3.2004003524780273
1748142888183408400,6.806408447265625,-3.620938777923584,-5.344967365264893,-4.049253940582275
1748142888201672200,6.824672119140625,0.3439682424068451,-5.054239749908447,-1.456032633781433
1748142888219937500,6.8429375,1.5254244804382324,-5.813961029052734,0.534795880317688
1748142888238195000,6.86119482421875,2.155334949493408,-8.357531547546387,2.4909284114837646
1748142888256468700,6.87946875,2.9724838733673096,-12.05204963684082,3.0239295959472656
1748142888274726400,6.897726318359375,1.576870083808899,-12.368500709533691,2.825923442840576
1748142888292994300,6.915994384765625,-0.44327038526535034,-10.202397346496582,2.9527430534362793
1748142888311260700,6.9342607421875,-3.513859987258911,-8.064410209655762,3.0203404426574707
1748142888329524200,6.952524169921875,-2.851048231124878,-6.9134626388549805,2.6470601558685303
1748142888347788800,6.970788818359375,0.28235307335853577,-6.823731899261475,3.218944549560547
1748142888366053400,6.989053466796875,1.7168502807617188,-7.723433494567871,3.6023945808410645
1748142888384317700,7.007317626953125,1.1425727605819702,-8.836095809936523,4.701896667480469
1748142888402582500,7.02558251953125,0.6699903607368469,-9.090332984924316,5.1188459396362305
1748142888420845300,7.04384521484375,0.43489551544189453,-8.215158462524414,5.2115678787231445
1748142888439113000,7.062113037109375,-0.03469592705368996,-7.547560691833496,5.438287734985352
1748142888457369600,7.08036962890625,-0.1579262912273407,-7.147959232330322,5.113461971282959
1748142888475639600,7.0986396484375,-0.17527425289154053,-7.547560691833496,4.5200419425964355
1748142888493891000,7.11689111328125,-1.5936198234558105,-8.338987350463867,3.7471601963043213
1748142888512164900,7.135164794921875,-3.422334671020508,-8.990432739257812,4.773681163787842
1748142888530428400,7.153428466796875,-2.4233310222625732,-8.8707914352417,6.708876609802246
1748142888548697000,7.171697021484375,-0.2548356056213379,-9.255437850952148,7.813164234161377
1748142888566963500,7.18996337890625,0.39062830805778503,-9.439684867858887,6.7447686195373535
1748142888585223700,7.2082236328125,0.9810572862625122,-8.958727836608887,5.405386447906494
1748142888603491300,7.2264912109375,-0.4588237404823303,-10.106684684753418,4.105485439300537
1748142888621751600,7.24475146484375,-5.443671703338623,-11.918051719665527,1.072582721710205
1748142888640020200,7.263020263671875,-7.211369037628174,-13.316058158874512,0.8446664214134216
1748142888658285600,7.28128564453125,-2.1960129737854004,-13.731810569763184,6.1944193840026855
1748142888676549400,7.29954931640625,1.2574282884597778,-12.554542541503906,8.771489143371582
1748142888694814500,7.317814453125,0.7202396392822266,-11.074581146240234,9.281759262084961
1748142888713078800,7.336078857421875,-0.6460621356964111,-9.434301376342773,8.210970878601074
1748142888731343600,7.354343505859375,-2.183450698852539,-10.65822982788086,6.380461692810059
1748142888749606000,7.37260595703125,-1.1461620330810547,-13.462019920349121,3.7148571014404297
1748142888767873500,7.39087353515625,1.2035897970199585,-14.732608795166016,2.3784656524658203
1748142888786137000,7.40913720703125,1.4685949087142944,-16.772489547729492,1.0169496536254883
1748142888804401400,7.4274013671875,0.18544375896453857,-16.23051643371582,-1.2897313833236694
1748142888822665700,7.445665771484375,-0.11724831163883209,-10.932806968688965,-1.0037890672683716
1748142888840929300,7.46392919921875,0.28175488114356995,-6.326025009155273,0.3361915946006775
1748142888859189500,7.482189453125,1.4428720474243164,-4.744369029998779,1.9663020372390747
1748142888877456600,7.50045654296875,1.225723385810852,-4.048655986785889,3.665804386138916
1748142888895722500,7.518722412109375,-0.9002995491027832,-5.168497085571289,4.773681163787842
1748142888913989400,7.5369892578125,-5.342574596405029,-6.168098449707031,7.206583499908447
1748142888932253200,7.555253173828125,-3.10109806060791,-7.16650390625,7.927421569824219
1748142888950517800,7.573517822265625,0.43489551544189453,-7.943572998046875,6.766304016113281
1748142888968781800,7.59178173828125,0.15074782073497772,-7.179066181182861,2.664407968521118
1748142888987046400,7.61004638671875,-0.32721850275993347,-5.134997367858887,1.2765709161758423
1748142889005311000,7.62831103515625,-0.29371899366378784,-4.1760735511779785,-0.2386840581893921
1748142889023575800,7.646575927734375,-0.11964113265275955,-4.158725738525391,-1.3914263248443604
1748142889041839400,7.66483935546875,-0.15074782073497772,-4.552943229675293,-1.6737794876098633
1748142889060104400,7.6831044921875,-0.6478567123413086,-4.797609329223633,-1.5583257675170898
1748142889078369000,7.701369140625,-1.1395817995071411,-4.823930263519287,-1.4476577043533325
1748142889096632800,7.7196328125,-1.5337992906570435,-5.657829284667969,-1.1371889114379883
1748142889114898700,7.737898681640625,-2.610569477081299,-8.416753768920898,0.06699903309345245
1748142889133158000,7.756157958984375,-5.507081508636475,-11.579466819763184,3.7082769870758057
1748142889151425800,7.77442578125,-13.266407012939453,-14.1194486618042,8.872586250305176
1748142889169692700,7.792692626953125,-22.20659065246582,-16.640884399414062,22.48116683959961
1748142889187955700,7.810955810546875,-5.748157978057861,-13.396217346191406,16.590635299682617
1748142889206228000,7.82922802734375,-2.527418851852417,-6.792026996612549,11.274980545043945
1748142889224485000,7.847485107421875,-3.8147575855255127,-3.1968109607696533,6.4426751136779785
1748142889242751000,7.8657509765625,-1.0767701864242554,-3.7190446853637695,4.627718925476074
1748142889261011700,7.88401171875,2.988635540008545,-9.823135375976562,5.715256690979004
1748142889279279600,7.902279541015625,4.634299278259277,-16.69472312927246,6.6490559577941895
1748142889297543200,7.920543212890625,3.9529430866241455,-21.9744873046875,6.006583213806152
1748142889315807700,7.938807861328125,0.7573283910751343,-18.503698348999023,-0.12741780281066895
1748142889334072000,7.957072021484375,-3.0795626640319824,-10.116853713989258,-3.1339993476867676
1748142889352336600,7.975336669921875,-1.7521443367004395,-5.516054630279541,-4.728217601776123
1748142889370599700,7.993599609375,1.1599208116531372,-4.094119548797607,-3.1926236152648926
1748142889388862200,8.0118623046875,2.4017956256866455,-3.899702787399292,-1.3058829307556152
1748142889407128800,8.03012890625,1.714457392692566,-5.928217887878418,1.911865234375
1748142889425391000,8.04839111328125,1.374078392982483,-9.81655502319336,3.456432342529297
1748142889443659300,8.0666591796875,1.4231312274932861,-12.586247444152832,2.7972097396850586
1748142889461924000,8.084924072265625,2.283949136734009,-12.686147689819336,1.6187444925308228
1748142889480183000,8.10318310546875,1.3178470134735107,-9.977472305297852,4.278964996337891
1748142889498453000,8.121452880859374,-3.036491870880127,-8.131409645080566,6.615556240081787
1748142889516717300,8.13971728515625,-4.543970108032227,-7.435696601867676,6.1465630531311035
1748142889534981400,8.1579814453125,-2.0033907890319824,-7.390830993652344,6.3224358558654785
1748142889553246000,8.176245849609375,0.8482556343078613,-7.190432071685791,6.608377933502197
1748142889571493000,8.1944931640625,1.3680963516235352,-7.221538543701172,6.430112838745117
1748142889589775400,8.212775390625,0.26919254660606384,-7.2921271324157715,6.131010055541992
1748142889608040000,8.2310400390625,-0.003589233849197626,-7.03489875793457,5.520241737365723
1748142889626304000,8.249303955078124,0.6065805554389954,-7.03788948059082,5.222335338592529
1748142889644568600,8.267568603515626,0.631106972694397,-7.731808185577393,4.8191447257995605
1748142889662832000,8.28583203125,-0.02273181453347206,-8.531609535217285,4.088137626647949
1748142889681099000,8.30409912109375,-0.8901300430297852,-8.993423461914062,3.500699520111084
1748142889699361800,8.32236181640625,-1.4602199792861938,-9.30449104309082,3.425325632095337
1748142889717625300,8.340625244140625,-1.7563318014144897,-9.58325481414795,3.7842490673065186
1748142889735892500,8.358892578125,-1.3046865463256836,-9.93559741973877,5.442475318908691
1748142889754159400,8.377159423828125,-0.45523449778556824,-9.720842361450195,6.6939215660095215
1748142889772420000,8.395420166015626,0.8488538265228271,-8.240283012390137,6.668796539306641
1748142889790684700,8.4136845703125,2.2025933265686035,-7.429714202880859,6.509674072265625
1748142889808949200,8.43194921875,0.9996016621589661,-8.9581298828125,6.9930243492126465
1748142889827210000,8.4502099609375,-3.6400814056396484,-11.653046607971191,7.70249605178833
1748142889845474300,8.468474365234375,-5.735595703125,-13.627124786376953,10.703095436096191
1748142889863731700,8.486731689453125,-4.05403995513916,-13.513465881347656,7.269993305206299
1748142889882007600,8.505007568359375,-0.9900303483009338,-12.19382381439209,4.8502516746521
1748142889900267300,8.523267333984375,0.18305093050003052,-11.132009506225586,2.840280532836914
1748142889918535000,8.541534912109375,-1.5708880424499512,-11.337193489074707,2.3700907230377197
1748142889964196400,8.5871962890625,3.25663161277771,-10.067801475524902,2.6297121047973633
1748142889982464500,8.605464599609375,0.2805584669113159,-11.531610488891602,2.3563320636749268
1748142890000726500,8.6237265625,-4.144967079162598,-11.101500511169434,3.428316593170166
1748142890018992400,8.641992431640626,-3.056830883026123,-10.00439167022705,3.5617165565490723
1748142890037256000,8.660255859375,-1.8454644680023193,-9.122037887573242,3.607778310775757
1748142890055529500,8.678529541015624,-1.5140584707260132,-8.377870559692383,3.1728827953338623
1748142890073784300,8.696784423828126,-0.9912267923355103,-8.209774017333984,1.9764715433120728
1748142890092050700,8.71505078125,0.5312066078186035,-8.112865447998047,1.7341982126235962
1748142890110299400,8.73329931640625,1.1611171960830688,-7.179664134979248,1.9639091491699219
1748142890128579600,8.75157958984375,0.8817551732063293,-5.885745525360107,2.884547710418701
1748142890146842400,8.76984228515625,-0.42711883783340454,-5.26181697845459,3.3619158267974854
1748142890165108200,8.788108154296875,-1.2281162738800049,-4.883152961730957,3.129812002182007
1748142890183371800,8.806371826171874,-0.8105686902999878,-4.424927234649658,1.445863127708435
1748142890201636400,8.82463623046875,-0.3762713670730591,-3.477369546890259,0.08315058797597885
1748142890219900400,8.842900390625,-0.6041877269744873,-2.8636105060577393,-0.4749752879142761
1748142890238163700,8.861163818359374,-1.6701902151107788,-3.153141975402832,-0.6119644045829773
1748142890256429600,8.8794296875,-3.421736478805542,-4.208974838256836,-0.5569294691085815
1748142890274696000,8.897696044921876,-5.525625705718994,-6.506682872772217,1.716252088546753
1748142890292958700,8.915958740234375,-5.820540904998779,-10.49252700805664,8.187042236328125
1748142890311225600,8.9342255859375,-20.215761184692383,-17.56989860534668,16.48236083984375
1748142890329488000,8.95248779296875,-15.204593658447266,-19.712671279907227,15.689140319824219
1748142890347753700,8.970753662109376,-10.893324851989746,-10.007980346679688,8.127222061157227
1748142890366017000,8.98901708984375,-6.372086524963379,-6.578467845916748,2.9282166957855225
1748142890384283000,9.007282958984375,-3.049652576446533,-11.10209846496582,2.60339093208313
1748142890402546200,9.025546142578126,5.843871116638184,-17.30967903137207,4.512265205383301
1748142890420810500,9.043810546875,8.451449394226074,-20.362321853637695,4.038486480712891
1748142890439076400,9.062076416015625,5.585446357727051,-13.794024467468262,2.4849462509155273
1748142890457336000,9.080336181640625,3.071187973022461,-7.474579811096191,0.9020941257476807
1748142890475603000,9.09860302734375,2.562114953994751,-4.018745422363281,-0.17766708135604858
1748142890493871000,9.11687109375,2.286342144012451,-2.2791635990142822,-0.5330012440681458
1748142890512133400,9.13513330078125,1.4015958309173584,-2.26959228515625,0.7890332937240601
1748142890530399000,9.15339892578125,0.7022934556007385,-4.854438781738281,2.0685951709747314
1748142890548662500,9.17166259765625,0.7256234884262085,-9.219545364379883,2.999403238296509
1748142890566927600,9.189927734375,1.1012966632843018,-13.349557876586914,3.160320520401001
1748142890585186600,9.2081865234375,2.9790642261505127,-14.257035255432129,1.6247265338897705
1748142890603456800,9.226456787109376,-2.812164783477783,-10.718050956726074,3.1968109607696533
1748142890621720300,9.24472021484375,-9.31585693359375,-8.311469078063965,4.529613494873047
1748142890639986000,9.26298583984375,-5.934200286865234,-6.798008918762207,4.801796913146973
1748142890658249200,9.281249267578126,-1.0390832424163818,-6.98704195022583,5.737390518188477
1748142890676515000,9.29951513671875,0.25722843408584595,-7.7007012367248535,5.843871116638184
1748142890694778400,9.3177783203125,-0.2267199456691742,-7.983652591705322,5.767899036407471
1748142890713043700,9.336043701171874,-0.3355933725833893,-7.727022647857666,5.577071189880371
1748142890731306200,9.35430615234375,0.36251261830329895,-7.383054256439209,5.480760097503662
1748142890749574400,9.372574462890626,0.7136593461036682,-7.351947784423828,4.618745803833008
1748142890767836400,9.39083642578125,0.6442674994468689,-7.475776195526123,3.9876389503479004
1748142890786102300,9.409102294921874,0.8656035661697388,-8.113463401794434,3.751945972442627
1748142890804360700,9.427360595703124,-0.0687936544418335,-8.840283393859863,3.5617165565490723
1748142890822630000,9.4456298828125,-2.3270199298858643,-9.014959335327148,3.6472599506378174
1748142890840894500,9.46389453125,-3.7489547729492188,-9.278767585754395,4.290929317474365
1748142890859163400,9.482163330078125,-1.459621787071228,-9.8207426071167,6.150750637054443
1748142890877426000,9.500426025390626,1.3184453248977661,-9.339186668395996,7.207181930541992
1748142890895689200,9.518689208984375,2.166102647781372,-9.181859016418457,7.922635555267334
1748142890913952800,9.536952880859374,1.0755738019943237,-10.928619384765625,9.912267684936523
1748142890932224500,9.555224609375,-2.9341988563537598,-13.098311424255371,11.443674087524414
1748142890950482700,9.573482666015625,-3.8883368968963623,-14.206188201904297,9.760323524475098
1748142890968742400,9.591742431640625,-2.940778970718384,-15.06281852722168,6.34217643737793
1748142890987009300,9.61000927734375,-1.953141450881958,-14.447264671325684,1.4051851034164429
1748142891005277200,9.628277099609376,-2.2408783435821533,-14.285151481628418,0.6604190468788147
1748142891023540000,9.6465400390625,-1.7407784461975098,-13.931612014770508,-0.2871387302875519
1748142891041805300,9.664805419921874,-0.06161518394947052,-12.571889877319336,-1.0019944906234741
1748142891060071200,9.6830712890625,0.5706881880760193,-10.451848983764648,-1.602592945098877
1748142891078337300,9.701337158203126,0.5647061467170715,-7.715058326721191,-0.7621139883995056
1748142891096597000,9.719596923828124,0.5180460810661316,-6.004190444946289,0.7184450030326843
1748142891114864000,9.737864013671874,0.8955138921737671,-5.501697540283203,2.0817556381225586
1748142891133127000,9.756126953125,1.7120646238327026,-6.279364585876465,3.2506494522094727
1748142891151396900,9.77439697265625,1.34476637840271,-7.355536937713623,3.1968109607696533
1748142891169656000,9.792656005859374,0.19262222945690155,-7.643871784210205,4.786841869354248
1748142891187910400,9.810910400390625,-3.91705060005188,-7.043871879577637,7.83410120010376
1748142891206180000,9.82918017578125,-6.269195556640625,-7.131807804107666,8.685347557067871
1748142891224450300,9.8474501953125,-3.397808074951172,-7.616952896118164,6.55992317199707
1748142891242713900,9.8657138671875,-0.6364908218383789,-7.455437183380127,3.3302109241485596
1748142891260977700,9.883977783203125,-0.3577269911766052,-6.365506649017334,0.4043870270252228
1748142891279244000,9.902244140625,-0.27038896083831787,-5.008177757263184,-0.9762716293334961
1748142891297508400,9.92050830078125,0.07417750358581543,-4.449453830718994,-1.4638092517852783
1748142891315767000,9.93876708984375,-0.45104706287384033,-4.466203689575195,-1.472184181213379
1748142891334036000,9.957035888671875,-1.6965112686157227,-4.521836757659912,-1.225723385810852
1748142891352302300,9.97530224609375,-2.8827531337738037,-4.292723655700684,-0.6203392744064331
1748142891370566100,9.993566162109374,-3.9433717727661133,-5.027918815612793,0.0933200865983963
1748142891388830000,10.011829833984375,-4.581058979034424,-7.869993686676025,1.6546368598937988
1748142891407095300,10.03009521484375,-4.3686957359313965,-12.415160179138184,5.8851470947265625
1748142891425354800,10.048354736328125,-6.872784614562988,-16.870595932006836,11.7385892868042
1748142891443623200,10.066623046875,-21.934406280517578,-20.510677337646484,19.203598022460938
1748142891461889000,10.084888916015625,-16.683956146240234,-13.653446197509766,15.743577003479004
1748142891480156000,10.103156005859375,-9.592227935791016,-7.51585578918457,7.176074981689453
1748142891498417400,10.12141748046875,0.48574298620224,-6.324828624725342,5.304887771606445
1748142891516682500,10.1396826171875,10.566106796264648,-11.7326078414917,1.755135416984558
1748142891534946300,10.1579462890625,7.386643409729004,-15.166308403015137,1.469791293144226
1748142891553207600,10.17620751953125,4.734797954559326,-12.739986419677734,2.4741785526275635
1748142891571470000,10.194469970703125,2.6458635330200195,-8.82114028930664,0.8297112584114075
1748142891589739500,10.212739501953125,2.0476579666137695,-6.158527374267578,-0.0933200865983963
1748142891608005000,10.231005126953125,1.4470595121383667,-4.502694129943848,-0.30508488416671753
1748142891626270000,10.24927001953125,1.0157532691955566,-4.781457901000977,-0.5198407173156738
1748142891644533200,10.267533203125,0.9439685344696045,-7.593024253845215,-0.0975075215101242
1748142891662798800,10.285798828125,0.9906286001205444,-10.989038467407227,0.9732806086540222
1748142891681062100,10.304062255859375,-0.9332008361816406,-12.689736366271973,1.7928223609924316
1748142891699327700,10.32232763671875,-4.927420139312744,-11.32522964477539,4.113860130310059
1748142891717592300,10.34059228515625,-4.768895626068115,-9.164510726928711,4.786243438720703
1748142891735856000,10.358856201171875,-1.6372889280319214,-7.849056243896484,4.623531341552734
1748142891754120400,10.377120361328124,0.7010970115661621,-7.632505893707275,4.034897327423096
1748142891772385800,10.3953857421875,1.4775680303573608,-7.907082557678223,3.7698919773101807
1748142891790648300,10.4136484375,1.4123635292053223,-7.925626754760742,4.377668857574463
1748142891808916000,10.431916015625,1.074975609779358,-7.8382887840271,4.851448059082031
1748142891827174000,10.450173828125,0.39900317788124084,-7.606783390045166,5.240880012512207
1748142891845438700,10.468438720703125,-0.17288143932819366,-7.4949188232421875,5.481358528137207
1748142891863698200,10.4866982421875,-0.34695929288864136,-7.817351341247559,5.20379114151001
1748142891881973200,10.50497314453125,-0.29312077164649963,-8.330612182617188,4.466801643371582
1748142891900236300,10.523236328125,-0.3888336718082428,-8.96231746673584,3.5712878704071045
1748142891918502000,10.541501953125,-0.8709874153137207,-9.777671813964844,2.925823926925659
1748142891936765400,10.559765380859375,-1.9411773681640625,-10.109675407409668,3.2004003524780273
1748142891955031300,10.57803125,-2.4335005283355713,-9.693324089050293,4.211368083953857
1748142891973291500,10.59629150390625,-1.6444673538208008,-9.58205795288086,6.333203315734863
1748142891991563300,10.614563232421874,-0.4989035129547119,-8.936594009399414,7.125227451324463
1748142892009820700,10.632820556640626,0.46719861030578613,-8.067401885986328,6.55992317199707
1748142892028092400,10.651092529296875,0.019740786403417587,-9.134002685546875,6.683752059936523
1748142892046352600,10.6693525390625,-2.172683000564575,-12.144771575927734,7.306483745574951
1748142892064605200,10.687605224609374,-3.920639991760254,-14.591432571411133,8.822935104370117
1748142892082878000,10.7058779296875,-2.984447956085205,-14.330016136169434,8.672785758972168
1748142892101148000,10.72414794921875,-1.805384635925293,-12.013764381408691,6.836892604827881
1748142892119410700,10.74241064453125,-1.7838492393493652,-10.979466438293457,4.3896331787109375
1748142892137676500,10.760676513671875,-1.6133606433868408,-12.082557678222656,3.76570463180542
1748142892155927800,10.778927734375,0.12861421704292297,-13.558929443359375,2.2055842876434326
1748142892174201000,10.797201171875,0.9834501147270203,-13.140783309936523,1.6067804098129272
1748142892192469000,10.815468994140625,0.9565308690071106,-11.169695854187012,0.9876375198364258
1748142892210734600,10.833734619140625,0.5700899958610535,-8.673981666564941,1.077966570854187
1748142892228985600,10.851985595703125,0.3008974492549896,-7.118647575378418,1.511067509651184
1748142892247263500,10.870263427734375,-0.005982056725770235,-6.285944938659668,1.6037893295288086
1748142892265516500,10.8885166015625,0.052043892443180084,-6.309873104095459,1.9866410493850708
1748142892283792600,10.906792724609375,-0.37866419553756714,-7.0199432373046875,2.579462766647339
1748142892302055700,10.9250556640625,-1.6187444925308228,-7.540980339050293,3.8919260501861572
1748142892320321500,10.943321533203125,-3.10528564453125,-7.874779224395752,5.688337802886963
1748142892338580200,10.961580322265625,-3.084348440170288,-8.045866012573242,6.463014125823975
1748142892356849400,10.979849365234376,-0.8955138921737671,-7.8526458740234375,5.224130153656006
1748142892375115000,10.998114990234376,0.07118647545576096,-7.103692054748535,1.4733805656433105
1748142892393379600,11.016379638671875,-0.3451646566390991,-6.024528980255127,-0.8147560954093933
1748142892411641900,11.034641845703124,-0.3888336718082428,-5.61116886138916,-1.612762451171875
1748142892429905000,11.05290478515625,-0.06041877344250679,-6.03529691696167,-1.4279168844223022
1748142892448167700,11.071167724609374,-0.08793623000383377,-6.134599208831787,-0.8392825126647949
1748142892466437400,11.089437255859375,-0.7387840151786804,-5.42871618270874,-0.6364908218383789
1748142892484701000,11.107700927734374,-1.490728497505188,-4.527220249176025,-0.9678967595100403
1748142892502966800,11.125966796875,-1.9746768474578857,-4.933402061462402,-1.1874382495880127
1748142892521230000,11.14422998046875,-3.2476584911346436,-6.603592395782471,0.15194423496723175
1748142892539496000,11.162495849609375,-7.0067830085754395,-10.289137840270996,5.0811591148376465
1748142892557759200,11.18075927734375,-20.242082595825195,-16.7198486328125,16.134803771972656
1748142892576024800,11.19902490234375,-13.330414772033691,-20.779870986938477,18.323637008666992
1748142892594287400,11.217287353515625,-12.850055694580078,-14.508281707763672,15.342180252075195
1748142892612553700,11.2355537109375,-7.767102241516113,-8.1224365234375,8.787641525268555
1748142892630817500,11.253817626953126,1.4847464561462402,-8.376075744628906,7.222136974334717
1748142892649084200,11.272084228515626,9.543174743652344,-13.181461334228516,1.7407784461975098
1748142892667346400,11.290346435546875,7.537989616394043,-14.140983581542969,1.1318050622940063
1748142892685606100,11.308606201171875,4.848456859588623,-11.135598182678223,1.5146567821502686
1748142892703875600,11.32687548828125,2.974278450012207,-7.5978102684021,0.5102694034576416
1748142892722142500,11.345142578125,1.8556339740753174,-5.198407173156738,-0.09631111472845078
1748142892740404500,11.363404541015624,1.3674981594085693,-4.174877166748047,-0.3236292600631714
1748142892758670000,11.381670166015626,0.9684949517250061,-5.1182475090026855,0.1256231814622879
1748142892776933600,11.39993359375,0.37088751792907715,-8.50169849395752,1.2221341133117676
1748142892795194600,11.418194580078126,-0.2231307178735733,-11.961122512817383,2.1894326210021973
1748142892813462800,11.436462890625,-2.895315408706665,-13.150355339050293,2.562114953994751
1748142892831728400,11.454728271484376,-5.36351203918457,-10.553544044494629,4.048655986785889
1748142892849991400,11.472991455078125,-3.1992039680480957,-9.067601203918457,4.213760852813721
1748142892868257300,11.49125732421875,0.4055834412574768,-8.481958389282227,3.666402578353882
1748142892886520800,11.509520751953126,2.0679969787597656,-8.22831916809082,3.5575289726257324
1748142892904786400,11.527786376953125,2.03629207611084,-7.99083137512207,3.864408493041992
1748142892923049700,11.5460498046875,1.8957136869430542,-7.414759159088135,3.9702908992767334
1748142892941310500,11.564310546875,1.5966109037399292,-7.061817646026611,4.205984115600586
1748142892959579100,11.5825791015625,0.7639086246490479,-6.8865437507629395,4.968696117401123
1748142892977844200,11.60084423828125,-0.004187439568340778,-7.2436723709106445,5.605785369873047
1748142892996108000,11.61910791015625,0.18005990982055664,-7.738388538360596,5.781657695770264
1748142893014373600,11.63737353515625,0.5904290080070496,-8.681160926818848,5.1050872802734375
1748142893032636200,11.65563623046875,-0.16151553392410278,-9.732806205749512,3.9188451766967773
1748142893050903800,11.67390380859375,-3.084946632385254,-10.660024642944336,2.958127021789551
1748142893069161500,11.692161376953125,-4.870590686798096,-9.938589096069336,3.5467612743377686
1748142893087428000,11.710427978515625,-1.9812572002410889,-9.728618621826172,5.563312530517578
1748142893105698800,11.72869873046875,0.4821537733078003,-9.521040916442871,7.1509504318237305
1748142893123960600,11.746960693359375,0.97926265001297,-8.335397720336914,7.314260482788086
1748142893142225400,11.765225341796874,0.07657032459974289,-8.079365730285645,6.786045074462891
1748142893160489700,11.78348974609375,-2.3222343921661377,-10.420144081115723,5.807380676269531
1748142893178753300,11.801753173828125,-4.926821708679199,-13.775480270385742,6.286543369293213
1748142893197014000,11.820013916015625,-3.978665828704834,-14.715261459350586,7.05763053894043
1748142893215281200,11.83828125,-1.9932212829589844,-12.559328079223633,5.387440204620361
1748142893233549300,11.85654931640625,-0.7465606927871704,-10.528419494628906,4.23948335647583
1748142893251811300,11.874811279296875,-1.4632110595703125,-10.928021430969238,4.704887390136719
1748142893270076400,11.893076416015624,-1.6875381469726562,-12.803994178771973,3.8847475051879883
1748142893288340500,11.911340576171876,0.44327038526535034,-14.971293449401855,2.3126630783081055
1748142893306592800,11.9295927734375,1.3465609550476074,-14.867205619812012,0.617946445941925
1748142893324870400,11.947870361328125,0.4097708761692047,-12.55872917175293,0.4701896607875824
1748142893343118300,11.966118408203124,0.19680966436862946,-9.246464729309082,1.657029628753662
1748142893361398500,11.9843984375,0.17587246000766754,-6.643074035644531,2.4400808811187744
1748142893379664100,12.0026640625,0.5084748268127441,-5.285147190093994,3.3068809509277344
1748142893397927400,12.020927490234374,0.8709874153137207,-5.357530117034912,5.30548620223999
1748142893416188400,12.0391884765625,-0.6215356588363647,-5.962316036224365,6.74237585067749
1748142893434456600,12.05745654296875,-3.3744781017303467,-5.61116886138916,8.896514892578125
1748142893452722200,12.07572216796875,-3.1387851238250732,-5.831308841705322,8.058428764343262
1748142893470984000,12.09398388671875,-0.0891326442360878,-6.945167541503906,3.726821184158325
1748142893489252400,12.11225244140625,1.4685949087142944,-7.39980411529541,1.2693923711776733
1748142893507514600,12.1305146484375,0.9786644577980042,-7.203592777252197,-0.049651071429252625
1748142893525780000,12.148780029296875,0.2763710021972656,-6.026922225952148,-0.2183450609445572
1748142893544043800,12.167043701171876,-0.14356936514377594,-5.231906890869141,-1.4069796800613403
1748142893562309000,12.18530908203125,-0.08195417374372482,-5.104488849639893,-1.8089739084243774
1748142893580573000,12.203572998046875,-0.45583271980285645,-4.826921463012695,-0.9182456731796265
1748142893598822000,12.22182177734375,-0.9206385016441345,-4.572684288024902,-0.3188436031341553
1748142893617099000,12.24009912109375,-1.7778671979904175,-5.067399978637695,-0.42771705985069275
1748142893635366400,12.258366455078125,-4.570291042327881,-7.2951178550720215,1.153340458869934
1748142893653629700,12.276629638671874,-7.989036560058594,-10.649855613708496,6.116054534912109
1748142893671897000,12.29489697265625,-14.405988693237305,-15.750755310058594,13.612170219421387
1748142893690164500,12.31316455078125,-15.597016334533691,-21.058034896850586,19.088144302368164
1748142893708420600,12.331420654296876,-11.509476661682129,-13.205389976501465,11.285149574279785
1748142893726687700,12.349687744140626,-7.026523590087891,-6.132206439971924,5.9336018562316895
1748142893744956000,12.367955810546874,-2.8342983722686768,-6.176473617553711,4.2693939208984375
1748142893763225900,12.386225830078125,3.6849467754364014,-11.850454330444336,4.9262237548828125
1748142893781483500,12.4044833984375,7.594819068908691,-16.862220764160156,3.5192439556121826
1748142893799742000,12.422741943359375,5.941977024078369,-18.075382232666016,3.1238300800323486
1748142893818012700,12.4410126953125,4.2556352615356445,-11.631510734558105,2.022533416748047
1748142893836276200,12.459276123046875,1.5469598770141602,-7.0923261642456055,-0.2273181527853012
1748142893854541800,12.477541748046875,0.9176474809646606,-4.215555191040039,-0.7818548083305359
1748142893872805000,12.49580517578125,1.0971091985702515,-2.8630123138427734,-1.5690934658050537
1748142893891071000,12.514071044921875,0.6849454641342163,-3.929612874984741,-0.6131607890129089
1748142893909334300,12.532334228515625,0.4701896607875824,-7.8556365966796875,1.6534404754638672
1748142893927598800,12.550598876953124,0.5000999569892883,-12.696316719055176,2.2683959007263184
1748142893945864200,12.5688642578125,0.16929219663143158,-14.029717445373535,1.908276081085205
1748142893964125200,12.587125244140625,-1.689931035041809,-11.308480262756348,2.595614433288574
1748142893982391300,12.605391357421874,-3.658625841140747,-8.291130065917969,4.483551502227783
1748142894000658000,12.623657958984374,-2.8666014671325684,-7.259225845336914,4.6169514656066895
1748142894018922800,12.6419228515625,-0.9906286001205444,-7.2681989669799805,4.622933387756348
1748142894037182500,12.660182373046876,0.27816563844680786,-7.739584922790527,4.911268711090088
1748142894055446300,12.6784462890625,0.5168496966362,-8.12961483001709,5.579464435577393
1748142894073715000,12.69671484375,0.6520441770553589,-7.987840175628662,5.8953166007995605
1748142894091980800,12.714980712890625,0.8691928386688232,-7.395018577575684,5.837889194488525
1748142894110245000,12.7332451171875,0.8422735929489136,-6.948757171630859,5.705087184906006
1748142894128505600,12.751505615234375,0.5647061467170715,-6.87099027633667,5.423332691192627
1748142894146777000,12.769777099609374,0.5856433510780334,-7.4464640617370605,5.049454212188721
1748142894165037600,12.78803759765625,0.09990034252405167,-8.860024452209473,4.144368648529053
1748142894183303400,12.806303466796875,-1.0528420209884644,-10.18026351928711,3.5234313011169434
1748142894201566500,12.82456640625,-3.2470602989196777,-10.968100547790527,3.460021495819092
1748142894219832300,12.842832275390625,-3.482753276824951,-10.182058334350586,5.327021598815918
1748142894238094800,12.8610947265625,-0.7956135272979736,-8.854640007019043,6.681358814239502
1748142894256362500,12.879362548828125,1.0139585733413696,-7.851449489593506,7.118647575378418
1748142894274613500,12.897613525390625,1.272383451461792,-7.9758758544921875,7.591827869415283
1748142894292893400,12.9158935546875,0.6185446381568909,-10.104889869689941,9.081958770751953
1748142894311149300,12.9341494140625,-2.251646041870117,-14.109278678894043,11.081759452819824
1748142894329419800,12.952419677734374,-4.228715896606445,-15.862619400024414,9.873982429504395
1748142894347682800,12.970682861328125,-2.521436929702759,-13.682758331298828,5.7649078369140625
1748142894365948400,12.988948486328125,-0.9284151792526245,-12.138191223144531,2.8941190242767334
1748142894384199700,13.00719970703125,-1.058824062347412,-12.751352310180664,1.4584254026412964
1748142894402477600,13.0254775390625,-0.5856433510780334,-13.48056411743164,0.8919246196746826
1748142894420729900,13.043729736328125,0.4989035129547119,-12.958331108093262,0.373878538608551
1748142894439006500,13.06200634765625,-0.006580262444913387,-10.814361572265625,-0.8273184299468994
1748142894457269800,13.080269775390626,-0.3852444589138031,-7.923832416534424,-0.36311084032058716
1748142894475537700,13.09853759765625,-0.4061816334724426,-6.6693949699401855,0.753140926361084
1748142894493799000,13.116798828125,0.0891326442360878,-6.5712890625,1.9286150932312012
1748142894512064800,13.135064697265625,1.2251251935958862,-7.29810905456543,3.0729825496673584
1748142894530327800,13.153327880859376,0.664606511592865,-8.0081787109375,3.4606196880340576
1748142894548595200,13.17159521484375,-0.15314064919948578,-7.8418779373168945,4.500301361083984
1748142894566851000,13.18985107421875,-3.1866414546966553,-7.423133850097656,6.635895252227783
1748142894585122000,13.2081220703125,-4.749752998352051,-7.163512706756592,7.448258876800537
1748142894603387100,13.22638720703125,-1.3615161180496216,-7.650452136993408,5.694319725036621
1748142894621651200,13.244651123046875,0.13100704550743103,-7.526025295257568,2.9461629390716553
1748142894639916300,13.262916259765625,-0.4833501875400543,-6.806982040405273,0.6430711150169373
1748142894658176300,13.28117626953125,-0.5437689423561096,-5.705087184906006,-0.48873403668403625
1748142894676444400,13.2994443359375,-0.6807580590248108,-4.7401814460754395,-1.3286148309707642
1748142894694710300,13.317710205078125,-1.113858938217163,-4.41057014465332,-1.308275818824768
1748142894712973600,13.3359736328125,-1.5206388235092163,-4.97348165512085,-0.9541380405426025
1748142894731239400,13.354239501953124,-2.000998020172119,-6.030511379241943,-0.4815555512905121
1748142894749502700,13.372502685546875,-2.857030153274536,-6.890730857849121,0.2799602448940277
1748142894767768300,13.390768310546875,-4.5236310958862305,-7.7180495262146,1.339382529258728
1748142894786031900,13.409031982421874,-7.808976650238037,-9.239884376525879,5.337789058685303
1748142894804297500,13.42729736328125,-9.485747337341309,-11.485548973083496,12.125030517578125
1748142894822556000,13.445555908203126,-11.953943252563477,-15.105291366577148,17.534605026245117
1748142894840825300,13.463825439453124,-9.913464546203613,-13.848461151123047,12.624532699584961
1748142894859088600,13.482088623046875,-8.34437084197998,-12.604193687438965,8.280363082885742
1748142894877357800,13.50035791015625,-5.925825119018555,-14.483755111694336,4.9292144775390625
1748142894895617800,13.51861767578125,0.2841476798057556,-13.512269020080566,3.0759735107421875
1748142894913885400,13.536885498046875,4.569693088531494,-14.027324676513672,1.4727823734283447
1748142894932148500,13.5551484375,5.248656272888184,-12.743575096130371,-0.0568295381963253
1748142894950413600,13.57341357421875,4.510470867156982,-8.741579055786133,-1.933998942375183
1748142894968677000,13.591677001953125,3.0484559535980225,-5.242674350738525,-2.0309081077575684
1748142894986942700,13.609942626953124,1.7641085386276245,-3.3032915592193604,-1.3848460912704468
1748142895005202000,13.628201904296875,1.0139585733413696,-3.080759048461914,-0.20159530639648438
1748142895023471900,13.646471923828125,0.6711867451667786,-6.0472612380981445,1.0528420209884644
1748142895041735200,13.664735107421874,1.124626636505127,-9.649057388305664,2.8498518466949463
1748142895060000800,13.683000732421876,1.6689938306808472,-12.440284729003906,3.586242914199829
1748142895078259500,13.701259521484374,2.895315408706665,-12.312867164611816,3.067000389099121
1748142895105660400,13.728660400390625,1.0689935684204102,-9.567103385925293,5.2941203117370605
1748142895123920600,13.746920654296876,-4.067798614501953,-8.578269004821777,5.579464435577393
1748142895142184000,13.765183837890625,-6.981658458709717,-7.9040913581848145,5.768496990203857
1748142895160456000,13.7834560546875,-2.723630428314209,-7.953144073486328,5.577071189880371
1748142895178718500,13.801718505859375,0.013160524889826775,-8.417351722717285,4.9776692390441895
1748142895196983800,13.81998388671875,0.13040883839130402,-8.489734649658203,4.350749969482422
1748142895215248100,13.838248046875,0.727418065071106,-8.264809608459473,4.067798614501953
1748142895233513000,13.856512939453125,1.2646067142486572,-7.834699630737305,4.401597023010254
1748142895251776800,13.87477685546875,1.0857433080673218,-7.467999458312988,4.708476543426514
1748142895270041300,13.893041259765624,0.4462614357471466,-7.398009300231934,4.796412944793701
1748142895288306400,13.911306396484376,-0.12442677468061447,-7.994420528411865,4.648656368255615
1748142895306571500,13.929571533203125,-1.2705888748168945,-8.673383712768555,3.793820381164551
1748142895324835300,13.94783544921875,-1.843071699142456,-8.931808471679688,4.196412563323975
1748142895343100200,13.96610009765625,-1.5864413976669312,-8.585447311401367,5.210371494293213
1748142895361364500,13.984364501953126,-0.5240281820297241,-8.723034858703613,6.4325056076049805
1748142895379623400,14.00262353515625,0.12921242415905,-9.476176261901855,7.133004188537598
1748142895397893400,14.020893310546874,0.8697910308837891,-8.658429145812988,6.099305152893066
1748142895416162800,14.039162841796875,0.8015955686569214,-8.202595710754395,5.038087844848633
1748142895434422500,14.057422607421875,-2.4059832096099854,-11.081161499023438,3.91705060005188
1748142895452687600,14.0756875,-5.469992637634277,-15.122638702392578,5.013561725616455
1748142895470954500,14.09395458984375,-3.594019651412964,-15.705291748046875,7.715656757354736
1748142895489208800,14.112208740234376,-0.6741777658462524,-12.99661636352539,8.397012710571289
1748142895507480800,14.130480712890625,-0.33379876613616943,-10.443474769592285,6.869195461273193
1748142895525745400,14.148745361328125,-1.5547364950180054,-9.77826976776123,4.366901397705078
1748142895544009500,14.167009521484376,-1.948355793952942,-10.883753776550293,3.462414264678955
1748142895562274300,14.1852744140625,-0.36729827523231506,-12.501899719238281,2.5573291778564453
1748142895580539000,14.203538818359375,0.4504488706588745,-12.838689804077148,1.7276179790496826
1748142895598803700,14.2218037109375,-0.6376872062683105,-12.54437255859375,1.4291132688522339
1748142895626197000,14.249197021484376,-0.893121063709259,-9.274580955505371,0.9798609018325806
1748142895644465700,14.267465576171874,-0.2105683982372284,-7.253841876983643,1.6606189012527466
1748142895662729500,14.2857294921875,0.4414757788181305,-6.040680885314941,2.5597219467163086
1748142895680989000,14.303989013671876,0.9158528447151184,-6.075974941253662,3.4103705883026123
1748142895699259100,14.322259033203125,1.2035897970199585,-7.0462646484375,3.527618885040283
1748142895717523700,14.340523681640626,-0.41096729040145874,-7.622336387634277,4.113860130310059
1748142895735787500,14.35878759765625,-3.4887354373931885,-8.319844245910645,5.563910961151123
1748142895754053000,14.37705322265625,-3.9314076900482178,-8.764310836791992,5.109872817993164
1748142895772316200,14.395316162109374,-0.763310432434082,-8.271987915039062,3.644867181777954
1748142895790582300,14.413582275390626,1.2999008893966675,-7.284948348999023,2.2791635990142822
1748142895808845300,14.43184521484375,0.4127618968486786,-5.894120216369629,0.6616154313087463
1748142895827111200,14.450111083984375,-0.1860419660806656,-4.727619171142578,-0.23449662327766418
1748142895845370600,14.46837060546875,-0.3164508044719696,-4.4614176750183105,-1.0947163105010986
1748142895863626800,14.486626708984375,-0.8003991842269897,-4.782654285430908,-1.4386845827102661
1748142895881905000,14.50490478515625,-1.3196417093276978,-5.350351333618164,-1.8783657550811768
1748142895900164600,14.52316455078125,-2.661417007446289,-5.348556995391846,-1.9902302026748657
1748142895918432800,14.541432861328126,-4.091726779937744,-5.968297958374023,-0.4145565330982208
1748142895936693800,14.55969384765625,-3.970889091491699,-7.706085205078125,2.988037347793579
1748142895954960600,14.577960693359374,-5.021936416625977,-12.335000991821289,7.814360618591309
1748142895973228800,14.596228759765625,-20.475383758544922,-18.01137351989746,14.650654792785645
1748142895991490800,14.61449072265625,-12.381660461425781,-16.091732025146484,16.161123275756836
1748142896009756700,14.632756591796875,-10.187442779541016,-9.56351375579834,10.97169017791748
1748142896028019700,14.651019775390624,-6.329015731811523,-8.210372924804688,7.383054256439209
1748142896046285600,14.66928564453125,2.479562520980835,-11.074581146240234,6.4319071769714355
1748142896064541400,14.68754150390625,6.966702938079834,-15.742380142211914,4.249054908752441
1748142896082814700,14.705814697265625,5.936593055725098,-18.76930046081543,2.11405873298645
1748142896101078000,14.724078125,3.5611183643341064,-14.487942695617676,1.6564314365386963
1748142896119343900,14.74234375,2.2815563678741455,-8.549555778503418,0.0077766734175384045
1748142896137606000,14.76060595703125,1.801795482635498,-4.804189682006836,-1.3250255584716797
1748142896155874000,14.7788740234375,1.4733805656433105,-2.727219581604004,-2.1678972244262695
1748142896174136300,14.79713623046875,1.0019944906234741,-2.6488547325134277,-1.817348837852478
1748142896192397300,14.815397216796875,0.5455635786056519,-6.0610198974609375,0.35473597049713135
1748142896210664000,14.833663818359375,0.5736792087554932,-10.640284538269043,1.8646070957183838
1748142896228932000,14.85193212890625,1.0755738019943237,-13.031909942626953,2.103889226913452
1748142896247189800,14.870189697265625,1.0133603811264038,-12.000603675842285,2.172683000564575
1748142896265455900,14.888455810546875,-0.050847481936216354,-10.246665000915527,3.3200414180755615
1748142896283720400,14.906720458984376,-2.1020946502685547,-8.668598175048828,5.31685209274292
1748142896301992400,14.924992431640625,-3.586841106414795,-7.820342540740967,5.675177097320557
1748142896320251600,14.943251708984375,-2.2067806720733643,-7.4949188232421875,5.457430362701416
1748142896338518800,14.961518798828125,-0.3116651475429535,-7.816753387451172,5.86421012878418
1748142896356781300,14.97978125,0.45523449778556824,-8.110472679138184,5.526822090148926
1748142896375047400,14.99804736328125,0.9134600162506104,-7.576274871826172,4.666004180908203
1748142896393310500,15.016310546875,1.292722463607788,-7.069594383239746,4.680361270904541
1748142896411576300,15.034576416015625,0.9954141974449158,-7.45782995223999,4.895715236663818
1748142896429839400,15.05283935546875,1.1012966632843018,-8.47477912902832,4.951348304748535
1748142896448100400,15.071100341796875,1.1252248287200928,-9.501300811767578,4.691128730773926
1748142896466367200,15.0893671875,0.7399803996086121,-9.851250648498535,3.864408493041992
1748142896484634600,15.107634521484375,-2.4388844966888428,-10.097711563110352,2.8187451362609863
1748142896502898700,15.125898681640624,-6.214758396148682,-9.975677490234375,2.7218358516693115
1748142896521162200,15.144162353515625,-2.9174489974975586,-9.7998046875,5.4173502922058105
1748142896539415800,15.162415771484374,0.4785645306110382,-9.406784057617188,7.323233604431152
1748142896557692400,15.1806923828125,1.6325032711029053,-8.172685623168945,6.777669906616211
1748142896575955700,15.198955810546876,1.2616157531738281,-7.429714202880859,6.343971252441406
1748142896594225700,15.2172255859375,-1.1174482107162476,-10.016355514526367,7.703692436218262
1748142896612484600,15.235484619140625,-5.169095039367676,-14.262419700622559,9.241679191589355
1748142896630750700,15.253750732421874,-3.896113395690918,-14.505888938903809,8.971290588378906
1748142896649014000,15.272013916015625,-0.6275177597999573,-11.791232109069824,6.0263237953186035
1748142896667279600,15.290279541015625,-0.768694281578064,-11.640483856201172,2.8558337688446045
1748142896685538300,15.308538330078125,-1.903490424156189,-13.439887046813965,2.5160529613494873
1748142896703808800,15.326808837890624,-0.1740778535604477,-15.177674293518066,2.0889341831207275
1748142896722071000,15.345071044921875,1.0875378847122192,-14.632708549499512,1.604387640953064
1748142896740338700,15.363338623046875,0.8165507316589355,-12.63171100616455,0.9332008361816406
1748142896758600200,15.38160009765625,-0.008374879136681557,-9.250054359436035,1.6857435703277588
1748142896776868000,15.3998681640625,-0.9774680733680725,-6.661019802093506,3.1268210411071777
1748142896795130000,15.418130126953125,-0.36191442608833313,-5.760720729827881,3.504288673400879
1748142896813396000,15.43639599609375,1.1001001596450806,-5.815157413482666,4.070191383361816
1748142896831659300,15.4546591796875,1.7341982126235962,-6.288337707519531,4.589433670043945
1748142896849924900,15.4729248046875,-0.1818545162677765,-6.9098734855651855,6.5868425369262695
1748142896868183800,15.491183837890626,-4.849055290222168,-7.865208148956299,8.752944946289062
1748142896886454300,15.509454345703125,-1.7784653902053833,-8.489734649658203,4.46979284286499
1748142896904717600,15.527717529296876,1.5391831398010254,-8.440083503723145,2.42512583732605
1748142896922983400,15.5459833984375,1.3130614757537842,-7.988438606262207,1.072582721710205
1748142896941246700,15.564246826171875,0.23629122972488403,-6.9720869064331055,0.397208571434021
1748142896959512300,15.58251220703125,0.09511470049619675,-5.755336761474609,-0.7244270443916321
1748142896977774600,15.600774658203125,0.11964113265275955,-4.673182487487793,-2.1816561222076416
1748142896996042800,15.619042724609375,-0.049651071429252625,-3.8937206268310547,-2.347957134246826
1748142897014305000,15.637304931640625,-0.46779683232307434,-3.558725595474243,-2.035693883895874
1748142897032570600,15.655570556640624,-1.0319048166275024,-3.7034912109375,-2.1876380443573
1748142897050828000,15.673828125,-2.0614166259765625,-5.627320766448975,-2.1930220127105713
1748142897069099000,15.69209912109375,-3.1381869316101074,-9.876974105834961,1.5385849475860596
1748142897087364400,15.7103642578125,-3.9732820987701416,-13.844871520996094,9.460023880004883
1748142897105628000,15.7286279296875,-30.622148513793945,-21.286550521850586,18.8721923828125
1748142897123893200,15.746893310546875,-11.392827033996582,-18.16212272644043,17.700904846191406
1748142897142161200,15.7651611328125,-7.18086051940918,-8.774480819702148,11.320444107055664
1748142897160420600,15.783420654296876,-5.836094379425049,-6.137589931488037,6.457031726837158
1748142897178686700,15.801686767578126,-0.776470959186554,-10.517651557922363,5.712863922119141
1748142897196950300,15.8199501953125,5.020142078399658,-14.669198989868164,4.895715236663818
1748142897215211800,15.838211669921876,6.382256031036377,-17.673986434936523,2.8941190242767334
1748142897233479400,15.8564794921875,5.112265586853027,-14.58066463470459,1.6528422832489014
1748142897251745000,15.8747451171875,3.768695592880249,-8.83669376373291,-0.5359922647476196
1748142897270007800,15.8930078125,2.42512583732605,-4.959722995758057,-1.7665013074874878
1748142897288274200,15.911274169921874,1.8963119983673096,-2.981456995010376,-2.6327030658721924
1748142897306532600,15.92953271484375,1.2999008893966675,-2.9306094646453857,-2.4640090465545654
1748142897324802000,15.947802001953125,0.4295116662979126,-6.132206439971924,0.08733802288770676
1748142897343067600,15.966067626953125,0.2919243574142456,-10.638489723205566,1.7599210739135742
1748142897361332200,15.984332275390624,0.01136590726673603,-14.10987663269043,2.0614166259765625
1748142897379595800,16.002595703125,-0.6460621356964111,-12.719647407531738,2.1894326210021973
1748142897397857000,16.02085693359375,-1.7120646238327026,-10.05823040008545,3.1280174255371094
1748142897416129000,16.03912890625,-1.8705891370773315,-8.09970474243164,5.2115678787231445
1748142897434390500,16.057390625,-1.4482558965682983,-7.51286506652832,5.2115678787231445
1748142897452655000,16.075655029296875,-0.9146564602851868,-7.524828910827637,4.751547336578369
1748142897470929400,16.093929443359375,0.059820566326379776,-7.899305820465088,5.642873764038086
1748142897489181000,16.112180908203126,0.3122633695602417,-8.394619941711426,6.096313953399658
1748142897507448600,16.130448486328124,0.3888336718082428,-8.181060791015625,5.790032386779785
1748142897525712000,16.1487119140625,0.6185446381568909,-7.679165840148926,5.264209747314453
1748142897543977500,16.1669775390625,0.8039883971214294,-7.6043901443481445,4.972285270690918
1748142897562236200,16.185236083984375,0.8327022790908813,-8.625527381896973,4.573880672454834
1748142897580505300,16.20350537109375,0.5341976284980774,-9.613164901733398,3.4444682598114014
1748142897598771700,16.221771728515623,-1.4111671447753906,-10.682756423950195,2.294118642807007
1748142897617035500,16.240035400390624,-5.400002479553223,-10.426126480102539,2.6907291412353516
1748142897635299000,16.258299072265626,-4.4512481689453125,-8.937790870666504,5.502893924713135
1748142897653564400,16.276564453125,-0.0323031060397625,-8.81934642791748,8.306085586547852
1748142897671828000,16.294827880859376,1.4069796800613403,-8.569295883178711,8.804988861083984
1748142897690093600,16.313093505859374,0.5479564070701599,-7.29810905456543,6.920042991638184
1748142897708357400,16.331357421875,-2.4370899200439453,-7.677969455718994,7.016354084014893
1748142897726621400,16.349621337890625,-6.484549522399902,-11.003395080566406,7.001399040222168
1748142897744887800,16.3678876953125,-5.061418056488037,-12.918848991394043,8.196015357971191
1748142897763152400,16.38615234375,-0.4342973232269287,-11.278569221496582,8.14516830444336
1748142897781415400,16.40441552734375,0.7130611538887024,-9.546165466308594,6.0741801261901855
1748142897799681000,16.422680908203127,-1.6289139986038208,-10.500304222106934,4.619344234466553
1748142897817939700,16.440939697265627,-2.706880569458008,-13.378870010375977,3.900300979614258
1748142897836204500,16.45920458984375,-0.15493527054786682,-15.053845405578613,3.6436707973480225
1748142897854475000,16.47747509765625,-0.48873403668403625,-17.380268096923828,1.9908283948898315
1748142897872739000,16.495739013671876,-1.1377872228622437,-17.045869827270508,-0.4223332107067108
1748142897891001600,16.514001708984374,-0.20877377688884735,-12.147164344787598,0.6969096064567566
1748142897909264600,16.5322646484375,1.2143574953079224,-8.83370304107666,1.3202399015426636
1748142897927531800,16.55053173828125,2.0470597743988037,-6.366703033447266,1.9866410493850708
1748142897945797600,16.568797607421875,2.5160529613494873,-5.418546676635742,2.771486759185791
1748142897964057300,16.587057373046875,0.09690931439399719,-5.19242525100708,4.8191447257995605
1748142897982326500,16.605326416015625,-6.761518478393555,-5.856433391571045,8.204988479614258
1748142898000590600,16.623590576171875,-4.47278356552124,-7.107879638671875,7.342376232147217
1748142898018854700,16.641854736328124,-0.22851456701755524,-8.084749221801758,3.266202926635742
1748142898037119000,16.660118896484374,1.2346965074539185,-8.277970314025879,0.9194421172142029
1748142898055380000,16.6783798828125,1.373480200767517,-7.709076404571533,-0.03170489892363548
1748142898073647000,16.696647216796876,1.0049854516983032,-6.358327865600586,-0.45942193269729614
1748142898091913500,16.71491357421875,0.5066801905632019,-4.95493745803833,-1.4225330352783203
1748142898110173700,16.733173583984374,0.1543370634317398,-4.1036906242370605,-2.4394826889038086
1748142898128443000,16.75144287109375,-0.11605189740657806,-3.570091485977173,-2.499901533126831
1748142898146706400,16.76970654296875,-0.6454638838768005,-3.733999729156494,-2.2648067474365234
1748142898164971500,16.787971435546876,-1.194616675376892,-4.833501815795898,-2.375474691390991
1748142898183235600,16.806235595703125,-4.628317356109619,-7.843074321746826,-1.9896320104599
1748142898201500700,16.824500732421875,-11.502896308898926,-12.700504302978516,3.6095728874206543
1748142898219764500,16.842764404296876,-15.454045295715332,-19.217954635620117,14.465808868408203
1748142898238030000,16.861030029296874,-12.601202011108398,-23.799612045288086,18.819549560546875
1748142898256293400,16.87929345703125,-9.55214786529541,-16.372888565063477,12.40977668762207
1748142898274559500,16.8975595703125,-5.815157413482666,-6.940980434417725,4.791627407073975
1748142898292822500,16.915822509765626,-2.6255247592926025,-4.230510234832764,2.789433002471924
1748142898311088000,16.934088134765624,3.469592809677124,-8.444271087646484,3.2626137733459473
1748142898329351700,16.9523515625,6.5282182693481445,-13.537992477416992,1.1539387702941895
1748142898347616300,16.9706162109375,5.4897332191467285,-15.67956829071045,1.6504493951797485
1748142898365881600,16.988881591796876,4.445864677429199,-11.93599796295166,2.2271196842193604
1748142898384147200,17.007147216796874,2.4837498664855957,-7.547560691833496,0.9559326171875
1748142898402410000,17.025409912109374,1.5583257675170898,-4.645665168762207,0.4265206456184387
1748142898420670700,17.043670654296875,1.1335997581481934,-3.308675527572632,0.2907279431819916
1748142898438938000,17.061938232421873,0.3768695592880249,-4.777270317077637,1.5625132322311401
1748142898457201000,17.080200927734374,0.36610186100006104,-8.709874153137207,3.4169507026672363
1748142898475461000,17.098461181640626,-0.1788634955883026,-11.371291160583496,5.55733060836792
1748142898493736700,17.11673681640625,-1.8149559497833252,-11.705090522766113,6.468996047973633
1748142898511997200,17.1349970703125,-4.246662139892578,-9.846465110778809,4.802993297576904
1748142898530262800,17.1532626953125,-3.476173162460327,-8.62014389038086,3.6981074810028076
1748142898548526000,17.171526123046874,-0.36191442608833313,-7.974679470062256,3.156731367111206
1748142898566791400,17.18979150390625,1.2376874685287476,-7.9250288009643555,3.3541390895843506
1748142898585055200,17.20805517578125,1.5571293830871582,-8.225926399230957,3.7022948265075684
1748142898603320800,17.22632080078125,1.0947163105010986,-8.475378036499023,4.238286972045898
1748142898621584600,17.244584716796876,0.11246266216039658,-8.318648338317871,4.561318397521973
1748142898639849700,17.262849609375,-0.8638089895248413,-7.724629878997803,4.396811485290527
1748142898658113300,17.28111328125,-0.7770691514015198,-7.402196884155273,4.3208394050598145
1748142898676374300,17.299374267578123,-0.053240302950143814,-7.685746192932129,4.0797624588012695
1748142898694628900,17.31762890625,0.3361915946006775,-8.253443717956543,4.034897327423096
1748142898712909300,17.335909423828124,-0.014356935396790504,-8.840283393859863,4.2933220863342285
1748142898731154000,17.35415380859375,-1.195214867591858,-9.44746208190918,4.500301361083984
1748142898749437400,17.3724375,-2.9318058490753174,-9.562317848205566,5.078167915344238
1748142898767688700,17.390688720703125,-2.2654049396514893,-9.712467193603516,6.343971252441406
1748142898785966300,17.40896630859375,-0.3774677813053131,-9.90149974822998,7.592426300048828
1748142898804229400,17.4272294921875,0.6592226624488831,-9.30329418182373,7.0025954246521
1748142898822495500,17.44549560546875,1.2957134246826172,-7.858029365539551,5.377270698547363
1748142898840758800,17.4637587890625,0.9906286001205444,-8.469993591308594,4.6785664558410645
1748142898859024400,17.4820244140625,-1.1222338676452637,-10.820941925048828,3.518047571182251
1748142898877287700,17.50028759765625,-5.901298999786377,-14.061422348022461,4.628317356109619
1748142898895549000,17.518548828125,-5.863013744354248,-13.74198055267334,7.905287742614746
1748142898913816600,17.536816650390627,-1.9028922319412231,-11.447861671447754,7.15812873840332
1748142898932077800,17.555077880859375,1.0211371183395386,-9.267401695251465,6.504888534545898
1748142898950344400,17.573344482421874,0.3439682424068451,-8.684749603271484,6.028716564178467
1748142898968611600,17.591611572265624,-1.5619150400161743,-9.512067794799805,4.9124650955200195
1748142898986876200,17.609876220703125,-1.5625132322311401,-12.139986038208008,3.2207393646240234
1748142899005141200,17.628141357421875,-0.2183450609445572,-14.084752082824707,1.7802600860595703
1748142899023404300,17.646404296875,-0.06340979784727097,-15.226128578186035,0.6394818425178528
1748142899041670000,17.664669921875,-0.4420739710330963,-13.130016326904297,0.5814558863639832
1748142899059933400,17.682933349609375,-0.6095715761184692,-9.152546882629395,1.5200406312942505
1748142899078194400,17.7011943359375,-0.04785645380616188,-6.57966423034668,2.5459632873535156
1748142899096457500,17.71945751953125,0.6903293132781982,-5.437689304351807,3.851846218109131
1748142899114728400,17.737728515625,0.7334001660346985,-5.609374523162842,4.11924409866333
1748142899132991500,17.755991455078124,0.5138586759567261,-6.025725841522217,4.745565414428711
1748142899151257300,17.77425732421875,-1.5445669889450073,-6.361917018890381,6.830312252044678
1748142899169520000,17.79252001953125,-3.379862070083618,-7.3645100593566895,7.449455261230469
1748142899187786500,17.810786376953125,-1.5984054803848267,-8.333602905273438,5.717649936676025
1748142899206048500,17.829048583984374,0.42412781715393066,-8.320442199707031,3.125624656677246
1748142899224316700,17.847316650390624,0.48574298620224,-7.1958160400390625,1.1282159090042114
1748142899242578700,17.86557861328125,-0.2111666053533554,-5.877370834350586,-0.6951149702072144
1748142899260843300,17.88384326171875,-0.02871387079358101,-4.852644443511963,-1.856830358505249
1748142899279109000,17.902109130859376,0.22971096634864807,-4.673780918121338,-2.043470621109009
1748142899297373400,17.92037353515625,-0.15732808411121368,-4.88554573059082,-1.8323038816452026
1748142899315635700,17.9386357421875,-1.1270195245742798,-5.213362216949463,-1.472184181213379
1748142899333903400,17.9569033203125,-2.2989044189453125,-6.428318023681641,-0.5288137793540955
1748142899352161500,17.97516162109375,-3.497708559036255,-9.489934921264648,2.23848557472229
1748142899370431200,17.99343115234375,-8.3300142288208,-11.583654403686523,6.751348972320557
1748142899388695300,18.0116953125,-22.621746063232422,-17.3874454498291,16.292131423950195
1748142899406960600,18.029960693359374,-6.68016242980957,-17.577674865722656,15.281163215637207
1748142899425219800,18.0482197265625,-7.249056339263916,-10.826924324035645,10.102497100830078
1748142899443485200,18.066485107421876,-6.647859573364258,-4.94775915145874,2.9216363430023193
1748142899461752300,18.08475244140625,-4.464408874511719,-3.215355396270752,0.7956135272979736
1748142899480020000,18.10302001953125,1.4273186922073364,-7.057032108306885,3.2931220531463623
1748142899498282500,18.121282470703125,7.222136974334717,-12.745369911193848,6.304489612579346
1748142899516545300,18.139545166015626,5.873183250427246,-17.359928131103516,8.711071014404297
1748142899534814000,18.15781396484375,3.541975736618042,-18.081363677978516,7.242475986480713
1748142899553073400,18.176073486328125,1.7796618938446045,-12.882957458496094,2.647658348083496
1748142899571344000,18.19434375,-6.121438503265381,-7.597211837768555,0.05623133108019829
1748142899589605000,18.212605224609376,-11.93599796295166,-4.796412944793701,-2.4951157569885254
1748142899607870700,18.23087060546875,-2.8217360973358154,-5.723631858825684,-2.6458635330200195
1748142899626135300,18.24913525390625,3.1968109607696533,-6.6107707023620605,0.12323036789894104
1748142899644398600,18.267398681640625,4.094717979431152,-8.248059272766113,2.812164783477783
1748142899662664700,18.285664794921875,4.405784606933594,-10.89990520477295,3.4432718753814697
1748142899680926500,18.303926513671875,3.881756544113159,-10.588240623474121,3.373281717300415
1748142899699189800,18.322189697265625,2.7020950317382812,-9.400203704833984,3.2865419387817383
1748142899717456000,18.340455810546874,1.1880364418029785,-9.29312515258789,2.8791637420654297
1748142899735723800,18.358723876953125,1.028315544128418,-8.788837432861328,3.008974552154541
1748142899753985800,18.37698583984375,0.8009973764419556,-8.901300430297852,4.023531436920166
1748142899772240100,18.395240234375,-4.987240791320801,-8.967700958251953,6.963113784790039
1748142899790510300,18.41351025390625,-8.45444107055664,-8.542376518249512,7.583453178405762
1748142899808766500,18.431766357421875,-3.2919256687164307,-7.840083599090576,7.161718368530273
1748142899827045000,18.450045166015624,0.16390834748744965,-7.325028419494629,6.184250354766846
1748142899845298000,18.4682978515625,0.7680960893630981,-7.048058986663818,4.929812908172607
1748142899863572700,18.48657275390625,1.4075778722763062,-6.69990348815918,4.350151538848877
1748142899881838600,18.504838623046876,1.6839489936828613,-6.986443996429443,4.593621253967285
1748142899900102100,18.52310205078125,0.786640465259552,-8.131409645080566,4.574478626251221
1748142899918367700,18.54136767578125,-1.4123635292053223,-9.5324068069458,3.8315072059631348
1748142899936630300,18.55963037109375,-4.359124660491943,-9.746564865112305,3.6843485832214355
1748142899954898000,18.57789794921875,-2.8253252506256104,-9.415757179260254,5.5034918785095215
1748142899973164500,18.59616455078125,0.10588239878416061,-9.286544799804688,7.070790767669678
1748142899991425800,18.61442578125,1.41834557056427,-8.851051330566406,6.279364585876465
1748142900009689600,18.632689697265626,1.5230315923690796,-8.395816802978516,5.5005011558532715
1748142900027955000,18.650954833984375,1.470389485359192,-9.483354568481445,5.269593715667725
1748142900046214000,18.6692138671875,-0.6329016089439392,-12.029915809631348,4.361517429351807
1748142900064466000,18.6874658203125,-7.76052188873291,-14.926427841186523,5.210371494293213
1748142900082748000,18.705747802734376,-7.743174076080322,-13.742578506469727,8.167302131652832
1748142900101013200,18.72401318359375,-0.9254241585731506,-11.365907669067383,8.299505233764648
1748142900119276800,18.74227685546875,1.6654045581817627,-9.122037887573242,8.091329574584961
1748142900137542400,18.76054248046875,-0.7722834944725037,-8.155936241149902,7.284948348999023
1748142900155806000,18.778805908203125,-2.4807589054107666,-8.253443717956543,5.791228771209717
1748142900174071600,18.797071533203123,-1.7581263780593872,-10.88973617553711,3.0837502479553223
1748142900192334800,18.8153349609375,0.6502495408058167,-12.92064380645752,1.5499508380889893
1748142900210599700,18.833599609375,1.1748759746551514,-13.503296852111816,0.6011967062950134
1748142900228865300,18.851865234375,-0.4821537733078003,-12.978072166442871,-0.39900317788124084
1748142900247129900,18.8701298828125,-1.3794622421264648,-10.322636604309082,0.9607182741165161
1748142900265388300,18.88838818359375,-0.890728235244751,-8.215158462524414,2.1583259105682373
1748142900283659300,18.9066591796875,-0.6879364848136902,-7.151548862457275,3.2207393646240234
1748142900301917200,18.924917236328124,0.4546363055706024,-6.942774772644043,3.706482172012329
1748142900320181800,18.943181640625,0.4498506486415863,-6.662216663360596,4.935794830322266
1748142900338452500,18.961452392578124,2.437688112258911,-7.726424217224121,3.5958142280578613
1748142900356716800,18.979716796875,-3.662813186645508,-8.319246292114258,4.756333351135254
1748142900374980600,18.997980712890627,-4.576273441314697,-5.73978328704834,5.866602897644043
1748142900393246200,19.01624609375,-0.7752745151519775,-6.833303451538086,2.2169501781463623
1748142900411509500,19.034509521484374,-0.5527420043945312,-6.650252342224121,-0.5186443328857422
1748142900429775000,19.052775146484375,0.6400800347328186,-5.539384365081787,-0.7734799385070801
1748142900448038700,19.07103857421875,0.6604190468788147,-5.107480049133301,-0.7968099117279053
1748142900466304300,19.08930419921875,-0.3278166949748993,-4.936991214752197,-1.2340983152389526
1748142900484567800,19.10756787109375,-1.2376874685287476,-4.466801643371582,-1.2556337118148804
1748142900502833200,19.125833251953125,-1.7916259765625,-4.487739086151123,-1.1252248287200928
1748142900521096700,19.1440966796875,-2.700300455093384,-6.13699197769165,-1.0013962984085083
1748142900539362600,19.162362548828124,-4.447659015655518,-8.834898948669434,1.1174482107162476
1748142900557624800,19.180624755859377,-7.176074981689453,-11.200204849243164,5.7786664962768555
1748142900575891500,19.198891357421875,-20.067407608032227,-17.37189292907715,14.67936897277832
1748142900594155000,19.217155029296876,-12.4480619430542,-19.484155654907227,14.248661041259766
1748142900612424700,19.2354248046875,-11.478968620300293,-13.61037540435791,8.868997573852539
1748142900630683600,19.25368359375,-8.02193832397461,-5.757729530334473,4.324428558349609
1748142900648950000,19.271949951171877,-2.0673987865448,-1.8532410860061646,2.623729944229126
1748142900667209200,19.290209228515625,6.930810928344727,-4.242474555969238,2.2755744457244873
1748142900685472800,19.30847265625,6.7417778968811035,-11.044073104858398,2.5531418323516846
1748142900703744500,19.32674462890625,4.249054908752441,-18.370298385620117,6.107081413269043
1748142900722007800,19.3450078125,2.847458839416504,-20.16312026977539,7.795815944671631
1748142900740271400,19.363271240234376,1.4632110595703125,-13.23290729522705,2.7529425621032715
1748142900758537200,19.381537109375,-4.508676052093506,-7.585247993469238,1.4829518795013428
1748142900776800300,19.39980029296875,-4.256831645965576,-4.865206718444824,0.6825526356697083
1748142900795065900,19.41806591796875,-0.6975077986717224,-3.841676712036133,0.04007977992296219
1748142900813324800,19.43632470703125,1.5517455339431763,-4.260420799255371,1.0151549577713013
1748142900831594000,19.454593994140627,2.3736801147460938,-7.432106971740723,2.5298118591308594
1748142900849859600,19.472859619140625,2.80558443069458,-10.430912017822266,4.304089546203613
1748142900868124200,19.491124267578126,2.390429735183716,-11.578868865966797,4.178466320037842
1748142900886387200,19.50938720703125,1.7820546627044678,-10.697113990783691,3.8608193397521973
1748142900904655000,19.527655029296874,0.7483552694320679,-9.452845573425293,2.994617462158203
1748142900922908400,19.545908447265624,-1.944766640663147,-8.319246292114258,2.7631118297576904
1748142900941177600,19.564177490234375,-3.6436707973480225,-7.773682594299316,3.9248273372650146
1748142900959445500,19.582445556640625,-1.7623138427734375,-8.129016876220703,4.752145767211914
1748142900977711400,19.60071142578125,-0.1453639715909958,-8.583054542541504,4.752744197845459
1748142900995974700,19.618974609375,-0.08554340898990631,-8.71645450592041,4.2550368309021
1748142901014240500,19.637240478515626,0.2470589429140091,-7.844270706176758,3.9828531742095947
1748142901032503600,19.655503662109375,0.7537391185760498,-7.537989616394043,3.934398651123047
1748142901050769700,19.673769775390625,0.8919246196746826,-7.500900745391846,3.8195431232452393
1748142901069032700,19.69203271484375,0.8129615187644958,-8.075178146362305,3.6323046684265137
1748142901087297300,19.71029736328125,0.5318048596382141,-8.967103004455566,3.363710403442383
1748142901105558500,19.72855859375,-0.5581258535385132,-9.517452239990234,3.710071563720703
1748142901123827700,19.74682763671875,-2.0303099155426025,-9.580862045288086,4.947160720825195
1748142901142090800,19.7650908203125,-3.094517946243286,-9.024530410766602,6.0502519607543945
1748142901160352000,19.78335205078125,-1.9310078620910645,-8.977272033691406,7.190432071685791
1748142901178619100,19.801619140625,-0.19740787148475647,-9.151350021362305,7.779664516448975
1748142901196887300,19.81988720703125,0.5653043389320374,-8.794819831848145,6.711867332458496
1748142901215149800,19.83814990234375,0.755533754825592,-8.197212219238281,5.636293888092041
1748142901233415200,19.856415283203123,0.2715853750705719,-9.568299293518066,5.1188459396362305
1748142901251678500,19.874678466796876,-2.6434707641601562,-12.513864517211914,4.800600528717041
1748142901269943600,19.892943603515626,-5.611767292022705,-14.465808868408203,6.339783668518066
1748142901288203500,19.91120361328125,-4.163511276245117,-13.455439567565918,7.323233604431152
1748142901306473500,19.929473388671877,-0.9499505758285522,-10.364511489868164,6.617351055145264
1748142901324736500,19.947736572265626,0.2476571500301361,-8.879166603088379,5.933003902435303
1748142901343002000,19.966002197265624,-0.6227321028709412,-8.794221878051758,5.155336380004883
1748142901361265700,19.984265625,-0.8039883971214294,-10.333404541015625,3.8763725757598877
1748142901379531300,20.00253125,0.38285163044929504,-12.353545188903809,2.675773859024048
1748142901397794800,20.020794921875,0.3332005441188812,-13.702498435974121,2.0374884605407715
1748142901416060700,20.039060791015626,-1.3908281326293945,-14.422140121459961,1.031306505203247
1748142901434324000,20.057323974609375,-2.334198474884033,-11.804391860961914,1.500898003578186
1748142901452590600,20.075590576171876,-0.8967102766036987,-9.298508644104004,1.6307085752487183
1748142901470850600,20.0938505859375,-0.03768695518374443,-7.630113124847412,2.4819552898406982
1748142901489119700,20.11211962890625,-0.08255238085985184,-6.498308181762695,3.689134359359741
1748142901507382000,20.130382080078125,-0.17108681797981262,-6.141777515411377,3.972085475921631
1748142901525646800,20.148646728515626,-0.05383851006627083,-6.607779502868652,3.8943188190460205
1748142901543912200,20.166912109375,-0.9188438653945923,-7.1024956703186035,4.412364959716797
1748142901562172200,20.185172119140624,-1.5296118259429932,-7.336394309997559,4.90109920501709
1748142901580440300,20.2034404296875,-1.1353943347930908,-7.377072334289551,4.249652862548828
1748142901598706200,20.2217060546875,-0.01734796352684498,-7.026523590087891,2.105085611343384
1748142901616969200,20.23996923828125,0.4019941985607147,-6.027520179748535,0.22612173855304718
1748142901635241700,20.25824169921875,0.23629122972488403,-4.868197441101074,-1.0151549577713013
1748142901653498600,20.27649853515625,0.0891326442360878,-4.0935211181640625,-1.8604196310043335
1748142901671759000,20.294759033203125,-0.397208571434021,-3.8297126293182373,-1.9836499691009521
1748142901690026200,20.313026123046875,-1.5056836605072021,-4.29033088684082,-1.7234305143356323
1748142901708292900,20.33129296875,-3.163909673690796,-6.087340831756592,-1.3591232299804688
1748142901726558000,20.349557861328126,-4.4955153465271,-9.091529846191406,1.4901303052902222
1748142901744822300,20.367822265625,-6.321837425231934,-12.272189140319824,7.191030025482178
1748142901763085600,20.38608544921875,-21.105892181396484,-16.52184295654297,14.041681289672852
1748142901781351400,20.404351318359375,-13.224532127380371,-18.04487419128418,16.31366729736328
1748142901799613400,20.422613525390624,-10.459626197814941,-11.909078598022461,10.864012718200684
1748142901817881600,20.440881591796874,-7.94716215133667,-8.309076309204102,4.091128349304199
1748142901836144400,20.459144287109375,-4.945964336395264,-9.962516784667969,2.2983062267303467
1748142901854409500,20.477409423828124,3.5814573764801025,-13.75035572052002,4.775475978851318
1748142901872673300,20.49567333984375,7.482954502105713,-15.028122901916504,3.521636724472046
1748142901890937600,20.5139375,6.632904529571533,-13.37587833404541,2.736790895462036
1748142901909198600,20.532198486328124,3.803391695022583,-8.712865829467773,1.5014961957931519
1748142901927463000,20.550462890625,2.0991036891937256,-5.508277893066406,0.2997010350227356
1748142901945729800,20.568729736328127,1.2269197702407837,-3.551547050476074,-0.2554338276386261
1748142901963997400,20.58699755859375,1.090528964996338,-2.9006991386413574,-0.43549370765686035
1748142901982260200,20.60526025390625,0.8201399445533752,-5.639284610748291,0.7471588850021362
1748142902000523300,20.623523193359375,0.7238288521766663,-9.642477035522461,2.803191661834717
1748142902018789400,20.641789306640625,1.2526426315307617,-12.851252555847168,3.782454490661621
1748142902037054500,20.660054443359375,0.9206385016441345,-12.555140495300293,4.133002758026123
1748142902055318800,20.67831884765625,-1.633101463317871,-10.120443344116211,4.084548473358154
1748142902073583900,20.696583984375,-4.1868414878845215,-8.564510345458984,3.699902057647705
1748142902091847400,20.714847412109375,-2.8528428077697754,-8.090731620788574,3.888935089111328
1748142902110112500,20.733112548828124,-0.8189435601234436,-8.252246856689453,4.214358806610107
1748142902128376600,20.75137646484375,-0.13160525262355804,-8.516654014587402,4.595416069030762
1748142902146641000,20.769640869140623,0.050847481936216354,-8.479565620422363,4.781457901000977
1748142902164906200,20.78790625,0.25722843408584595,-7.967501163482666,4.556532382965088
1748142902183166500,20.80616650390625,0.5120640397071838,-7.436892986297607,4.351347923278809
1748142902201433000,20.82443310546875,0.7208378314971924,-7.618149280548096,4.202394962310791
1748142902219701200,20.842701171875,0.7722834944725037,-8.0081787109375,4.46979284286499
1748142902237963800,20.8609638671875,0.8099704384803772,-8.264809608459473,4.670191764831543
1748142902256229600,20.879229736328124,0.24526432156562805,-8.452047348022461,4.398606300354004
1748142902274493000,20.897492919921874,-0.763310432434082,-8.74636459350586,4.314259052276611
1748142902292758300,20.91575830078125,-1.9657038450241089,-8.835497856140137,4.7611188888549805
1748142902311022000,20.93402197265625,-2.1822543144226074,-9.285347938537598,6.559325218200684
1748142902329287700,20.95228759765625,-1.100698471069336,-9.479764938354492,7.795217990875244
1748142902347551000,20.970551025390623,-0.3439682424068451,-9.127422332763672,6.354738712310791
1748142902365816300,20.98881640625,0.1178465187549591,-8.655437469482422,5.283352375030518
1748142902384080100,21.007080078125,-0.5431707501411438,-9.317052841186523,5.412564754486084
1748142902402345700,21.025345703125,-3.5808591842651367,-11.79601764678955,6.745367050170898
1748142902420608000,21.04360791015625,-5.921039581298828,-13.517653465270996,9.029315948486328
1748142902438876200,21.061876220703127,-3.992424488067627,-12.434303283691406,9.203991889953613
1748142902457137000,21.080136962890624,-0.47258245944976807,-10.062417030334473,7.946564197540283
1748142902475400400,21.098400390625,0.1788634955883026,-8.598010063171387,6.689135551452637
1748142902493667300,21.116667236328126,-1.51166570186615,-9.056235313415527,5.2384867668151855
1748142902511933000,21.134932861328124,-1.8095721006393433,-11.615957260131836,2.9730820655822754
1748142902530192000,21.15319189453125,-0.5928218364715576,-14.648262023925781,1.7994025945663452
1748142902548461800,21.1714619140625,-0.1866401731967926,-16.19940948486328,0.5575276613235474
1748142902566725400,21.189725341796876,-1.176072359085083,-14.166706085205078,0.5958128571510315
1748142902584991200,21.2079912109375,-1.317248821258545,-10.308279991149902,1.1850453615188599
1748142902603254500,21.226254638671875,-0.5754738450050354,-7.765307903289795,1.6606189012527466
1748142902621520100,21.24452001953125,0.4821537733078003,-6.392425537109375,2.3204398155212402
1748142902639783700,21.26278369140625,1.444068431854248,-6.216553211212158,2.8731818199157715
1748142902658049300,21.28104931640625,1.0600204467773438,-5.8719868659973145,3.3720853328704834
1748142902676312800,21.299312744140625,-1.2975081205368042,-5.437689304351807,4.917848587036133
1748142902694589000,21.3175888671875,-4.314857482910156,-5.72123908996582,7.10010290145874
1748142902712840200,21.335840087890624,-3.177070379257202,-6.92482852935791,5.91924524307251
1748142902731108600,21.354108642578126,-0.2231307178735733,-7.856832981109619,3.094517946243286
1748142902749371000,21.372370849609375,0.15613168478012085,-7.365108013153076,1.5206388235092163
1748142902767635500,21.390635498046876,-0.7722834944725037,-6.2398834228515625,0.5156532526016235
1748142902785900800,21.40890087890625,-0.6699903607368469,-4.963312149047852,-0.544965386390686
1748142902804161300,21.427161376953126,-0.5413761138916016,-4.503292083740234,-1.319043517112732
1748142902822429200,21.44542919921875,-0.9326026439666748,-4.5206403732299805,-1.3567304611206055
1748142902840694500,21.463694580078126,-1.1934202909469604,-4.357928276062012,-0.8488538265228271
1748142902858955000,21.481955078125,-1.649253010749817,-5.200799942016602,-0.5048855543136597
1748142902877228000,21.50022802734375,-3.104687452316284,-8.186444282531738,0.6227321028709412
1748142902895482600,21.518482666015625,-6.020939826965332,-11.586047172546387,4.278367042541504
1748142902913752800,21.5367529296875,-16.5577335357666,-15.125031471252441,9.624530792236328
1748142902932016000,21.55501611328125,-15.74118423461914,-17.866010665893555,17.548362731933594
1748142902950281700,21.57328173828125,-8.896514892578125,-12.3278226852417,14.246268272399902
1748142902968545300,21.591545166015624,-6.50608491897583,-5.934200286865234,7.467999458312988
1748142902986811100,21.60981103515625,-5.254040241241455,-3.476771354675293,2.4323041439056396
1748142903005074400,21.628074462890623,-0.18903298676013947,-6.21356201171875,2.6709883213043213
1748142903023339800,21.64633984375,6.507281303405762,-12.885948181152344,3.263810157775879
1748142903041597000,21.664596923828125,5.887540340423584,-19.889141082763672,5.197210788726807
1748142903059869200,21.682869140625,3.4169507026672363,-20.765512466430664,5.574080467224121
1748142903078127400,21.70112744140625,1.8317056894302368,-11.900703430175781,1.0803594589233398
1748142903096398000,21.719398193359375,-2.2067806720733643,-6.50907564163208,0.22612173855304718
1748142903114661400,21.737661376953124,-3.122035264968872,-3.9589250087738037,-1.4087743759155273
1748142903132927200,21.75592724609375,-0.9984052777290344,-3.3379876613616943,-2.679363250732422
1748142903151185700,21.774185546875,1.1330015659332275,-4.396811485290527,-0.17946170270442963
1748142903169455900,21.792455810546876,1.4428720474243164,-8.349754333496094,1.9854445457458496
1748142903187719400,21.810719482421874,2.282752752304077,-11.711670875549316,3.322434186935425
1748142903205985300,21.8289853515625,3.4271202087402344,-12.343974113464355,3.864408493041992
1748142903224248600,21.84724853515625,1.8717855215072632,-10.079765319824219,4.464408874511719
1748142903242514400,21.865514404296874,-1.3483555316925049,-8.368298530578613,4.645665168762207
1748142903260778800,21.88377880859375,-4.31306266784668,-7.58943510055542,5.203192710876465
1748142903279042300,21.902042236328125,-2.35872483253479,-7.3986077308654785,5.4765729904174805
1748142903297302000,21.920302001953125,-0.3074777126312256,-7.916653633117676,5.834897994995117
1748142903315568000,21.938568115234375,-1.0492527484893799,-8.151150703430176,5.386841773986816
1748142903333836000,21.9568359375,-0.8685946464538574,-7.729415416717529,4.502095699310303
1748142903352101600,21.9751015625,0.37866419553756714,-7.336394309997559,4.251447677612305
1748142903370364700,21.99336474609375,0.5706881880760193,-7.204190731048584,4.552345275878906
1748142903388629500,22.01162939453125,0.3696911036968231,-7.445267677307129,4.825126647949219
1748142903406895000,22.02989501953125,0.4576273262500763,-8.191828727722168,4.867001056671143
1748142903425163300,22.048163330078125,0.023330021649599075,-9.040083885192871,4.287938117980957
1748142903443423000,22.066423095703126,-1.322034478187561,-9.665806770324707,3.7256247997283936
1748142903461689000,22.084689208984376,-2.68534517288208,-9.378668785095215,4.235894203186035
1748142903479952100,22.1029521484375,-1.6767704486846924,-9.021539688110352,6.027520179748535
1748142903498225700,22.1212255859375,-0.054436713457107544,-9.19023323059082,7.759923934936523
1748142903516481500,22.1394814453125,0.389431893825531,-9.06401252746582,7.448258876800537
1748142903534747100,22.1577470703125,0.7585247755050659,-7.7838521003723145,6.215356826782227
1748142903553005600,22.176005615234374,0.048454657196998596,-8.602197647094727,6.038886070251465
1748142903571274500,22.1942744140625,-3.2757742404937744,-11.35633659362793,5.851049423217773
1748142903589540600,22.21254052734375,-5.5860443115234375,-13.197014808654785,7.140182971954346
1748142903607805200,22.23080517578125,-2.991028308868408,-12.41575813293457,8.842676162719727
1748142903626068500,22.249068359375,-0.576670229434967,-10.18026351928711,8.558527946472168
1748142903644334300,22.267334228515626,-0.02153540402650833,-8.730213165283203,6.770491600036621
1748142903662596900,22.285596923828123,-2.266601324081421,-9.546165466308594,5.61236572265625
1748142903680863000,22.303863037109377,-3.2751760482788086,-11.965310096740723,3.267399311065674
1748142903699127600,22.32212744140625,-0.48574298620224,-14.382658958435059,2.038684844970703
1748142903717392600,22.340392578125,0.8291130661964417,-15.743577003479004,1.2203395366668701
1748142903735654700,22.358654541015625,0.6640082597732544,-15.5294189453125,-0.18484555184841156
1748142903753922600,22.376922607421875,-0.7884350419044495,-11.246864318847656,0.22133609652519226
1748142903772179700,22.3951796875,-0.46480581164360046,-7.9040913581848145,0.34995031356811523
1748142903790450700,22.41345068359375,0.5419743061065674,-6.440880298614502,1.5068800449371338
1748142903808713700,22.431713623046875,0.7094719409942627,-6.321837425231934,3.424727439880371
1748142903826976500,22.4499765625,-0.09032905846834183,-6.62632417678833,4.674378871917725
1748142903845246000,22.468245849609374,-3.651447296142578,-6.68435001373291,6.753143787384033
1748142903863499000,22.4864990234375,-4.913063049316406,-6.653841495513916,8.008777618408203
1748142903881786600,22.50478662109375,-0.5802595019340515,-7.093522548675537,6.052046775817871
1748142903900035000,22.52303515625,1.074377417564392,-7.335795879364014,1.944766640663147
1748142903918303200,22.54130322265625,0.4127618968486786,-6.597609996795654,-0.22432711720466614
1748142903936566500,22.55956640625,-0.19202402234077454,-5.678168296813965,-1.1258230209350586
1748142903954830000,22.577830078125,-0.23330020904541016,-4.960919380187988,-1.4925230741500854
1748142903973095700,22.596095703125,-0.503689169883728,-4.541577339172363,-1.6109678745269775
1748142903991359200,22.614359130859373,-1.165902853012085,-4.325026988983154,-1.41834557056427
1748142904009623600,22.63262353515625,-1.8831514120101929,-4.8059844970703125,-1.0103694200515747
1748142904027889400,22.650889404296876,-2.730808734893799,-5.960521221160889,-0.2883351147174835
1748142904046156000,22.669156005859374,-3.748356580734253,-7.51286506652832,1.7778671979904175
1748142904064403000,22.68740283203125,-6.971488952636719,-10.545169830322266,6.329015731811523
1748142904082684700,22.7056845703125,-13.103694915771484,-15.409777641296387,14.618949890136719
1748142904100951300,22.723951416015623,-12.370294570922852,-20.156539916992188,19.51287078857422
1748142904119196200,22.742196044921876,-12.732209205627441,-17.059629440307617,14.994025230407715
1748142904137475300,22.760475341796877,-8.180462837219238,-11.028519630432129,6.488736629486084
1748142904155732700,22.778732666015625,-3.5192439556121826,-10.239486694335938,4.25084924697876
1748142904174004700,22.797004638671876,5.618347644805908,-10.84008502960205,1.6426727771759033
1748142904192269800,22.815269775390625,7.09711217880249,-11.313265800476074,-0.14057832956314087
1748142904210533600,22.83353369140625,5.36650276184082,-9.856036186218262,0.3535395562648773
1748142904228799000,22.851799072265624,4.2454657554626465,-6.8865437507629395,-0.02751746028661728
1748142904247062800,22.870062744140625,2.825923442840576,-4.704289436340332,-0.4707878530025482
1748142904265328600,22.88832861328125,1.9453648328781128,-3.631706476211548,-0.9266205430030823
1748142904283592700,22.9065927734375,1.3489537239074707,-4.872983455657959,-0.8267202377319336
1748142904301856300,22.924856201171874,0.8560323119163513,-8.660821914672852,0.8051848411560059
1748142904320120800,22.943120849609375,1.34476637840271,-12.529417991638184,1.9411773681640625
1748142904338386200,22.96138623046875,0.1052841991186142,-13.107284545898438,3.3780672550201416
1748142904356648700,22.979648681640626,-3.3026933670043945,-10.3016996383667,4.953741073608398
1748142904374916000,22.997916015625,-4.080958843231201,-8.174480438232422,5.374279499053955
1748142904393174000,23.016174072265624,-1.9872392416000366,-7.680960655212402,5.729015827178955
1748142904411439600,23.034439697265626,-0.32721850275993347,-8.054241180419922,5.834897994995117
1748142904429706800,23.052706787109376,0.4582255482673645,-8.357531547546387,5.2013983726501465
1748142904447975000,23.070974853515626,0.5641079545021057,-7.968697547912598,5.101497650146484
1748142904466236700,23.089236572265627,0.3936193287372589,-7.4739813804626465,4.844269275665283
1748142904484502800,23.107502685546876,0.2638086974620819,-7.402196884155273,4.304089546203613
1748142904502766300,23.125766357421874,0.2470589429140091,-7.7491559982299805,3.9451663494110107
1748142904521031700,23.14403173828125,0.005982056725770235,-8.209176063537598,3.7872400283813477
1748142904539295200,23.162295166015625,-0.33918261528015137,-8.6303129196167,3.930809497833252
1748142904557560800,23.180560791015626,-0.34576287865638733,-9.147761344909668,3.906282901763916
1748142904575819300,23.1988193359375,-0.8261220455169678,-9.535398483276367,3.3373894691467285
1748142904594088400,23.21708837890625,-2.3539392948150635,-9.46181869506836,3.226123094558716
1748142904612354600,23.2353544921875,-3.5533416271209717,-8.628518104553223,5.176273345947266
1748142904630617900,23.253617919921876,-1.9184455871582031,-8.530412673950195,7.779664516448975
