time,seconds_elapsed,z,y,x
1748142881443810000,0.06681005859375,1.2782355546951294,-0.14049901068210602,-0.08414668589830399
1748142881462077400,0.085077392578125,0.8920159935951233,-0.1875356286764145,-0.126143679022789
1748142881480350200,0.10335009765625,0.2727513313293457,-0.1589776873588562,0.032681290060281754
1748142881498613500,0.121613525390625,-0.03420845419168472,1.617876648902893,0.20143280923366547
1748142881516875000,0.139875,-0.13866640627384186,2.6555838584899902,0.4021020531654358
1748142881535143000,0.158142822265625,0.294437050819397,2.4963009357452393,0.6088799238204956
1748142881553409000,0.176408935546875,0.8962920308113098,1.7731890678405762,0.7130324840545654
1748142881571672300,0.19467236328125,0.8480336666107178,0.14049901068210602,0.07024950534105301
1748142881589936000,0.21293603515625,-0.0006108652451075613,-0.10308351367712021,-0.04993823543190956
1748142881608196400,0.2311962890625,-0.8868235945701599,-0.6801984310150146,0.11438451707363129
1748142881626465000,0.249465087890625,-1.4391984939575195,-1.9320141077041626,0.17928895354270935
1748142881644730000,0.267730224609375,-1.825876235961914,-3.2336151599884033,0.12629638612270355
1748142881662994000,0.285993896484375,-0.13836097717285156,-2.9513955116271973,-0.6676757335662842
1748142881681258800,0.3042587890625,0.12889257073402405,-0.6189591884613037,-1.9683605432510376
1748142881699522600,0.3225224609375,-0.016493361443281174,-0.4103487432003021,-1.6699528694152832
1748142881717787600,0.34078759765625,-0.08307767659425735,-0.266642689704895,-0.8704829812049866
1748142881736051700,0.3590517578125,-0.09514226019382477,0.01038470957428217,-0.01970040425658226
1748142881754316300,0.37731640625,0.8268061280250549,0.5705481171607971,0.29657506942749023
1748142881772576000,0.395575927734375,1.4804319143295288,-0.4395175576210022,0.023365596309304237
1748142881790844200,0.41384423828125,0.5568036437034607,-1.6586518287658691,-0.5697845816612244
1748142881809110300,0.4321103515625,0.5879577994346619,-1.8335120677947998,-0.6049093008041382
1748142881827374000,0.4503740234375,0.7425066828727722,-1.4576772451400757,-0.49877145886421204
1748142881845637600,0.4686376953125,0.7735081315040588,-0.8332201838493347,-0.14752395451068878
1748142881863903500,0.486903564453125,0.8252789378166199,-1.0367910861968994,-0.11713340878486633
1748142881882162700,0.50516259765625,1.0381654500961304,-1.5318973064422607,-0.3929390609264374
1748142881900431600,0.523431640625,1.3556627035140991,-2.3376286029815674,-0.5432119369506836
1748142881918696400,0.541696533203125,1.4343116283416748,-3.9997928142547607,-0.5597052574157715
1748142881936961000,0.5599609375,1.6939293146133423,-5.081024169921875,-0.20494529604911804
1748142881955220500,0.578220458984375,2.068389654159546,-4.973206520080566,0.0429132841527462
1748142881973489200,0.5964892578125,2.1447479724884033,-4.897459506988525,0.13576480746269226
1748142881991753700,0.614753662109375,1.965153455734253,-5.486486434936523,0.5864306092262268
1748142882010018300,0.633018310546875,1.938580870628357,-6.3633832931518555,1.1734721660614014
1748142882028277800,0.65127783203125,2.370615243911743,-6.368422985076904,1.6838500499725342
1748142882046546000,0.6695458984375,2.791501522064209,-5.888435363769531,1.9758436679840088
1748142882064812300,0.687812255859375,3.2986724376678467,-5.280013561248779,1.6898059844970703
1748142882083073800,0.70607373046875,3.6725218296051025,-5.025893688201904,1.306182622909546
1748142882101342200,0.72434228515625,3.612198829650879,-5.057353496551514,1.265865445137024
1748142882119603700,0.742603759765625,3.168405294418335,-5.106070041656494,1.289536476135254
1748142882137870300,0.760870361328125,2.9823968410491943,-4.747950077056885,1.4813482761383057
1748142882156121900,0.779121826171875,3.0662381649017334,-4.118147850036621,1.655444860458374
1748142882174397200,0.797397216796875,3.148857593536377,-2.951242685317993,1.51158607006073
1748142882192662000,0.815662109375,3.056922435760498,-0.9769262671470642,0.8752171993255615
1748142882210925600,0.833925537109375,3.27713942527771,0.28619036078453064,0.6995934247970581
1748142882229188400,0.852188232421875,3.5356879234313965,0.9515753388404846,0.5977316498756409
1748142882247447300,0.870447265625,3.6673295497894287,1.07771897315979,0.289702832698822
1748142882265719800,0.8887197265625,3.218496322631836,0.7360926270484924,0.0328340083360672
1748142882283984600,0.906984619140625,2.657416582107544,0.2125810980796814,0.25305092334747314
1748142882302248000,0.925248046875,2.2844831943511963,-0.44180828332901,0.6278167366981506
1748142882320514300,0.943514404296875,2.182468891143799,-0.8565858006477356,0.8159632682800293
1748142882338777300,0.96177734375,2.1560487747192383,-0.9353874325752258,0.7834346890449524
1748142882357042000,0.9800419921875,2.0033326148986816,-0.9625709056854248,0.679740309715271
1748142882375302100,0.99830224609375,1.607797384262085,-0.8446739315986633,0.5845980644226074
1748142882393570600,1.016570556640625,1.0709995031356812,-0.703411340713501,0.6050620079040527
1748142882411835100,1.034835205078125,0.6301075220108032,-0.3617849349975586,0.7232644557952881
1748142882430100000,1.053099853515625,0.3663664162158966,0.17821992933750153,0.8333728909492493
1748142882448364500,1.071364501953125,0.2840523421764374,0.7367035150527954,1.0997101068496704
1748142882466627000,1.089626953125,0.2047925740480423,1.1021536588668823,1.5671747922897339
1748142882484894500,1.10789453125,-0.32528573274612427,1.0864238739013672,1.6920967102050781
1748142882503154700,1.12615478515625,-0.8002334833145142,1.46424400806427,1.1617130041122437
1748142882521422600,1.144422607421875,-1.236391305923462,1.7441730499267578,0.5337435007095337
1748142882539686400,1.162686279296875,-1.429271936416626,1.3168727159500122,0.012675453908741474
1748142882557950000,1.180949951171875,-0.5057964324951172,0.11927144229412079,-0.17043140530586243
1748142882576212200,1.199212158203125,0.43737950921058655,-1.0155634880065918,1.294118046760559
1748142882594480400,1.21748046875,0.5500841736793518,-1.6340645551681519,2.1314616203308105
1748142882612743700,1.23574365234375,-0.12446379661560059,-1.3862059116363525,1.3431400060653687
1748142882631013000,1.25401318359375,-2.023949384689331,-0.41202861070632935,0.00809396430850029
1748142882649268700,1.272268798828125,-2.7397305965423584,0.4199698567390442,-0.327271044254303
1748142882667538000,1.290537841796875,-2.503631114959717,1.422552466392517,-0.03481931984424591
1748142882685799700,1.308799560546875,-2.193769693374634,2.1624629497528076,0.03588833287358284
1748142882704053500,1.327053466796875,-2.1117610931396484,2.3412938117980957,-0.12293662875890732
1748142882722331100,1.3453310546875,-1.916131615638733,1.7676912546157837,-0.20754146575927734
1748142882740595200,1.36359521484375,-2.5082128047943115,0.7055493593215942,-0.3481931984424591
1748142882758860000,1.381860107421875,-2.3883304595947266,-0.7837401032447815,-0.17012597620487213
1748142882777124400,1.400124267578125,-1.5688546895980835,-1.4720325469970703,0.019853120669722557
1748142882795376600,1.418376708984375,-0.5978843569755554,-1.7441730499267578,-0.01817324012517929
1748142882822777000,1.445777099609375,-0.6609562039375305,-1.3125966787338257,0.19104810059070587
1748142882841044200,1.464044189453125,-1.0236574411392212,-1.0659598112106323,0.18585574626922607
1748142882859314700,1.482314697265625,-1.153160810470581,-1.0942124128341675,0.2938261926174164
1748142882877577500,1.500577392578125,-1.158811330795288,-0.88361656665802,0.644768238067627
1748142882895847200,1.51884716796875,-0.9046914577484131,-0.8827002644538879,0.42012256383895874
1748142882914111200,1.537111328125,-0.6337726712226868,-0.8177958726882935,-0.49984049797058105
1748142882932373200,1.555373291015625,-0.17088955640792847,-0.2984076738357544,-0.8254316449165344
1748142882950620200,1.5736201171875,-0.14645494520664215,-0.09712757170200348,-0.956156849861145
1748142882968902400,1.59190234375,-0.35414913296699524,-0.1788308024406433,-0.88987797498703
1748142882987161000,1.6101611328125,-0.5355761051177979,-0.24556782841682434,-0.6779077053070068
1748142883005425700,1.62842578125,-0.5899431109428406,-0.18295414745807648,-0.5659666657447815
1748142883023694000,1.646694091796875,-0.4401284158229828,-1.0558805465698242,-0.9711230397224426
1748142883041955600,1.66495556640625,-0.21807889640331268,-1.4750868082046509,-1.357953429222107
1748142883060225000,1.68322509765625,0.5780312418937683,-1.524566888809204,-1.0881037712097168
1748142883078488600,1.701488525390625,1.5526667833328247,-2.479043960571289,-0.8243626356124878
1748142883096751900,1.719751953125,2.35091495513916,-4.0408735275268555,-0.8706356883049011
1748142883115018800,1.738018798828125,2.9883527755737305,-5.533980846405029,-1.0415252447128296
1748142883133279200,1.756279296875,3.83577561378479,-6.119800567626953,-0.5810855627059937
1748142883151546400,1.77454638671875,5.048648357391357,-5.955935955047607,0.9036223888397217
1748142883169809200,1.79280908203125,5.249012470245361,-3.938706398010254,2.931236982345581
1748142883188075300,1.8110751953125,4.641659736633301,-3.1196887493133545,3.7001636028289795
1748142883206338600,1.829338623046875,4.341877460479736,-4.3455424308776855,3.4216089248657227
1748142883224603000,1.847602783203125,4.1248674392700195,-5.193270683288574,2.4249823093414307
1748142883242868500,1.865868408203125,5.069112300872803,-4.105319976806641,0.6291912198066711
1748142883261132000,1.884132080078125,4.6662468910217285,-1.5086843967437744,-1.397354245185852
1748142883279397400,1.9023974609375,1.5190691947937012,-1.2232576608657837,-1.7986927032470703
1748142883297662000,1.920661865234375,-0.6351471543312073,-1.616654872894287,-1.0519099235534668
1748142883315925000,1.938925048828125,-1.3460415601730347,-1.6142114400863647,-0.4216497242450714
1748142883334186000,1.95718603515625,-1.1093312501907349,-1.1143709421157837,-0.05115996301174164
1748142883352454100,1.9754541015625,-0.33826664090156555,-0.27947086095809937,0.36132678389549255
1748142883370718000,1.993718017578125,0.9471465349197388,-1.1670581102371216,1.6727017164230347
1748142883388984000,2.011984130859375,1.4298827648162842,-1.7348573207855225,3.5654678344726562
1748142883407248600,2.03024853515625,0.9885326623916626,-0.3712533414363861,5.0962958335876465
1748142883425508000,2.048508056640625,-0.11835514008998871,2.507601737976074,5.133558750152588
1748142883443772700,2.066772705078125,-0.8051204085350037,5.68959903717041,2.825404405593872
1748142883462040800,2.085040771484375,-1.292590856552124,6.203641891479492,-0.660192608833313
1748142883480306400,2.103306396484375,-1.253190040588379,3.448028802871704,-3.0413453578948975
1748142883498569500,2.121569580078125,-0.6542366743087769,2.6222918033599854,-2.0862574577331543
1748142883516835300,2.13983544921875,-0.46013423800468445,2.026850938796997,-0.6630942225456238
1748142883535098400,2.158098388671875,-0.4356996417045593,1.1311696767807007,0.06887505948543549
1748142883553364000,2.176364013671875,-0.775340735912323,0.5207626223564148,0.5593998432159424
1748142883571625700,2.194625732421875,-1.6815593242645264,0.12018773704767227,1.247844934463501
1748142883589894100,2.21289404296875,-2.375807762145996,0.6771441102027893,1.6339118480682373
1748142883608159200,2.2311591796875,-1.1545352935791016,1.8626807928085327,0.9793696999549866
1748142883626422000,2.249422119140625,0.5361869931221008,2.6335928440093994,0.19456058740615845
1748142883644689700,2.267689697265625,0.817948579788208,2.5583035945892334,-0.0039706239476799965
1748142883662951000,2.285950927734375,0.637132465839386,2.0471620559692383,0.12064588814973831
1748142883681209900,2.3042099609375,0.471129834651947,1.476919412612915,0.37950003147125244
1748142883699474700,2.322474609375,0.3228422701358795,1.070694088935852,0.7406741380691528
1748142883717741600,2.340741455078125,0.23182335495948792,0.5503895878791809,1.419498085975647
1748142883736009700,2.359009765625,-0.22999076545238495,-0.055741455405950546,1.7673858404159546
1748142883754271500,2.377271484375,-0.7518224120140076,-0.34208452701568604,1.662469744682312
1748142883772537600,2.39553759765625,-0.28588494658470154,0.806647539138794,1.1882855892181396
1748142883790799400,2.41379931640625,-0.15363261103630066,1.5280793905258179,0.2952006161212921
1748142883809067300,2.4320673828125,-0.13790282607078552,1.2725850343704224,-0.2984076738357544
1748142883827329300,2.450329345703125,0.07452555745840073,0.9439395070075989,-0.16493362188339233
1748142883845591800,2.468591796875,0.21991148591041565,0.7493789196014404,0.3568980097770691
1748142883863853300,2.486853271484375,0.24159720540046692,0.5529857873916626,0.684779942035675
1748142883882123000,2.505123046875,0.32039880752563477,0.34865134954452515,0.8475755453109741
1748142883900388400,2.523388427734375,0.3982841372489929,0.323147714138031,0.9472993016242981
1748142883918655000,2.541655029296875,0.45326200127601624,0.470060795545578,0.964403510093689
1748142883936915000,2.5599150390625,0.5126686692237854,0.8132143616676331,1.059393048286438
1748142883955177200,2.57817724609375,0.5019785165786743,1.080467939376831,1.2716686725616455
1748142883973444000,2.596444091796875,0.5732970237731934,1.056796908378601,1.2483031749725342
1748142883991712300,2.614712158203125,0.6831000447273254,0.7359399199485779,0.6079636216163635
1748142884009974000,2.63297412109375,0.5488623976707458,0.5232060551643372,-0.337503045797348
1748142884028240000,2.651239990234375,0.28298333287239075,0.7525860071182251,-0.6835582256317139
1748142884046503200,2.669503173828125,0.11056660860776901,0.9529497623443604,-0.30634891986846924
1748142884064768500,2.6877685546875,-0.0003054326225537807,0.4683809280395508,-0.2246456891298294
1748142884083032000,2.706031982421875,-0.06719517707824707,0.029016099870204926,-0.2612976133823395
1748142884101297400,2.72429736328125,0.08155050873756409,-0.17058411240577698,-0.6551529765129089
1748142884119560700,2.742560791015625,0.260992169380188,-0.566119372844696,-1.5691601037979126
1748142884137826300,2.760826416015625,-0.20952677726745605,-0.8907942175865173,-2.543795585632324
1748142884156089900,2.77908984375,-0.5763513445854187,-1.1606439352035522,-3.294548988342285
1748142884174355500,2.79735546875,-0.8706356883049011,-1.9995146989822388,-3.288593053817749
1748142884192617700,2.81561767578125,-1.2015719413757324,-2.415208578109741,-3.1816916465759277
1748142884210879700,2.833879638671875,-1.2368494272232056,-1.9469802379608154,-3.1586315631866455
1748142884229148200,2.852148193359375,-0.8552113175392151,-0.48227810859680176,-3.031571388244629
1748142884247414500,2.87041455078125,-0.3923282027244568,1.0077749490737915,-3.0886874198913574
1748142884265672000,2.888671875,-0.30314189195632935,1.5673274993896484,-3.2001702785491943
1748142884283942000,2.90694189453125,-0.33429601788520813,1.3391693830490112,-3.1088459491729736
1748142884302201000,2.925201171875,-0.39767327904701233,0.6557638645172119,-2.8932104110717773
1748142884320471000,2.943470947265625,-0.5241223573684692,-1.0829113721847534,-2.2540926933288574
1748142884338734600,2.961734619140625,-0.5537493228912354,-3.3006577491760254,-0.9439395070075989
1748142884357000000,2.98,-0.5899431109428406,-3.1583261489868164,0.03955352306365967
1748142884375263500,2.998263427734375,-0.7397578358650208,-1.9181169271469116,0.14737124741077423
1748142884393526300,3.0165263671875,-0.7359399199485779,-1.49906325340271,0.23655757308006287
1748142884411794700,3.034794677734375,-0.6166684627532959,-1.9321668148040771,0.5455026626586914
1748142884430055200,3.05305517578125,-0.5955936312675476,-2.1455113887786865,0.6009386777877808
1748142884448323600,3.071323486328125,-0.5458080768585205,-2.087937355041504,0.4444044530391693
1748142884466581500,3.08958154296875,-0.40454551577568054,-1.9260581731796265,0.23029619455337524
1748142884484849400,3.107849365234375,-0.04856378585100174,-1.4631749391555786,0.21380282938480377
1748142884503116800,3.12611669921875,0.2945897579193115,-0.5371032953262329,0.7854200005531311
1748142884521379000,3.144379150390625,0.5106833577156067,0.65958172082901,1.9199494123458862
1748142884539643400,3.162643310546875,1.0143417119979858,1.5415184497833252,2.9570460319519043
1748142884557909000,3.180908935546875,1.6701055765151978,1.8374826908111572,3.758195638656616
1748142884576169000,3.1991689453125,2.1305453777313232,1.3405437469482422,3.9370265007019043
1748142884594436900,3.217436767578125,2.171473264694214,1.890017032623291,3.1537444591522217
1748142884612702700,3.23570263671875,1.1939361095428467,2.9181032180786133,1.2855658531188965
1748142884630964700,3.25396484375,-0.8762862086296082,1.0245736837387085,-1.7168368101119995
1748142884649242400,3.272242431640625,-0.9740246534347534,0.9363036751747131,-1.9141463041305542
1748142884667495200,3.2904951171875,0.1963931769132614,2.2566888332366943,-0.656680166721344
1748142884685756700,3.308756591796875,1.0438159704208374,2.5256223678588867,0.4541783034801483
1748142884704023600,3.3270234375,1.2356276512145996,1.3193162679672241,1.6630805730819702
1748142884722283500,3.345283447265625,0.7382306456565857,0.35185837745666504,2.0978639125823975
1748142884740551400,3.363551513671875,-0.04993823543190956,-0.10797043144702911,1.6322319507598877
1748142884758819000,3.381819091796875,-0.24205535650253296,-0.4262312352657318,1.1229230165481567
1748142884777081300,3.400081298828125,-0.10613783448934555,-0.6603453159332275,0.8568912148475647
1748142884795351300,3.418351318359375,-0.041691552847623825,-0.9697485566139221,0.7623597979545593
1748142884813604400,3.436604248046875,-0.327271044254303,-1.5712981224060059,0.826500654220581
1748142884831876900,3.454876953125,-1.1200214624404907,-2.364659309387207,0.935081958770752
1748142884850139100,3.47313916015625,-2.3748912811279297,-3.129309892654419,0.9447031021118164
1748142884868404500,3.491404541015625,-3.4497087001800537,-3.023019313812256,0.570242702960968
1748142884886668500,3.50966845703125,-2.6842947006225586,0.31673362851142883,-0.06398813426494598
1748142884904934000,3.527933837890625,-0.9199630618095398,4.381889343261719,0.06887505948543549
1748142884923192300,3.5461923828125,-0.460897833108902,4.809341907501221,0.4069889783859253
1748142884941462300,3.564462158203125,-0.30344730615615845,3.5185837745666504,0.6140722632408142
1748142884959726000,3.58272607421875,0.08460483700037003,1.7539467811584473,0.22296582162380219
1748142884977991400,3.600991455078125,0.3758348524570465,0.8029823899269104,-0.09575312584638596
1748142884996255200,3.619255126953125,0.636521577835083,1.0656543970108032,0.2272418737411499
1748142885014520800,3.637520751953125,0.9421069025993347,1.9310977458953857,0.19883663952350616
1748142885032784000,3.655783935546875,1.362687587738037,1.903914213180542,0.22907446324825287
1748142885051048700,3.674048583984375,1.8842138051986694,1.2376129627227783,0.4398229718208313
1748142885069309000,3.692308837890625,2.2398900985717773,1.2053898572921753,0.46822822093963623
1748142885087579000,3.710578857421875,2.1229095458984375,0.7745771408081055,0.7492262125015259
1748142885105842000,3.728842041015625,1.517236590385437,0.12202033400535583,1.10139000415802
1748142885124107500,3.747107421875,0.9150761365890503,-0.2837468981742859,1.0406090021133423
1748142885142370800,3.765370849609375,0.6976081132888794,-0.5209153294563293,0.5963571667671204
1748142885160635400,3.783635498046875,0.5607742667198181,0.29107728600502014,0.2021963894367218
1748142885178900700,3.801900634765625,0.2791654169559479,1.0601565837860107,-0.11163562536239624
1748142885197161500,3.820161376953125,0.1618792861700058,0.9543242454528809,-0.5592471361160278
1748142885215424000,3.838424072265625,0.30314189195632935,0.3176499307155609,-0.8452847599983215
1748142885233694200,3.856694091796875,0.1644754707813263,-0.5948300361633301,-0.9870055317878723
1748142885251956500,3.87495654296875,-0.5371032953262329,-1.3949108123779297,-1.4819591045379639
1748142885270226200,3.89322607421875,-1.0045678615570068,-1.3906347751617432,-2.306169033050537
1748142885288486700,3.911486572265625,-1.1589640378952026,-1.6082555055618286,-2.7009406089782715
1748142885306752300,3.929752197265625,-1.4818063974380493,-2.166586399078369,-2.7432432174682617
1748142885325011000,3.948010986328125,-1.778228759765625,-2.732553005218506,-2.8370108604431152
1748142885343279900,3.96627978515625,-2.132988691329956,-3.032029628753662,-2.869539499282837
1748142885361546000,3.9845458984375,-2.401158571243286,-2.777909755706787,-2.86388897895813
1748142885379810000,4.00281005859375,-1.7437148094177246,-0.5707008838653564,-3.5967745780944824
1748142885398073600,4.021073486328125,-0.7327328324317932,1.911091923713684,-4.056297779083252
1748142885416339000,4.0393388671875,-0.6229298114776611,2.6116015911102295,-3.3144021034240723
1748142885434601500,4.0576015625,-0.5940664410591125,1.7287486791610718,-2.0259346961975098
1748142885452869000,4.075869140625,-0.47311514616012573,-0.197004035115242,-1.0760390758514404
1748142885471131000,4.094130859375,-0.498924195766449,-2.2241604328155518,-0.3104722499847412
1748142885489397000,4.11239697265625,-0.5728389024734497,-3.2420146465301514,0.16661348938941956
1748142885507660500,4.13066064453125,-0.7104362845420837,-2.906649589538574,0.15775595605373383
1748142885525925600,4.148925537109375,-0.9173668622970581,-1.4899003505706787,-0.34544429183006287
1748142885544182000,4.16718212890625,-1.0626001358032227,-0.49785518646240234,-0.5925393104553223
1748142885562457300,4.185457275390625,-1.0534371137619019,-0.5247332453727722,-0.2838996350765228
1748142885580713500,4.20371337890625,-0.8998045325279236,-0.6811147332191467,0.13057245314121246
1748142885598982400,4.221982421875,-0.6221662759780884,-0.42210787534713745,0.4173736870288849
1748142885617248300,4.240248291015625,-0.26710084080696106,0.03756821155548096,0.8103127479553223
1748142885635508500,4.258508544921875,0.044287730008363724,0.6496551632881165,1.3043500185012817
1748142885653776100,4.276776123046875,0.21838432550430298,1.1539244651794434,1.7395914793014526
1748142885672041500,4.29504150390625,0.3706424832344055,1.465771198272705,2.1197023391723633
1748142885690304800,4.3133046875,0.6725626587867737,1.7727309465408325,2.557234525680542
1748142885708571000,4.33157080078125,1.1470521688461304,2.3463335037231445,3.029128074645996
1748142885726834000,4.349833984375,1.4886785745620728,2.755307674407959,3.042414426803589
1748142885745099800,4.368099853515625,1.0758863687515259,1.9398025274276733,1.9336938858032227
1748142885763362600,4.386362548828125,-0.018478672951459885,-1.5625933408737183,-0.34513887763023376
1748142885781627400,4.40462744140625,-0.12110403180122375,0.42042800784111023,-0.7545713186264038
1748142885799887400,4.422887451171875,-0.3631593883037567,3.11785626411438,-1.0294606685638428
1748142885818161200,4.4411611328125,-0.4755585789680481,3.6473236083984375,-1.245248794555664
1748142885836416000,4.459416015625,-0.5067127346992493,0.8735373020172119,-0.6794348955154419
1748142885854685400,4.477685546875,0.14019356667995453,-1.098793864250183,0.1895209401845932
1748142885872950800,4.49595068359375,0.1540907621383667,-0.5949827432632446,0.37491855025291443
1748142885891211800,4.514211669921875,-0.06841690838336945,-0.029932396486401558,0.4488332271575928
1748142885909478400,4.532478515625,-0.038179077208042145,0.16233743727207184,0.5670356750488281
1748142885927744300,4.550744140625,0.1765400618314743,0.2344195395708084,0.7420485615730286
1748142885946007600,4.569007568359375,0.2811507284641266,0.4095851480960846,0.8681922554969788
1748142885964258300,4.58725830078125,0.0507018156349659,0.46731191873550415,0.8907942175865173
1748142885982539300,4.605539306640625,-0.20662516355514526,0.19333885610103607,1.0505355596542358
1748142886000801300,4.62380126953125,0.03451388701796532,-0.5146539807319641,1.7861700057983398
1748142886019066000,4.642066162109375,0.36942076683044434,-0.6114761233329773,1.5616769790649414
1748142886037331200,4.660331298828125,0.3010038435459137,0.0403171069920063,0.5691736936569214
1748142886055594500,4.678594482421875,0.11102475970983505,0.6525567770004272,-0.00809396430850029
1748142886073860000,4.696860107421875,0.1595885455608368,0.799011766910553,0.08857546001672745
1748142886092124000,4.7151240234375,0.24846944212913513,0.7290676832199097,0.5158756971359253
1748142886110388000,4.733387939453125,0.25824329257011414,0.7316638231277466,0.8851437568664551
1748142886128655400,4.7516552734375,0.3400992155075073,0.722348153591156,1.101084589958191
1748142886146916900,4.769916748046875,0.46731191873550415,0.2799290120601654,1.092837929725647
1748142886165176600,4.788176513671875,0.5009095072746277,-0.2796235680580139,0.8701775670051575
1748142886183442400,4.8064423828125,0.4570799171924591,-0.35552358627319336,0.7015787363052368
1748142886201710300,4.82471044921875,0.3836233615875244,-0.1085812970995903,0.6785185933113098
1748142886219976000,4.842975830078125,0.3445279896259308,0.3474296033382416,0.8347473740577698
1748142886238239500,4.861239501953125,0.4291328489780426,0.899040937423706,1.0864238739013672
1748142886256505000,4.879505126953125,0.6459900140762329,0.9506590366363525,0.9373727440834045
1748142886274768600,4.8977685546875,0.8049677014350891,0.39614611864089966,0.2945897579193115
1748142886293034200,4.9160341796875,0.7139487266540527,0.07147123664617538,-0.2301434874534607
1748142886311297300,4.93429736328125,0.49128836393356323,0.058337632566690445,-0.15302173793315887
1748142886329563000,4.95256298828125,0.3856086730957031,-0.20876319706439972,-0.014966198243200779
1748142886347826400,4.970826416015625,0.2646573781967163,-0.6670648455619812,-0.08964447677135468
1748142886366090500,4.989090576171875,0.1586722433567047,-1.0323622226715088,-0.4309654235839844
1748142886384356900,5.00735693359375,0.012980886735022068,-1.807397484779358,-1.152855396270752
1748142886402620000,5.025619873046875,-0.33857205510139465,-2.7459919452667236,-1.9271271228790283
1748142886420884700,5.043884765625,-0.5861251950263977,-3.056769609451294,-2.6537513732910156
1748142886439151000,5.062151123046875,-0.7909177541732788,-2.5253169536590576,-3.380070209503174
1748142886457413400,5.080413330078125,-1.0062477588653564,-1.3322970867156982,-4.248720645904541
1748142886475679000,5.098678955078125,-0.9372199773788452,0.5813909769058228,-4.997335910797119
1748142886493942500,5.116942626953125,-0.6666067242622375,2.6626088619232178,-5.26993465423584
1748142886512204000,5.1352041015625,-0.30115658044815063,3.3574681282043457,-4.71969747543335
1748142886530471400,5.153471435546875,0.07849618047475815,2.66642689704895,-3.5443928241729736
1748142886548737000,5.171737060546875,0.25702154636383057,1.5111279487609863,-2.288606643676758
1748142886567000000,5.19,0.10277807712554932,-0.4789183437824249,-0.9193521738052368
1748142886585266000,5.208265869140625,-0.3364340364933014,-2.7004826068878174,0.22647829353809357
1748142886603529200,5.226529296875,-0.5978843569755554,-3.8646390438079834,0.6721044778823853
1748142886621792500,5.24479248046875,-0.936609148979187,-2.6345090866088867,0.2444988191127777
1748142886640061000,5.26306103515625,-1.4275920391082764,-0.8596401214599609,-0.27947086095809937
1748142886658323700,5.28132373046875,-1.5326608419418335,-0.4248567819595337,-0.0981965884566307
1748142886676588000,5.299588134765625,-1.1035280227661133,-1.107956886291504,0.3602577745914459
1748142886694847000,5.317846923828125,-0.6255260109901428,-1.1554516553878784,0.44516804814338684
1748142886713115100,5.336115234375,-0.38087448477745056,-0.6597344875335693,0.3715587854385376
1748142886731382800,5.3543828125,-0.26771169900894165,-0.21960605680942535,0.5517640113830566
1748142886749644300,5.372644287109375,-0.29016098380088806,0.32360586524009705,1.2510520219802856
1748142886767912000,5.390911865234375,-0.3039054572582245,0.9564622640609741,2.076789140701294
1748142886786169600,5.409169677734375,-0.0835358202457428,1.2466232776641846,2.665663242340088
1748142886804439800,5.427439697265625,0.44318273663520813,1.323439598083496,3.08166241645813
1748142886822703000,5.445703125,1.2318097352981567,1.5303701162338257,3.4231362342834473
1748142886840967400,5.463967529296875,2.0007364749908447,2.197282314300537,3.369685411453247
1748142886859231700,5.482231689453125,2.185370445251465,2.34786057472229,2.252565622329712
1748142886877485600,5.500485595703125,0.5025894045829773,-0.622624397277832,-0.865290641784668
1748142886895761000,5.518760986328125,-0.551916778087616,0.6276640295982361,-1.455997347831726
1748142886914026200,5.537026123046875,-0.20372356474399567,3.2921054363250732,-1.1572842597961426
1748142886932290000,5.5552900390625,-0.47219884395599365,3.576157808303833,-1.0705413818359375
1748142886950550500,5.573550537109375,-0.5821545720100403,0.90728759765625,-0.5432119369506836
1748142886968822300,5.591822265625,-0.045204028487205505,-2.102445363998413,0.29046642780303955
1748142886987085600,5.61008544921875,-0.22647829353809357,-2.415361166000366,0.6690501570701599
1748142887005350700,5.6283505859375,-0.7018841505050659,-1.1719449758529663,1.2580770254135132
1748142887023612200,5.646612060546875,-0.5768095254898071,0.03527746722102165,1.0919215679168701
1748142887041878300,5.664878173828125,-0.19654589891433716,0.570242702960968,0.7698429226875305
1748142887060142800,5.683142822265625,0.2015855312347412,0.6676757335662842,0.669966459274292
1748142887078406100,5.70140625,0.24495697021484375,0.5299255847930908,0.6311765313148499
1748142887096671500,5.71967138671875,-0.15256360173225403,0.13698652386665344,0.5855143666267395
1748142887114934800,5.737934814453125,-0.3897320330142975,-0.8384125232696533,0.8573493957519531
1748142887133195800,5.75619580078125,0.07360926270484924,-1.1617130041122437,1.5092953443527222
1748142887151464000,5.7744638671875,0.41661009192466736,-0.20693060755729675,1.3744467496871948
1748142887169729300,5.792729248046875,0.4268420934677124,0.4352414906024933,0.8617781400680542
1748142887187992800,5.810992919921875,0.45295658707618713,0.6052147150039673,0.45631635189056396
1748142887206254000,5.829254150390625,0.5395467281341553,0.5181664228439331,0.3790418803691864
1748142887224520700,5.847520751953125,0.5378668308258057,0.5635231733322144,0.6252205967903137
1748142887242788900,5.865788818359375,0.6973026990890503,0.9277516007423401,1.1879801750183105
1748142887261051100,5.884051025390625,0.7941248416900635,1.0444267988204956,1.7327193021774292
1748142887279316700,5.902316650390625,0.6820310354232788,0.36422839760780334,1.8066339492797852
1748142887297580300,5.920580322265625,0.6044511795043945,-0.646906316280365,1.449125051498413
1748142887315845400,5.938845458984375,0.508087158203125,-0.9795224070549011,1.2476922273635864
1748142887334109000,5.95710888671875,0.4179845452308655,-0.5468770861625671,1.2759448289871216
1748142887352374500,5.97537451171875,0.4389066696166992,0.09422596544027328,1.1966849565505981
1748142887370636800,5.99363671875,0.5187773108482361,0.6548475623130798,1.0047205686569214
1748142887388904400,6.011904541015625,0.6548475623130798,0.636521577835083,0.3066543638706207
1748142887407162600,6.03016259765625,0.7420485615730286,0.5681046843528748,-0.4502076804637909
1748142887425427700,6.048427734375,0.6548475623130798,0.570242702960968,-0.5192354321479797
1748142887443695900,6.06669580078125,0.33139440417289734,0.022907447069883347,-0.32681289315223694
1748142887461961500,6.08496142578125,0.30772337317466736,-0.48258355259895325,-0.14156801998615265
1748142887480224300,6.103224365234375,0.33337971568107605,-0.24465152621269226,0.026419922709465027
1748142887498491600,6.12149169921875,0.32100969552993774,-0.2073887437582016,-0.5294674634933472
1748142887516754000,6.13975390625,-0.04245513305068016,-1.2873984575271606,-1.7707456350326538
1748142887535019500,6.15801953125,-0.6194173693656921,-1.923767328262329,-2.362215995788574
1748142887553278200,6.1762783203125,-0.9757044911384583,-2.0624337196350098,-2.5980098247528076
1748142887571548200,6.194548095703125,-1.158505916595459,-2.065946340560913,-2.9654452800750732
1748142887589811700,6.212811767578125,-1.155604362487793,-1.9593502283096313,-3.587306261062622
1748142887608077600,6.23107763671875,-1.0517572164535522,-1.1239920854568481,-4.249484062194824
1748142887626340900,6.2493408203125,-0.9004153609275818,0.6540839672088623,-4.745201110839844
1748142887644605400,6.26760546875,-0.66584312915802,1.8052594661712646,-4.531398296356201
1748142887662870800,6.285870849609375,-0.32131510972976685,1.6632333993911743,-3.5995235443115234
1748142887681135600,6.304135498046875,-0.0328340083360672,1.1162035465240479,-2.5387558937072754
1748142887699398100,6.322398193359375,0.0809396430850029,-0.06414084881544113,-1.5789339542388916
1748142887717665300,6.340665283203125,-0.04841107130050659,-1.8115209341049194,-0.6168211698532104
1748142887735926800,6.3589267578125,-0.04932736977934837,-3.1256446838378906,0.017562376335263252
1748142887754190600,6.377190673828125,-0.12736541032791138,-3.0798299312591553,0.05360342562198639
1748142887772457000,6.39545703125,-0.7360926270484924,-1.289536476135254,-0.5381723046302795
1748142887790722300,6.413722412109375,-1.1632401943206787,-0.1823432743549347,-0.6881396770477295
1748142887808985900,6.43198583984375,-1.0363328456878662,-0.6304129362106323,-0.0734565481543541
1748142887827251500,6.45025146484375,-0.6702718734741211,-1.1850786209106445,0.49953505396842957
1748142887845529600,6.468529541015625,-0.43127086758613586,-0.9773843884468079,0.6151412725448608
1748142887863762400,6.486762451171875,-0.3727805018424988,-0.470671683549881,0.6136141419410706
1748142887882046700,6.505046630859375,-0.37140607833862305,0.22113321721553802,0.979827880859375
1748142887900309500,6.5233095703125,-0.3718642294406891,1.059393048286438,1.680490255355835
1748142887918572500,6.541572509765625,-0.20830504596233368,1.7009543180465698,2.392759084701538
1748142887936838700,6.559838623046875,0.31413745880126953,2.1985039710998535,2.8018860816955566
1748142887955088000,6.578087890625,1.0291552543640137,2.531730890274048,2.833498477935791
1748142887973367600,6.596367431640625,1.5285375118255615,2.7267496585845947,2.5636487007141113
1748142887991629600,6.614629638671875,1.3768903017044067,2.9862146377563477,2.194533348083496
1748142888009897700,6.632897705078125,0.2324342280626297,-0.07254024595022202,0.4205807149410248
1748142888028164600,6.65116455078125,-0.4862487316131592,-1.666593074798584,-1.0677924156188965
1748142888046425600,6.669425537109375,-0.4938845634460449,0.41691553592681885,-0.6482807397842407
1748142888064677000,6.687677001953125,-0.770301103591919,1.8597792387008667,0.0039706239476799965
1748142888082953200,6.705953125,-0.6484334468841553,1.9408715963363647,0.5054910182952881
1748142888101227000,6.72422705078125,0.0074830991216003895,-0.5016731023788452,0.893390417098999
1748142888119483400,6.7424833984375,0.021380282938480377,-1.8837556838989258,0.8118399381637573
1748142888137747000,6.760746826171875,-0.4616613984107971,-1.7402023077011108,0.8532260060310364
1748142888156012500,6.779012451171875,-0.7793113589286804,0.03084869496524334,2.1897990703582764
1748142888174275600,6.797275634765625,-0.08536841720342636,-0.2220495194196701,1.5274685621261597
1748142888192541700,6.815541748046875,0.5635231733322144,-1.2568552494049072,0.4360050559043884
1748142888210803500,6.833803466796875,0.755793035030365,-1.3271046876907349,-0.11514809727668762
1748142888229071600,6.852071533203125,0.4242459237575531,-1.117730736732483,-0.17638733983039856
1748142888247334100,6.870334228515625,-0.2997821271419525,-0.7449501752853394,0.2015855312347412
1748142888265598200,6.88859814453125,-0.5963571667671204,0.351400226354599,1.0603092908859253
1748142888283863800,6.90686376953125,-0.3738495409488678,1.638493299484253,1.2695306539535522
1748142888302128400,6.92512841796875,-0.09315694868564606,2.0189096927642822,1.1355985403060913
1748142888320387000,6.943386962890625,0.06062837690114975,1.1201741695404053,0.6846272349357605
1748142888338656300,6.96165625,0.26022860407829285,0.28680121898651123,0.16294831037521362
1748142888356922000,6.979922119140625,0.36911532282829285,0.4703662395477295,0.23839016258716583
1748142888375182000,6.99818212890625,0.4951062798500061,1.069472312927246,0.6884451508522034
1748142888393450000,7.016449951171875,0.5099197626113892,1.2403619289398193,0.9231700897216797
1748142888411715600,7.034715576171875,0.5470298528671265,1.0123564004898071,1.0497719049453735
1748142888429979100,7.052979248046875,0.6575964093208313,0.6905831694602966,1.2545645236968994
1748142888448244700,7.07124462890625,0.7095199823379517,0.23335053026676178,1.3516920804977417
1748142888466507800,7.0895078125,0.7185302376747131,-0.18539759516716003,1.447597861289978
1748142888484774000,7.10777392578125,0.7087563872337341,-0.256868839263916,1.635897159576416
1748142888503038500,7.12603857421875,0.8445212244987488,-0.07513642311096191,1.570534586906433
1748142888521301000,7.144301025390625,0.8382598161697388,-0.034666601568460464,0.9135489463806152
1748142888539566000,7.162566162109375,0.5816964507102966,0.17699819803237915,0.2942843437194824
1748142888557831700,7.180831787109375,0.2119702398777008,0.28130343556404114,0.07162395119667053
1748142888576090400,7.19909033203125,-0.02382374368607998,-0.06994406878948212,-0.09605856239795685
1748142888594357800,7.217357666015625,-0.12278391420841217,-0.29504790902137756,0.0025961773935705423
1748142888612626000,7.2356259765625,-0.2047925740480423,-0.17150041460990906,0.11514809727668762
1748142888630890200,7.25389013671875,0.12339477986097336,0.1670716404914856,-0.304210901260376
1748142888649154600,7.272154541015625,0.560468852519989,-0.05971207842230797,-1.3533719778060913
1748142888667418600,7.290418701171875,0.3116939961910248,-0.6546948552131653,-2.0899226665496826
1748142888685682200,7.30868212890625,-0.22876903414726257,-0.9418014883995056,-2.330909013748169
1748142888703948800,7.32694873046875,-0.7547240257263184,-0.8500189781188965,-2.6393959522247314
1748142888722205700,7.345205810546875,-1.140179991722107,-1.0630582571029663,-2.9666671752929688
1748142888740474400,7.363474365234375,-1.3991868495941162,-1.625817894935608,-3.4219143390655518
1748142888758742500,7.381742431640625,-1.370781660079956,-1.550681471824646,-3.9098429679870605
1748142888777003000,7.4000029296875,-1.155604362487793,-0.06551529467105865,-4.390441417694092
1748142888795271700,7.418271728515625,-0.82207190990448,1.8628336191177368,-4.679686069488525
1748142888813534700,7.43653466796875,-0.4726569950580597,2.1313087940216064,-3.9009854793548584
1748142888831798000,7.454798095703125,-0.3804163336753845,1.2250902652740479,-2.495689868927002
1748142888850062600,7.4730625,-0.13179416954517365,0.49327367544174194,-1.5416711568832397
1748142888868328200,7.491328125,-0.09666942805051804,-0.8080220222473145,-0.6782131195068359
1748142888886593800,7.50959375,-0.3032945990562439,-2.462092399597168,0.09483683109283447
1748142888904855300,7.527855224609375,-0.40393465757369995,-3.112511157989502,0.2171625941991806
1748142888923122000,7.546121826171875,-0.684474527835846,-1.958433985710144,-0.5674937963485718
1748142888941385200,7.56438525390625,-1.13758385181427,-0.593302845954895,-0.8434522151947021
1748142888959649800,7.58264990234375,-1.3675745725631714,-0.4057672321796417,-0.2854267954826355
1748142888977915100,7.6009150390625,-1.0268645286560059,-0.7341073155403137,0.10384709388017654
1748142888996165400,7.619165283203125,-0.6583600044250488,-0.9633345007896423,0.2617557644844055
1748142889014443300,7.637443359375,-0.26542094349861145,-0.7898487448692322,0.5458080768585205
1748142889032695800,7.65569580078125,0.06459899991750717,-0.10537425428628922,1.0477865934371948
1748142889050971100,7.67397119140625,0.24908030033111572,0.6922630667686462,1.5574009418487549
1748142889069238300,7.69223828125,0.46853363513946533,1.203251838684082,1.856266736984253
1748142889087496200,7.71049609375,0.7883216142654419,1.3487904071807861,2.057852268218994
1748142889105765400,7.728765380859375,1.136362075805664,1.208902359008789,2.2912027835845947
1748142889124031500,7.747031494140625,1.4013248682022095,1.1746938228607178,2.6080892086029053
1748142889142295800,7.7652958984375,1.3495540618896484,1.7146987915039062,2.828306198120117
1748142889160559400,7.783559326171875,0.9156870245933533,2.314568519592285,1.7437148094177246
1748142889178824700,7.80182470703125,-0.6327036619186401,0.589179515838623,-0.8947648406028748
1748142889197088300,7.820088134765625,-0.9961684942245483,-0.058184914290905,-0.8524624705314636
1748142889215349800,7.838349853515625,-1.0009026527404785,0.8581129312515259,-0.19776763021945953
1748142889233616400,7.856616455078125,-0.8093964457511902,1.5609134435653687,-0.07681630551815033
1748142889251884000,7.874884033203125,-0.5299255847930908,1.3003793954849243,-0.05665775015950203
1748142889270146300,7.893146240234375,-0.49266281723976135,-0.024587325751781464,0.313373863697052
1748142889288411600,7.91141162109375,-0.5636758804321289,-1.0225883722305298,0.9488264322280884
1748142889306675200,7.92967529296875,-0.7061602473258972,-0.7921395301818848,1.61100435256958
1748142889324941000,7.947941162109375,-0.8816312551498413,-0.3326161205768585,2.8547260761260986
1748142889343199700,7.96619970703125,-0.40882155299186707,0.6229298114776611,1.7750216722488403
1748142889361470000,7.984469970703125,0.503963828086853,0.5842925906181335,0.48716503381729126
1748142889379733500,8.0027333984375,1.2205088138580322,0.09926560521125793,0.13484850525856018
1748142889397999000,8.0209990234375,1.3356568813323975,-0.48456886410713196,0.3723223805427551
1748142889416262400,8.039262451171876,0.5319108963012695,-0.48747047781944275,0.4970915913581848
1748142889434523100,8.057523193359375,-0.40515637397766113,-0.1843285858631134,0.4132503271102905
1748142889452790300,8.075790283203125,-0.5115996599197388,0.2548835277557373,0.4115704596042633
1748142889471057700,8.0940576171875,0.3874412775039673,1.3107640743255615,1.0658071041107178
1748142889489320400,8.112320556640626,0.8038986921310425,2.1849122047424316,1.7273741960525513
1748142889507586300,8.13058642578125,0.603076696395874,1.3561208248138428,1.3997976779937744
1748142889525849300,8.148849365234375,0.5991060733795166,0.09025534242391586,0.38377609848976135
1748142889544115000,8.167114990234374,0.5955936312675476,-0.23777928948402405,-0.21120665967464447
1748142889562378500,8.18537841796875,0.4986187517642975,0.5277875661849976,0.11988230794668198
1748142889580643000,8.20364306640625,0.3880521357059479,1.048092007637024,0.4815145432949066
1748142889598900500,8.221900390625,0.3194825351238251,0.8258898258209229,0.4340197443962097
1748142889617168600,8.240168701171875,0.32268956303596497,0.5258022546768188,0.3223841190338135
1748142889635432200,8.25843212890625,0.2961169183254242,0.5676465034484863,0.4210388660430908
1748142889653702100,8.2767021484375,0.3017674386501312,0.6618725061416626,0.5827654600143433
1748142889671965200,8.294965087890626,0.3926336467266083,0.6829473376274109,0.6925684809684753
1748142889690226400,8.313226318359375,0.5403103232383728,0.640644907951355,0.6452264189720154
1748142889708494300,8.331494384765625,0.6441574096679688,0.5497786998748779,0.41004329919815063
1748142889726760200,8.34976025390625,0.6962336897850037,0.5482515692710876,0.02932153269648552
1748142889745023700,8.368023681640626,0.5719226002693176,0.8350527882575989,-0.3576616048812866
1748142889763289300,8.386289306640625,0.37308594584465027,0.8973610401153564,-0.6893614530563354
1748142889781553000,8.404552978515625,0.2223549485206604,0.3222314119338989,-0.6411030888557434
1748142889799818000,8.42281787109375,0.20693060755729675,-0.06551529467105865,0.05497787147760391
1748142889818081800,8.441081787109376,0.22113321721553802,-0.33047810196876526,0.6049093008041382
1748142889836347400,8.459347412109375,0.22189679741859436,-0.8251262307167053,0.23289237916469574
1748142889854610000,8.47760986328125,-0.4011857509613037,-1.3031282424926758,-0.8104654550552368
1748142889872877000,8.495876953125,-0.750142514705658,-1.2386820316314697,-1.8322902917861938
1748142889891139600,8.5141396484375,-0.9204211831092834,-1.1980594396591187,-2.4104743003845215
1748142889909405200,8.5324052734375,-0.864679753780365,-1.342529058456421,-2.738814353942871
1748142889927668700,8.550668701171874,-0.7574729323387146,-1.5624406337738037,-3.3255503177642822
1748142889964196400,8.5871962890625,-0.5684100985527039,0.01160643994808197,-4.08027458190918
1748142889982464500,8.605464599609375,-0.8071057200431824,0.8494081497192383,-3.503922939300537
1748142890000726500,8.6237265625,-0.5798638463020325,-0.22250767052173615,-2.1739165782928467
1748142890018992400,8.641992431640626,-0.19578230381011963,-1.047023057937622,-1.671938180923462
1748142890037256000,8.660255859375,-0.1033889427781105,-0.7623597979545593,-1.817324161529541
1748142890055529500,8.678529541015624,-0.22327125072479248,-0.4889976382255554,-1.8721492290496826
1748142890073784300,8.696784423828126,-0.28848111629486084,-0.3104722499847412,-1.804495930671692
1748142890092050700,8.71505078125,-0.2574796974658966,-0.22937989234924316,-1.5706872940063477
1748142890110299400,8.73329931640625,-0.2929098904132843,-0.23365595936775208,-1.1087204217910767
1748142890128579600,8.75157958984375,-0.46502116322517395,-0.194713294506073,-0.569631814956665
1748142890146842400,8.76984228515625,-0.6663012504577637,-0.29016098380088806,-0.07727445662021637
1748142890165108200,8.788108154296875,-0.7672467231750488,-0.21609358489513397,0.22388210892677307
1748142890183371800,8.806371826171874,-0.631481945514679,-0.13775011897087097,0.4781547784805298
1748142890201636400,8.82463623046875,-0.24602597951889038,-0.16325373947620392,0.8938485980033875
1748142890219900400,8.842900390625,0.20357084274291992,0.037110064178705215,1.4996742010116577
1748142890238163700,8.861163818359374,0.6742424964904785,0.655458390712738,2.1904101371765137
1748142890256429600,8.8794296875,1.1942415237426758,1.449125051498413,2.7737863063812256
1748142890274696000,8.897696044921876,1.6838500499725342,1.754557728767395,2.8458683490753174
1748142890292958700,8.915958740234375,1.5318973064422607,1.4924964904785156,2.4686591625213623
1748142890311225600,8.9342255859375,0.4066835343837738,-0.9879218339920044,1.3019065856933594
1748142890329488000,8.95248779296875,-0.1595885455608368,-2.9376509189605713,0.1950187236070633
1748142890347753700,8.970753662109376,-0.35582900047302246,0.4596760869026184,-0.4262312352657318
1748142890366017000,8.98901708984375,-0.6476698517799377,2.9266552925109863,-0.6682865619659424
1748142890384283000,9.007282958984375,-0.521984338760376,3.0941851139068604,-1.0335839986801147
1748142890402546200,9.025546142578126,-0.12980885803699493,1.9298759698867798,-1.3196216821670532
1748142890420810500,9.043810546875,0.2431243658065796,-0.08307767659425735,-0.4804455041885376
1748142890439076400,9.062076416015625,0.10354165732860565,-0.6568328738212585,0.4381431043148041
1748142890457336000,9.080336181640625,-0.03451388701796532,-0.7014260292053223,1.0936014652252197
1748142890475603000,9.09860302734375,0.12950342893600464,-0.764345109462738,1.4605787992477417
1748142890493871000,9.11687109375,0.3591887652873993,-0.9760099649429321,1.6676621437072754
1748142890512133400,9.13513330078125,0.37827831506729126,-0.9682214260101318,1.694387435913086
1748142890530399000,9.15339892578125,-0.05146539583802223,-0.5542075037956238,1.4404202699661255
1748142890548662500,9.17166259765625,-0.44089198112487793,-0.0959058403968811,1.020603060722351
1748142890566927600,9.189927734375,-0.6840163469314575,0.5160284042358398,0.5736024379730225
1748142890585186600,9.2081865234375,-0.3836233615875244,1.3309226036071777,0.8611672520637512
1748142890603456800,9.226456787109376,0.3799581825733185,1.8516852855682373,2.3095288276672363
1748142890621720300,9.24472021484375,0.551305890083313,-0.014966198243200779,1.7814357280731201
1748142890639986000,9.26298583984375,0.6973026990890503,-1.36482572555542,0.342695415019989
1748142890658249200,9.281249267578126,0.6189591884613037,-0.7185302376747131,-0.015882495790719986
1748142890676515000,9.29951513671875,0.42409318685531616,0.42439863085746765,0.24938572943210602
1748142890694778400,9.3177783203125,0.30283644795417786,0.6212499737739563,0.39675697684288025
1748142890713043700,9.336043701171874,0.3289509415626526,0.1696678251028061,0.41722095012664795
1748142890731306200,9.35430615234375,0.355981707572937,-0.2889392673969269,0.6099489331245422
1748142890749574400,9.372574462890626,0.3530801236629486,-0.3478877544403076,0.9187413454055786
1748142890767836400,9.39083642578125,0.4075998365879059,-0.2741257846355438,1.030071496963501
1748142890786102300,9.409102294921874,0.4625777006149292,-0.004886921960860491,1.1552989482879639
1748142890804360700,9.427360595703124,0.556345522403717,0.4934264123439789,1.4001030921936035
1748142890822630000,9.4456298828125,0.6588181853294373,0.5357288122177124,1.2631165981292725
1748142890840894500,9.46389453125,0.6884451508522034,0.1290452778339386,0.6189591884613037
1748142890859163400,9.482163330078125,0.6502660512924194,0.16294831037521362,-0.31093040108680725
1748142890877426000,9.500426025390626,0.5535966157913208,0.33887749910354614,-0.7312057018280029
1748142890895689200,9.518689208984375,0.40943244099617004,0.10842858254909515,-0.39813143014907837
1748142890913952800,9.536952880859374,0.19303341209888458,-0.25213462114334106,0.13209961354732513
1748142890932224500,9.555224609375,-0.27748554944992065,-1.0254900455474854,0.02168571576476097
1748142890950482700,9.573482666015625,-0.7903069257736206,-2.490345001220703,-0.8947648406028748
1748142890968742400,9.591742431640625,-1.083064079284668,-2.981022357940674,-1.623068928718567
1748142890987009300,9.61000927734375,-0.8776606321334839,-2.760347366333008,-2.269975185394287
1748142891005277200,9.628277099609376,-0.40973785519599915,-2.0306687355041504,-3.1891746520996094
1748142891023540000,9.6465400390625,-0.33169981837272644,-0.9717338681221008,-4.188397407531738
1748142891041805300,9.664805419921874,-0.5432119369506836,0.25106561183929443,-4.576449871063232
1748142891060071200,9.6830712890625,-0.6563746929168701,0.993725061416626,-4.16549015045166
1748142891078337300,9.701337158203126,-0.36911532282829285,1.0879509449005127,-3.38938570022583
1748142891096597000,9.719596923828124,-0.06841690838336945,1.2113457918167114,-2.7487409114837646
1748142891114864000,9.737864013671874,0.03191770985722542,1.0459539890289307,-2.1757493019104004
1748142891133127000,9.756126953125,-0.04917465150356293,0.21441370248794556,-1.4895949363708496
1748142891151396900,9.77439697265625,-0.04764748737215996,-0.7371616363525391,-0.7180721163749695
1748142891169656000,9.792656005859374,-0.007635815534740686,-1.493260145187378,0.021380282938480377
1748142891187910400,9.810910400390625,-0.2848159074783325,-1.1980594396591187,0.327271044254303
1748142891206180000,9.82918017578125,-0.8060367107391357,-0.1540907621383667,-0.14782938361167908
1748142891224450300,9.8474501953125,-1.134834885597229,-0.21563543379306793,-0.46960264444351196
1748142891242713900,9.8657138671875,-1.083064079284668,-1.0184650421142578,-0.24953845143318176
1748142891260977700,9.883977783203125,-0.7971791625022888,-1.381624460220337,-0.043676864355802536
1748142891279244000,9.902244140625,-0.4703662395477295,-0.9169087409973145,0.15134187042713165
1748142891297508400,9.92050830078125,-0.23396138846874237,-0.13271047174930573,0.7447974681854248
1748142891315767000,9.93876708984375,-0.062460970133543015,0.7675521969795227,1.4477506875991821
1748142891334036000,9.957035888671875,0.1895209401845932,1.3266465663909912,1.9184223413467407
1748142891352302300,9.97530224609375,0.5038111209869385,1.47371244430542,2.1878137588500977
1748142891370566100,9.993566162109374,0.8732318878173828,1.5024230480194092,2.2766947746276855
1748142891388830000,10.011829833984375,1.252121090888977,1.5830572843551636,2.3189971446990967
1748142891407095300,10.03009521484375,1.4130840301513672,1.9837849140167236,2.5089762210845947
1748142891425354800,10.048354736328125,0.9915869832038879,2.484541654586792,2.7181975841522217
1748142891443623200,10.066623046875,0.013286318629980087,-1.1687378883361816,0.7961101531982422
1748142891461889000,10.084888916015625,-0.5361869931221008,-1.7104226350784302,-0.9818131923675537
1748142891480156000,10.103156005859375,-0.8904888033866882,2.2230913639068604,-1.3539828062057495
1748142891498417400,10.12141748046875,-0.749531626701355,4.128379821777344,-1.3223705291748047
1748142891516682500,10.1396826171875,-0.4657847583293915,1.1545352935791016,-0.3828597962856293
1748142891534946300,10.1579462890625,0.2217440903186798,-1.8193094730377197,0.5502368807792664
1748142891553207600,10.17620751953125,0.15317445993423462,-2.227367401123047,0.8003861904144287
1748142891571470000,10.194469970703125,-0.1892155110836029,-1.6557502746582031,0.8741481900215149
1748142891589739500,10.212739501953125,-0.19547687470912933,-1.1557570695877075,1.023352026939392
1748142891608005000,10.231005126953125,-0.1365283876657486,-0.8187121152877808,1.2574660778045654
1748142891626270000,10.24927001953125,-0.10064005106687546,-0.38438695669174194,1.4321736097335815
1748142891644533200,10.267533203125,-0.07467827945947647,0.17531833052635193,1.5288430452346802
1748142891662798800,10.285798828125,-0.13408492505550385,0.5511531829833984,1.7750216722488403
1748142891681062100,10.304062255859375,0.05650503560900688,0.49816060066223145,2.143984317779541
1748142891699327700,10.32232763671875,0.2997821271419525,-0.3139847218990326,1.856266736984253
1748142891717592300,10.34059228515625,0.2971859276294708,-0.7661777138710022,0.8393288254737854
1748142891735856000,10.358856201171875,0.24892759323120117,-0.026572637259960175,0.18112154304981232
1748142891754120400,10.377120361328124,0.22602014243602753,0.7228062748908997,0.14126259088516235
1748142891772385800,10.3953857421875,0.28817567229270935,0.8458956480026245,0.29077184200286865
1748142891790648300,10.4136484375,0.33567044138908386,0.6827946305274963,0.5204572081565857
1748142891808916000,10.431916015625,0.38347065448760986,0.6272059082984924,0.8177958726882935
1748142891827174000,10.450173828125,0.43936482071876526,0.4821254014968872,1.064738154411316
1748142891845438700,10.468438720703125,0.4381431043148041,0.12003502249717712,1.1447614431381226
1748142891863698200,10.4866982421875,0.4265366494655609,-0.24297164380550385,1.1065824031829834
1748142891881973200,10.50497314453125,0.3819434940814972,-0.2952006161212921,1.028544306755066
1748142891900236300,10.523236328125,0.3813326358795166,0.08811730891466141,0.9845620393753052
1748142891918502000,10.541501953125,0.48166725039482117,0.5459607839584351,0.9718865752220154
1748142891936765400,10.559765380859375,0.6284276247024536,0.6931793093681335,0.759916365146637
1748142891955031300,10.57803125,0.722959041595459,0.5097670555114746,0.3286454975605011
1748142891973291500,10.59629150390625,0.7171558141708374,0.47342056035995483,-0.06062837690114975
1748142891991563300,10.614563232421874,0.5129740834236145,0.3404046595096588,-0.3966042697429657
1748142892009820700,10.632820556640626,0.3194825351238251,0.13744467496871948,-0.5450445413589478
1748142892028092400,10.651092529296875,0.25793784856796265,0.02382374368607998,-0.4282165467739105
1748142892046352600,10.6693525390625,0.18509216606616974,-0.2996293902397156,-0.4607451260089874
1748142892064605200,10.687605224609374,-0.05604688450694084,-1.0749701261520386,-0.9963212013244629
1748142892082878000,10.7058779296875,-0.47968193888664246,-1.7223345041275024,-1.761888027191162
1748142892101148000,10.72414794921875,-0.8422304391860962,-1.6461291313171387,-2.38405442237854
1748142892119410700,10.74241064453125,-0.9069821834564209,-1.7049249410629272,-2.9710958003997803
1748142892137676500,10.760676513671875,-0.9990701079368591,-1.4437800645828247,-3.6609153747558594
1748142892155927800,10.778927734375,-0.9697485566139221,-0.5748242139816284,-4.204738140106201
1748142892174201000,10.797201171875,-0.9108000993728638,0.7188356518745422,-4.243680953979492
1748142892192469000,10.815468994140625,-0.7924449443817139,1.3324497938156128,-3.657250165939331
1748142892210734600,10.833734619140625,-0.4963280260562897,0.9613491892814636,-2.6302330493927
1748142892228985600,10.851985595703125,-0.3773620128631592,0.7776314616203308,-1.9390389919281006
1748142892247263500,10.870263427734375,-0.337503045797348,0.2736676335334778,-1.4524848461151123
1748142892265516500,10.8885166015625,-0.24938572943210602,-0.6154467463493347,-1.021824836730957
1748142892283792600,10.906792724609375,-0.1238529309630394,-1.6311628818511963,-0.5714644193649292
1748142892302055700,10.9250556640625,-0.06551529467105865,-2.1707096099853516,-0.28237244486808777
1748142892320321500,10.943321533203125,-0.2710714638233185,-1.8535178899765015,-0.2790127098560333
1748142892338580200,10.961580322265625,-0.6933320760726929,-1.1023063659667969,-0.4427245855331421
1748142892356849400,10.979849365234376,-1.0740537643432617,-0.737772524356842,-0.36193767189979553
1748142892375115000,10.998114990234376,-1.062294602394104,-0.9934195876121521,-0.04260785132646561
1748142892393379600,11.016379638671875,-0.6377432942390442,-1.0068585872650146,0.08414668589830399
1748142892411641900,11.034641845703124,-0.10903944820165634,-0.5942191481590271,0.16951510310173035
1748142892429905000,11.05290478515625,0.24342979490756989,-0.044745877385139465,0.493731826543808
1748142892448167700,11.071167724609374,0.3043636083602905,0.5711590051651001,1.045190453529358
1748142892466437400,11.089437255859375,0.17592918872833252,1.0856602191925049,1.6349807977676392
1748142892484701000,11.107700927734374,0.2687807083129883,1.4827226400375366,2.082134246826172
1748142892502966800,11.125966796875,0.6840163469314575,2.004401683807373,2.5662448406219482
1748142892521230000,11.14422998046875,1.2780828475952148,2.805093288421631,3.2227723598480225
1748142892539496000,11.162495849609375,1.7678439617156982,3.5967745780944824,3.427717685699463
1748142892557759200,11.18075927734375,1.3565789461135864,2.107637882232666,1.8066339492797852
1748142892576024800,11.19902490234375,-0.021380282938480377,-1.990657091140747,-0.9199630618095398
1748142892594287400,11.217287353515625,-0.2399173229932785,1.1065824031829834,-1.1565206050872803
1748142892612553700,11.2355537109375,-0.36880987882614136,4.459163665771484,-1.133307695388794
1748142892630817500,11.253817626953126,-0.585667073726654,3.989560842514038,-1.0551170110702515
1748142892649084200,11.272084228515626,-0.4453207552433014,0.1635591685771942,-0.32589662075042725
1748142892667346400,11.290346435546875,0.12492194026708603,-2.2059872150421143,0.6026185750961304
1748142892685606100,11.308606201171875,-0.027947084978222847,-1.8150333166122437,0.8909469842910767
1748142892703875600,11.32687548828125,-0.23518311977386475,-1.1102476119995117,1.0545061826705933
1748142892722142500,11.345142578125,-0.16783522069454193,-0.9133962392807007,1.2557861804962158
1748142892740404500,11.363404541015624,0.02779436856508255,-0.9045386910438538,1.4676038026809692
1748142892758670000,11.381670166015626,0.12538009881973267,-0.7153232097625732,1.6520850658416748
1748142892776933600,11.39993359375,-0.00427605677396059,-0.30604347586631775,1.7024813890457153
1748142892795194600,11.418194580078126,-0.20082195103168488,0.19043724238872528,1.7079792022705078
1748142892813462800,11.436462890625,-0.13561208546161652,0.4792237877845764,1.5767959356307983
1748142892831728400,11.454728271484376,-0.022449297830462456,0.2376265823841095,0.8556694984436035
1748142892849991400,11.472991455078125,-0.04505131021142006,0.3978259861469269,-0.0988074541091919
1748142892868257300,11.49125732421875,-0.019853120669722557,0.8863654732704163,-0.3920227587223053
1748142892886520800,11.509520751953126,0.09697485715150833,0.8689557909965515,-0.09208793938159943
1748142892904786400,11.527786376953125,0.15134187042713165,0.6905831694602966,0.2422080636024475
1748142892923049700,11.5460498046875,0.2396118938922882,0.6991352438926697,0.5902485251426697
1748142892941310500,11.564310546875,0.4489859640598297,0.8093964457511902,1.0057896375656128
1748142892959579100,11.5825791015625,0.6195700764656067,0.6965391039848328,1.3179417848587036
1748142892977844200,11.60084423828125,0.6730207800865173,0.14248432219028473,1.4077389240264893
1748142892996108000,11.61910791015625,0.6359107494354248,-0.5149593949317932,1.3307698965072632
1748142893014373600,11.63737353515625,0.49296826124191284,-0.6620252132415771,1.408349871635437
1748142893032636200,11.65563623046875,0.4277583956718445,-0.31841349601745605,1.5801557302474976
1748142893050903800,11.67390380859375,0.5064072608947754,0.10873401165008545,1.4285084009170532
1748142893069161500,11.692161376953125,0.6018549799919128,0.15561792254447937,0.5905539989471436
1748142893087428000,11.710427978515625,0.5923865437507629,0.5141957998275757,-0.19135354459285736
1748142893105698800,11.72869873046875,0.5174028873443604,0.8426886200904846,-0.41828998923301697
1748142893123960600,11.746960693359375,0.3654501438140869,0.5878050923347473,-0.34147366881370544
1748142893142225400,11.765225341796874,0.20234911143779755,-0.010690141469240189,-0.23258693516254425
1748142893160489700,11.78348974609375,0.09483683109283447,-0.5091561675071716,-0.2922990322113037
1748142893178753300,11.801753173828125,0.12431107461452484,-0.8310821652412415,-0.7406741380691528
1748142893197014000,11.820013916015625,-0.10384709388017654,-1.2611312866210938,-1.501812219619751
1748142893215281200,11.83828125,-0.4570799171924591,-1.6823228597640991,-2.196976900100708
1748142893233549300,11.85654931640625,-0.608727216720581,-1.7774651050567627,-2.891530752182007
1748142893251811300,11.874811279296875,-0.8617781400680542,-1.3274102210998535,-3.6535849571228027
1748142893270076400,11.893076416015624,-1.200502872467041,-0.3452915847301483,-4.424191474914551
1748142893288340500,11.911340576171876,-1.344056248664856,1.027475357055664,-4.829042434692383
1748142893306592800,11.9295927734375,-1.1239920854568481,2.5778512954711914,-4.67983865737915
1748142893324870400,11.947870361328125,-0.6070473194122314,3.0827314853668213,-3.9292380809783936
1748142893343118300,11.966118408203124,-0.23335053026676178,2.383749008178711,-2.889087200164795
1748142893361398500,11.9843984375,0.008399397134780884,1.2278391122817993,-1.9816468954086304
1748142893379664100,12.0026640625,0.1137736514210701,-0.16600263118743896,-1.3674218654632568
1748142893397927400,12.020927490234374,-0.02382374368607998,-2.051743745803833,-0.7145596146583557
1748142893416188400,12.0391884765625,-0.17867808043956757,-3.7274997234344482,-0.19654589891433716
1748142893434456600,12.05745654296875,-0.3698789179325104,-3.6244161128997803,-0.16279558837413788
1748142893452722200,12.07572216796875,-0.8310821652412415,-1.9060522317886353,-0.561079740524292
1748142893470984000,12.09398388671875,-1.0737483501434326,-0.8659014701843262,-0.6163630485534668
1748142893489252400,12.11225244140625,-1.0267117023468018,-0.8817839622497559,-0.21395555138587952
1748142893507514600,12.1305146484375,-0.8565858006477356,-0.941343367099762,0.13286319375038147
1748142893525780000,12.148780029296875,-0.7263187766075134,-0.5491678714752197,0.2255619913339615
1748142893544043800,12.167043701171876,-0.5491678714752197,-0.058795779943466187,0.41141775250434875
1748142893562309000,12.18530908203125,-0.14416420459747314,0.3666718602180481,0.9379835724830627
1748142893580573000,12.203572998046875,0.2762638032436371,0.831234872341156,1.6139060258865356
1748142893598822000,12.22182177734375,0.5975789427757263,1.3770430088043213,2.275320291519165
1748142893617099000,12.24009912109375,1.1090258359909058,2.076941728591919,2.872593879699707
1748142893635366400,12.258366455078125,1.8264870643615723,2.596024513244629,3.3229541778564453
1748142893653629700,12.276629638671874,2.1962132453918457,2.3745858669281006,3.1083877086639404
1748142893671897000,12.29489697265625,1.4494304656982422,1.0306823253631592,1.9662225246429443
1748142893690164500,12.31316455078125,-0.013439035043120384,-2.3654229640960693,-0.144622340798378
1748142893708420600,12.331420654296876,-0.3903428912162781,-0.484416127204895,-0.7469354867935181
1748142893726687700,12.349687744140626,-0.4804455041885376,2.7058277130126953,-0.9440922141075134
1748142893744956000,12.367955810546874,-0.5734497308731079,3.4466543197631836,-1.145830512046814
1748142893763225900,12.386225830078125,-0.6495024561882019,1.853670597076416,-1.2626584768295288
1748142893781483500,12.4044833984375,-0.21288654208183289,-0.384845107793808,-0.5978843569755554
1748142893799742000,12.422741943359375,0.11392636597156525,-1.0458012819290161,0.25992316007614136
1748142893818012700,12.4410126953125,-0.23426681756973267,-0.4764748811721802,1.0603092908859253
1748142893836276200,12.459276123046875,-0.3703370690345764,0.23625212907791138,1.5415184497833252
1748142893854541800,12.477541748046875,-0.06230825558304787,0.4714352488517761,1.301142930984497
1748142893872805000,12.49580517578125,0.2811507284641266,0.4127921760082245,1.1551461219787598
1748142893891071000,12.514071044921875,0.5157229900360107,0.4433354437351227,1.045495867729187
1748142893909334300,12.532334228515625,0.18417587876319885,0.375529408454895,0.9202684760093689
1748142893927598800,12.550598876953124,-0.3188716471195221,-0.41431936621665955,1.053742527961731
1748142893945864200,12.5688642578125,-0.25595253705978394,-1.0766500234603882,1.4860824346542358
1748142893964125200,12.587125244140625,0.28359419107437134,-0.43386703729629517,1.4249958992004395
1748142893982391300,12.605391357421874,0.49754974246025085,0.33796119689941406,1.0163270235061646
1748142894000658000,12.623657958984374,0.4303545653820038,0.6032294034957886,0.46105054020881653
1748142894018922800,12.6419228515625,0.4303545653820038,0.7812966704368591,0.11743884533643723
1748142894037182500,12.660182373046876,0.475253164768219,0.9353874325752258,0.11743884533643723
1748142894055446300,12.6784462890625,0.5345070958137512,0.8578075170516968,0.3000875413417816
1748142894073715000,12.69671484375,0.5966626405715942,0.622013509273529,0.5187773108482361
1748142894091980800,12.714980712890625,0.6620252132415771,0.370947927236557,0.7646505832672119
1748142894110245000,12.7332451171875,0.6852380633354187,0.15424346923828125,1.0028879642486572
1748142894128505600,12.751505615234375,0.6270532011985779,-0.11575896292924881,1.0990992784500122
1748142894146777000,12.769777099609374,0.619111955165863,-0.17119498550891876,1.1879801750183105
1748142894165037600,12.78803759765625,0.6382014751434326,-0.02733621932566166,1.2754865884780884
1748142894183303400,12.806303466796875,0.759916365146637,0.11759155988693237,1.1884382963180542
1748142894201566500,12.82456640625,0.8344419002532959,0.20036379992961884,0.851393461227417
1748142894219832300,12.842832275390625,0.8046622276306152,0.3257438838481903,0.18585574626922607
1748142894238094800,12.8610947265625,0.5514585971832275,0.5940664410591125,-0.3404046595096588
1748142894256362500,12.879362548828125,0.3219259977340698,0.6059783101081848,-0.4908302128314972
1748142894274613500,12.897613525390625,0.10522153973579407,-0.0024434609804302454,-0.36911532282829285
1748142894292893400,12.9158935546875,-0.0403171069920063,-0.8408560156822205,-0.2353358417749405
1748142894311149300,12.9341494140625,-0.33337971568107605,-1.6157386302947998,-0.3234531581401825
1748142894329419800,12.952419677734374,-0.8080220222473145,-2.0589213371276855,-1.0491610765457153
1748142894347682800,12.970682861328125,-1.1223121881484985,-2.1946861743927,-1.911091923713684
1748142894365948400,12.988948486328125,-1.0870347023010254,-2.1334469318389893,-2.6251933574676514
1748142894384199700,13.00719970703125,-0.8793405294418335,-1.439351201057434,-3.3979380130767822
1748142894402477600,13.0254775390625,-0.8546004891395569,-0.355981707572937,-4.099669456481934
1748142894420729900,13.043729736328125,-1.0908526182174683,0.6893614530563354,-4.1998515129089355
1748142894439006500,13.06200634765625,-1.1478158235549927,1.3293955326080322,-3.609450101852417
1748142894457269800,13.080269775390626,-0.6908885836601257,1.2270755767822266,-2.765997886657715
1748142894475537700,13.09853759765625,-0.21914790570735931,1.0317513942718506,-2.1812469959259033
1748142894493799000,13.116798828125,0.00809396430850029,0.5705481171607971,-1.777923345565796
1748142894512064800,13.135064697265625,-0.04612032696604729,-0.4378376603126526,-1.2289081811904907
1748142894530327800,13.153327880859376,-0.12217304855585098,-1.7093536853790283,-0.5878050923347473
1748142894548595200,13.17159521484375,-0.1921171247959137,-2.6343562602996826,-0.1411098688840866
1748142894566851000,13.18985107421875,-0.44654250144958496,-2.162921190261841,-0.16737708449363708
1748142894585122000,13.2081220703125,-0.9506590366363525,-0.6435465216636658,-0.7145596146583557
1748142894603387100,13.22638720703125,-1.3408491611480713,-0.06444628536701202,-0.7834346890449524
1748142894621651200,13.244651123046875,-1.3449726104736328,-0.5682573914527893,-0.19089539349079132
1748142894639916300,13.262916259765625,-1.0062477588653564,-0.9279043078422546,0.21624629199504852
1748142894658176300,13.28117626953125,-0.5658139586448669,-0.940121591091156,0.4207334518432617
1748142894676444400,13.2994443359375,-0.1411098688840866,-0.8575021028518677,0.7353290319442749
1748142894694710300,13.317710205078125,0.18188512325286865,-0.5728389024734497,1.0731375217437744
1748142894712973600,13.3359736328125,0.43218716979026794,-0.21135938167572021,1.3628404140472412
1748142894731239400,13.354239501953124,0.7276932001113892,0.1586722433567047,1.6310101747512817
1748142894749502700,13.372502685546875,0.9497427344322205,0.5917757153511047,2.0283780097961426
1748142894767768300,13.390768310546875,1.1009318828582764,1.3710870742797852,2.5326473712921143
1748142894786031900,13.409031982421874,1.354135513305664,2.16628098487854,2.6360361576080322
1748142894804297500,13.42729736328125,1.0673342943191528,2.1739165782928467,1.894140362739563
1748142894822556000,13.445555908203126,-0.04596760869026184,1.0603092908859253,0.6299547553062439
1748142894840825300,13.463825439453124,-0.6304129362106323,0.3400992155075073,-0.1618792861700058
1748142894859088600,13.482088623046875,-0.5426010489463806,0.35552358627319336,-0.30573806166648865
1748142894877357800,13.50035791015625,-0.5699372887611389,1.348179578781128,-0.408974289894104
1748142894895617800,13.51861767578125,-0.30283644795417786,2.1348214149475098,-0.7211264371871948
1748142894913885400,13.536885498046875,0.03878994286060333,1.8396207094192505,-0.9193521738052368
1748142894932148500,13.5551484375,0.021380282938480377,0.897513747215271,-0.35246923565864563
1748142894950413600,13.57341357421875,0.04230241850018501,0.7953465580940247,0.24113905429840088
1748142894968677000,13.591677001953125,0.2402227520942688,0.8465065360069275,0.6757696866989136
1748142894986942700,13.609942626953124,0.3897320330142975,0.7422012686729431,0.7768678665161133
1748142895005202000,13.628201904296875,0.3908010423183441,0.44165557622909546,0.6954700946807861
1748142895023471900,13.646471923828125,0.3039054572582245,-0.12186761945486069,0.5337435007095337
1748142895041735200,13.664735107421874,0.12690725922584534,-0.8097018599510193,0.4763221740722656
1748142895060000800,13.683000732421876,-0.04108068719506264,-1.2721269130706787,0.5775730609893799
1748142895078259500,13.701259521484374,0.2837468981742859,-0.9379835724830627,1.1232284307479858
1748142895096529000,13.71952880859375,0.6640105247497559,0.5601634383201599,2.1285598278045654
1748142895114794500,13.73779443359375,0.5364924073219299,1.6273449659347534,2.4080307483673096
1748142895133058800,13.756058837890626,0.44776421785354614,0.7767151594161987,1.7363845109939575
1748142895151322400,13.774322265625,0.37262779474258423,-0.6241515874862671,0.4873177409172058
1748142895169583400,13.792583251953126,0.2736676335334778,-0.06322455406188965,0.09957103431224823
1748142895187851000,13.81085107421875,0.2220495194196701,1.1339186429977417,0.24556782841682434
1748142895206116900,13.829116943359375,0.2945897579193115,0.9544769525527954,0.2742784917354584
1748142895224380400,13.84738037109375,0.46043968200683594,0.24068090319633484,0.4127921760082245
1748142895242642700,13.865642578125,0.5777258276939392,-0.10125091671943665,0.7225008606910706
1748142895260912400,13.883912353515624,0.6285803318023682,-0.27611109614372253,0.9807441234588623
1748142895279171000,13.902171142578124,0.6681338548660278,-0.4538728892803192,1.105513334274292
1748142895297438700,13.920438720703125,0.6633996367454529,-0.5189300179481506,1.2814425230026245
1748142895315704000,13.9387041015625,0.8048149347305298,-0.3397938013076782,1.2524265050888062
1748142895333967600,13.956967529296875,0.9008735418319702,-0.22281309962272644,0.9091202020645142
1748142895352232200,13.975232177734375,0.8158105611801147,-0.260992169380188,0.5204572081565857
1748142895370497500,13.99349755859375,0.5919284224510193,-0.2594650089740753,0.34208452701568604
1748142895388762400,14.011762451171874,0.27718010544776917,-0.2629774808883667,0.060933809727430344
1748142895407026000,14.03002587890625,0.11239920556545258,-0.12461651116609573,-0.0354301854968071
1748142895425286700,14.04828662109375,-0.004886921960860491,-0.1082758679986,0.12079860270023346
1748142895443555000,14.06655517578125,0.06490442901849747,-0.5571091175079346,-0.04184427112340927
1748142895461808000,14.08480810546875,0.16752979159355164,-1.1131491661071777,-0.7820602059364319
1748142895480083700,14.103083740234375,-0.15913039445877075,-1.2980886697769165,-1.7272214889526367
1748142895498331100,14.1213310546875,-0.6704245805740356,-1.2403619289398193,-2.2070560455322266
1748142895516611600,14.139611572265625,-1.0276280641555786,-1.267392635345459,-2.428952932357788
1748142895534879700,14.157879638671876,-1.094059705734253,-1.511891484260559,-2.817157745361328
1748142895553142500,14.176142578125,-1.1133018732070923,-1.3422236442565918,-3.377932071685791
1748142895571407600,14.19440771484375,-1.0764973163604736,-0.4331034719944,-3.759875535964966
1748142895589671200,14.212671142578126,-0.9608910083770752,0.740368664264679,-3.7972910404205322
1748142895607935200,14.230935302734375,-0.8341364860534668,1.316567301750183,-3.41443133354187
1748142895626197000,14.249197021484376,-0.551305890083313,1.0340421199798584,-2.6781859397888184
1748142895644465700,14.267465576171874,-0.3741549551486969,0.4899139404296875,-1.9564486742019653
1748142895662729500,14.2857294921875,-0.3019201457500458,-0.164170041680336,-1.3828462362289429
1748142895680989000,14.303989013671876,-0.44486260414123535,-1.104138970375061,-0.8119926452636719
1748142895699259100,14.322259033203125,-0.5693264007568359,-2.2705860137939453,-0.2243402600288391
1748142895717523700,14.340523681640626,-0.5908594131469727,-3.160005807876587,0.24236078560352325
1748142895735787500,14.35878759765625,-0.7188356518745422,-2.576629638671875,0.16065755486488342
1748142895754053000,14.37705322265625,-0.9807441234588623,-1.1001683473587036,-0.3882048726081848
1748142895772316200,14.395316162109374,-1.1888965368270874,-0.28038713335990906,-0.6010913848876953
1748142895790582300,14.413582275390626,-1.2805262804031372,-0.6073527932167053,-0.10583240538835526
1748142895808845300,14.43184521484375,-1.089020013809204,-0.8445212244987488,0.3335324227809906
1748142895827111200,14.450111083984375,-0.7252497673034668,-0.5578727126121521,0.5820018649101257
1748142895845370600,14.46837060546875,-0.3605632185935974,-0.1394299864768982,1.027169942855835
1748142895863626800,14.486626708984375,-0.07498370856046677,0.32528573274612427,1.4844025373458862
1748142895881905000,14.50490478515625,0.22128593921661377,0.845132052898407,1.9827158451080322
1748142895900164600,14.52316455078125,0.6827946305274963,1.5740469694137573,2.38741397857666
1748142895918432800,14.541432861328126,1.3571898937225342,2.267226457595825,2.4549148082733154
1748142895936693800,14.55969384765625,1.6545284986495972,2.4518604278564453,2.196671485900879
1748142895954960600,14.577960693359374,1.4456125497817993,2.0870211124420166,1.958128571510315
1748142895973228800,14.596228759765625,0.8758280277252197,-0.5149593949317932,1.2000447511672974
1748142895991490800,14.61449072265625,0.38606682419776917,-1.6528486013412476,0.20784689486026764
1748142896009756700,14.632756591796875,-0.19288070499897003,0.18936823308467865,-0.630871057510376
1748142896028019700,14.651019775390624,-0.570242702960968,2.1678080558776855,-1.1154398918151855
1748142896046285600,14.66928564453125,-0.6130032539367676,3.5721871852874756,-1.1511754989624023
1748142896064541400,14.68754150390625,-0.6209444999694824,2.370004415512085,-0.6130032539367676
1748142896082814700,14.705814697265625,-0.22327125072479248,0.4944954216480255,0.2863430976867676
1748142896101078000,14.724078125,-0.1437060534954071,-0.013286318629980087,0.6991352438926697
1748142896119343900,14.74234375,-0.3318525552749634,-0.2545780837535858,0.9618073105812073
1748142896137606000,14.76060595703125,-0.18875735998153687,-0.45494189858436584,1.1636983156204224
1748142896155874000,14.7788740234375,0.1872301995754242,-0.5096143484115601,1.2712105512619019
1748142896174136300,14.79713623046875,0.5810855627059937,-0.26404649019241333,1.2820534706115723
1748142896192397300,14.815397216796875,0.5416847467422485,0.164170041680336,1.1191051006317139
1748142896210664000,14.833663818359375,0.04612032696604729,0.27779096364974976,0.865290641784668
1748142896228932000,14.85193212890625,-0.3533855378627777,0.1742493063211441,0.7916813492774963
1748142896247189800,14.870189697265625,-0.13759739696979523,0.41630467772483826,1.1801916360855103
1748142896265455900,14.888455810546875,0.4178318381309509,1.0364855527877808,1.4694362878799438
1748142896283720400,14.906720458984376,0.603687584400177,1.144303321838379,1.462716817855835
1748142896301992400,14.924992431640625,0.5369505286216736,0.34804046154022217,0.9137017130851746
1748142896320251600,14.943251708984375,0.6212499737739563,-0.12629638612270355,0.3646865487098694
1748142896338518800,14.961518798828125,0.698677122592926,0.3911064863204956,0.3543018400669098
1748142896356781300,14.97978125,0.5874996781349182,0.6911939978599548,0.34666603803634644
1748142896375047400,14.99804736328125,0.5812382698059082,0.4960225820541382,0.3219259977340698
1748142896393310500,15.016310546875,0.6630942225456238,0.36850446462631226,0.5065600275993347
1748142896411576300,15.034576416015625,0.6392704844474792,0.19807305932044983,0.7150177955627441
1748142896429839400,15.05283935546875,0.6020076870918274,-0.01725694350898266,0.846659243106842
1748142896448100400,15.071100341796875,0.5378668308258057,0.04841107130050659,1.0305296182632446
1748142896466367200,15.0893671875,0.49586987495422363,0.5044219493865967,1.272737741470337
1748142896484634600,15.107634521484375,0.5377141237258911,0.717613935470581,1.3461942672729492
1748142896502898700,15.125898681640624,0.6823364496231079,0.18616119027137756,0.6461427211761475
1748142896521162200,15.144162353515625,0.751669704914093,0.35414913296699524,-0.3124575614929199
1748142896539415800,15.162415771484374,0.5603161454200745,0.9451612234115601,-0.6905831694602966
1748142896557692400,15.1806923828125,0.3376557528972626,0.7438811659812927,-0.6974554061889648
1748142896575955700,15.198955810546876,0.3361285924911499,0.06505715101957321,-0.456163614988327
1748142896594225700,15.2172255859375,0.26633724570274353,-0.6429356932640076,-0.28069257736206055
1748142896612484600,15.235484619140625,-0.018936822190880775,-1.2773191928863525,-0.702800452709198
1748142896630750700,15.253750732421874,-0.5655084848403931,-1.9550741910934448,-1.810146450996399
1748142896649014000,15.272013916015625,-1.1534663438796997,-2.166738986968994,-2.5505151748657227
1748142896667279600,15.290279541015625,-1.4022411108016968,-1.8903224468231201,-3.036916494369507
1748142896685538300,15.308538330078125,-1.4631749391555786,-1.0404561758041382,-3.749490976333618
1748142896703808800,15.326808837890624,-1.5380059480667114,0.28206703066825867,-4.369824409484863
1748142896722071000,15.345071044921875,-1.575726866722107,1.9526307582855225,-4.512156009674072
1748142896740338700,15.363338623046875,-1.307709813117981,3.0615038871765137,-4.0187296867370605
1748142896758600200,15.38160009765625,-0.7122688889503479,2.9191722869873047,-2.9188668727874756
1748142896776868000,15.3998681640625,-0.34666603803634644,1.8168659210205078,-1.8532124757766724
1748142896795130000,15.418130126953125,-0.2967278063297272,0.2964223623275757,-1.2583824396133423
1748142896813396000,15.43639599609375,-0.36331209540367126,-1.8735237121582031,-0.6218608021736145
1748142896831659300,15.4546591796875,-0.3764457106590271,-4.05049467086792,-0.13377949595451355
1748142896849924900,15.4729248046875,-0.42042800784111023,-5.3475141525268555,0.1215621829032898
1748142896868183800,15.491183837890626,-0.9222537875175476,-4.0074286460876465,-0.375071257352829
1748142896886454300,15.509454345703125,-1.350012183189392,-1.7591391801834106,-0.93095862865448
1748142896904717600,15.527717529296876,-1.4456125497817993,-0.9989174008369446,-0.489608496427536
1748142896922983400,15.5459833984375,-1.3912456035614014,-1.049619197845459,0.20173825323581696
1748142896941246700,15.564246826171875,-1.1887437105178833,-0.8692612648010254,0.4268420934677124
1748142896959512300,15.58251220703125,-0.8724682927131653,-0.707840085029602,0.4833471179008484
1748142896977774600,15.600774658203125,-0.39736783504486084,-0.5244278311729431,0.8074111342430115
1748142896996042800,15.619042724609375,0.06017022579908371,0.04230241850018501,1.2652546167373657
1748142897014305000,15.637304931640625,0.37048977613449097,0.7307475209236145,1.7757853269577026
1748142897032570600,15.655570556640624,0.7806857824325562,1.4941763877868652,2.2492058277130127
1748142897050828000,15.673828125,1.5308283567428589,2.372447967529297,2.652682304382324
1748142897069099000,15.69209912109375,2.3385448455810547,2.9268081188201904,2.8229610919952393
1748142897087364400,15.7103642578125,2.1140518188476562,2.77225923538208,2.7505733966827393
1748142897105628000,15.7286279296875,0.8712465763092041,-0.20799961686134338,1.3057245016098022
1748142897123893200,15.746893310546875,-0.41859540343284607,-2.2342395782470703,-0.527634859085083
1748142897142161200,15.7651611328125,-0.327729195356369,0.44104471802711487,-0.5940664410591125
1748142897160420600,15.783420654296876,-0.40072759985923767,2.679865837097168,-0.6540839672088623
1748142897178686700,15.801686767578126,-0.45463645458221436,3.4350481033325195,-0.9133962392807007
1748142897196950300,15.8199501953125,-0.5401576161384583,1.8501580953598022,-0.8917105197906494
1748142897215211800,15.838211669921876,-0.17333301901817322,-0.30314189195632935,-0.08017606288194656
1748142897233479400,15.8564794921875,-0.15882496535778046,-0.7040221691131592,0.5303837656974792
1748142897251745000,15.8747451171875,-0.3998112976551056,-0.34147366881370544,1.0141890048980713
1748142897270007800,15.8930078125,-0.2704605758190155,-0.03848451003432274,1.2530373334884644
1748142897288274200,15.911274169921874,0.1014036312699318,0.2054034322500229,1.292285442352295
1748142897306532600,15.92953271484375,0.5510004758834839,0.4444044530391693,1.318858027458191
1748142897324802000,15.947802001953125,0.5476406812667847,0.7425066828727722,1.1757628917694092
1748142897343067600,15.966067626953125,0.04153883829712868,0.65958172082901,0.9259189963340759
1748142897361332200,15.984332275390624,-0.2941316068172455,-0.25595253705978394,1.037249207496643
1748142897379595800,16.002595703125,-0.033139441162347794,-0.9853256344795227,1.380402684211731
1748142897397857000,16.02085693359375,0.5019785165786743,-0.5380195379257202,1.2835805416107178
1748142897416129000,16.03912890625,0.7521278262138367,0.4639521539211273,1.0302242040634155
1748142897434390500,16.057390625,0.5097670555114746,0.9573785662651062,0.5997169613838196
1748142897452655000,16.075655029296875,0.48915034532546997,0.8993463516235352,0.19608774781227112
1748142897470929400,16.093929443359375,0.5855143666267395,0.8304712772369385,0.20036379992961884
1748142897489181000,16.112180908203126,0.5887213945388794,0.6414085030555725,0.4222606122493744
1748142897507448600,16.130448486328124,0.5539020895957947,0.36331209540367126,0.5160284042358398
1748142897525712000,16.1487119140625,0.5426010489463806,0.21212296187877655,0.5603161454200745
1748142897543977500,16.1669775390625,0.5259549617767334,0.14324790239334106,0.6337726712226868
1748142897562236200,16.185236083984375,0.4642575979232788,0.11056660860776901,0.7692320346832275
1748142897580505300,16.20350537109375,0.40286561846733093,0.30512720346450806,1.0566442012786865
1748142897598771700,16.221771728515623,0.5615378618240356,0.6940956115722656,1.3211487531661987
1748142897617035500,16.240035400390624,0.8526151776313782,0.5913175344467163,0.945772111415863
1748142897635299000,16.258299072265626,0.9703594446182251,0.31261029839515686,-0.015118914656341076
1748142897653564400,16.276564453125,0.8384125232696533,0.5616905689239502,-0.4421137273311615
1748142897671828000,16.294827880859376,0.4069889783859253,0.675616979598999,-0.24342979490756989
1748142897690093600,16.313093505859374,0.23182335495948792,0.30512720346450806,-0.1108720451593399
1748142897708357400,16.331357421875,0.2474004179239273,-0.24938572943210602,-0.14996741712093353
1748142897726621400,16.349621337890625,0.1742493063211441,-0.9468411207199097,-0.6264423131942749
1748142897744887800,16.3678876953125,-0.015118914656341076,-1.7001906633377075,-1.5436564683914185
1748142897763152400,16.38615234375,-0.5777258276939392,-2.415361166000366,-2.2070560455322266
1748142897781415400,16.40441552734375,-1.107040524482727,-2.596177339553833,-2.490345001220703
1748142897799681000,16.422680908203127,-1.3584115505218506,-2.2456934452056885,-2.887101888656616
1748142897817939700,16.440939697265627,-1.6016886234283447,-1.4080443382263184,-3.679088592529297
1748142897836204500,16.45920458984375,-1.8779524564743042,-0.24129177629947662,-4.170682430267334
1748142897854475000,16.47747509765625,-1.9576704502105713,1.2275336980819702,-4.279263973236084
1748142897872739000,16.495739013671876,-1.2835805416107178,1.8135062456130981,-3.8150062561035156
1748142897891001600,16.514001708984374,-0.5342016816139221,1.2292135953903198,-2.8510608673095703
1748142897909264600,16.5322646484375,-0.1999056488275528,0.38606682419776917,-1.8432859182357788
1748142897927531800,16.55053173828125,-0.03634648025035858,-0.8093964457511902,-0.8881980776786804
1748142897945797600,16.568797607421875,-0.0887281745672226,-2.1725423336029053,-0.036041051149368286
1748142897964057300,16.587057373046875,-0.35613444447517395,-3.3176090717315674,0.5108360648155212
1748142897982326500,16.605326416015625,-0.8553640842437744,-3.4524576663970947,-0.024129176512360573
1748142898000590600,16.623590576171875,-1.4723379611968994,-2.3379340171813965,-1.0569496154785156
1748142898018854700,16.641854736328124,-1.5917620658874512,-1.6099354028701782,-0.9414960741996765
1748142898037119000,16.660118896484374,-1.2770137786865234,-1.6052011251449585,-0.25106561183929443
1748142898055380000,16.6783798828125,-0.8614727258682251,-1.1910345554351807,0.1033889427781105
1748142898073647000,16.696647216796876,-0.5505422949790955,-0.7863363027572632,0.20097467303276062
1748142898091913500,16.71491357421875,-0.33597588539123535,-0.7872526049613953,0.39248090982437134
1748142898110173700,16.733173583984374,-0.032528575509786606,-0.4813618063926697,0.7759515643119812
1748142898128443000,16.75144287109375,0.26343563199043274,0.2742784917354584,1.3533719778060913
1748142898146706400,16.76970654296875,0.4951062798500061,1.2220358848571777,2.0453295707702637
1748142898164971500,16.787971435546876,0.816726803779602,2.3287711143493652,2.8733572959899902
1748142898183235600,16.806235595703125,1.4178181886672974,3.3127222061157227,3.6306777000427246
1748142898201500700,16.824500732421875,2.10809588432312,3.458566188812256,3.374877691268921
1748142898219764500,16.842764404296876,1.6643023490905762,2.613586902618408,1.7270687818527222
1748142898238030000,16.861030029296874,-0.06963863968849182,-2.0900754928588867,-0.9897544384002686
1748142898256293400,16.87929345703125,-0.18814650177955627,-0.4709770977497101,-1.1594222784042358
1748142898274559500,16.8975595703125,-0.25076019763946533,3.148399591445923,-0.7637342810630798
1748142898292822500,16.915822509765626,-0.1918116807937622,4.813618183135986,-0.5884159207344055
1748142898311088000,16.934088134765624,-0.29565876722335815,3.4432947635650635,-0.7831292152404785
1748142898329351700,16.9523515625,0.017867809161543846,0.716697633266449,-0.5535966157913208
1748142898347616300,16.9706162109375,0.3880521357059479,-0.4502076804637909,-0.2617557644844055
1748142898365881600,16.988881591796876,0.10186178237199783,-0.4558582007884979,0.3188716471195221
1748142898384147200,17.007147216796874,-0.05192354694008827,-0.2612976133823395,0.9089674949645996
1748142898402410000,17.025409912109374,0.0887281745672226,-0.015577063895761967,1.124755620956421
1748142898420670700,17.043670654296875,0.2915354371070862,0.09743300825357437,1.2052371501922607
1748142898438938000,17.061938232421873,0.4109596014022827,0.11468994617462158,1.2166908979415894
1748142898457201000,17.080200927734374,0.4434881806373596,0.02229658141732216,1.3390166759490967
1748142898475461000,17.098461181640626,0.3781255781650543,0.2015855312347412,1.5786285400390625
1748142898493736700,17.11673681640625,0.13255776464939117,0.4996877610683441,1.4474451541900635
1748142898511997200,17.1349970703125,-0.020005837082862854,0.6001750826835632,0.8787296414375305
1748142898530262800,17.1532626953125,-0.017409659922122955,0.5807801485061646,0.23350323736667633
1748142898548526000,17.171526123046874,0.03573561832308769,0.6944010853767395,-0.024892758578062057
1748142898566791400,17.18979150390625,0.0884227454662323,0.7031059265136719,0.07773260027170181
1748142898585055200,17.20805517578125,0.1310305893421173,0.764955997467041,0.2893974184989929
1748142898603320800,17.22632080078125,0.21410827338695526,0.793361246585846,0.5844452977180481
1748142898621584600,17.244584716796876,0.2996293902397156,0.6901249885559082,0.8423831462860107
1748142898639849700,17.262849609375,0.4184426963329315,0.35094207525253296,0.9002626538276672
1748142898658113300,17.28111328125,0.512210488319397,-0.035124752670526505,0.8524624705314636
1748142898676374300,17.299374267578123,0.5381723046302795,-0.18936823308467865,0.8280278444290161
1748142898694628900,17.31762890625,0.5978843569755554,-0.06612616032361984,0.9564622640609741
1748142898712909300,17.335909423828124,0.6559165716171265,0.07101308554410934,1.1688905954360962
1748142898731154000,17.35415380859375,0.7319692969322205,0.07391469180583954,1.2880094051361084
1748142898749437400,17.3724375,0.7831292152404785,-0.1889100819826126,0.9957103729248047
1748142898767688700,17.390688720703125,0.7052439451217651,-0.40072759985923767,0.3666718602180481
1748142898785966300,17.40896630859375,0.49846604466438293,-0.03894266113638878,-0.039706241339445114
1748142898804229400,17.4272294921875,0.24419337511062622,0.16982053220272064,-0.20631973445415497
1748142898822495500,17.44549560546875,0.14156801998615265,-0.0981965884566307,-0.18585574626922607
1748142898840758800,17.4637587890625,0.10522153973579407,-0.5316054821014404,0.03237585723400116
1748142898859024400,17.4820244140625,0.11270463466644287,-0.3058907687664032,0.19562959671020508
1748142898877287700,17.50028759765625,0.32818734645843506,0.23121249675750732,-0.17730364203453064
1748142898895549000,17.518548828125,0.07559457421302795,-0.3300199508666992,-1.337336778640747
1748142898913816600,17.536816650390627,-0.37491855025291443,-0.8153523802757263,-2.205223560333252
1748142898932077800,17.555077880859375,-0.68951416015625,-1.1623238325119019,-2.4692699909210205
1748142898950344400,17.573344482421874,-1.1074986457824707,-1.4694362878799438,-2.579378604888916
1748142898968611600,17.591611572265624,-1.3339769840240479,-1.7873916625976562,-2.8544206619262695
1748142898986876200,17.609876220703125,-1.4170546531677246,-1.8923077583312988,-3.296992540359497
1748142899005141200,17.628141357421875,-1.2921327352523804,-1.1296426057815552,-3.6911532878875732
1748142899023404300,17.646404296875,-1.0054842233657837,0.3572034537792206,-3.869525909423828
1748142899041670000,17.664669921875,-0.7525860071182251,1.1951578855514526,-3.3713653087615967
1748142899059933400,17.682933349609375,-0.5890268087387085,1.1169670820236206,-2.5279130935668945
1748142899078194400,17.7011943359375,-0.33918291330337524,0.6957755088806152,-1.845118522644043
1748142899096457500,17.71945751953125,-0.39904773235321045,-0.2525927722454071,-1.2643383741378784
1748142899114728400,17.737728515625,-0.6079636216163635,-1.49738347530365,-0.7072292566299438
1748142899132991500,17.755991455078124,-0.7000515460968018,-2.722015619277954,-0.1586722433567047
1748142899151257300,17.77425732421875,-0.8562803864479065,-2.9051222801208496,0.21991148591041565
1748142899169520000,17.79252001953125,-1.1887437105178833,-1.5070046186447144,0.14263702929019928
1748142899187786500,17.810786376953125,-1.4219415187835693,-0.23686300218105316,0.03680463135242462
1748142899206048500,17.829048583984374,-1.356884479522705,-0.5963571667671204,0.4586070775985718
1748142899224316700,17.847316650390624,-1.102917194366455,-1.3451253175735474,0.8518515825271606
1748142899242578700,17.86557861328125,-0.7565566301345825,-1.1604912281036377,0.7389942407608032
1748142899260843300,17.88384326171875,-0.3582724630832672,-0.7307475209236145,0.7722864151000977
1748142899279109000,17.902109130859376,-0.013286318629980087,-0.23105977475643158,1.2044734954833984
1748142899297373400,17.92037353515625,0.22663100063800812,0.5438227653503418,1.796554684638977
1748142899315635700,17.9386357421875,0.5572618246078491,1.3907874822616577,2.260964870452881
1748142899333903400,17.9569033203125,0.9958630800247192,2.057852268218994,2.579684019088745
1748142899352161500,17.97516162109375,1.3529138565063477,2.471102714538574,2.863736152648926
1748142899370431200,17.99343115234375,1.458898901939392,2.30051851272583,2.805551290512085
1748142899388695300,18.0116953125,1.0632109642028809,-1.750434398651123,0.6475171446800232
1748142899406960600,18.029960693359374,0.20815233886241913,-2.780047655105591,-0.5343543887138367
1748142899425219800,18.0482197265625,-0.24816401302814484,0.27550023794174194,-0.48227810859680176
1748142899443485200,18.066485107421876,-0.4437935948371887,2.7531697750091553,-0.7770205736160278
1748142899461752300,18.08475244140625,-0.23289237916469574,3.1676416397094727,-0.9587529897689819
1748142899480020000,18.10302001953125,0.1281289905309677,1.8292360305786133,-1.017701506614685
1748142899498282500,18.121282470703125,0.46532660722732544,-0.03084869496524334,-0.39354994893074036
1748142899516545300,18.139545166015626,0.30482175946235657,-1.674992561340332,0.9405797719955444
1748142899534814000,18.15781396484375,-0.33460143208503723,-1.5357152223587036,1.7621935606002808
1748142899553073400,18.176073486328125,-0.6818783283233643,0.65958172082901,2.7708847522735596
1748142899571344000,18.19434375,-0.5216789245605469,2.415361166000366,2.669023036956787
1748142899589605000,18.212605224609376,-0.35323283076286316,1.104138970375061,0.8136724829673767
1748142899607870700,18.23087060546875,0.037110064178705215,-0.7226535677909851,-0.9480628371238708
1748142899626135300,18.24913525390625,0.5404630303382874,-1.295186996459961,-1.1846203804016113
1748142899644398600,18.267398681640625,0.39385536313056946,-1.5111279487609863,-0.66584312915802
1748142899662664700,18.285664794921875,0.04184427112340927,-0.9601274728775024,0.03405573591589928
1748142899680926500,18.303926513671875,0.06383541971445084,0.2974913716316223,0.6443101167678833
1748142899699189800,18.322189697265625,0.056810468435287476,0.9760099649429321,1.2000447511672974
1748142899717456000,18.340455810546874,0.13805554807186127,1.5946637392044067,1.312138557434082
1748142899735723800,18.358723876953125,0.2958115041255951,2.314110279083252,1.25761878490448
1748142899753985800,18.37698583984375,0.45295658707618713,2.663525104522705,1.4602733850479126
1748142899772240100,18.395240234375,0.5470298528671265,1.846798300743103,1.8388570547103882
1748142899790510300,18.41351025390625,0.4966334402561188,-0.7585419416427612,1.0416779518127441
1748142899808766500,18.431766357421875,0.5076290369033813,-1.2942707538604736,0.18020524084568024
1748142899827045000,18.450045166015624,0.33047810196876526,0.03237585723400116,0.1388191282749176
1748142899845298000,18.4682978515625,0.2093740701675415,0.3878994286060333,0.10873401165008545
1748142899863572700,18.48657275390625,0.23976461589336395,0.1514945775270462,0.24205535650253296
1748142899881838600,18.504838623046876,0.3651446998119354,0.2002110779285431,0.7102835774421692
1748142899900102100,18.52310205078125,0.3787364661693573,0.24113905429840088,1.1888965368270874
1748142899918367700,18.54136767578125,0.4683809280395508,0.1339322030544281,1.4187345504760742
1748142899936630300,18.55963037109375,0.6099489331245422,-0.26190847158432007,1.031598687171936
1748142899954898000,18.57789794921875,0.6472117304801941,-0.4115704596042633,0.20693060755729675
1748142899973164500,18.59616455078125,0.3952298164367676,-0.021532999351620674,-0.2819143235683441
1748142899991425800,18.61442578125,0.18066339194774628,0.24755313992500305,-0.3787364661693573
1748142900009689600,18.632689697265626,0.14049901068210602,0.12629638612270355,-0.24129177629947662
1748142900027955000,18.650954833984375,0.1137736514210701,-0.2525927722454071,0.004123340360820293
1748142900046214000,18.6692138671875,0.15806138515472412,0.17379115521907806,0.3165809214115143
1748142900064466000,18.6874658203125,0.4132503271102905,0.8423831462860107,-0.098502017557621
1748142900082748000,18.705747802734376,0.204487144947052,-0.1973094791173935,-1.514487624168396
1748142900101013200,18.72401318359375,-0.1716531366109848,-0.850171685218811,-2.319607973098755
1748142900119276800,18.74227685546875,-0.6204863786697388,-0.9576839804649353,-2.3098342418670654
1748142900137542400,18.76054248046875,-0.9879218339920044,-1.2157745361328125,-2.3779456615448
1748142900155806000,18.778805908203125,-1.2030991315841675,-1.689195156097412,-2.7620272636413574
1748142900174071600,18.797071533203123,-1.2052371501922607,-2.1699459552764893,-3.2849278450012207
1748142900192334800,18.8153349609375,-0.9734137654304504,-1.8223637342453003,-3.603646755218506
1748142900210599700,18.833599609375,-0.7805330753326416,-0.5326744914054871,-3.4830009937286377
1748142900228865300,18.851865234375,-0.6198754906654358,0.5314527750015259,-2.9655981063842773
1748142900247129900,18.8701298828125,-0.41859540343284607,0.4346306324005127,-2.4350616931915283
1748142900265388300,18.88838818359375,-0.2915354371070862,0.0806342139840126,-1.9530888795852661
1748142900283659300,18.9066591796875,-0.22403483092784882,-0.33689218759536743,-1.4885258674621582
1748142900301917200,18.924917236328124,-0.28237244486808777,-0.8985827565193176,-0.9492846131324768
1748142900320181800,18.943181640625,-0.4889976382255554,-1.7841846942901611,-0.20861047506332397
1748142900338452500,18.961452392578124,-0.6197227835655212,-1.2947288751602173,0.5247332453727722
1748142900356716800,18.979716796875,-0.8657487630844116,-0.2695443034172058,0.33689218759536743
1748142900374980600,18.997980712890627,-1.347110629081726,-0.3246748745441437,-0.22846360504627228
1748142900393246200,19.01624609375,-1.4074335098266602,-1.650099754333496,-0.5326744914054871
1748142900411509500,19.034509521484374,-0.7699956297874451,-2.33060359954834,-0.44745880365371704
1748142900429775000,19.052775146484375,-0.194713294506073,-1.5622878074645996,-0.03390302136540413
1748142900448038700,19.07103857421875,-0.11010845750570297,-0.1918116807937622,0.8060367107391357
1748142900466304300,19.08930419921875,-0.06200282275676727,0.9853256344795227,1.417970895767212
1748142900484567800,19.10756787109375,0.20662516355514526,1.5375478267669678,1.7548631429672241
1748142900502833200,19.125833251953125,0.5360342264175415,1.6714800596237183,2.0567831993103027
1748142900521096700,19.1440966796875,0.9531024694442749,1.8487836122512817,2.4376578330993652
1748142900539362600,19.162362548828124,1.4511103630065918,2.1899518966674805,2.8176159858703613
1748142900557624800,19.180624755859377,1.634369969367981,2.52302622795105,2.8154778480529785
1748142900575891500,19.198891357421875,1.062447428703308,0.7944302558898926,1.619251012802124
1748142900594155000,19.217155029296876,0.15729780495166779,-1.7374534606933594,-0.44226643443107605
1748142900612424700,19.2354248046875,-0.2921462953090668,0.4334088861942291,-1.0057896375656128
1748142900630683600,19.25368359375,-0.6130032539367676,3.05157732963562,-1.002277135848999
1748142900648950000,19.271949951171877,-0.38728857040405273,3.4605515003204346,-0.7929030656814575
1748142900667209200,19.290209228515625,0.25702154636383057,1.7641788721084595,-0.23380866646766663
1748142900685472800,19.30847265625,1.0062477588653564,0.0039706239476799965,0.2997821271419525
1748142900703744500,19.32674462890625,1.2095131874084473,-0.9091202020645142,0.4789183437824249
1748142900722007800,19.3450078125,0.46563202142715454,-1.1169670820236206,0.6224716901779175
1748142900740271400,19.363271240234376,-0.244804248213768,0.859029233455658,2.358397960662842
1748142900758537200,19.381537109375,-0.023518312722444534,2.2815816402435303,2.2508857250213623
1748142900776800300,19.39980029296875,-0.10201449692249298,1.5688546895980835,0.6855435371398926
1748142900795065900,19.41806591796875,-0.016035212203860283,0.4911356568336487,-0.4407392740249634
1748142900813324800,19.43632470703125,0.09117163717746735,-0.16325373947620392,-0.6867652535438538
1748142900831594000,19.454593994140627,-0.004886921960860491,-0.7305948138237,-0.3790418803691864
1748142900849859600,19.472859619140625,-0.08200865983963013,-0.8584184050559998,0.21960605680942535
1748142900868124200,19.491124267578126,-0.10919216275215149,-0.3017674386501312,0.8831584453582764
1748142900886387200,19.50938720703125,-0.011759156361222267,0.822682797908783,1.030071496963501
1748142900904655000,19.527655029296874,0.02672535367310047,1.432020902633667,1.1192578077316284
1748142900922908400,19.545908447265624,0.197004035115242,1.2240211963653564,1.1917980909347534
1748142900941177600,19.564177490234375,0.3197879493236542,0.20143280923366547,0.7677049040794373
1748142900959445500,19.582445556640625,0.3257438838481903,-0.38026362657546997,0.38209620118141174
1748142900977711400,19.60071142578125,0.29886582493782043,0.09544769674539566,0.4524984359741211
1748142900995974700,19.618974609375,0.2909245789051056,0.4309654235839844,0.49495357275009155
1748142901014240500,19.637240478515626,0.3251330256462097,0.4421137273311615,0.45723262429237366
1748142901032503600,19.655503662109375,0.35521814227104187,0.4280638098716736,0.5149593949317932
1748142901050769700,19.673769775390625,0.37797287106513977,0.49266281723976135,0.6542366743087769
1748142901069032700,19.69203271484375,0.4155410826206207,0.5418374538421631,0.826500654220581
1748142901087297300,19.71029736328125,0.5267185568809509,0.5319108963012695,1.141401767730713
1748142901105558500,19.72855859375,0.7509061098098755,0.3911064863204956,1.4303410053253174
1748142901123827700,19.74682763671875,0.894001305103302,-0.033597588539123535,1.3723087310791016
1748142901142090800,19.7650908203125,0.8177958726882935,-0.5809328556060791,0.9395107626914978
1748142901160352000,19.78335205078125,0.6792821288108826,-0.40973785519599915,0.37262779474258423
1748142901178619100,19.801619140625,0.4060726761817932,0.12538009881973267,-0.011453723534941673
1748142901196887300,19.81988720703125,0.19975294172763824,0.3520110845565796,-0.13271047174930573
1748142901215149800,19.83814990234375,0.17989981174468994,0.013897184282541275,-0.1212567538022995
1748142901233415200,19.856415283203123,0.1394299864768982,-0.523511528968811,0.046273041516542435
1748142901251678500,19.874678466796876,0.194713294506073,-0.5106833577156067,0.07360926270484924
1748142901269943600,19.892943603515626,0.2762638032436371,-0.3813326358795166,-0.513737678527832
1748142901288203500,19.91120361328125,-0.07742717117071152,-0.8139779567718506,-1.5558737516403198
1748142901306473500,19.929473388671877,-0.48197266459465027,-1.1552989482879639,-2.233476161956787
1748142901324736500,19.947736572265626,-0.8518515825271606,-1.4286611080169678,-2.5558602809906006
1748142901343002000,19.966002197265624,-1.1261301040649414,-1.4376713037490845,-2.8492281436920166
1748142901361265700,19.984265625,-1.2426526546478271,-1.3854423761367798,-3.190396547317505
1748142901379531300,20.00253125,-1.2189816236495972,-1.225701093673706,-3.4878878593444824
1748142901397794800,20.020794921875,-1.0838276147842407,-0.4980078935623169,-3.6534323692321777
1748142901416060700,20.039060791015626,-0.8344419002532959,0.24877487123012543,-3.2847752571105957
1748142901434324000,20.057323974609375,-0.5439754724502563,-0.05161811411380768,-2.620917320251465
1748142901452590600,20.075590576171876,-0.303600013256073,-0.1771509200334549,-2.157728672027588
1748142901470850600,20.0938505859375,-0.05971207842230797,-0.26801711320877075,-1.761277198791504
1748142901489119700,20.11211962890625,-0.17150041460990906,-0.6696610450744629,-1.401172161102295
1748142901507382000,20.130382080078125,-0.46761733293533325,-1.2037099599838257,-1.0235047340393066
1748142901525646800,20.148646728515626,-0.6594290137290955,-1.5766432285308838,-0.6950119137763977
1748142901543912200,20.166912109375,-0.7386888265609741,-1.5526667833328247,-0.42730024456977844
1748142901562172200,20.185172119140624,-0.8730791807174683,-0.9657779335975647,-0.29275718331336975
1748142901580440300,20.2034404296875,-1.0427470207214355,-0.42302417755126953,-0.20005837082862854
1748142901598706200,20.2217060546875,-1.0821478366851807,-0.5422956347465515,0.03298672288656235
1748142901616969200,20.23996923828125,-0.8807149529457092,-0.9538660645484924,0.3197879493236542
1748142901635241700,20.25824169921875,-0.566730260848999,-0.9841039180755615,0.5395467281341553
1748142901653498600,20.27649853515625,-0.22067506611347198,-0.5711590051651001,0.8936958312988281
1748142901671759000,20.294759033203125,0.13897185027599335,0.08231408894062042,1.5259413719177246
1748142901690026200,20.313026123046875,0.48517972230911255,0.9714284539222717,2.1699459552764893
1748142901708292900,20.33129296875,1.0236574411392212,1.9555323123931885,2.6455047130584717
1748142901726558000,20.349557861328126,1.5557210445404053,2.4417810440063477,2.7682886123657227
1748142901744822300,20.367822265625,1.4191926717758179,2.387261390686035,2.5118777751922607
1748142901763085600,20.38608544921875,0.6826419234275818,0.299018532037735,1.5398385524749756
1748142901781351400,20.404351318359375,0.03344487398862839,-2.311514139175415,0.2373211532831192
1748142901799613400,20.422613525390624,-0.14385876059532166,-0.4156937897205353,-0.18325957655906677
1748142901817881600,20.440881591796874,-0.41111230850219727,1.9856175184249878,-0.6398813724517822
1748142901836144400,20.459144287109375,-0.23029619455337524,3.1167871952056885,-1.1100949048995972
1748142901854409500,20.477409423828124,-0.1238529309630394,2.138486623764038,-1.1201741695404053
1748142901872673300,20.49567333984375,0.07162395119667053,0.027030786499381065,-0.48258355259895325
1748142901890937600,20.5139375,0.031154127791523933,-0.7108944058418274,0.4951062798500061
1748142901909198600,20.532198486328124,-0.33276882767677307,-0.3732386529445648,1.0216721296310425
1748142901927463000,20.550462890625,-0.3927863538265228,0.20265454053878784,1.1270463466644287
1748142901945729800,20.568729736328127,-0.19837848842144012,0.5076290369033813,1.109789490699768
1748142901963997400,20.58699755859375,0.07254024595022202,0.4990769028663635,1.1496484279632568
1748142901982260200,20.60526025390625,0.28557950258255005,0.2541199326515198,1.2516628503799438
1748142902000523300,20.623523193359375,0.24342979490756989,-0.10155634582042694,1.2450960874557495
1748142902018789400,20.641789306640625,0.05314527451992035,-0.2791654169559479,1.2359330654144287
1748142902037054500,20.660054443359375,0.11331550031900406,0.3234531581401825,1.4989105463027954
1748142902055318800,20.67831884765625,0.12461651116609573,0.9381362795829773,1.5764905214309692
1748142902073583900,20.696583984375,0.19578230381011963,0.4190535545349121,1.2150110006332397
1748142902091847400,20.714847412109375,0.26542094349861145,-0.09025534242391586,0.6383541822433472
1748142902110112500,20.733112548828124,0.2298380434513092,0.24129177629947662,0.3139847218990326
1748142902128376600,20.75137646484375,0.1820378452539444,0.697149932384491,0.1716531366109848
1748142902146641000,20.769640869140623,0.17791450023651123,0.8538368940353394,0.10201449692249298
1748142902164906200,20.78790625,0.23869559168815613,0.7609853744506836,0.1797471046447754
1748142902183166500,20.80616650390625,0.29184088110923767,0.5691736936569214,0.32589662075042725
1748142902201433000,20.82443310546875,0.3605632185935974,0.3975205719470978,0.4859432876110077
1748142902219701200,20.842701171875,0.43967026472091675,0.2623666226863861,0.6163630485534668
1748142902237963800,20.8609638671875,0.5028948187828064,0.27458393573760986,0.8213083148002625
1748142902256229600,20.879229736328124,0.5595525503158569,0.37980547547340393,1.0488556623458862
1748142902274493000,20.897492919921874,0.6621779203414917,0.3604104816913605,1.095739483833313
1748142902292758300,20.91575830078125,0.7348709106445312,0.3072652220726013,0.8600982427597046
1748142902311022000,20.93402197265625,0.7225008606910706,0.347276896238327,0.41813725233078003
1748142902329287700,20.95228759765625,0.4928155243396759,0.4411974251270294,0.05192354694008827
1748142902347551000,20.970551025390623,0.26679539680480957,0.37537670135498047,-0.17409659922122955
1748142902365816300,20.98881640625,0.313373863697052,0.07987063378095627,-0.27488934993743896
1748142902384080100,21.007080078125,0.35414913296699524,-0.2154827117919922,-0.21533000469207764
1748142902402345700,21.025345703125,0.4027129113674164,-0.3000875413417816,-0.2590068578720093
1748142902420608000,21.04360791015625,0.2681698501110077,-0.5100724697113037,-0.8811731338500977
1748142902438876200,21.061876220703127,-0.19624045491218567,-0.8894197940826416,-1.788308024406433
1748142902457137000,21.080136962890624,-0.6392704844474792,-1.2831224203109741,-2.289064884185791
1748142902475400400,21.098400390625,-1.066265344619751,-1.5887078046798706,-2.4492642879486084
1748142902493667300,21.116667236328126,-1.3972015380859375,-1.9744691848754883,-2.7288877964019775
1748142902511933000,21.134932861328124,-1.4204144477844238,-2.0731239318847656,-3.2035300731658936
1748142902530192000,21.15319189453125,-1.2898420095443726,-1.302059292793274,-3.6974146366119385
1748142902548461800,21.1714619140625,-1.0009026527404785,0.19822576642036438,-3.8698313236236572
1748142902566725400,21.189725341796876,-0.7055493593215942,0.9198103547096252,-3.251788377761841
1748142902584991200,21.2079912109375,-0.4902193546295166,0.7666358947753906,-2.5143213272094727
1748142902603254500,21.226254638671875,-0.2545780837535858,0.664315938949585,-2.035555601119995
1748142902621520100,21.24452001953125,-0.09025534242391586,0.07895433157682419,-1.5587754249572754
1748142902639783700,21.26278369140625,-0.16310101747512817,-0.7568620443344116,-1.0096075534820557
1748142902658049300,21.28104931640625,-0.3116939961910248,-1.8025106191635132,-0.36819902062416077
1748142902676312800,21.299312744140625,-0.5083925724029541,-2.1453588008880615,-0.10583240538835526
1748142902694589000,21.3175888671875,-0.9752463698387146,-1.3813190460205078,-0.33460143208503723
1748142902712840200,21.335840087890624,-1.4118622541427612,-0.3323107063770294,-0.618195652961731
1748142902731108600,21.354108642578126,-1.3394747972488403,-0.4772384762763977,-0.2301434874534607
1748142902749371000,21.372370849609375,-1.0221302509307861,-1.0613783597946167,0.2848159074783325
1748142902767635500,21.390635498046876,-0.703411340713501,-1.1197160482406616,0.3165809214115143
1748142902785900800,21.40890087890625,-0.37430769205093384,-0.8955284357070923,0.4303545653820038
1748142902804161300,21.427161376953126,-0.05192354694008827,-0.22708915174007416,0.9100365042686462
1748142902822429200,21.44542919921875,0.2370157092809677,0.4867068827152252,1.4155274629592896
1748142902840694500,21.463694580078126,0.5007568001747131,0.9224064946174622,1.8842138051986694
1748142902858955000,21.481955078125,0.8339837789535522,1.4204144477844238,2.3408355712890625
1748142902877228000,21.50022802734375,1.3078625202178955,2.0703749656677246,2.8829784393310547
1748142902895482600,21.518482666015625,1.5842790603637695,2.3469443321228027,3.1192307472229004
1748142902913752800,21.5367529296875,1.3249666690826416,1.2154691219329834,2.4494168758392334
1748142902932016000,21.55501611328125,0.40072759985923767,-2.4973697662353516,0.06505715101957321
1748142902950281700,21.57328173828125,-0.055894169956445694,-0.9500481486320496,-0.35903605818748474
1748142902968545300,21.591545166015624,-0.5209153294563293,2.2366831302642822,-0.526107668876648
1748142902986811100,21.60981103515625,-0.5581781268119812,3.6563339233398438,-0.6027712821960449
1748142903005074400,21.628074462890623,-0.2597704529762268,2.7678303718566895,-0.6751587986946106
1748142903023339800,21.64633984375,0.17440202832221985,0.08246681094169617,-0.32528573274612427
1748142903041597000,21.664596923828125,0.5112941861152649,-1.563051462173462,0.4366159439086914
1748142903059869200,21.682869140625,0.06658431142568588,-1.5512923002243042,0.8440630435943604
1748142903078127400,21.70112744140625,-0.7064656615257263,0.23396138846874237,2.3246476650238037
1748142903096398000,21.719398193359375,-0.45402559638023376,2.186286687850952,2.141846179962158
1748142903114661400,21.737661376953124,-0.3090978264808655,1.7511979341506958,1.0239628553390503
1748142903132927200,21.75592724609375,0.1488984078168869,-0.05619960278272629,0.25564709305763245
1748142903151185700,21.774185546875,0.47311514616012573,-0.7240280508995056,-0.06475171446800232
1748142903169455900,21.792455810546876,0.29367345571517944,-0.8443684577941895,-0.11911872029304504
1748142903187719400,21.810719482421874,0.0907134860754013,-0.9662361145019531,0.04230241850018501
1748142903205985300,21.8289853515625,0.14523321390151978,-0.126143679022789,0.8006916046142578
1748142903224248600,21.84724853515625,0.18310685455799103,1.546558141708374,1.5470162630081177
1748142903242514400,21.865514404296874,0.2217440903186798,2.0819814205169678,1.6777414083480835
1748142903260778800,21.88377880859375,0.2900082767009735,0.7344127297401428,1.1435397863388062
1748142903279042300,21.902042236328125,0.3119994103908539,-0.6730207800865173,0.5348125100135803
1748142903297302000,21.920302001953125,0.32299500703811646,-0.347276896238327,0.6244570016860962
1748142903315568000,21.938568115234375,0.26022860407829285,0.4199698567390442,0.6940956115722656
1748142903333836000,21.9568359375,0.22327125072479248,0.44745880365371704,0.461355984210968
1748142903352101600,21.9751015625,0.28695395588874817,0.4150829315185547,0.4346306324005127
1748142903370364700,21.99336474609375,0.36819902062416077,0.48579058051109314,0.6172793507575989
1748142903388629500,22.01162939453125,0.4063780903816223,0.3666718602180481,0.7195992469787598
1748142903406895000,22.02989501953125,0.44364088773727417,0.19486601650714874,0.8423831462860107
1748142903425163300,22.048163330078125,0.4712825417518616,0.20341812074184418,1.036943793296814
1748142903443423000,22.066423095703126,0.607200026512146,0.3055853247642517,1.0961977243423462
1748142903461689000,22.084689208984376,0.7327328324317932,0.19013181328773499,0.7137960195541382
1748142903479952100,22.1029521484375,0.7107416987419128,0.19562959671020508,0.18631389737129211
1748142903498225700,22.1212255859375,0.5442809462547302,0.45234572887420654,-0.012522737495601177
1748142903516481500,22.1394814453125,0.3084869384765625,0.3640756905078888,-0.048105638474226
1748142903534747100,22.1577470703125,0.22052235901355743,-0.04932736977934837,-0.0910189226269722
1748142903553005600,22.176005615234374,0.21105393767356873,-0.2822197377681732,0.0754418596625328
1748142903571274500,22.1942744140625,0.26679539680480957,-0.39446622133255005,0.048105638474226
1748142903589540600,22.21254052734375,0.2883284091949463,-0.7612907886505127,-0.5690209865570068
1748142903607805200,22.23080517578125,-0.08918632566928864,-1.307709813117981,-1.3933836221694946
1748142903626068500,22.249068359375,-0.5523748993873596,-1.7104226350784302,-1.8409950733184814
1748142903644334300,22.267334228515626,-1.0329731702804565,-2.0201313495635986,-2.034792184829712
1748142903662596900,22.285596923828123,-1.2747230529785156,-2.283566951751709,-2.3298399448394775
1748142903680863000,22.303863037109377,-1.3180944919586182,-2.565328598022461,-2.9859092235565186
1748142903699127600,22.32212744140625,-1.0546588897705078,-1.9706512689590454,-3.72078013420105
1748142903717392600,22.340392578125,-0.7672467231750488,-0.12079860270023346,-4.356996536254883
1748142903735654700,22.358654541015625,-0.6327036619186401,1.68201744556427,-4.162436008453369
1748142903753922600,22.376922607421875,-0.6081163287162781,1.7941112518310547,-2.827389717102051
1748142903772179700,22.3951796875,-0.28817567229270935,1.3217597007751465,-1.771356463432312
1748142903790450700,22.41345068359375,0.14645494520664215,0.6745479702949524,-1.1242974996566772
1748142903808713700,22.431713623046875,0.1560760736465454,-0.42180246114730835,-0.5181664228439331
1748142903826976500,22.4499765625,-0.14752395451068878,-1.7679967880249023,0.07070764899253845
1748142903845246000,22.468245849609374,-0.3627012372016907,-2.246915102005005,0.04566217586398125
1748142903863499000,22.4864990234375,-0.7695375084877014,-1.262963891029358,-0.7231117486953735
1748142903881786600,22.50478662109375,-1.1762210130691528,-0.42241331934928894,-0.9494373202323914
1748142903900035000,22.52303515625,-1.0574077367782593,-0.6151412725448608,-0.4285219609737396
1748142903918303200,22.54130322265625,-0.6224716901779175,-0.8378016948699951,-0.11743884533643723
1748142903936566500,22.55956640625,-0.24724771082401276,-0.7547240257263184,-0.014355333521962166
1748142903954830000,22.577830078125,0.031001411378383636,-0.5962044596672058,0.3312416672706604
1748142903973095700,22.596095703125,0.27290403842926025,-0.13576480746269226,0.8388707041740417
1748142903991359200,22.614359130859373,0.5700899958610535,0.5155702829360962,1.3098478317260742
1748142904009623600,22.63262353515625,0.9207266569137573,1.1042916774749756,1.7201964855194092
1748142904027889400,22.650889404296876,1.260062336921692,1.6673567295074463,2.1893410682678223
1748142904046156000,22.669156005859374,1.5546520948410034,2.283719778060913,2.694221258163452
1748142904064403000,22.68740283203125,1.6898059844970703,2.596635341644287,2.760958194732666
1748142904082684700,22.7056845703125,1.2232576608657837,1.1470521688461304,1.8791742324829102
1748142904100951300,22.723951416015623,-0.020005837082862854,-2.4023802280426025,0.11636982858181
1748142904119196200,22.742196044921876,-0.2687807083129883,-0.7626652717590332,-0.5038111209869385
1748142904137475300,22.760475341796877,-0.5198463201522827,3.0973923206329346,-0.7373143434524536
1748142904155732700,22.778732666015625,-0.5384777188301086,4.3728790283203125,-0.8669704794883728
1748142904174004700,22.797004638671876,-0.42989641427993774,1.7773123979568481,-0.7602217793464661
1748142904192269800,22.815269775390625,0.05467243865132332,-0.584750771522522,-0.07498370856046677
1748142904210533600,22.83353369140625,0.04841107130050659,-0.9837985038757324,0.29046642780303955
1748142904228799000,22.851799072265624,-0.1895209401845932,-0.7218900322914124,0.5812382698059082
