time,seconds_elapsed,z,y,x
1748142881443810000,0.06681005859375,7.934001445770264,3.132802963256836,-0.7034898400306702
1748142881462077400,0.085077392578125,8.483752250671387,3.923630952835083,0.36311084032058716
1748142881480350200,0.10335009765625,8.913862228393555,3.679563045501709,0.9212366938591003
1748142881498613500,0.121613525390625,11.003993034362793,1.6983058452606201,-0.10468599200248718
1748142881516875000,0.139875,9.311071395874023,1.2352946996688843,-0.5126622319221497
1748142881535143000,0.158142822265625,8.121838569641113,1.5726827383041382,-3.078366279602051
1748142881553409000,0.176408935546875,7.352545738220215,3.7800614833831787,-3.202194929122925
1748142881571672300,0.19467236328125,5.8713884353637695,6.044270038604736,-1.6319050788879395
1748142881589936000,0.21293603515625,7.633702278137207,3.88594388961792,2.038684844970703
1748142881608196400,0.2311962890625,7.47338342666626,3.3164522647857666,1.852044701576233
1748142881626465000,0.249465087890625,7.336992263793945,2.960519790649414,1.301695466041565
1748142881644730000,0.267730224609375,6.51326322555542,3.9942193031311035,-1.2873386144638062
1748142881662994000,0.285993896484375,5.91087007522583,7.9351983070373535,-11.261819839477539
1748142881681258800,0.3042587890625,9.391828536987305,2.0003998279571533,-0.009571290574967861
1748142881699522600,0.3225224609375,12.813565254211426,0.607776939868927,3.5150563716888428
1748142881717787600,0.34078759765625,15.242280006408691,1.2382856607437134,3.9840497970581055
1748142881736051700,0.3590517578125,12.042478561401367,3.181257724761963,2.334198474884033
1748142881754316300,0.37731640625,7.152146816253662,3.514458179473877,-4.575077056884766
1748142881772576000,0.395575927734375,5.292325496673584,5.748157978057861,-1.6504493951797485
1748142881790844200,0.41384423828125,7.5942206382751465,4.089931964874268,1.322034478187561
1748142881809110300,0.4321103515625,9.363115310668945,1.5122638940811157,2.462214469909668
1748142881827374000,0.4503740234375,10.924431800842285,0.2554338276386261,2.7008986473083496
1748142881845637600,0.4686376953125,10.060623168945312,0.06999006122350693,3.1232316493988037
1748142881863903500,0.486903564453125,6.208776473999023,0.5204389095306396,2.7499513626098633
1748142881882162700,0.50516259765625,5.434698581695557,-0.7208378314971924,2.5058834552764893
1748142881900431600,0.523431640625,4.439882278442383,-1.3094722032546997,2.6458635330200195
1748142881918696400,0.541696533203125,4.406980991363525,-0.9571290612220764,4.091128349304199
1748142881936961000,0.5599609375,6.3152570724487305,-1.5038890838623047,2.6273193359375
1748142881955220500,0.578220458984375,5.9306111335754395,-2.2235305309295654,4.5547380447387695
1748142881973489200,0.5964892578125,6.248258113861084,-1.6061822175979614,6.38165807723999
1748142881991753700,0.614753662109375,5.7786664962768555,-1.3142578601837158,7.138986587524414
1748142882010018300,0.633018310546875,6.550950050354004,-2.358126640319824,6.5904316902160645
1748142882028277800,0.65127783203125,6.0879387855529785,-3.22552490234375,5.97308349609375
1748142882046546000,0.6695458984375,3.4199416637420654,-3.070589542388916,6.026922225952148
1748142882064812300,0.687812255859375,0.5455635786056519,-3.279961585998535,6.119045734405518
1748142882083073800,0.70607373046875,0.5497509837150574,-2.4526431560516357,8.487939834594727
1748142882101342200,0.72434228515625,1.1210373640060425,-0.9720842242240906,10.956136703491211
1748142882119603700,0.742603759765625,1.6809579133987427,-1.1928220987319946,11.839686393737793
1748142882137870300,0.760870361328125,3.2315070629119873,-1.5379867553710938,10.267004013061523
1748142882156121900,0.779121826171875,2.366501569747925,-2.479562520980835,9.397212982177734
1748142882174397200,0.797397216796875,1.357926845550537,-3.139383316040039,10.096514701843262
1748142882192662000,0.815662109375,0.3164508044719696,-3.7184464931488037,10.614561080932617
1748142882210925600,0.833925537109375,0.9547362327575684,-3.280559778213501,9.370293617248535
1748142882229188400,0.852188232421875,-0.4486542344093323,-3.159722328186035,9.220742225646973
1748142882247447300,0.870447265625,-2.0344974994659424,-4.391427993774414,10.73838996887207
1748142882265719800,0.8887197265625,-1.5032907724380493,-4.312464714050293,13.13839054107666
1748142882283984600,0.906984619140625,-0.6454638838768005,-2.6057839393615723,13.569099426269531
1748142882302248000,0.925248046875,-1.0109676122665405,-2.8666014671325684,10.939387321472168
1748142882320514300,0.943514404296875,-1.3411771059036255,-4.3280181884765625,11.2247314453125
1748142882338777300,0.96177734375,-1.6103696823120117,-4.649852752685547,10.895119667053223
1748142882357042000,0.9800419921875,-1.8406788110733032,-4.244867324829102,11.651849746704102
1748142882375302100,0.99830224609375,-2.3030917644500732,-3.5581271648406982,12.720245361328125
1748142882393570600,1.016570556640625,-2.196611166000366,-3.297309637069702,12.964313507080078
1748142882411835100,1.034835205078125,-1.999801516532898,-4.067798614501953,12.747762680053711
1748142882430100000,1.053099853515625,-1.9824535846710205,-5.322235584259033,12.09033489227295
1748142882448364500,1.071364501953125,-0.6209374666213989,-6.098108291625977,11.809178352355957
1748142882466627000,1.089626953125,-0.7190431952476501,-5.836692810058594,12.139387130737305
1748142882484894500,1.10789453125,-2.569293260574341,-6.002993583679199,13.281960487365723
1748142882503154700,1.12615478515625,-3.184846878051758,-7.0025954246521,13.042677879333496
1748142882521422600,1.144422607421875,-2.6470601558685303,-10.344770431518555,11.974881172180176
1748142882539686400,1.162686279296875,-2.568695068359375,-18.010177612304688,6.162116527557373
1748142882557950000,1.180949951171875,1.1359925270080566,-22.75335121154785,-1.495514154434204
1748142882576212200,1.199212158203125,5.0087761878967285,-10.545767784118652,6.184848308563232
1748142882594480400,1.21748046875,1.882553219795227,-5.531009674072266,11.7326078414917
1748142882612743700,1.23574365234375,-0.7399803996086121,-4.913063049316406,15.555740356445312
1748142882631013000,1.25401318359375,2.421536445617676,-3.806980848312378,16.100706100463867
1748142882649268700,1.272268798828125,5.812166213989258,-5.360520839691162,9.744172096252441
1748142882667538000,1.290537841796875,5.79063081741333,-5.973681926727295,8.031509399414062
1748142882685799700,1.308799560546875,3.6610186100006104,-3.9595232009887695,6.465406894683838
1748142882704053500,1.327053466796875,1.7718851566314697,-2.5076780319213867,4.749752998352051
1748142882722331100,1.3453310546875,0.10767702013254166,-1.4111671447753906,5.773283004760742
1748142882740595200,1.36359521484375,-0.22612173855304718,-0.7830511927604675,4.813760757446289
1748142882758860000,1.381860107421875,1.0965110063552856,-2.548356056213379,2.077568292617798
1748142882777124400,1.400124267578125,0.16271193325519562,-5.43290376663208,-0.19621145725250244
1748142882795376600,1.418376708984375,0.4366901218891144,-5.429314613342285,0.6113662123680115
1748142882822777000,1.445777099609375,0.35892340540885925,-1.0414760112762451,6.314060688018799
1748142882841044200,1.464044189453125,-1.1910275220870972,-0.13100704550743103,7.328019142150879
1748142882859314700,1.482314697265625,-0.06281159073114395,0.4103690981864929,8.937790870666504
1748142882877577500,1.500577392578125,1.9316060543060303,-1.2424731254577637,9.18006420135498
1748142882895847200,1.51884716796875,0.8380861282348633,-2.7667012214660645,9.696913719177246
1748142882914111200,1.537111328125,1.1419745683670044,-1.3627125024795532,8.69372272491455
1748142882932373200,1.555373291015625,0.9122636318206787,-0.6999006271362305,11.148758888244629
1748142882950620200,1.5736201171875,0.7549355626106262,-0.6227321028709412,12.947563171386719
1748142882968902400,1.59190234375,1.290927767753601,-1.4889339208602905,14.882160186767578
1748142882987161000,1.6101611328125,1.4261223077774048,-3.394218921661377,14.67817211151123
1748142883005425700,1.62842578125,-0.727418065071106,-4.638486862182617,14.4801664352417
1748142883023694000,1.646694091796875,-4.315455436706543,-5.139184951782227,14.1858491897583
1748142883041955600,1.66495556640625,-2.0135602951049805,-5.602794170379639,11.496914863586426
1748142883060225000,1.68322509765625,0.22432711720466614,-2.2271196842193604,9.588638305664062
1748142883078488600,1.701488525390625,-0.1818545162677765,0.35892340540885925,9.268000602722168
1748142883096751900,1.719751953125,-1.1982059478759766,1.470389485359192,9.434301376342773
1748142883115018800,1.738018798828125,-1.41834557056427,-0.3529413342475891,8.408976554870605
1748142883133279200,1.756279296875,1.0247262716293335,-2.313859462738037,5.464010715484619
1748142883151546400,1.77454638671875,0.3242274820804596,-4.587040901184082,2.1098713874816895
1748142883169809200,1.79280908203125,0.6903293132781982,-5.206183910369873,2.414358139038086
1748142883188075300,1.8110751953125,-2.3958137035369873,-2.3946173191070557,0.8656035661697388
1748142883206338600,1.829338623046875,-6.011368751525879,-3.0137600898742676,1.2843475341796875
1748142883224603000,1.847602783203125,-6.720242500305176,-13.72762393951416,0.2231307178735733
1748142883242868500,1.865868408203125,-4.308277130126953,-31.02234649658203,-2.341377019882202
1748142883261132000,1.884132080078125,-1.2215359210968018,-27.004798889160156,5.405386447906494
1748142883279397400,1.9023974609375,1.846660852432251,-12.035898208618164,7.801798343658447
1748142883297662000,1.920661865234375,2.819941520690918,-4.6271209716796875,3.510270833969116
1748142883315925000,1.938925048828125,1.973480463027954,-2.9288148880004883,0.24825534224510193
1748142883334186000,1.95718603515625,1.2795618772506714,-2.8791637420654297,-2.242074728012085
1748142883352454100,1.9754541015625,0.8488538265228271,-3.466601848602295,-3.5431721210479736
1748142883370718000,1.993718017578125,-0.4821537733078003,-4.442873477935791,-1.786242127418518
1748142883388984000,2.011984130859375,0.2626122832298279,-5.271986484527588,-0.5599204897880554
1748142883407248600,2.03024853515625,-0.8075776696205139,-6.919445037841797,1.812563180923462
1748142883425508000,2.048508056640625,-9.962516784667969,-9.399007797241211,0.5234299302101135
1748142883443772700,2.066772705078125,-16.643877029418945,-12.256037712097168,-1.6564314365386963
1748142883462040800,2.085040771484375,-25.214967727661133,-17.984455108642578,4.633700847625732
1748142883480306400,2.103306396484375,-16.895721435546875,-18.55693817138672,2.9694929122924805
1748142883498569500,2.121569580078125,-4.386044025421143,-10.74556827545166,1.0971091985702515
1748142883516835300,2.13983544921875,-1.5547364950180054,-4.12343168258667,0.2590230405330658
1748142883535098400,2.158098388671875,0.5958128571510315,-3.610769271850586,0.39840495586395264
1748142883553364000,2.176364013671875,3.6783666610717773,-8.275577545166016,1.3609179258346558
1748142883571625700,2.194625732421875,6.041278839111328,-16.409379959106445,2.8456642627716064
1748142883589894100,2.21289404296875,5.469992637634277,-25.137798309326172,1.973480463027954
1748142883608159200,2.2311591796875,2.454437732696533,-23.04527473449707,-2.550748825073242
1748142883626422000,2.249422119140625,1.2047861814498901,-11.23789119720459,0.20937198400497437
1748142883644689700,2.267689697265625,0.7932206988334656,-5.2354960441589355,1.5960127115249634
1748142883662951000,2.285950927734375,0.9056833982467651,-2.077568292617798,1.389631748199463
1748142883681209900,2.3042099609375,0.7489534616470337,-0.5802595019340515,1.2729816436767578
1748142883699474700,2.322474609375,1.0037890672683716,-2.148754835128784,2.6285157203674316
1748142883717741600,2.340741455078125,1.0821540355682373,-6.865008354187012,4.969892501831055
1748142883736009700,2.359009765625,0.6586244106292725,-11.84028434753418,7.771289825439453
1748142883754271500,2.377271484375,-0.714257538318634,-14.930615425109863,7.611568927764893
1748142883772537600,2.39553759765625,-3.3649067878723145,-11.551949501037598,3.8153557777404785
1748142883790799400,2.41379931640625,-3.9278182983398438,-8.813364028930664,3.4857444763183594
1748142883809067300,2.4320673828125,-1.6426727771759033,-7.527820110321045,2.7218358516693115
1748142883827329300,2.450329345703125,0.9780662655830383,-7.606184959411621,2.8552355766296387
1748142883845591800,2.468591796875,1.5134602785110474,-8.882157325744629,3.2297122478485107
1748142883863853300,2.486853271484375,0.9696913957595825,-8.73200798034668,3.2027931213378906
1748142883882123000,2.505123046875,0.7148557901382446,-7.956733703613281,3.170490026473999
1748142883900388400,2.523388427734375,0.607776939868927,-7.4949188232421875,3.5204403400421143
1748142883918655000,2.541655029296875,0.47916272282600403,-7.679764270782471,3.888935089111328
1748142883936915000,2.5599150390625,0.4995017349720001,-8.828917503356934,4.217350006103516
1748142883955177200,2.57817724609375,-0.5467599630355835,-9.855438232421875,3.6634113788604736
1748142883973444000,2.596444091796875,-2.688336133956909,-10.187442779541016,3.0795626640319824
1748142883991712300,2.614712158203125,-5.029713153839111,-8.95513916015625,4.109673023223877
1748142884009974000,2.63297412109375,-2.6865415573120117,-9.198010444641113,6.060421466827393
1748142884028240000,2.651239990234375,0.5240281820297241,-9.373882293701172,7.339385032653809
1748142884046503200,2.669503173828125,1.1599208116531372,-8.854640007019043,6.722036838531494
1748142884064768500,2.6877685546875,-0.14117653667926788,-8.559724807739258,5.395814895629883
1748142884083032000,2.706031982421875,-2.239083766937256,-10.4219388961792,3.7429728507995605
1748142884101297400,2.72429736328125,-5.337191104888916,-13.827524185180664,3.4815568923950195
1748142884119560700,2.742560791015625,-4.931009292602539,-15.486348152160645,6.1950178146362305
1748142884137826300,2.760826416015625,-3.0239295959472656,-12.43549919128418,7.83111047744751
1748142884156089900,2.77908984375,0.07657032459974289,-10.380064964294434,5.578866004943848
1748142884174355500,2.79735546875,0.5557330846786499,-10.045069694519043,5.7409796714782715
1748142884192617700,2.81561767578125,-1.3046865463256836,-11.660822868347168,5.011168956756592
1748142884210879700,2.833879638671875,0.18364913761615753,-14.609378814697266,3.70767879486084
1748142884229148200,2.852148193359375,2.1924238204956055,-14.667404174804688,1.445863127708435
1748142884247414500,2.87041455078125,1.3202399015426636,-13.28554916381836,1.7461622953414917
1748142884265672000,2.888671875,0.6185446381568909,-10.816754341125488,1.7509479522705078
1748142884283942000,2.90694189453125,-0.42711883783340454,-8.664410591125488,1.9286150932312012
1748142884302201000,2.925201171875,-1.7437695264816284,-6.966104984283447,3.4785659313201904
1748142884320471000,2.943470947265625,-1.0301101207733154,-6.498308181762695,5.481956481933594
1748142884338734600,2.961734619140625,1.4051851034164429,-6.557530403137207,5.758327484130859
1748142884357000000,2.98,-1.2233306169509888,-6.198009014129639,6.119045734405518
1748142884375263500,2.998263427734375,-3.0281169414520264,-6.612565517425537,4.735395908355713
1748142884393526300,3.0165263671875,-0.9954141974449158,-7.564310550689697,2.218146562576294
1748142884411794700,3.034794677734375,0.2913261651992798,-7.4709906578063965,1.0582258701324463
1748142884430055200,3.05305517578125,0.3798605799674988,-6.673582553863525,0.8009973764419556
1748142884448323600,3.071323486328125,0.5252245664596558,-6.532405853271484,-0.4666004180908203
1748142884466581500,3.08958154296875,-0.24287149310112,-4.818546772003174,-0.893121063709259
1748142884484849400,3.107849365234375,0.016749758273363113,-4.9393839836120605,-1.9746768474578857
1748142884503116800,3.12611669921875,0.380458801984787,-4.442275047302246,-2.2474586963653564
1748142884521379000,3.144379150390625,0.4630111753940582,-4.799404144287109,-2.9413771629333496
1748142884539643400,3.162643310546875,-1.2819547653198242,-5.171487808227539,-3.5264222621917725
1748142884557909000,3.180908935546875,-5.20379114151001,-5.033302307128906,-2.8002007007598877
1748142884576169000,3.1991689453125,-10.208977699279785,-6.005984783172607,-0.23688943684101105
1748142884594436900,3.217436767578125,-11.135598182678223,-12.588640213012695,4.1419758796691895
1748142884612702700,3.23570263671875,-17.147565841674805,-21.60000991821289,13.673785209655762
1748142884630964700,3.25396484375,-16.67737579345703,-22.55295181274414,12.399606704711914
1748142884649242400,3.272242431640625,-7.273582458496094,-14.630913734436035,3.5611183643341064
1748142884667495200,3.2904951171875,-1.7359927892684937,-9.20997428894043,0.7734799385070801
1748142884685756700,3.308756591796875,5.231308460235596,-12.155538558959961,-1.317248821258545
1748142884704023600,3.3270234375,7.290332317352295,-14.345569610595703,-1.1186445951461792
1748142884722283500,3.345283447265625,3.4737801551818848,-13.39143180847168,0.2919243574142456
1748142884740551400,3.363551513671875,0.8727820515632629,-9.830313682556152,0.7668996453285217
1748142884758819000,3.381819091796875,0.7082754969596863,-6.461817741394043,0.15493527054786682
1748142884777081300,3.400081298828125,0.9314061999320984,-4.467400074005127,0.33918261528015137
1748142884795351300,3.418351318359375,0.9050851464271545,-3.298506021499634,1.225723385810852
1748142884813604400,3.436604248046875,0.8757730722427368,-3.126222848892212,2.7182464599609375
1748142884831876900,3.454876953125,0.9469595551490784,-4.570291042327881,4.681557655334473
1748142884850139100,3.47313916015625,1.0636097192764282,-7.53858757019043,6.327221393585205
1748142884868404500,3.491404541015625,0.9960124492645264,-11.795419692993164,5.139782905578613
1748142884886668500,3.50966845703125,1.9621145725250244,-15.75434398651123,0.9667003750801086
1748142884904934000,3.527933837890625,1.3459627628326416,-14.035699844360352,1.7066807746887207
1748142884923192300,3.5461923828125,-0.05922235921025276,-10.518250465393066,3.2069804668426514
1748142884941462300,3.564462158203125,-3.3469607830047607,-8.402995109558105,2.246262311935425
1748142884959726000,3.58272607421875,-4.526023864746094,-8.431110382080078,2.4400808811187744
1748142884977991400,3.600991455078125,-1.6552350521087646,-8.605786323547363,3.390031576156616
1748142884996255200,3.619255126953125,0.27816563844680786,-9.117850303649902,4.016352653503418
1748142885014520800,3.637520751953125,0.32602208852767944,-9.873982429504395,3.503690481185913
1748142885032784000,3.655783935546875,0.3188436031341553,-9.213563919067383,3.4755749702453613
1748142885051048700,3.674048583984375,0.9840483069419861,-9.09392261505127,2.0303099155426025
1748142885069309000,3.692308837890625,0.7022934556007385,-7.258627414703369,2.7601208686828613
1748142885087579000,3.710578857421875,0.4815555512905121,-8.059624671936035,3.549154281616211
1748142885105842000,3.728842041015625,0.10408778488636017,-8.812766075134277,4.596014022827148
1748142885124107500,3.747107421875,-1.714457392692566,-9.588040351867676,4.1491546630859375
1748142885142370800,3.765370849609375,-2.2534406185150146,-10.49791145324707,3.924229145050049
1748142885160635400,3.783635498046875,-0.4941178858280182,-10.505687713623047,4.920241355895996
1748142885178900700,3.801900634765625,-0.6616154313087463,-10.41476058959961,4.4374895095825195
1748142885197161500,3.820161376953125,-0.9260223507881165,-10.081560134887695,3.3720853328704834
1748142885215424000,3.838424072265625,-0.4893322288990021,-10.872387886047363,3.6233317852020264
1748142885233694200,3.856694091796875,-1.0959128141403198,-11.808579444885254,6.674778938293457
1748142885251956500,3.87495654296875,-2.678765058517456,-14.745171546936035,8.328817367553711
1748142885270226200,3.89322607421875,-2.2408783435821533,-15.612569808959961,7.265207767486572
1748142885288486700,3.911486572265625,-0.3936193287372589,-10.999805450439453,5.779862880706787
1748142885306752300,3.929752197265625,-1.4536397457122803,-7.798209190368652,4.3998026847839355
1748142885325011000,3.948010986328125,-1.8610178232192993,-8.675776481628418,3.2518460750579834
1748142885343279900,3.96627978515625,-0.5850451588630676,-9.807581901550293,3.620340585708618
1748142885361546000,3.9845458984375,0.6221339106559753,-10.87298583984375,3.2243285179138184
1748142885379810000,4.00281005859375,0.8668000102043152,-13.61635684967041,0.5461617708206177
1748142885398073600,4.021073486328125,1.0995019674301147,-13.180265426635742,1.1252248287200928
1748142885416339000,4.0393388671875,-0.5994020700454712,-11.2247314453125,0.32303106784820557
1748142885434601500,4.0576015625,-1.7437695264816284,-8.307282447814941,0.05742774158716202
1748142885452869000,4.075869140625,-1.5822539329528809,-6.383452415466309,2.2259232997894287
1748142885471131000,4.094130859375,-0.01136590726673603,-6.014957904815674,3.5910286903381348
1748142885489397000,4.11239697265625,-0.14057832956314087,-6.351149559020996,4.088137626647949
1748142885507660500,4.13066064453125,-2.4771697521209717,-7.532007694244385,5.1774702072143555
1748142885525925600,4.148925537109375,-3.580260992050171,-8.785846710205078,5.020142078399658
1748142885544182000,4.16718212890625,-1.4171491861343384,-8.649456024169922,3.150151014328003
1748142885562457300,4.185457275390625,0.3314059376716614,-7.513463020324707,1.9286150932312012
1748142885580713500,4.20371337890625,0.36251261830329895,-6.0987067222595215,0.7256234884262085
1748142885598982400,4.221982421875,0.049651071429252625,-4.9292144775390625,-0.20997019112110138
1748142885617248300,4.240248291015625,0.0729810893535614,-4.521238327026367,-1.165902853012085
1748142885635508500,4.258508544921875,-0.16151553392410278,-4.524827480316162,-1.3471591472625732
1748142885653776100,4.276776123046875,-0.8291130661964417,-4.545166492462158,-1.0875378847122192
1748142885672041500,4.29504150390625,-1.7270197868347168,-4.697709083557129,-0.8081758618354797
1748142885690304800,4.3133046875,-2.6668007373809814,-5.889933109283447,-0.5593222975730896
1748142885708571000,4.33157080078125,-4.882554531097412,-8.173283576965332,0.7627122402191162
1748142885726834000,4.349833984375,-7.727022647857666,-12.019746780395508,5.239683151245117
1748142885745099800,4.368099853515625,-16.63430404663086,-17.702102661132812,14.338391304016113
1748142885763362600,4.386362548828125,-14.181661605834961,-19.323238372802734,16.315462112426758
1748142885781627400,4.40462744140625,-11.94197940826416,-14.466407775878906,12.749557495117188
1748142885799887400,4.422887451171875,-9.239884376525879,-10.125228881835938,8.076972961425781
1748142885818161200,4.4411611328125,-0.4815555512905121,-9.906285285949707,6.963113784790039
1748142885836416000,4.459416015625,8.625527381896973,-13.547563552856445,2.5573291778564453
1748142885854685400,4.477685546875,7.148557662963867,-14.58186149597168,-0.04307080805301666
1748142885872950800,4.49595068359375,4.548755645751953,-10.660024642944336,0.22193430364131927
1748142885891211800,4.514211669921875,2.338984251022339,-6.6831536293029785,-0.2602194547653198
1748142885909478400,4.532478515625,1.8448662757873535,-4.2209391593933105,-1.2023934125900269
1748142885927744300,4.550744140625,1.5296118259429932,-3.0317063331604004,-1.4009976387023926
1748142885946007600,4.569007568359375,0.9415757060050964,-4.030709743499756,-0.11964113265275955
1748142885964258300,4.58725830078125,0.5718846321105957,-8.089534759521484,1.6546368598937988
1748142885982539300,4.605539306640625,0.7441678643226624,-12.260823249816895,2.7433712482452393
1748142886000801300,4.62380126953125,-1.4165509939193726,-13.660624504089355,3.765106439590454
1748142886019066000,4.642066162109375,-4.738985061645508,-10.76112174987793,4.972285270690918
1748142886037331200,4.660331298828125,-4.134199142456055,-8.046463966369629,5.768496990203857
1748142886055594500,4.678594482421875,-0.9834501147270203,-7.448856830596924,4.762913703918457
1748142886073860000,4.696860107421875,1.552343726158142,-7.82273530960083,3.881756544113159
1748142886092124000,4.7151240234375,2.0201404094696045,-8.123632431030273,4.2006001472473145
1748142886110388000,4.733387939453125,1.1240284442901611,-8.0291166305542,4.738387107849121
1748142886128655400,4.7516552734375,-0.33080771565437317,-7.832306861877441,4.794618606567383
1748142886146916900,4.769916748046875,-2.001596212387085,-7.833503246307373,4.831707000732422
1748142886165176600,4.788176513671875,-1.667797327041626,-8.063214302062988,5.002793788909912
1748142886183442400,4.8064423828125,-0.3236292600631714,-8.326424598693848,4.784449100494385
1748142886201710300,4.82471044921875,0.44745782017707825,-8.62014389038086,4.299304008483887
1748142886219976000,4.842975830078125,0.5264210104942322,-8.782257080078125,3.528815269470215
1748142886238239500,4.861239501953125,-0.7800601720809937,-9.094520568847656,2.9138598442077637
1748142886256505000,4.879505126953125,-3.7088751792907715,-8.572287559509277,3.098107099533081
1748142886274768600,4.8977685546875,-4.424927234649658,-7.826324462890625,5.664409637451172
1748142886293034200,4.9160341796875,-1.2897313833236694,-8.61475944519043,8.033304214477539
1748142886311297300,4.93429736328125,0.6041877269744873,-8.994022369384766,8.24387264251709
1748142886329563000,4.95256298828125,0.026919255033135414,-8.041678428649902,6.945765972137451
1748142886347826400,4.970826416015625,-1.784447431564331,-9.477372169494629,6.464210510253906
1748142886366090500,4.989090576171875,-4.575077056884766,-12.922438621520996,6.915257453918457
1748142886384356900,5.00735693359375,-4.584648132324219,-14.741581916809082,7.8454670906066895
1748142886402620000,5.025619873046875,-2.063211441040039,-13.908281326293945,7.066005229949951
1748142886420884700,5.043884765625,-1.643869161605835,-12.623933792114258,4.790431022644043
1748142886439151000,5.062151123046875,-2.5220351219177246,-12.378071784973145,2.6596224308013916
1748142886457413400,5.080413330078125,-3.0903303623199463,-14.252249717712402,1.6683956384658813
1748142886475679000,5.098678955078125,0.08075776696205139,-15.503097534179688,0.38285163044929504
1748142886493942500,5.116942626953125,1.2406785488128662,-15.014962196350098,-0.48035913705825806
1748142886512204000,5.1352041015625,0.5862415432929993,-13.240684509277344,-1.41834557056427
1748142886530471400,5.153471435546875,0.5216353535652161,-9.177671432495117,0.5581258535385132
1748142886548737000,5.171737060546875,1.7138592004776,-5.880959987640381,2.4299113750457764
1748142886567000000,5.19,2.9964120388031006,-4.252045631408691,4.76829719543457
1748142886585266000,5.208265869140625,1.2693923711776733,-3.6113674640655518,5.9545392990112305
1748142886603529200,5.226529296875,-2.0267207622528076,-4.074378967285156,7.888537883758545
1748142886621792500,5.24479248046875,-5.318048477172852,-4.024727821350098,10.61695384979248
1748142886640061000,5.26306103515625,-2.9150562286376953,-5.233701229095459,9.500103950500488
1748142886658323700,5.28132373046875,-0.5730810165405273,-7.6600236892700195,5.091926574707031
1748142886676588000,5.299588134765625,-0.09870393574237823,-8.647063255310059,1.6504493951797485
1748142886694847000,5.317846923828125,0.1902294009923935,-8.240283012390137,0.129810631275177
1748142886713115100,5.336115234375,0.39481574296951294,-6.735795974731445,-0.605384111404419
1748142886731382800,5.3543828125,0.2111666053533554,-5.44845724105835,-1.4781662225723267
1748142886749644300,5.372644287109375,0.3128615617752075,-4.788636207580566,-1.9459630250930786
1748142886767912000,5.390911865234375,-0.5084748268127441,-4.666004180908203,-2.341377019882202
1748142886786169600,5.409169677734375,-1.5840486288070679,-4.6372904777526855,-2.8552355766296387
1748142886804439800,5.427439697265625,-2.7397818565368652,-5.696114540100098,-3.3996028900146484
1748142886822703000,5.445703125,-4.35254430770874,-8.073383331298828,-2.988037347793579
1748142886840967400,5.463967529296875,-7.042675018310547,-10.73838996887207,0.07477571070194244
1748142886859231700,5.482231689453125,-12.817154884338379,-15.480964660644531,8.3359956741333
1748142886877485600,5.500485595703125,-19.304096221923828,-21.192033767700195,21.08794593811035
1748142886895761000,5.518760986328125,-9.770493507385254,-16.987844467163086,16.414762496948242
1748142886914026200,5.537026123046875,-8.648857116699219,-8.635098457336426,10.909476280212402
1748142886932290000,5.5552900390625,1.0612168312072754,-8.847461700439453,11.098509788513184
1748142886950550500,5.573550537109375,5.989833354949951,-15.210575103759766,5.133800983428955
1748142886968822300,5.591822265625,5.6925249099731445,-16.701902389526367,3.2237303256988525
1748142886987085600,5.61008544921875,3.723830223083496,-11.975479125976562,2.4981069564819336
1748142887005350700,5.6283505859375,2.8869404792785645,-6.638886451721191,-0.763310432434082
1748142887023612200,5.646612060546875,1.6133606433868408,-4.604389190673828,-1.5708880424499512
1748142887041878300,5.664878173828125,1.5080764293670654,-3.1651060581207275,-2.1475582122802734
1748142887060142800,5.683142822265625,1.2975081205368042,-3.425325632095337,-1.9226330518722534
1748142887078406100,5.70140625,1.0217353105545044,-6.833901405334473,0.053240302950143814
1748142887096671500,5.71967138671875,0.8225327730178833,-11.268998146057129,1.8789639472961426
1748142887114934800,5.737934814453125,0.11126625537872314,-14.951552391052246,2.0572292804718018
1748142887133195800,5.75619580078125,-0.7668996453285217,-12.486945152282715,2.1343977451324463
1748142887151464000,5.7744638671875,-2.7667012214660645,-8.638090133666992,3.6747772693634033
1748142887169729300,5.792729248046875,-2.9557342529296875,-6.285346984863281,4.5822553634643555
1748142887187992800,5.810992919921875,-0.42293140292167664,-6.3499531745910645,3.840480327606201
1748142887206254000,5.829254150390625,1.293320655822754,-7.217949390411377,4.222733974456787
1748142887224520700,5.847520751953125,1.9752750396728516,-7.795815944671631,4.7796630859375
1748142887242788900,5.865788818359375,2.032702922821045,-8.042875289916992,5.31984281539917
1748142887261051100,5.884051025390625,0.9487541913986206,-7.704290866851807,6.466004848480225
1748142887279316700,5.902316650390625,-0.8057830333709717,-7.178467750549316,6.656832695007324
1748142887297580300,5.920580322265625,-1.059422254562378,-6.750152587890625,5.749354839324951
1748142887315845400,5.938845458984375,0.17168502509593964,-7.739584922790527,5.0949177742004395
1748142887334109000,5.95710888671875,0.39182472229003906,-9.399007797241211,4.1593241691589355
1748142887352374500,5.97537451171875,-0.4468596279621124,-10.725229263305664,3.102294445037842
1748142887370636800,5.99363671875,-2.5250260829925537,-11.338390350341797,1.719243049621582
1748142887388904400,6.011904541015625,-4.250251293182373,-10.698309898376465,1.7377874851226807
1748142887407162600,6.03016259765625,-1.1407781839370728,-9.69511890411377,4.540380954742432
1748142887425427700,6.048427734375,1.3405789136886597,-9.187840461730957,7.156334400177002
1748142887443695900,6.06669580078125,1.557727575302124,-8.557332038879395,7.094718933105469
1748142887461961500,6.08496142578125,0.9768698215484619,-7.808976650238037,6.565905570983887
1748142887480224300,6.103224365234375,-2.077568292617798,-10.478170394897461,7.22871732711792
1748142887498491600,6.12149169921875,-7.369893550872803,-13.939388275146484,7.689933776855469
1748142887516754000,6.13975390625,-4.444668292999268,-13.682159423828125,8.69791030883789
1748142887535019500,6.15801953125,0.26141586899757385,-11.871391296386719,7.350750923156738
1748142887553278200,6.1762783203125,0.641276478767395,-10.810174942016602,4.984249591827393
1748142887571548200,6.194548095703125,-0.5533402562141418,-11.233105659484863,3.3792638778686523
1748142887589811700,6.212811767578125,-1.215553879737854,-12.399008750915527,2.035095691680908
1748142887608077600,6.23107763671875,-0.13998012244701385,-14.152349472045898,1.5230315923690796
1748142887626340900,6.2493408203125,-0.1417747437953949,-14.989239692687988,0.21176479756832123
1748142887644605400,6.26760546875,-0.9355936646461487,-14.44905948638916,-1.0773683786392212
1748142887662870800,6.285870849609375,-0.8584251403808594,-10.929217338562012,-0.7280163168907166
1748142887681135600,6.304135498046875,0.1543370634317398,-7.246663570404053,1.4273186922073364
1748142887699398100,6.322398193359375,1.2747762203216553,-5.170889854431152,3.173480987548828
1748142887717665300,6.340665283203125,1.7407784461975098,-4.935196876525879,3.9523448944091797
1748142887735926800,6.3589267578125,0.11126625537872314,-5.9814581871032715,4.905884742736816
1748142887754190600,6.377190673828125,-3.651447296142578,-5.91924524307251,8.161917686462402
1748142887772457000,6.39545703125,-5.093721389770508,-5.513063430786133,9.232108116149902
1748142887790722300,6.413722412109375,-1.8735800981521606,-6.474977970123291,6.043073654174805
1748142887808985900,6.43198583984375,0.029910283163189888,-7.183851718902588,2.9389843940734863
1748142887827251500,6.45025146484375,0.2602194547653198,-6.938587665557861,1.1497513055801392
1748142887845529600,6.468529541015625,0.06520441919565201,-6.197410583496094,0.43908295035362244
1748142887863762400,6.486762451171875,-0.13459627330303192,-5.517251014709473,-0.511465847492218
1748142887882046700,6.505046630859375,-0.0011964113218709826,-4.9531426429748535,-1.3812568187713623
1748142887900309500,6.5233095703125,-0.41575294733047485,-4.343571186065674,-2.0207388401031494
1748142887918572500,6.541572509765625,-1.4015958309173584,-3.493520975112915,-2.3712873458862305
1748142887936838700,6.559838623046875,-3.248854875564575,-3.5844483375549316,-2.242672920227051
1748142887955088000,6.578087890625,-4.78803825378418,-6.250650882720947,-0.6173482537269592
1748142887973367600,6.596367431640625,-4.893322467803955,-10.99860954284668,2.8342983722686768
1748142887991629600,6.614629638671875,-7.360920429229736,-16.7318115234375,10.015159606933594
1748142888009897700,6.632897705078125,-24.108285903930664,-20.30010986328125,21.037097930908203
1748142888028164600,6.65116455078125,-12.5413818359375,-12.134601593017578,15.547365188598633
1748142888046425600,6.669425537109375,-4.786243438720703,-4.872385025024414,10.892128944396973
1748142888064677000,6.687677001953125,0.2183450609445572,-4.000201225280762,6.333801746368408
1748142888082953200,6.705953125,5.768496990203857,-10.255638122558594,4.299304008483887
1748142888101227000,6.72422705078125,6.329614162445068,-16.652250289916992,3.9254255294799805
1748142888119483400,6.7424833984375,3.6568312644958496,-19.375282287597656,4.59721040725708
1748142888137747000,6.760746826171875,3.0209386348724365,-14.052449226379395,3.448655605316162
1748142888156012500,6.779012451171875,-1.2849457263946533,-10.576275825500488,-1.6929219961166382
1748142888174275600,6.797275634765625,-5.470590591430664,-6.52462911605835,-3.920639991760254
1748142888192541700,6.815541748046875,-1.3381860256195068,-5.113461971282959,-3.0000014305114746
1748142888210803500,6.833803466796875,1.2221341133117676,-5.262415409088135,-0.34695929288864136
1748142888229071600,6.852071533203125,1.8604196310043335,-6.865606307983398,1.3860424757003784
1748142888247334100,6.870334228515625,2.7278177738189697,-10.517053604125977,2.899502754211426
1748142888265598200,6.88859814453125,2.490330219268799,-12.582657814025879,2.892324447631836
1748142888283863800,6.90686376953125,0.6418746709823608,-11.528619766235352,2.65423846244812
1748142888302128400,6.92512841796875,-1.9004993438720703,-8.908478736877441,3.2135608196258545
1748142888320387000,6.943386962890625,-3.8488552570343018,-7.4506516456604,2.602792739868164
1748142888338656300,6.96165625,-1.2143574953079224,-6.674778938293457,2.8564319610595703
1748142888356922000,6.979922119140625,1.3052847385406494,-7.1850481033325195,3.3092737197875977
1748142888375182000,6.99818212890625,1.551147222518921,-8.325826644897461,4.081557273864746
1748142888393450000,7.016449951171875,0.8578268885612488,-9.10110092163086,4.976472854614258
1748142888411715600,7.034715576171875,0.5730810165405273,-8.71047306060791,5.078167915344238
1748142888429979100,7.052979248046875,0.2147558331489563,-7.805985450744629,5.328815937042236
1748142888448244700,7.07124462890625,-0.15074782073497772,-7.314858913421631,5.311468124389648
1748142888466507800,7.0895078125,-0.061016976833343506,-7.192226886749268,4.780261516571045
1748142888484774000,7.10777392578125,-0.7004988193511963,-7.878368377685547,4.044468402862549
1748142888503038500,7.12603857421875,-2.695514678955078,-8.790632247924805,3.9086756706237793
1748142888521301000,7.144301025390625,-3.335594654083252,-8.914461135864258,5.741578102111816
1748142888539566000,7.162566162109375,-1.1593226194381714,-9.033503532409668,7.439285755157471
1748142888557831700,7.180831787109375,0.17108681797981262,-9.419944763183594,7.4979095458984375
1748142888576090400,7.19909033203125,0.7746763229370117,-9.053244590759277,5.837889194488525
1748142888594357800,7.217357666015625,0.6705885529518127,-9.45164966583252,4.938187599182129
1748142888612626000,7.2356259765625,-2.6733810901641846,-10.914261817932129,2.6572296619415283
1748142888630890200,7.25389013671875,-7.308278560638428,-12.769896507263184,0.17288143932819366
1748142888649154600,7.272154541015625,-5.051248550415039,-13.677373886108398,3.074777126312256
1748142888667418600,7.290418701171875,0.11425728350877762,-13.229318618774414,7.942376613616943
1748142888685682200,7.30868212890625,1.1012966632843018,-11.955140113830566,9.386445045471191
1748142888703948800,7.32694873046875,0.2476571500301361,-10.118050575256348,8.606385231018066
1748142888722205700,7.345205810546875,-1.6342978477478027,-9.601201057434082,7.392027378082275
1748142888740474400,7.363474365234375,-1.9184455871582031,-12.128620147705078,4.9878387451171875
1748142888758742500,7.381742431640625,0.09212367236614227,-14.304891586303711,2.957528829574585
1748142888777003000,7.4000029296875,1.8783657550811768,-15.63948917388916,1.674377679824829
1748142888795271700,7.418271728515625,0.7076773047447205,-17.11227035522461,-0.21415762603282928
1748142888813534700,7.43653466796875,-0.2189432680606842,-13.896915435791016,-1.7377874851226807
1748142888831798000,7.454798095703125,0.10408778488636017,-8.164310455322266,-0.06640082597732544
1748142888850062600,7.4730625,0.7334001660346985,-5.321039199829102,0.8500502705574036
1748142888868328200,7.491328125,1.5547364950180054,-4.198207378387451,2.8965117931365967
1748142888886593800,7.50959375,0.5204389095306396,-4.525425910949707,4.012763500213623
1748142888904855300,7.527855224609375,-3.145963668823242,-5.727818965911865,5.870192050933838
1748142888923122000,7.546121826171875,-4.934598445892334,-6.6831536293029785,7.967501163482666
1748142888941385200,7.56438525390625,-0.9343972206115723,-7.628318786621094,7.541578769683838
1748142888959649800,7.58264990234375,0.589830756187439,-7.88913631439209,4.5816569328308105
1748142888977915100,7.6009150390625,-0.16510476171970367,-6.138188362121582,1.7641085386276245
1748142888996165400,7.619165283203125,-0.33798620104789734,-4.503890514373779,0.5282155871391296
1748142889014443300,7.637443359375,-0.2111666053533554,-4.05403995513916,-0.9876375198364258
1748142889032695800,7.65569580078125,-0.028115665540099144,-4.3310089111328125,-1.6480566263198853
1748142889050971100,7.67397119140625,-0.35892340540885925,-4.766502857208252,-1.6576279401779175
1748142889069238300,7.69223828125,-0.8937192559242249,-4.76829719543457,-1.5415760278701782
1748142889087496200,7.71049609375,-1.3142578601837158,-5.0464630126953125,-1.378864049911499
1748142889105765400,7.728765380859375,-1.9453648328781128,-6.796214580535889,-0.753140926361084
1748142889124031500,7.747031494140625,-3.714258909225464,-10.116853713989258,1.5080764293670654
1748142889142295800,7.7652958984375,-7.743174076080322,-12.945768356323242,6.017949104309082
1748142889160559400,7.783559326171875,-24.792633056640625,-16.08515167236328,17.471792221069336
1748142889178824700,7.80182470703125,-13.110873222351074,-15.844075202941895,20.866609573364258
1748142889197088300,7.820088134765625,-2.376072883605957,-10.051051139831543,13.074382781982422
1748142889215349800,7.838349853515625,-3.668795347213745,-4.560719966888428,8.62313461303711
1748142889233616400,7.856616455078125,-2.640479803085327,-2.8809585571289062,5.012365341186523
1748142889251884000,7.874884033203125,1.098305583000183,-6.252445697784424,4.989633560180664
1748142889270146300,7.893146240234375,4.453042984008789,-13.269397735595703,6.048457622528076
1748142889288411600,7.91141162109375,4.262813568115234,-19.80000877380371,6.9720869064331055
1748142889306675200,7.92967529296875,3.7956149578094482,-21.875782012939453,3.1106693744659424
1748142889324941000,7.947941162109375,-1.6522440910339355,-13.933405876159668,-1.954936146736145
1748142889343199700,7.96619970703125,-3.2446675300598145,-7.138388156890869,-4.271188259124756
1748142889361470000,7.984469970703125,-0.10767702013254166,-4.645066738128662,-4.178466320037842
1748142889379733500,8.0027333984375,2.139183521270752,-3.78544545173645,-2.4460630416870117
1748142889397999000,8.0209990234375,2.0859432220458984,-4.615755081176758,0.22133609652519226
1748142889416262400,8.039262451171876,1.5314065217971802,-7.80837869644165,3.0592236518859863
1748142889434523100,8.057523193359375,1.3357932567596436,-11.469995498657227,3.183650493621826
1748142889452790300,8.075790283203125,1.76051926612854,-13.035499572753906,1.9657038450241089
1748142889471057700,8.0940576171875,2.331207513809204,-11.532208442687988,2.3060827255249023
1748142889489320400,8.112320556640626,-0.4378865361213684,-8.919246673583984,5.735595703125
1748142889507586300,8.13058642578125,-4.560719966888428,-7.697112083435059,6.482754707336426
1748142889525849300,8.148849365234375,-3.452244758605957,-7.227520942687988,6.126822471618652
1748142889544115000,8.167114990234374,-0.5060819983482361,-7.355536937713623,6.450451850891113
1748142889562378500,8.18537841796875,1.4715858697891235,-7.146164894104004,6.556334018707275
1748142889580643000,8.20364306640625,0.8542376756668091,-7.338188648223877,6.251249313354492
1748142889598900500,8.221900390625,-0.02512463741004467,-7.177271366119385,5.784648895263672
1748142889617168600,8.240168701171875,0.31824541091918945,-6.960721015930176,5.320441246032715
1748142889635432200,8.25843212890625,0.7268198728561401,-7.300501823425293,5.008177757263184
1748142889653702100,8.2767021484375,0.35413774847984314,-8.163114547729492,4.419543266296387
1748142889671965200,8.294965087890626,-0.42352959513664246,-8.824729919433594,3.7507495880126953
1748142889690226400,8.313226318359375,-1.1994023323059082,-9.130413055419922,3.3547372817993164
1748142889708494300,8.331494384765625,-1.648654818534851,-9.460622787475586,3.47019100189209
1748142889726760200,8.34976025390625,-1.638485312461853,-9.77826976776123,4.34955358505249
1748142889745023700,8.368023681640626,-0.9272187948226929,-9.942776679992676,6.337390899658203
1748142889763289300,8.386289306640625,0.17527425289154053,-9.049654960632324,6.771687984466553
1748142889781553000,8.404552978515625,1.6552350521087646,-7.574480056762695,6.454638957977295
1748142889799818000,8.42281787109375,2.0793628692626953,-8.023134231567383,6.768697261810303
1748142889818081800,8.441081787109376,-0.9744769930839539,-10.17009449005127,7.0307111740112305
1748142889836347400,8.459347412109375,-5.4658050537109375,-12.855439186096191,9.500103950500488
1748142889854610000,8.47760986328125,-5.107480049133301,-13.797613143920898,9.33021354675293
1748142889872877000,8.495876953125,-2.5351955890655518,-12.92782211303711,5.720042705535889
1748142889891139600,8.5141396484375,0.11545369029045105,-11.530414581298828,3.965505361557007
1748142889909405200,8.5324052734375,-0.9092726111412048,-11.155937194824219,2.242074728012085
1748142889927668700,8.550668701171874,-0.6287141442298889,-11.361720085144043,2.059023857116699
1748142889964196400,8.5871962890625,3.2685956954956055,-10.063613891601562,2.5884358882904053
1748142889982464500,8.605464599609375,0.2925225794315338,-11.527422904968262,2.3150558471679688
1748142890000726500,8.6237265625,-4.133002758026123,-11.097312927246094,3.387040376663208
1748142890018992400,8.641992431640626,-3.0448668003082275,-10.000204086303711,3.5204403400421143
1748142890037256000,8.660255859375,-1.8335003852844238,-9.117850303649902,3.566502094268799
1748142890055529500,8.678529541015624,-1.5020943880081177,-8.373682975769043,3.1316065788269043
1748142890073784300,8.696784423828126,-0.97926265001297,-8.205587387084961,1.9351953268051147
1748142890092050700,8.71505078125,0.5431707501411438,-8.108677864074707,1.6929219961166382
1748142890110299400,8.73329931640625,1.1730812788009644,-7.175477027893066,1.9226330518722534
1748142890128579600,8.75157958984375,0.8937192559242249,-5.881557941436768,2.843271493911743
1748142890146842400,8.76984228515625,-0.41515472531318665,-5.25762939453125,3.3206396102905273
1748142890165108200,8.788108154296875,-1.2161520719528198,-4.878965377807617,3.088535785675049
1748142890183371800,8.806371826171874,-0.7986045479774475,-4.420739650726318,1.404586911201477
1748142890201636400,8.82463623046875,-0.3643072545528412,-3.473181962966919,0.04187439754605293
1748142890219900400,8.842900390625,-0.592223584651947,-2.8594231605529785,-0.5162515044212341
1748142890238163700,8.861163818359374,-1.6582261323928833,-3.1489546298980713,-0.6532405614852905
1748142890256429600,8.8794296875,-3.4097721576690674,-4.204787731170654,-0.5982056856155396
1748142890274696000,8.897696044921876,-5.5136613845825195,-6.502495765686035,1.674975872039795
1748142890292958700,8.915958740234375,-5.808577060699463,-10.4883394241333,8.145766258239746
1748142890311225600,8.9342255859375,-20.203798294067383,-17.565711975097656,16.441083908081055
1748142890329488000,8.95248779296875,-15.192628860473633,-19.708484649658203,15.647863388061523
1748142890347753700,8.970753662109376,-10.88136100769043,-10.003793716430664,8.085946083068848
1748142890366017000,8.98901708984375,-6.3601226806640625,-6.574280261993408,2.8869404792785645
1748142890384283000,9.007282958984375,-3.0376882553100586,-11.097911834716797,2.562114953994751
1748142890402546200,9.025546142578126,5.855835437774658,-17.305492401123047,4.470989227294922
1748142890420810500,9.043810546875,8.46341323852539,-20.358135223388672,3.9972102642059326
1748142890439076400,9.062076416015625,5.597410202026367,-13.789836883544922,2.4436700344085693
1748142890457336000,9.080336181640625,3.0831520557403564,-7.470392227172852,0.8608179688453674
1748142890475603000,9.09860302734375,2.5740790367126465,-4.0145583152771,-0.2189432680606842
1748142890493871000,9.11687109375,2.2983062267303467,-2.2749760150909424,-0.5742774605751038
1748142890512133400,9.13513330078125,1.4135600328445435,-2.2654049396514893,0.747757077217102
1748142890530399000,9.15339892578125,0.714257538318634,-4.8502516746521,2.0273189544677734
1748142890548662500,9.17166259765625,0.737587571144104,-9.215357780456543,2.958127021789551
1748142890566927600,9.189927734375,1.1132607460021973,-13.345370292663574,3.119044303894043
1748142890585186600,9.2081865234375,2.991028308868408,-14.252847671508789,1.583450436592102
1748142890603456800,9.226456787109376,-2.8002007007598877,-10.713863372802734,3.1555347442626953
1748142890621720300,9.24472021484375,-9.303893089294434,-8.307282447814941,4.48833703994751
1748142890639986000,9.26298583984375,-5.92223596572876,-6.793821811676025,4.7605204582214355
1748142890658249200,9.281249267578126,-1.0271191596984863,-6.982854843139648,5.696114540100098
1748142890676515000,9.29951513671875,0.26919254660606384,-7.696514129638672,5.802595138549805
1748142890694778400,9.3177783203125,-0.2147558331489563,-7.979465484619141,5.726622581481934
1748142890713043700,9.336043701171874,-0.3236292600631714,-7.722835063934326,5.535795211791992
1748142890731306200,9.35430615234375,0.37447673082351685,-7.378866672515869,5.439484119415283
1748142890749574400,9.372574462890626,0.7256234884262085,-7.347760200500488,4.577469825744629
1748142890767836400,9.39083642578125,0.6562315821647644,-7.471588611602783,3.9463627338409424
1748142890786102300,9.409102294921874,0.877567708492279,-8.109275817871094,3.710669755935669
1748142890804360700,9.427360595703124,-0.0568295381963253,-8.836095809936523,3.5204403400421143
1748142890822630000,9.4456298828125,-2.3150558471679688,-9.010771751403809,3.6059837341308594
1748142890840894500,9.46389453125,-3.7369906902313232,-9.274580955505371,4.249652862548828
1748142890859163400,9.482163330078125,-1.4476577043533325,-9.81655502319336,6.109474182128906
1748142890877426000,9.500426025390626,1.3304094076156616,-9.334999084472656,7.165905475616455
1748142890895689200,9.518689208984375,2.1780667304992676,-9.177671432495117,7.881359577178955
1748142890913952800,9.536952880859374,1.0875378847122192,-10.924431800842285,9.870991706848145
1748142890932224500,9.555224609375,-2.922234535217285,-13.094123840332031,11.402398109436035
1748142890950482700,9.573482666015625,-3.8763725757598877,-14.202000617980957,9.719047546386719
1748142890968742400,9.591742431640625,-2.9288148880004883,-15.05863094329834,6.300900459289551
1748142890987009300,9.61000927734375,-1.9411773681640625,-14.443077087402344,1.3639088869094849
1748142891005277200,9.628277099609376,-2.228914260864258,-14.280963897705078,0.6191428303718567
1748142891023540000,9.6465400390625,-1.7288143634796143,-13.927424430847168,-0.3284149169921875
1748142891041805300,9.664805419921874,-0.049651071429252625,-12.567702293395996,-1.0432707071304321
1748142891060071200,9.6830712890625,0.5826523303985596,-10.447661399841309,-1.643869161605835
1748142891078337300,9.701337158203126,0.576670229434967,-7.710870742797852,-0.8033902049064636
1748142891096597000,9.719596923828124,0.5300102233886719,-6.000002861022949,0.6771687865257263
1748142891114864000,9.737864013671874,0.9074779748916626,-5.497509956359863,2.0404794216156006
1748142891133127000,9.756126953125,1.7240287065505981,-6.275177478790283,3.2093734741210938
1748142891151396900,9.77439697265625,1.3567304611206055,-7.351349353790283,3.1555347442626953
1748142891169656000,9.792656005859374,0.20458634197711945,-7.639684677124023,4.745565414428711
1748142891187910400,9.810910400390625,-3.9050865173339844,-7.039684295654297,7.792825222015381
1748142891206180000,9.82918017578125,-6.25723123550415,-7.127620220184326,8.644071578979492
1748142891224450300,9.8474501953125,-3.3858439922332764,-7.612765312194824,6.518647193908691
1748142891242713900,9.8657138671875,-0.6245267391204834,-7.451249599456787,3.2889347076416016
1748142891260977700,9.883977783203125,-0.34576287865638733,-6.361319065093994,0.36311084032058716
1748142891279244000,9.902244140625,-0.2584248483181,-5.003990173339844,-1.017547845840454
1748142891297508400,9.92050830078125,0.08614161610603333,-4.445266246795654,-1.5050854682922363
1748142891315767000,9.93876708984375,-0.43908295035362244,-4.4620161056518555,-1.5134602785110474
1748142891334036000,9.957035888671875,-1.6845471858978271,-4.517649173736572,-1.26699960231781
1748142891352302300,9.97530224609375,-2.870789051055908,-4.288536548614502,-0.6616154313087463
1748142891370566100,9.993566162109374,-3.9314076900482178,-5.023731231689453,0.052043892443180084
1748142891388830000,10.011829833984375,-4.569094657897949,-7.8658061027526855,1.6133606433868408
1748142891407095300,10.03009521484375,-4.35673189163208,-12.410972595214844,5.843871116638184
1748142891425354800,10.048354736328125,-6.860820770263672,-16.866409301757812,11.69731330871582
1748142891443623200,10.066623046875,-21.922443389892578,-20.50649070739746,19.162321090698242
1748142891461889000,10.084888916015625,-16.6719913482666,-13.649258613586426,15.702300071716309
1748142891480156000,10.103156005859375,-9.5802640914917,-7.511668682098389,7.134799003601074
1748142891498417400,10.12141748046875,0.4977070987224579,-6.320641040802002,5.263611793518066
1748142891516682500,10.1396826171875,10.578070640563965,-11.72842025756836,1.7138592004776
1748142891534946300,10.1579462890625,7.3986077308654785,-15.162120819091797,1.428515076637268
1748142891553207600,10.17620751953125,4.746761798858643,-12.735798835754395,2.4329023361206055
1748142891571470000,10.194469970703125,2.657827854156494,-8.816953659057617,0.7884350419044495
1748142891589739500,10.212739501953125,2.059622049331665,-6.154339790344238,-0.13459627330303192
1748142891608005000,10.231005126953125,1.4590235948562622,-4.498506546020508,-0.34636107087135315
1748142891626270000,10.24927001953125,1.0277173519134521,-4.777270317077637,-0.5611169338226318
1748142891644533200,10.267533203125,0.9559326171875,-7.588837146759033,-0.13878370821475983
1748142891662798800,10.285798828125,1.00259268283844,-10.984850883483887,0.9320043921470642
1748142891681062100,10.304062255859375,-0.9212366938591003,-12.685548782348633,1.7515461444854736
1748142891699327700,10.32232763671875,-4.9154558181762695,-11.32104206085205,4.07258415222168
1748142891717592300,10.34059228515625,-4.756931304931641,-9.160323143005371,4.744967460632324
1748142891735856000,10.358856201171875,-1.6253247261047363,-7.844869136810303,4.5822553634643555
1748142891754120400,10.377120361328124,0.7130611538887024,-7.628318786621094,3.9936211109161377
1748142891772385800,10.3953857421875,1.4895321130752563,-7.902894973754883,3.7286159992218018
1748142891790648300,10.4136484375,1.4243277311325073,-7.921439170837402,4.336392879486084
1748142891808916000,10.431916015625,1.0869396924972534,-7.83410120010376,4.810171604156494
1748142891827174000,10.450173828125,0.41096729040145874,-7.602595806121826,5.19960355758667
1748142891845438700,10.468438720703125,-0.16091732680797577,-7.490731239318848,5.44008207321167
1748142891863698200,10.4866982421875,-0.33499518036842346,-7.813164234161377,5.162514686584473
1748142891881973200,10.50497314453125,-0.28115665912628174,-8.326424598693848,4.425525665283203
1748142891900236300,10.523236328125,-0.3768695592880249,-8.9581298828125,3.5300116539001465
1748142891918502000,10.541501953125,-0.8590233325958252,-9.773484230041504,2.884547710418701
1748142891936765400,10.559765380859375,-1.929213285446167,-10.105487823486328,3.1591241359710693
1748142891955031300,10.57803125,-2.421536445617676,-9.68913745880127,4.17009162902832
1748142891973291500,10.59629150390625,-1.6325032711029053,-9.57787036895752,6.291927337646484
1748142891991563300,10.614563232421874,-0.486939400434494,-8.93240737915039,7.083951473236084
1748142892009820700,10.632820556640626,0.47916272282600403,-8.063214302062988,6.518647193908691
1748142892028092400,10.651092529296875,0.03170489892363548,-9.129815101623535,6.642475605010986
1748142892046352600,10.6693525390625,-2.1607189178466797,-12.140583992004395,7.265207767486572
1748142892064605200,10.687605224609374,-3.9086756706237793,-14.587244987487793,8.781659126281738
1748142892082878000,10.7058779296875,-2.9724838733673096,-14.32582950592041,8.631509780883789
1748142892101148000,10.72414794921875,-1.7934205532073975,-12.009576797485352,6.795616149902344
1748142892119410700,10.74241064453125,-1.7718851566314697,-10.975278854370117,4.3483567237854
1748142892137676500,10.760676513671875,-1.6013965606689453,-12.078370094299316,3.724428415298462
1748142892155927800,10.778927734375,0.14057832956314087,-13.554741859436035,2.1643080711364746
1748142892174201000,10.797201171875,0.9954141974449158,-13.1365966796875,1.5655041933059692
1748142892192469000,10.815468994140625,0.9684949517250061,-11.165508270263672,0.9463613629341125
1748142892210734600,10.833734619140625,0.582054078578949,-8.669795036315918,1.036690354347229
1748142892228985600,10.851985595703125,0.3128615617752075,-7.114459991455078,1.469791293144226
1748142892247263500,10.870263427734375,0.005982056725770235,-6.281757831573486,1.5625132322311401
1748142892265516500,10.8885166015625,0.06400800496339798,-6.305685997009277,1.9453648328781128
1748142892283792600,10.906792724609375,-0.36670008301734924,-7.015756130218506,2.538186550140381
1748142892302055700,10.9250556640625,-1.6067804098129272,-7.536793231964111,3.850649833679199
1748142892320321500,10.943321533203125,-3.0933215618133545,-7.87059211730957,5.647061347961426
1748142892338580200,10.961580322265625,-3.0723843574523926,-8.041678428649902,6.4217376708984375
1748142892356849400,10.979849365234376,-0.8835497498512268,-7.848458290100098,5.182853698730469
1748142892375115000,10.998114990234376,0.08315058797597885,-7.0995049476623535,1.4321043491363525
1748142892393379600,11.016379638671875,-0.3332005441188812,-6.020341873168945,-0.8560323119163513
1748142892411641900,11.034641845703124,-0.3768695592880249,-5.6069817543029785,-1.654038667678833
1748142892429905000,11.05290478515625,-0.048454657196998596,-6.03110933303833,-1.4691931009292603
1748142892448167700,11.071167724609374,-0.07597211748361588,-6.130411624908447,-0.8805587291717529
1748142892466437400,11.089437255859375,-0.7268198728561401,-5.424529075622559,-0.6777670383453369
1748142892484701000,11.107700927734374,-1.4787644147872925,-4.523033142089844,-1.0091729164123535
1748142892502966800,11.125966796875,-1.9627127647399902,-4.9292144775390625,-1.2287144660949707
1748142892521230000,11.14422998046875,-3.235694408416748,-6.599404811859131,0.11066804826259613
1748142892539496000,11.162495849609375,-6.994818687438965,-10.284950256347656,5.039882659912109
1748142892557759200,11.18075927734375,-20.230119705200195,-16.715660095214844,16.09352684020996
1748142892576024800,11.19902490234375,-13.318450927734375,-20.77568244934082,18.28236198425293
1748142892594287400,11.217287353515625,-12.838091850280762,-14.504094123840332,15.300904273986816
1748142892612553700,11.2355537109375,-7.755138397216797,-8.11824893951416,8.74636459350586
1748142892630817500,11.253817626953126,1.4967105388641357,-8.371888160705566,7.18086051940918
1748142892649084200,11.272084228515626,9.55513858795166,-13.177274703979492,1.6995022296905518
1748142892667346400,11.290346435546875,7.549953460693359,-14.136795997619629,1.090528964996338
1748142892685606100,11.308606201171875,4.860421180725098,-11.131410598754883,1.4733805656433105
1748142892703875600,11.32687548828125,2.9862427711486816,-7.59362268447876,0.46899324655532837
1748142892722142500,11.345142578125,1.867598056793213,-5.194219589233398,-0.137587308883667
1748142892740404500,11.363404541015624,1.3794622421264648,-4.170690059661865,-0.364905446767807
1748142892758670000,11.381670166015626,0.9804590940475464,-5.114060401916504,0.08434699475765228
1748142892776933600,11.39993359375,0.38285163044929504,-8.497511863708496,1.1808580160140991
1748142892795194600,11.418194580078126,-0.2111666053533554,-11.956934928894043,2.1481566429138184
1748142892813462800,11.436462890625,-2.8833513259887695,-13.146167755126953,2.520838737487793
1748142892831728400,11.454728271484376,-5.351547718048096,-10.549356460571289,4.007379531860352
1748142892849991400,11.472991455078125,-3.187239646911621,-9.063413619995117,4.172484397888184
1748142892868257300,11.49125732421875,0.4175475537776947,-8.477770805358887,3.625126361846924
1748142892886520800,11.509520751953126,2.079961061477661,-8.22413158416748,3.5162527561187744
1748142892904786400,11.527786376953125,2.0482561588287354,-7.9866437911987305,3.823132276535034
1748142892923049700,11.5460498046875,1.9076778888702393,-7.410571575164795,3.9290146827697754
1748142892941310500,11.564310546875,1.6085749864578247,-7.05763053894043,4.164707660675049
1748142892959579100,11.5825791015625,0.7758727669715881,-6.8823561668396,4.927420139312744
1748142892977844200,11.60084423828125,0.0077766734175384045,-7.239484786987305,5.56450891494751
1748142892996108000,11.61910791015625,0.19202402234077454,-7.734200954437256,5.740381717681885
1748142893014373600,11.63737353515625,0.6023930907249451,-8.676973342895508,5.0638108253479
1748142893032636200,11.65563623046875,-0.1495514214038849,-9.728618621826172,3.8775691986083984
1748142893050903800,11.67390380859375,-3.0729825496673584,-10.655837059020996,2.9168508052825928
1748142893069161500,11.692161376953125,-4.858626365661621,-9.934401512145996,3.5054850578308105
1748142893087428000,11.710427978515625,-1.9692929983139038,-9.724431037902832,5.522036552429199
1748142893105698800,11.72869873046875,0.4941178858280182,-9.516854286193848,7.109674453735352
1748142893123960600,11.746960693359375,0.9912267923355103,-8.331210136413574,7.272984504699707
1748142893142225400,11.765225341796874,0.08853443711996078,-8.075178146362305,6.7447686195373535
1748142893160489700,11.78348974609375,-2.310270309448242,-10.415956497192383,5.766104221343994
1748142893178753300,11.801753173828125,-4.914857864379883,-13.771292686462402,6.245266914367676
1748142893197014000,11.820013916015625,-3.9667017459869385,-14.711073875427246,7.016354084014893
1748142893215281200,11.83828125,-1.9812572002410889,-12.555140495300293,5.346164226531982
1748142893233549300,11.85654931640625,-0.7345965504646301,-10.524231910705566,4.198207378387451
1748142893251811300,11.874811279296875,-1.451246976852417,-10.923833847045898,4.66361141204834
1748142893270076400,11.893076416015624,-1.6755740642547607,-12.799806594848633,3.8434712886810303
1748142893288340500,11.911340576171876,0.45523449778556824,-14.967105865478516,2.2713868618011475
1748142893306592800,11.9295927734375,1.358525037765503,-14.863018035888672,0.576670229434967
1748142893324870400,11.947870361328125,0.4217349886894226,-12.554542541503906,0.4289134442806244
1748142893343118300,11.966118408203124,0.20877377688884735,-9.242277145385742,1.6157535314559937
1748142893361398500,11.9843984375,0.18783657252788544,-6.638886451721191,2.3988046646118164
1748142893379664100,12.0026640625,0.5204389095306396,-5.280959606170654,3.2656047344207764
1748142893397927400,12.020927490234374,0.882951557636261,-5.353342533111572,5.264209747314453
1748142893416188400,12.0391884765625,-0.6095715761184692,-5.958128452301025,6.701099872589111
1748142893434456600,12.05745654296875,-3.362514019012451,-5.6069817543029785,8.85523796081543
1748142893452722200,12.07572216796875,-3.1268210411071777,-5.827121257781982,8.017151832580566
1748142893470984000,12.09398388671875,-0.0771685317158699,-6.940980434417725,3.685544967651367
1748142893489252400,12.11225244140625,1.48055899143219,-7.39561653137207,1.2281162738800049
1748142893507514600,12.1305146484375,0.9906286001205444,-7.199405193328857,-0.09092725813388824
1748142893525780000,12.148780029296875,0.2883351147174835,-6.022734642028809,-0.259621262550354
1748142893544043800,12.167043701171876,-0.13160525262355804,-5.227719306945801,-1.4482558965682983
1748142893562309000,12.18530908203125,-0.06999006122350693,-5.100301265716553,-1.8502501249313354
1748142893580573000,12.203572998046875,-0.44386860728263855,-4.8227338790893555,-0.9595218896865845
1748142893598822000,12.22182177734375,-0.908674418926239,-4.5684967041015625,-0.3601198196411133
1748142893617099000,12.24009912109375,-1.765903115272522,-5.063212871551514,-0.46899324655532837
1748142893635366400,12.258366455078125,-4.5583271980285645,-7.29093074798584,1.1120643615722656
1748142893653629700,12.276629638671874,-7.977072715759277,-10.645668029785156,6.0747785568237305
1748142893671897000,12.29489697265625,-14.394024848937988,-15.746567726135254,13.570893287658691
1748142893690164500,12.31316455078125,-15.585052490234375,-21.053848266601562,19.04686737060547
1748142893708420600,12.331420654296876,-11.497512817382812,-13.201202392578125,11.243873596191406
1748142893726687700,12.349687744140626,-7.014559745788574,-6.128018856048584,5.8923258781433105
1748142893744956000,12.367955810546874,-2.8223342895507812,-6.172286033630371,4.2281174659729
1748142893763225900,12.386225830078125,3.696911096572876,-11.846266746520996,4.884947299957275
1748142893781483500,12.4044833984375,7.606783390045166,-16.858034133911133,3.4779677391052246
1748142893799742000,12.422741943359375,5.9539408683776855,-18.071195602416992,3.0825538635253906
1748142893818012700,12.4410126953125,4.267599105834961,-11.627323150634766,1.9812572002410889
1748142893836276200,12.459276123046875,1.5589239597320557,-7.088139057159424,-0.268594354391098
1748142893854541800,12.477541748046875,0.9296116232872009,-4.211368083953857,-0.8231309652328491
1748142893872805000,12.49580517578125,1.109073281288147,-2.8588249683380127,-1.6103696823120117
1748142893891071000,12.514071044921875,0.6969096064567566,-3.9254255294799805,-0.6544370055198669
1748142893909334300,12.532334228515625,0.4821537733078003,-7.851449489593506,1.6121642589569092
1748142893927598800,12.550598876953124,0.5120640397071838,-12.692129135131836,2.2271196842193604
1748142893945864200,12.5688642578125,0.18125630915164948,-14.025529861450195,1.866999864578247
1748142893964125200,12.587125244140625,-1.677966833114624,-11.304292678833008,2.554338216781616
1748142893982391300,12.605391357421874,-3.6466617584228516,-8.286943435668945,4.442275047302246
1748142894000658000,12.623657958984374,-2.854637384414673,-7.255038261413574,4.575675010681152
1748142894018922800,12.6419228515625,-0.9786644577980042,-7.264011383056641,4.5816569328308105
1748142894037182500,12.660182373046876,0.29012975096702576,-7.7353973388671875,4.869992256164551
1748142894055446300,12.6784462890625,0.5288137793540955,-8.12542724609375,5.5381879806518555
1748142894073715000,12.69671484375,0.6640082597732544,-7.983652591705322,5.854040622711182
1748142894091980800,12.714980712890625,0.8811569213867188,-7.390830993652344,5.796612739562988
1748142894110245000,12.7332451171875,0.8542376756668091,-6.9445695877075195,5.663811206817627
1748142894128505600,12.751505615234375,0.576670229434967,-6.86680269241333,5.38205623626709
1748142894146777000,12.769777099609374,0.597607433795929,-7.442276477813721,5.008177757263184
1748142894165037600,12.78803759765625,0.11186445504426956,-8.855836868286133,4.103092670440674
1748142894183303400,12.806303466796875,-1.0408778190612793,-10.176076889038086,3.4821550846099854
1748142894201566500,12.82456640625,-3.2350962162017822,-10.963912963867188,3.418745279312134
1748142894219832300,12.842832275390625,-3.4707891941070557,-10.177870750427246,5.285745143890381
1748142894238094800,12.8610947265625,-0.7836494445800781,-8.850452423095703,6.640082836151123
1748142894256362500,12.879362548828125,1.0259226560592651,-7.847261905670166,7.077371120452881
1748142894274613500,12.897613525390625,1.2843475341796875,-7.971688747406006,7.550551891326904
1748142894292893400,12.9158935546875,0.6305087804794312,-10.100702285766602,9.040681838989258
1748142894311149300,12.9341494140625,-2.2396819591522217,-14.105091094970703,11.040483474731445
1748142894329419800,12.952419677734374,-4.216751575469971,-15.858431816101074,9.832706451416016
1748142894347682800,12.970682861328125,-2.5094728469848633,-13.678570747375488,5.723631858825684
1748142894365948400,12.988948486328125,-0.916451096534729,-12.134003639221191,2.8528428077697754
1748142894384199700,13.00719970703125,-1.046859860420227,-12.747164726257324,1.4171491861343384
1748142894402477600,13.0254775390625,-0.5736792087554932,-13.476377487182617,0.8506484627723694
1748142894420729900,13.043729736328125,0.5108676552772522,-12.954143524169922,0.3326023519039154
1748142894439006500,13.06200634765625,0.005383851006627083,-10.810174942016602,-0.8685946464538574
1748142894457269800,13.080269775390626,-0.3732803463935852,-7.919644832611084,-0.4043870270252228
1748142894475537700,13.09853759765625,-0.39421752095222473,-6.665207386016846,0.711864709854126
1748142894493799000,13.116798828125,0.1010967567563057,-6.567101955413818,1.8873388767242432
1748142894512064800,13.135064697265625,1.2370892763137817,-7.29392147064209,3.0317063331604004
1748142894530327800,13.153327880859376,0.6765705943107605,-8.003992080688477,3.4193434715270996
1748142894548595200,13.17159521484375,-0.14117653667926788,-7.837690353393555,4.459024906158447
1748142894566851000,13.18985107421875,-3.1746773719787598,-7.418946743011475,6.594619274139404
1748142894585122000,13.2081220703125,-4.737788677215576,-7.159325122833252,7.406982421875
1748142894603387100,13.22638720703125,-1.3495519161224365,-7.646264553070068,5.653043270111084
1748142894621651200,13.244651123046875,0.14297115802764893,-7.521838188171387,2.9048867225646973
1748142894639916300,13.262916259765625,-0.4713860750198364,-6.802794933319092,0.6017948985099792
1748142894658176300,13.28117626953125,-0.5318048596382141,-5.700900077819824,-0.5300102233886719
1748142894676444400,13.2994443359375,-0.6687939167022705,-4.735994338989258,-1.3698909282684326
1748142894694710300,13.317710205078125,-1.1018948554992676,-4.406383037567139,-1.3495519161224365
1748142894712973600,13.3359736328125,-1.5086746215820312,-4.969294548034668,-0.9954141974449158
1748142894731239400,13.354239501953124,-1.989033818244934,-6.0263237953186035,-0.5228317379951477
1748142894749502700,13.372502685546875,-2.8450660705566406,-6.8865437507629395,0.2386840581893921
1748142894767768300,13.390768310546875,-4.511667251586914,-7.71386194229126,1.29810631275177
1748142894786031900,13.409031982421874,-7.797012805938721,-9.235696792602539,5.296513080596924
1748142894804297500,13.42729736328125,-9.473783493041992,-11.481361389160156,12.083754539489746
1748142894822556000,13.445555908203126,-11.94197940826416,-15.101103782653809,17.493328094482422
1748142894840825300,13.463825439453124,-9.90149974822998,-13.844273567199707,12.583255767822266
1748142894859088600,13.482088623046875,-8.332406997680664,-12.600006103515625,8.239086151123047
1748142894877357800,13.50035791015625,-5.913861274719238,-14.479568481445312,4.887938499450684
1748142894895617800,13.51861767578125,0.2961117923259735,-13.508082389831543,3.0346972942352295
1748142894913885400,13.536885498046875,4.5816569328308105,-14.023137092590332,1.4315061569213867
1748142894932148500,13.5551484375,5.260620594024658,-12.739387512207031,-0.09810572862625122
1748142894950413600,13.57341357421875,4.522434711456299,-8.737391471862793,-1.9752750396728516
1748142894968677000,13.591677001953125,3.060420274734497,-5.2384867668151855,-2.0721843242645264
1748142894986942700,13.609942626953124,1.77607262134552,-3.2991042137145996,-1.4261223077774048
1748142895005202000,13.628201904296875,1.0259226560592651,-3.0765717029571533,-0.24287149310112
1748142895023471900,13.646471923828125,0.6831508874893188,-6.043073654174805,1.0115658044815063
1748142895041735200,13.664735107421874,1.1365907192230225,-9.644869804382324,2.8085756301879883
1748142895060000800,13.683000732421876,1.6809579133987427,-12.436097145080566,3.544966697692871
1748142895078259500,13.701259521484374,2.9072794914245605,-12.308679580688477,3.025724172592163
1748142895105660400,13.728660400390625,1.0809576511383057,-9.562915802001953,5.252843856811523
1748142895123920600,13.746920654296876,-4.0558342933654785,-8.574081420898438,5.5381879806518555
1748142895142184000,13.765183837890625,-6.969694137573242,-7.899903774261475,5.7272210121154785
1748142895160456000,13.7834560546875,-2.7116663455963135,-7.9489569664001465,5.535795211791992
1748142895178718500,13.801718505859375,0.02512463741004467,-8.413164138793945,4.9363932609558105
1748142895196983800,13.81998388671875,0.1423729509115219,-8.485547065734863,4.309473514556885
1748142895215248100,13.838248046875,0.7393822073936462,-8.260622024536133,4.026522159576416
1748142895233513000,13.856512939453125,1.2765709161758423,-7.830512046813965,4.360321044921875
1748142895251776800,13.87477685546875,1.0977073907852173,-7.463811874389648,4.667200565338135
1748142895270041300,13.893041259765624,0.4582255482673645,-7.393822193145752,4.755136966705322
1748142895288306400,13.911306396484376,-0.11246266216039658,-7.990232944488525,4.607379913330078
1748142895306571500,13.929571533203125,-1.2586246728897095,-8.669196128845215,3.7525441646575928
1748142895324835300,13.94783544921875,-1.831107497215271,-8.927620887756348,4.155136585235596
1748142895343100200,13.96610009765625,-1.5744773149490356,-8.581260681152344,5.169095039367676
1748142895361364500,13.984364501953126,-0.5120640397071838,-8.718847274780273,6.391229152679443
1748142895379623400,14.00262353515625,0.14117653667926788,-9.471988677978516,7.091728210449219
1748142895397893400,14.020893310546874,0.8817551732063293,-8.654241561889648,6.058028697967529
1748142895416162800,14.039162841796875,0.8135597109794617,-8.198408126831055,4.996811866760254
1748142895434422500,14.057422607421875,-2.39401912689209,-11.076973915100098,3.875774383544922
1748142895452687600,14.0756875,-5.458028316497803,-15.118452072143555,4.972285270690918
1748142895470954500,14.09395458984375,-3.5820555686950684,-15.701104164123535,7.674380302429199
1748142895489208800,14.112208740234376,-0.6622136831283569,-12.99242877960205,8.35573673248291
1748142895507480800,14.130480712890625,-0.32183465361595154,-10.439287185668945,6.8279194831848145
1748142895525745400,14.148745361328125,-1.5427724123001099,-9.77408218383789,4.325624942779541
1748142895544009500,14.167009521484376,-1.9363917112350464,-10.879566192626953,3.421138286590576
1748142895562274300,14.1852744140625,-0.35533416271209717,-12.497713088989258,2.5160529613494873
1748142895580539000,14.203538818359375,0.4624129831790924,-12.834502220153809,1.6863417625427246
1748142895598803700,14.2218037109375,-0.625723123550415,-12.54018497467041,1.3878371715545654
1748142895626197000,14.249197021484376,-0.8811569213867188,-9.270393371582031,0.9385846853256226
1748142895644465700,14.267465576171874,-0.1986042857170105,-7.249654293060303,1.6193426847457886
1748142895662729500,14.2857294921875,0.4534398913383484,-6.036493301391602,2.5184457302093506
1748142895680989000,14.303989013671876,0.9278169870376587,-6.071787357330322,3.3690943717956543
1748142895699259100,14.322259033203125,1.215553879737854,-7.04207706451416,3.486342668533325
1748142895717523700,14.340523681640626,-0.39900317788124084,-7.618149280548096,4.07258415222168
1748142895735787500,14.35878759765625,-3.476771354675293,-8.315656661987305,5.522634506225586
1748142895754053000,14.37705322265625,-3.9194436073303223,-8.760123252868652,5.068596363067627
1748142895772316200,14.395316162109374,-0.7513462901115417,-8.267800331115723,3.603590965270996
1748142895790582300,14.413582275390626,1.311864972114563,-7.280761241912842,2.237887382507324
1748142895808845300,14.43184521484375,0.4247260093688965,-5.889933109283447,0.6203392744064331
1748142895827111200,14.450111083984375,-0.1740778535604477,-4.7234320640563965,-0.2757728099822998
1748142895845370600,14.46837060546875,-0.3044866919517517,-4.457230567932129,-1.1359925270080566
1748142895863626800,14.486626708984375,-0.7884350419044495,-4.778466701507568,-1.4799607992172241
1748142895881905000,14.50490478515625,-1.3076776266098022,-5.346164226531982,-1.9196419715881348
1748142895900164600,14.52316455078125,-2.6494529247283936,-5.344369411468506,-2.0315065383911133
1748142895918432800,14.541432861328126,-4.0797624588012695,-5.964110374450684,-0.45583271980285645
1748142895936693800,14.55969384765625,-3.9589250087738037,-7.701898097991943,2.946761131286621
1748142895954960600,14.577960693359374,-5.00997257232666,-12.33081340789795,7.7730841636657715
1748142895973228800,14.596228759765625,-20.46341896057129,-18.007186889648438,14.609378814697266
1748142895991490800,14.61449072265625,-12.369696617126465,-16.08754539489746,16.119848251342773
1748142896009756700,14.632756591796875,-10.175477981567383,-9.559326171875,10.930414199829102
1748142896028019700,14.651019775390624,-6.317051887512207,-8.206185340881348,7.34177827835083
1748142896046285600,14.66928564453125,2.4915266036987305,-11.070393562316895,6.390631198883057
1748142896064541400,14.68754150390625,6.978667259216309,-15.738192558288574,4.207778453826904
1748142896082814700,14.705814697265625,5.948556900024414,-18.765113830566406,2.072782516479492
1748142896101078000,14.724078125,3.573082447052002,-14.483755111694336,1.6151553392410278
1748142896119343900,14.74234375,2.293520450592041,-8.545368194580078,-0.03349951654672623
1748142896137606000,14.76060595703125,1.8137595653533936,-4.800002098083496,-1.3663017749786377
1748142896155874000,14.7788740234375,1.485344648361206,-2.723032236099243,-2.2091734409332275
1748142896174136300,14.79713623046875,1.0139585733413696,-2.644667148590088,-1.8586249351501465
1748142896192397300,14.815397216796875,0.5575276613235474,-6.056832313537598,0.31345975399017334
1748142896210664000,14.833663818359375,0.5856433510780334,-10.636096954345703,1.8233308792114258
1748142896228932000,14.85193212890625,1.0875378847122192,-13.02772331237793,2.062613010406494
1748142896247189800,14.870189697265625,1.0253244638442993,-11.996416091918945,2.131406784057617
1748142896265455900,14.888455810546875,-0.03888336941599846,-10.242477416992188,3.2787652015686035
1748142896283720400,14.906720458984376,-2.090130567550659,-8.664410591125488,5.275575637817383
1748142896301992400,14.924992431640625,-3.5748770236968994,-7.816154956817627,5.633901119232178
1748142896320251600,14.943251708984375,-2.1948165893554688,-7.490731239318848,5.416153907775879
1748142896338518800,14.961518798828125,-0.2997010350227356,-7.812565803527832,5.822933673858643
1748142896356781300,14.97978125,0.46719861030578613,-8.106285095214844,5.485546112060547
1748142896375047400,14.99804736328125,0.9254241585731506,-7.572087287902832,4.624728202819824
1748142896393310500,15.016310546875,1.3046865463256836,-7.0654072761535645,4.639084815979004
1748142896411576300,15.034576416015625,1.007378339767456,-7.45364236831665,4.854438781738281
1748142896429839400,15.05283935546875,1.1132607460021973,-8.470592498779297,4.910071849822998
1748142896448100400,15.071100341796875,1.1371889114379883,-9.497113227844238,4.649852752685547
1748142896466367200,15.0893671875,0.7519445419311523,-9.847063064575195,3.823132276535034
1748142896484634600,15.107634521484375,-2.4269204139709473,-10.093523979187012,2.7774689197540283
1748142896502898700,15.125898681640624,-6.202794551849365,-9.971489906311035,2.6805596351623535
1748142896521162200,15.144162353515625,-2.905484914779663,-9.795618057250977,5.376074314117432
1748142896539415800,15.162415771484374,0.4905286431312561,-9.402596473693848,7.281957626342773
1748142896557692400,15.1806923828125,1.6444673538208008,-8.168498039245605,6.736393928527832
1748142896575955700,15.198955810546876,1.2735798358917236,-7.425527095794678,6.302694797515869
1748142896594225700,15.2172255859375,-1.1054840087890625,-10.012167930603027,7.662416458129883
1748142896612484600,15.235484619140625,-5.157131195068359,-14.258232116699219,9.200403213500977
1748142896630750700,15.253750732421874,-3.8841493129730225,-14.501701354980469,8.930013656616211
1748142896649014000,15.272013916015625,-0.615553617477417,-11.787044525146484,5.985047817230225
1748142896667279600,15.290279541015625,-0.7567301392555237,-11.636296272277832,2.8145575523376465
1748142896685538300,15.308538330078125,-1.8915263414382935,-13.435699462890625,2.4747767448425293
1748142896703808800,15.326808837890624,-0.1621137410402298,-15.173486709594727,2.0476579666137695
1748142896722071000,15.345071044921875,1.0995019674301147,-14.628520965576172,1.563111424446106
1748142896740338700,15.363338623046875,0.828514814376831,-12.627523422241211,0.8919246196746826
1748142896758600200,15.38160009765625,0.003589233849197626,-9.245866775512695,1.6444673538208008
1748142896776868000,15.3998681640625,-0.9655039310455322,-6.656832695007324,3.0855448246002197
1748142896795130000,15.418130126953125,-0.34995031356811523,-5.756533145904541,3.463012456893921
1748142896813396000,15.43639599609375,1.1120643615722656,-5.810969829559326,4.028914928436279
1748142896831659300,15.4546591796875,1.7461622953414917,-6.28415060043335,4.548157691955566
1748142896849924900,15.4729248046875,-0.1698904037475586,-6.905686378479004,6.545566558837891
1748142896868183800,15.491183837890626,-4.837090969085693,-7.861020565032959,8.711668968200684
1748142896886454300,15.509454345703125,-1.7665013074874878,-8.485547065734863,4.428516387939453
1748142896904717600,15.527717529296876,1.551147222518921,-8.435895919799805,2.383849620819092
1748142896922983400,15.5459833984375,1.3250255584716797,-7.984251022338867,1.031306505203247
1748142896941246700,15.564246826171875,0.24825534224510193,-6.967899322509766,0.355932354927063
1748142896959512300,15.58251220703125,0.10707881301641464,-5.7511491775512695,-0.7657032608985901
1748142896977774600,15.600774658203125,0.13160525262355804,-4.668995380401611,-2.2229323387145996
1748142896996042800,15.619042724609375,-0.03768695518374443,-3.889533281326294,-2.389233350753784
1748142897014305000,15.637304931640625,-0.45583271980285645,-3.5545380115509033,-2.076970100402832
1748142897032570600,15.655570556640624,-1.0199406147003174,-3.6993038654327393,-2.228914260864258
1748142897050828000,15.673828125,-2.049452543258667,-5.623133182525635,-2.2342982292175293
1748142897069099000,15.69209912109375,-3.126222848892212,-9.872786521911621,1.4973087310791016
1748142897087364400,15.7103642578125,-3.961317777633667,-13.840683937072754,9.418747901916504
1748142897105628000,15.7286279296875,-30.610183715820312,-21.28236198425293,18.830915451049805
1748142897123893200,15.746893310546875,-11.38086223602295,-18.157934188842773,17.659629821777344
1748142897142161200,15.7651611328125,-7.168896675109863,-8.770293235778809,11.279168128967285
1748142897160420600,15.783420654296876,-5.824130535125732,-6.1334028244018555,6.415755748748779
1748142897178686700,15.801686767578126,-0.7645068168640137,-10.51346492767334,5.671587944030762
1748142897196950300,15.8199501953125,5.032105922698975,-14.665011405944824,4.854438781738281
1748142897215211800,15.838211669921876,6.394220352172852,-17.669797897338867,2.8528428077697754
1748142897233479400,15.8564794921875,5.124229907989502,-14.57647705078125,1.6115660667419434
1748142897251745000,15.8747451171875,3.7806596755981445,-8.83250617980957,-0.5772684812545776
1748142897270007800,15.8930078125,2.4370899200439453,-4.955535888671875,-1.8077775239944458
1748142897288274200,15.911274169921874,1.908276081085205,-2.9772696495056152,-2.6739792823791504
1748142897306532600,15.92953271484375,1.311864972114563,-2.926422119140625,-2.5052852630615234
1748142897324802000,15.947802001953125,0.4414757788181305,-6.128018856048584,0.046061836183071136
1748142897343067600,15.966067626953125,0.3038884699344635,-10.634302139282227,1.7186448574066162
1748142897361332200,15.984332275390624,0.023330021649599075,-14.10568904876709,2.0201404094696045
1748142897379595800,16.002595703125,-0.6340979933738708,-12.715459823608398,2.1481566429138184
1748142897397857000,16.02085693359375,-1.7001005411148071,-10.05404281616211,3.0867412090301514
1748142897416129000,16.03912890625,-1.8586249351501465,-8.0955171585083,5.170291423797607
1748142897434390500,16.057390625,-1.4362918138504028,-7.5086774826049805,5.170291423797607
1748142897452655000,16.075655029296875,-0.9026923179626465,-7.520641803741455,4.71027135848999
1748142897470929400,16.093929443359375,0.07178468257188797,-7.895118236541748,5.601597785949707
1748142897489181000,16.112180908203126,0.3242274820804596,-8.390432357788086,6.055037498474121
1748142897507448600,16.130448486328124,0.4007977843284607,-8.176873207092285,5.748756408691406
1748142897525712000,16.1487119140625,0.6305087804794312,-7.674978733062744,5.222933769226074
1748142897543977500,16.1669775390625,0.8159525394439697,-7.600203037261963,4.931009292602539
1748142897562236200,16.185236083984375,0.8446664214134216,-8.621339797973633,4.532604217529297
1748142897580505300,16.20350537109375,0.5461617708206177,-9.608977317810059,3.4031920433044434
1748142897598771700,16.221771728515623,-1.3992030620574951,-10.678568840026855,2.252842426300049
1748142897617035500,16.240035400390624,-5.388038158416748,-10.4219388961792,2.6494529247283936
1748142897635299000,16.258299072265626,-4.439284324645996,-8.933603286743164,5.461617469787598
1748142897653564400,16.276564453125,-0.020338991656899452,-8.81515884399414,8.264809608459473
1748142897671828000,16.294827880859376,1.4189438819885254,-8.565108299255371,8.763712882995605
1748142897690093600,16.313093505859374,0.5599204897880554,-7.29392147064209,6.878767013549805
1748142897708357400,16.331357421875,-2.42512583732605,-7.6737823486328125,6.975078105926514
1748142897726621400,16.349621337890625,-6.472585201263428,-10.999207496643066,6.960123062133789
1748142897744887800,16.3678876953125,-5.049454212188721,-12.91466236114502,8.154739379882812
1748142897763152400,16.38615234375,-0.4223332107067108,-11.274381637573242,8.10389232635498
1748142897781415400,16.40441552734375,0.7250252366065979,-9.54197883605957,6.032904148101807
1748142897799681000,16.422680908203127,-1.6169499158859253,-10.496116638183594,4.578067779541016
1748142897817939700,16.440939697265627,-2.6949164867401123,-13.374682426452637,3.8590247631073
1748142897836204500,16.45920458984375,-0.14297115802764893,-15.049657821655273,3.6023945808410645
1748142897854475000,16.47747509765625,-0.47676992416381836,-17.376079559326172,1.949552297592163
1748142897872739000,16.495739013671876,-1.1258230209350586,-17.041683197021484,-0.46360939741134644
1748142897891001600,16.514001708984374,-0.19680966436862946,-12.142976760864258,0.6556333899497986
1748142897909264600,16.5322646484375,1.2263215780258179,-8.82951545715332,1.2789636850357056
1748142897927531800,16.55053173828125,2.059023857116699,-6.362515449523926,1.9453648328781128
1748142897945797600,16.568797607421875,2.528017044067383,-5.4143595695495605,2.730210542678833
1748142897964057300,16.587057373046875,0.10887342691421509,-5.18823766708374,4.777868747711182
1748142897982326500,16.605326416015625,-6.749554634094238,-5.852245807647705,8.163712501525879
1748142898000590600,16.623590576171875,-4.460819721221924,-7.103692054748535,7.301100254058838
1748142898018854700,16.641854736328124,-0.21655045449733734,-8.080561637878418,3.224926710128784
1748142898037119000,16.660118896484374,1.246660590171814,-8.273782730102539,0.8781659007072449
1748142898055380000,16.6783798828125,1.3854442834854126,-7.704888820648193,-0.0729810893535614
1748142898073647000,16.696647216796876,1.0169496536254883,-6.354140758514404,-0.5006981492042542
1748142898091913500,16.71491357421875,0.5186443328857422,-4.95074987411499,-1.4638092517852783
1748142898110173700,16.733173583984374,0.1663011759519577,-4.099503517150879,-2.4807589054107666
1748142898128443000,16.75144287109375,-0.10408778488636017,-3.565903902053833,-2.541177749633789
1748142898146706400,16.76970654296875,-0.633499801158905,-3.7298123836517334,-2.3060827255249023
1748142898164971500,16.787971435546876,-1.1826525926589966,-4.829314231872559,-2.416750907897949
1748142898183235600,16.806235595703125,-4.6163530349731445,-7.8388872146606445,-2.0309081077575684
1748142898201500700,16.824500732421875,-11.49093246459961,-12.696316719055176,3.5682966709136963
1748142898219764500,16.842764404296876,-15.4420804977417,-19.213768005371094,14.424532890319824
1748142898238030000,16.861030029296874,-12.589238166809082,-23.795425415039062,18.778274536132812
1748142898256293400,16.87929345703125,-9.540184020996094,-16.368701934814453,12.368500709533691
1748142898274559500,16.8975595703125,-5.803193092346191,-6.936792850494385,4.7503509521484375
1748142898292822500,16.915822509765626,-2.613560438156128,-4.226323127746582,2.748156785964966
1748142898311088000,16.934088134765624,3.4815568923950195,-8.440083503723145,3.2213375568389893
1748142898329351700,16.9523515625,6.540182590484619,-13.533804893493652,1.1126625537872314
1748142898347616300,16.9706162109375,5.501697540283203,-15.67538070678711,1.6091731786727905
1748142898365881600,16.988881591796876,4.457828521728516,-11.93181037902832,2.1858434677124023
1748142898384147200,17.007147216796874,2.495713949203491,-7.5433735847473145,0.9146564602851868
1748142898402410000,17.025409912109374,1.5702898502349854,-4.641477584838867,0.3852444589138031
1748142898420670700,17.043670654296875,1.1455638408660889,-3.304488182067871,0.24945175647735596
1748142898438938000,17.061938232421873,0.3888336718082428,-4.773082733154297,1.5212370157241821
1748142898457201000,17.080200927734374,0.37806597352027893,-8.705686569213867,3.3756744861602783
1748142898475461000,17.098461181640626,-0.16689938306808472,-11.367103576660156,5.516054630279541
1748142898493736700,17.11673681640625,-1.8029918670654297,-11.700902938842773,6.427719593048096
1748142898511997200,17.1349970703125,-4.2346978187561035,-9.842277526855469,4.761716842651367
1748142898530262800,17.1532626953125,-3.4642090797424316,-8.61595630645752,3.6568312644958496
1748142898548526000,17.171526123046874,-0.34995031356811523,-7.970492362976074,3.115455150604248
1748142898566791400,17.18979150390625,1.2496516704559326,-7.920841217041016,3.3128628730773926
1748142898585055200,17.20805517578125,1.5690934658050537,-8.221738815307617,3.6610186100006104
1748142898603320800,17.22632080078125,1.1066805124282837,-8.471190452575684,4.1970109939575195
1748142898621584600,17.244584716796876,0.12442677468061447,-8.314460754394531,4.5200419425964355
1748142898639849700,17.262849609375,-0.851844847202301,-7.720442295074463,4.355535507202148
1748142898658113300,17.28111328125,-0.7651050686836243,-7.398009300231934,4.2795634269714355
1748142898676374300,17.299374267578123,-0.04127619042992592,-7.681559085845947,4.038486480712891
1748142898694628900,17.31762890625,0.3481557071208954,-8.249256134033203,3.9936211109161377
1748142898712909300,17.335909423828124,-0.0023928226437419653,-8.836095809936523,4.252045631408691
1748142898731154000,17.35415380859375,-1.1832507848739624,-9.44327449798584,4.459024906158447
1748142898749437400,17.3724375,-2.919841766357422,-9.558130264282227,5.036891460418701
1748142898767688700,17.390688720703125,-2.2534406185150146,-9.708279609680176,6.302694797515869
1748142898785966300,17.40896630859375,-0.3655036687850952,-9.897313117980957,7.551149845123291
1748142898804229400,17.4272294921875,0.6711867451667786,-9.29910659790039,6.961319446563721
1748142898822495500,17.44549560546875,1.3076776266098022,-7.853842258453369,5.335994720458984
1748142898840758800,17.4637587890625,1.00259268283844,-8.46580696105957,4.6372904777526855
1748142898859024400,17.4820244140625,-1.1102696657180786,-10.816754341125488,3.476771354675293
1748142898877287700,17.50028759765625,-5.889334678649902,-14.057234764099121,4.587040901184082
1748142898895549000,17.518548828125,-5.851049423217773,-13.73779296875,7.864011764526367
1748142898913816600,17.536816650390627,-1.8909281492233276,-11.443674087524414,7.116852760314941
1748142898932077800,17.555077880859375,1.033101201057434,-9.263215065002441,6.463612079620361
1748142898950344400,17.573344482421874,0.355932354927063,-8.680562019348145,5.987440586090088
1748142898968611600,17.591611572265624,-1.5499508380889893,-9.507881164550781,4.871188640594482
1748142898986876200,17.609876220703125,-1.550549030303955,-12.135798454284668,3.1794631481170654
1748142899005141200,17.628141357421875,-0.2063809484243393,-14.080564498901367,1.7389838695526123
1748142899023404300,17.646404296875,-0.05144568532705307,-15.221940994262695,0.5982056856155396
1748142899041670000,17.664669921875,-0.4301098585128784,-13.125828742980957,0.5401797294616699
1748142899059933400,17.682933349609375,-0.597607433795929,-9.148359298706055,1.4787644147872925
1748142899078194400,17.7011943359375,-0.035892341285943985,-6.57547664642334,2.5046870708465576
1748142899096457500,17.71945751953125,0.7022934556007385,-5.433502197265625,3.810570001602173
1748142899114728400,17.737728515625,0.745364248752594,-5.605186939239502,4.077968120574951
1748142899132991500,17.755991455078124,0.5258227586746216,-6.021538257598877,4.704289436340332
1748142899151257300,17.77425732421875,-1.5326029062271118,-6.357729911804199,6.789036273956299
1748142899169520000,17.79252001953125,-3.3678979873657227,-7.36032247543335,7.408178806304932
1748142899187786500,17.810786376953125,-1.5864413976669312,-8.329415321350098,5.676373481750488
1748142899206048500,17.829048583984374,0.43609192967414856,-8.316255569458008,3.084348440170288
1748142899224316700,17.847316650390624,0.4977070987224579,-7.191628456115723,1.0869396924972534
1748142899242578700,17.86557861328125,-0.19920247793197632,-5.873183250427246,-0.7363911867141724
1748142899260843300,17.88384326171875,-0.016749758273363113,-4.848456859588623,-1.898106575012207
1748142899279109000,17.902109130859376,0.24167509377002716,-4.669593334197998,-2.084746837615967
1748142899297373400,17.92037353515625,-0.1453639715909958,-4.8813581466674805,-1.8735800981521606
1748142899315635700,17.9386357421875,-1.1150553226470947,-5.209175109863281,-1.5134602785110474
1748142899333903400,17.9569033203125,-2.286940336227417,-6.424130439758301,-0.5700899958610535
1748142899352161500,17.97516162109375,-3.4857444763183594,-9.485747337341309,2.197209358215332
1748142899370431200,17.99343115234375,-8.318049430847168,-11.579466819763184,6.710072994232178
1748142899388695300,18.0116953125,-22.60978126525879,-17.383258819580078,16.2508544921875
1748142899406960600,18.029960693359374,-6.668198585510254,-17.573488235473633,15.239887237548828
1748142899425219800,18.0482197265625,-7.237092018127441,-10.822736740112305,10.0612211227417
1748142899443485200,18.066485107421876,-6.635895252227783,-4.9435715675354,2.8803603649139404
1748142899461752300,18.08475244140625,-4.452444553375244,-3.211168050765991,0.7543373107910156
1748142899480020000,18.10302001953125,1.439282774925232,-7.052844524383545,3.2518460750579834
1748142899498282500,18.121282470703125,7.234101295471191,-12.741182327270508,6.263213157653809
1748142899516545300,18.139545166015626,5.8851470947265625,-17.355741500854492,8.669795036315918
1748142899534814000,18.15781396484375,3.5539398193359375,-18.077177047729492,7.201199531555176
1748142899553073400,18.176073486328125,1.7916259765625,-12.878769874572754,2.606382131576538
1748142899571344000,18.19434375,-6.109474182128906,-7.593024253845215,0.014955141581594944
1748142899589605000,18.212605224609376,-11.924033164978027,-4.792225360870361,-2.5363919734954834
1748142899607870700,18.23087060546875,-2.80977201461792,-5.719444274902344,-2.6871397495269775
1748142899626135300,18.24913525390625,3.208775281906128,-6.606583118438721,0.08195417374372482
1748142899644398600,18.267398681640625,4.106681823730469,-8.24387264251709,2.770888566970825
1748142899662664700,18.285664794921875,4.417748928070068,-10.89571762084961,3.4019956588745117
1748142899680926500,18.303926513671875,3.8937206268310547,-10.584053039550781,3.332005500793457
1748142899699189800,18.322189697265625,2.7140591144561768,-9.396016120910645,3.2452657222747803
1748142899717456000,18.340455810546874,1.200000524520874,-9.28893756866455,2.837887763977051
1748142899735723800,18.358723876953125,1.0402796268463135,-8.784649848937988,2.967698335647583
1748142899753985800,18.37698583984375,0.8129615187644958,-8.897112846374512,3.982254981994629
1748142899772240100,18.395240234375,-4.975276470184326,-8.963513374328613,6.92183780670166
1748142899790510300,18.41351025390625,-8.442476272583008,-8.538188934326172,7.542177200317383
1748142899808766500,18.431766357421875,-3.279961585998535,-7.835896015167236,7.120441913604736
1748142899827045000,18.450045166015624,0.17587246000766754,-7.320840835571289,6.142973899841309
1748142899845298000,18.4682978515625,0.7800601720809937,-7.043871879577637,4.88853645324707
1748142899863572700,18.48657275390625,1.4195420742034912,-6.69571590423584,4.308875560760498
1748142899881838600,18.504838623046876,1.6959130764007568,-6.9822564125061035,4.552345275878906
1748142899900102100,18.52310205078125,0.7986045479774475,-8.127222061157227,4.533202648162842
1748142899918367700,18.54136767578125,-1.4003994464874268,-9.528220176696777,3.7902309894561768
1748142899936630300,18.55963037109375,-4.347160339355469,-9.742377281188965,3.6430723667144775
1748142899954898000,18.57789794921875,-2.813361167907715,-9.411569595336914,5.462215900421143
1748142899973164500,18.59616455078125,0.1178465187549591,-9.282357215881348,7.029514789581299
1748142899991425800,18.61442578125,1.430309772491455,-8.846863746643066,6.238088607788086
1748142900009689600,18.632689697265626,1.534995675086975,-8.391629219055176,5.459224700927734
1748142900027955000,18.650954833984375,1.482353687286377,-9.479166984558105,5.2283172607421875
1748142900046214000,18.6692138671875,-0.6209374666213989,-12.025728225708008,4.320241451263428
1748142900064466000,18.6874658203125,-7.748558044433594,-14.922240257263184,5.169095039367676
1748142900082748000,18.705747802734376,-7.731209754943848,-13.738390922546387,8.126026153564453
1748142900101013200,18.72401318359375,-0.9134600162506104,-11.361720085144043,8.25822925567627
1748142900119276800,18.74227685546875,1.6773686408996582,-9.117850303649902,8.050053596496582
1748142900137542400,18.76054248046875,-0.7603194117546082,-8.151748657226562,7.2436723709106445
1748142900155806000,18.778805908203125,-2.468794822692871,-8.249256134033203,5.749952793121338
1748142900174071600,18.797071533203123,-1.7461622953414917,-10.88554859161377,3.0424740314483643
1748142900192334800,18.8153349609375,0.6622136831283569,-12.91645622253418,1.5086746215820312
1748142900210599700,18.833599609375,1.1868400573730469,-13.499109268188477,0.5599204897880554
1748142900228865300,18.851865234375,-0.4701896607875824,-12.973884582519531,-0.44027936458587646
1748142900247129900,18.8701298828125,-1.3674981594085693,-10.318449020385742,0.9194421172142029
1748142900265388300,18.88838818359375,-0.8787640929222107,-8.210970878601074,2.1170499324798584
1748142900283659300,18.9066591796875,-0.6759724020957947,-7.1473612785339355,3.1794631481170654
1748142900301917200,18.924917236328124,0.4666004180908203,-6.938587665557861,3.66520619392395
1748142900320181800,18.943181640625,0.4618147611618042,-6.658029079437256,4.894518852233887
1748142900338452500,18.961452392578124,2.4496521949768066,-7.7222371101379395,3.5545380115509033
1748142900356716800,18.979716796875,-3.6508491039276123,-8.315058708190918,4.715056896209717
1748142900374980600,18.997980712890627,-4.564309120178223,-5.735595703125,5.825326919555664
1748142900393246200,19.01624609375,-0.763310432434082,-6.829115867614746,2.1756739616394043
1748142900411509500,19.034509521484374,-0.5407779216766357,-6.646064758300781,-0.5599204897880554
1748142900429775000,19.052775146484375,0.6520441770553589,-5.535196781158447,-0.8147560954093933
1748142900448038700,19.07103857421875,0.672383189201355,-5.103292465209961,-0.8380861282348633
1748142900466304300,19.08930419921875,-0.3158525824546814,-4.932804107666016,-1.275374412536621
1748142900484567800,19.10756787109375,-1.225723385810852,-4.462614059448242,-1.2969099283218384
1748142900502833200,19.125833251953125,-1.7796618938446045,-4.483551502227783,-1.1665010452270508
1748142900521096700,19.1440966796875,-2.688336133956909,-6.1328043937683105,-1.0426725149154663
1748142900539362600,19.162362548828124,-4.435695171356201,-8.83071231842041,1.0761719942092896
1748142900557624800,19.180624755859377,-7.164111137390137,-11.196017265319824,5.737390518188477
1748142900575891500,19.198891357421875,-20.055442810058594,-17.367704391479492,14.638092994689941
1748142900594155000,19.217155029296876,-12.436097145080566,-19.479969024658203,14.20738410949707
1748142900612424700,19.2354248046875,-11.467004776000977,-13.60618782043457,8.827720642089844
1748142900630683600,19.25368359375,-8.009973526000977,-5.753541946411133,4.2831525802612305
1748142900648950000,19.271949951171877,-2.0554347038269043,-1.8490537405014038,2.582453727722168
1748142900667209200,19.290209228515625,6.942774772644043,-4.238286972045898,2.2342982292175293
1748142900685472800,19.30847265625,6.75374174118042,-11.039885520935059,2.5118656158447266
1748142900703744500,19.32674462890625,4.261018753051758,-18.36610984802246,6.065805435180664
1748142900722007800,19.3450078125,2.8594231605529785,-20.158931732177734,7.754539966583252
1748142900740271400,19.363271240234376,1.475175142288208,-13.228719711303711,2.7116663455963135
1748142900758537200,19.381537109375,-4.496711730957031,-7.581060409545898,1.4416756629943848
1748142900776800300,19.39980029296875,-4.244867324829102,-4.861019134521484,0.641276478767395
1748142900795065900,19.41806591796875,-0.6855437159538269,-3.837489366531372,-0.0011964113218709826
1748142900813324800,19.43632470703125,1.5637096166610718,-4.256233215332031,0.973878800868988
1748142900831594000,19.454593994140627,2.3856441974639893,-7.427919864654541,2.4885356426239014
1748142900849859600,19.472859619140625,2.8175487518310547,-10.426724433898926,4.262813568115234
1748142900868124200,19.491124267578126,2.4023938179016113,-11.574681282043457,4.137190341949463
1748142900886387200,19.50938720703125,1.7940187454223633,-10.692926406860352,3.8195431232452393
1748142900904655000,19.527655029296874,0.7603194117546082,-9.448657989501953,2.953341245651245
1748142900922908400,19.545908447265624,-1.932802438735962,-8.315058708190918,2.7218358516693115
1748142900941177600,19.564177490234375,-3.631706476211548,-7.769495010375977,3.8835511207580566
1748142900959445500,19.582445556640625,-1.750349760055542,-8.124829292297363,4.710869789123535
1748142900977711400,19.60071142578125,-0.1333998590707779,-8.578866958618164,4.711467742919922
1748142900995974700,19.618974609375,-0.07357929646968842,-8.71226692199707,4.213760852813721
1748142901014240500,19.637240478515626,0.2590230405330658,-7.840083599090576,3.941577196121216
1748142901032503600,19.655503662109375,0.7657032608985901,-7.533802032470703,3.893122434616089
1748142901050769700,19.673769775390625,0.9038887619972229,-7.496713161468506,3.7782669067382812
1748142901069032700,19.69203271484375,0.8249256014823914,-8.070990562438965,3.5910286903381348
1748142901087297300,19.71029736328125,0.5437689423561096,-8.962915420532227,3.322434186935425
1748142901105558500,19.72855859375,-0.5461617708206177,-9.513264656066895,3.668795347213745
1748142901123827700,19.74682763671875,-2.018345832824707,-9.576674461364746,4.905884742736816
1748142901142090800,19.7650908203125,-3.0825538635253906,-9.020342826843262,6.008975982666016
1748142901160352000,19.78335205078125,-1.919043779373169,-8.973084449768066,7.149155616760254
1748142901178619100,19.801619140625,-0.18544375896453857,-9.147162437438965,7.738388538360596
1748142901196887300,19.81988720703125,0.5772684812545776,-8.790632247924805,6.670591354370117
1748142901215149800,19.83814990234375,0.7674978375434875,-8.193024635314941,5.595017433166504
1748142901233415200,19.856415283203123,0.2835494875907898,-9.564111709594727,5.077569484710693
1748142901251678500,19.874678466796876,-2.6315066814422607,-12.509676933288574,4.759324073791504
1748142901269943600,19.892943603515626,-5.5998029708862305,-14.46162223815918,6.298507213592529
1748142901288203500,19.91120361328125,-4.151547431945801,-13.451252937316895,7.281957626342773
1748142901306473500,19.929473388671877,-0.9379864931106567,-10.360323905944824,6.576074600219727
1748142901324736500,19.947736572265626,0.259621262550354,-8.874979019165039,5.891727447509766
1748142901343002000,19.966002197265624,-0.6107679605484009,-8.790034294128418,5.114060401916504
1748142901361265700,19.984265625,-0.7920243144035339,-10.329216957092285,3.835096597671509
1748142901379531300,20.00253125,0.39481574296951294,-12.349357604980469,2.63449764251709
1748142901397794800,20.020794921875,0.3451646566390991,-13.698311805725098,1.9962122440338135
1748142901416060700,20.039060791015626,-1.378864049911499,-14.417952537536621,0.9900303483009338
1748142901434324000,20.057323974609375,-2.3222343921661377,-11.80020523071289,1.459621787071228
1748142901452590600,20.075590576171876,-0.8847461938858032,-9.294321060180664,1.5894324779510498
1748142901470850600,20.0938505859375,-0.025722842663526535,-7.625925540924072,2.4406790733337402
1748142901489119700,20.11211962890625,-0.07058826833963394,-6.4941205978393555,3.647858142852783
1748142901507382000,20.130382080078125,-0.15912270545959473,-6.137589931488037,3.930809497833252
1748142901525646800,20.148646728515626,-0.04187439754605293,-6.603592395782471,3.8530426025390625
1748142901543912200,20.166912109375,-0.9068797826766968,-7.098308563232422,4.371088981628418
1748142901562172200,20.185172119140624,-1.5176477432250977,-7.332206726074219,4.859822750091553
1748142901580440300,20.2034404296875,-1.1234302520751953,-7.372884750366211,4.208376884460449
1748142901598706200,20.2217060546875,-0.005383851006627083,-7.022336483001709,2.063809633255005
1748142901616969200,20.23996923828125,0.4139583110809326,-6.023332595825195,0.18484555184841156
1748142901635241700,20.25824169921875,0.24825534224510193,-4.864010334014893,-1.0564311742782593
1748142901653498600,20.27649853515625,0.1010967567563057,-4.089334011077881,-1.9016958475112915
1748142901671759000,20.294759033203125,-0.3852444589138031,-3.8255252838134766,-2.02492618560791
1748142901690026200,20.313026123046875,-1.4937195777893066,-4.286143779754639,-1.7647067308425903
1748142901708292900,20.33129296875,-3.1519455909729004,-6.083153247833252,-1.4003994464874268
1748142901726558000,20.349557861328126,-4.483551502227783,-9.087342262268066,1.4488540887832642
1748142901744822300,20.367822265625,-6.309873104095459,-12.268001556396484,7.149754047393799
1748142901763085600,20.38608544921875,-21.09392738342285,-16.517654418945312,14.000405311584473
1748142901781351400,20.404351318359375,-13.212568283081055,-18.040685653686523,16.272390365600586
1748142901799613400,20.422613525390624,-10.447661399841309,-11.904891014099121,10.822736740112305
1748142901817881600,20.440881591796874,-7.9351983070373535,-8.304888725280762,4.04985237121582
1748142901836144400,20.459144287109375,-4.934000492095947,-9.958329200744629,2.2570300102233887
1748142901854409500,20.477409423828124,3.593421459197998,-13.74616813659668,4.734199523925781
1748142901872673300,20.49567333984375,7.4949188232421875,-15.023935317993164,3.480360507965088
1748142901890937600,20.5139375,6.64486837387085,-13.37169075012207,2.695514678955078
1748142901909198600,20.532198486328124,3.8153557777404785,-8.708678245544434,1.4602199792861938
1748142901927463000,20.550462890625,2.111067771911621,-5.504090309143066,0.2584248483181
1748142901945729800,20.568729736328127,1.2388839721679688,-3.5473594665527344,-0.2967100143432617
1748142901963997400,20.58699755859375,1.1024930477142334,-2.8965117931365967,-0.47676992416381836
1748142901982260200,20.60526025390625,0.8321040868759155,-5.635097503662109,0.7058826684951782
1748142902000523300,20.623523193359375,0.7357929348945618,-9.638289451599121,2.761915445327759
1748142902018789400,20.641789306640625,1.2646067142486572,-12.847064971923828,3.741178274154663
1748142902037054500,20.660054443359375,0.9326026439666748,-12.550952911376953,4.091726779937744
1748142902055318800,20.67831884765625,-1.6211373805999756,-10.116255760192871,4.043272018432617
1748142902073583900,20.696583984375,-4.174877166748047,-8.560322761535645,3.658625841140747
1748142902091847400,20.714847412109375,-2.84087872505188,-8.086544036865234,3.84765887260437
1748142902110112500,20.733112548828124,-0.8069794178009033,-8.248059272766113,4.1730828285217285
1748142902128376600,20.75137646484375,-0.11964113265275955,-8.512466430664062,4.554139614105225
1748142902146641000,20.769640869140623,0.06281159073114395,-8.475378036499023,4.7401814460754395
1748142902164906200,20.78790625,0.26919254660606384,-7.963313579559326,4.515256404876709
1748142902183166500,20.80616650390625,0.5240281820297241,-7.432705402374268,4.31007194519043
1748142902201433000,20.82443310546875,0.7328019142150879,-7.613961696624756,4.161118507385254
1748142902219701200,20.842701171875,0.784247636795044,-8.003992080688477,4.428516387939453
1748142902237963800,20.8609638671875,0.8219345808029175,-8.260622024536133,4.628915309906006
1748142902256229600,20.879229736328124,0.25722843408584595,-8.447860717773438,4.357329845428467
1748142902274493000,20.897492919921874,-0.7513462901115417,-8.742177963256836,4.272983074188232
1748142902292758300,20.91575830078125,-1.9537396430969238,-8.831310272216797,4.719842433929443
1748142902311022000,20.93402197265625,-2.170290231704712,-9.281160354614258,6.5180487632751465
1748142902329287700,20.95228759765625,-1.0887342691421509,-9.475577354431152,7.753942012786865
1748142902347551000,20.970551025390623,-0.3320041298866272,-9.123234748840332,6.313462734222412
1748142902365816300,20.98881640625,0.129810631275177,-8.651249885559082,5.242076396942139
1748142902384080100,21.007080078125,-0.5312066078186035,-9.312865257263184,5.371288776397705
1748142902402345700,21.025345703125,-3.568894863128662,-11.791830062866211,6.7040910720825195
1748142902420608000,21.04360791015625,-5.909075736999512,-13.513465881347656,8.98803997039795
1748142902438876200,21.061876220703127,-3.9804604053497314,-12.430115699768066,9.162715911865234
1748142902457137000,21.080136962890624,-0.46061834692955017,-10.05823040008545,7.905287742614746
1748142902475400400,21.098400390625,0.1908276081085205,-8.593822479248047,6.647859573364258
1748142902493667300,21.116667236328126,-1.4997016191482544,-9.052047729492188,5.197210788726807
1748142902511933000,21.134932861328124,-1.7976080179214478,-11.611769676208496,2.9318058490753174
1748142902530192000,21.15319189453125,-0.5808576941490173,-14.644074440002441,1.7581263780593872
1748142902548461800,21.1714619140625,-0.1746760457754135,-16.195220947265625,0.5162515044212341
1748142902566725400,21.189725341796876,-1.164108157157898,-14.162519454956055,0.5545366406440735
1748142902584991200,21.2079912109375,-1.3052847385406494,-10.304092407226562,1.1437692642211914
1748142902603254500,21.226254638671875,-0.5635097622871399,-7.761120319366455,1.6193426847457886
1748142902621520100,21.24452001953125,0.4941178858280182,-6.388238430023193,2.2791635990142822
1748142902639783700,21.26278369140625,1.456032633781433,-6.212365627288818,2.8319056034088135
1748142902658049300,21.28104931640625,1.0719845294952393,-5.867799282073975,3.3308091163635254
1748142902676312800,21.299312744140625,-1.2855439186096191,-5.433502197265625,4.876572608947754
1748142902694589000,21.3175888671875,-4.302893161773682,-5.7170515060424805,7.058826923370361
1748142902712840200,21.335840087890624,-3.1651060581207275,-6.9206414222717285,5.877968788146973
1748142902731108600,21.354108642578126,-0.2111666053533554,-7.8526458740234375,3.053241729736328
1748142902749371000,21.372370849609375,0.16809579730033875,-7.360920429229736,1.4793626070022583
1748142902767635500,21.390635498046876,-0.7603194117546082,-6.235695838928223,0.4743770956993103
1748142902785900800,21.40890087890625,-0.6580262184143066,-4.95912504196167,-0.5862415432929993
1748142902804161300,21.427161376953126,-0.529412031173706,-4.499104976654053,-1.3603196144104004
1748142902822429200,21.44542919921875,-0.9206385016441345,-4.516452789306641,-1.3980066776275635
1748142902840694500,21.463694580078126,-1.181456208229065,-4.353740692138672,-0.8901300430297852
1748142902858955000,21.481955078125,-1.6372889280319214,-5.196612358093262,-0.5461617708206177
1748142902877228000,21.50022802734375,-3.0927233695983887,-8.182256698608398,0.5814558863639832
1748142902895482600,21.518482666015625,-6.008975982666016,-11.581859588623047,4.237090587615967
1748142902913752800,21.5367529296875,-16.5457706451416,-15.120844841003418,9.58325481414795
1748142902932016000,21.55501611328125,-15.729219436645508,-17.8618221282959,17.50708770751953
1748142902950281700,21.57328173828125,-8.884550094604492,-12.32363510131836,14.204991340637207
1748142902968545300,21.591545166015624,-6.4941205978393555,-5.9300127029418945,7.426723480224609
1748142902986811100,21.60981103515625,-5.242076396942139,-3.472583770751953,2.3910279273986816
1748142903005074400,21.628074462890623,-0.17706887423992157,-6.209374904632568,2.6297121047973633
1748142903023339800,21.64633984375,6.519245147705078,-12.881760597229004,3.222533941268921
1748142903041597000,21.664596923828125,5.8995041847229,-19.88495445251465,5.155934810638428
1748142903059869200,21.682869140625,3.428914785385132,-20.76132583618164,5.532804012298584
1748142903078127400,21.70112744140625,1.8436698913574219,-11.896515846252441,1.0390832424163818
1748142903096398000,21.719398193359375,-2.1948165893554688,-6.504888534545898,0.18484555184841156
1748142903114661400,21.737661376953124,-3.1100711822509766,-3.954737663269043,-1.4500504732131958
1748142903132927200,21.75592724609375,-0.9864411354064941,-3.3338000774383545,-2.720639228820801
1748142903151185700,21.774185546875,1.144965648651123,-4.392624378204346,-0.22073788940906525
1748142903169455900,21.792455810546876,1.454836130142212,-8.345566749572754,1.9441684484481812
1748142903187719400,21.810719482421874,2.2947168350219727,-11.707483291625977,3.281157970428467
1748142903205985300,21.8289853515625,3.43908429145813,-12.339786529541016,3.823132276535034
1748142903224248600,21.84724853515625,1.8837496042251587,-10.075577735900879,4.423132419586182
1748142903242514400,21.865514404296874,-1.3363914489746094,-8.36411190032959,4.604389190673828
1748142903260778800,21.88377880859375,-4.301098823547363,-7.585247993469238,5.161916732788086
1748142903279042300,21.902042236328125,-2.3467607498168945,-7.394420146942139,5.435296535491943
1748142903297302000,21.920302001953125,-0.2955136001110077,-7.912466049194336,5.793622016906738
1748142903315568000,21.938568115234375,-1.0372886657714844,-8.146963119506836,5.3455657958984375
1748142903333836000,21.9568359375,-0.8566305041313171,-7.7252278327941895,4.460819721221924
1748142903352101600,21.9751015625,0.39062830805778503,-7.332206726074219,4.210171222686768
1748142903370364700,21.99336474609375,0.5826523303985596,-7.200003147125244,4.511068820953369
1748142903388629500,22.01162939453125,0.381655216217041,-7.441080093383789,4.78385066986084
1748142903406895000,22.02989501953125,0.4695914387702942,-8.187641143798828,4.825725078582764
1748142903425163300,22.048163330078125,0.03529413416981697,-9.035896301269531,4.246662139892578
1748142903443423000,22.066423095703126,-1.3100703954696655,-9.661619186401367,3.6843485832214355
1748142903461689000,22.084689208984376,-2.6733810901641846,-9.374481201171875,4.194618225097656
1748142903479952100,22.1029521484375,-1.6648063659667969,-9.017352104187012,5.986244201660156
1748142903498225700,22.1212255859375,-0.04247260093688965,-9.186046600341797,7.718647480010986
1748142903516481500,22.1394814453125,0.4013960063457489,-9.05982494354248,7.406982421875
1748142903534747100,22.1577470703125,0.7704889178276062,-7.779664516448975,6.174080848693848
1748142903553005600,22.176005615234374,0.06041877344250679,-8.598010063171387,5.997610092163086
1748142903571274500,22.1942744140625,-3.263810157775879,-11.35214900970459,5.8097734451293945
1748142903589540600,22.21254052734375,-5.574080467224121,-13.192827224731445,7.098906517028809
1748142903607805200,22.23080517578125,-2.9790642261505127,-12.411571502685547,8.801400184631348
1748142903626068500,22.249068359375,-0.5647061467170715,-10.176076889038086,8.517251968383789
1748142903644334300,22.267334228515626,-0.009571290574967861,-8.726025581359863,6.729215621948242
1748142903662596900,22.285596923828123,-2.2546372413635254,-9.54197883605957,5.571089267730713
1748142903680863000,22.303863037109377,-3.263211965560913,-11.961122512817383,3.226123094558716
1748142903699127600,22.32212744140625,-0.4737788736820221,-14.378471374511719,1.9974087476730347
1748142903717392600,22.340392578125,0.8410771489143372,-15.739389419555664,1.179063320159912
1748142903735654700,22.358654541015625,0.6759724020957947,-15.52523136138916,-0.22612173855304718
1748142903753922600,22.376922607421875,-0.776470959186554,-11.242676734924316,0.18005990982055664
1748142903772179700,22.3951796875,-0.45284169912338257,-7.899903774261475,0.3086741268634796
1748142903790450700,22.41345068359375,0.5539384484291077,-6.436692714691162,1.4656038284301758
1748142903808713700,22.431713623046875,0.7214360237121582,-6.317649841308594,3.383451223373413
1748142903826976500,22.4499765625,-0.07836493849754333,-6.62213659286499,4.633102893829346
1748142903845246000,22.468245849609374,-3.6394832134246826,-6.68016242980957,6.711867332458496
1748142903863499000,22.4864990234375,-4.90109920501709,-6.649653911590576,7.967501163482666
1748142903881786600,22.50478662109375,-0.5682953596115112,-7.0893354415893555,6.010770320892334
1748142903900035000,22.52303515625,1.0863415002822876,-7.331608772277832,1.903490424156189
1748142903918303200,22.54130322265625,0.4247260093688965,-6.593422889709473,-0.26560330390930176
1748142903936566500,22.55956640625,-0.18005990982055664,-5.673980712890625,-1.1670992374420166
1748142903954830000,22.577830078125,-0.22133609652519226,-4.956732273101807,-1.5337992906570435
1748142903973095700,22.596095703125,-0.49172505736351013,-4.537389755249023,-1.6522440910339355
1748142903991359200,22.614359130859373,-1.1539387702941895,-4.3208394050598145,-1.459621787071228
1748142904009623600,22.63262353515625,-1.8711873292922974,-4.801796913146973,-1.0516455173492432
1748142904027889400,22.650889404296876,-2.7188446521759033,-5.956333637237549,-0.32961133122444153
1748142904046156000,22.669156005859374,-3.7363924980163574,-7.5086774826049805,1.7365909814834595
1748142904064403000,22.68740283203125,-6.959524631500244,-10.540982246398926,6.2877397537231445
1748142904082684700,22.7056845703125,-13.091731071472168,-15.405590057373047,14.57767391204834
1748142904100951300,22.723951416015623,-12.358330726623535,-20.15235137939453,19.471593856811523
1748142904119196200,22.742196044921876,-12.720245361328125,-17.05544090270996,14.95274829864502
1748142904137475300,22.760475341796877,-8.168498039245605,-11.024332046508789,6.447460651397705
1748142904155732700,22.778732666015625,-3.507279872894287,-10.235299110412598,4.209573268890381
1748142904174004700,22.797004638671876,5.630311489105225,-10.835897445678711,1.6013965606689453
1748142904192269800,22.815269775390625,7.109076023101807,-11.309078216552734,-0.1818545162677765
1748142904210533600,22.83353369140625,5.378467082977295,-9.851848602294922,0.3122633695602417
1748142904228799000,22.851799072265624,4.257429599761963,-6.8823561668396,-0.0687936544418335
1748142904247062800,22.870062744140625,2.837887763977051,-4.700101852416992,-0.5120640397071838
1748142904265328600,22.88832861328125,1.9573289155960083,-3.627519130706787,-0.9678967595100403
1748142904283592700,22.9065927734375,1.3609179258346558,-4.868795871734619,-0.8679963946342468
1748142904301856300,22.924856201171874,0.8679963946342468,-8.656634330749512,0.7639086246490479
1748142904320120800,22.943120849609375,1.3567304611206055,-12.525230407714844,1.8999011516571045
1748142904338386200,22.96138623046875,0.11724831163883209,-13.103096961975098,3.3367912769317627
1748142904356648700,22.979648681640626,-3.290729284286499,-10.29751205444336,4.9124650955200195
1748142904374916000,22.997916015625,-4.068994998931885,-8.170292854309082,5.333003520965576
1748142904393174000,23.016174072265624,-1.9752750396728516,-7.6767730712890625,5.687739372253418
1748142904411439600,23.034439697265626,-0.3152543902397156,-8.050053596496582,5.793622016906738
1748142904429706800,23.052706787109376,0.4701896607875824,-8.353343963623047,5.160121917724609
1748142904447975000,23.070974853515626,0.5760720372200012,-7.964509963989258,5.0602216720581055
1748142904466236700,23.089236572265627,0.4055834412574768,-7.469794273376465,4.802993297576904
1748142904484502800,23.107502685546876,0.2757728099822998,-7.398009300231934,4.262813568115234
1748142904502766300,23.125766357421874,0.2590230405330658,-7.744968891143799,3.9038901329040527
1748142904521031700,23.14403173828125,0.017946170642971992,-8.204988479614258,3.7459638118743896
1748142904539295200,23.162295166015625,-0.32721850275993347,-8.62612533569336,3.889533281326294
1748142904557560800,23.180560791015626,-0.33379876613616943,-9.143573760986328,3.865006685256958
1748142904575819300,23.1988193359375,-0.8141579031944275,-9.531210899353027,3.2961132526397705
1748142904594088400,23.21708837890625,-2.341975212097168,-9.45763111114502,3.184846878051758
