time,seconds_elapsed,z,y,x
1751121037785101800,0.297101806640625,-101.25000762939453,7.950000286102295,16.650001525878906
1751121037795046100,0.307046142578125,-101.55000305175781,8.02500057220459,16.350000381469727
1751121037804990200,0.316990234375,-101.47500610351562,8.100000381469727,16.575000762939453
1751121037814934300,0.326934326171875,-101.62500762939453,8.475000381469727,16.650001525878906
1751121037824878600,0.336878662109375,-101.55000305175781,8.325000762939453,16.725000381469727
1751121037834822700,0.34682275390625,-101.85000610351562,8.175000190734863,16.875
1751121037844767000,0.35676708984375,-101.85000610351562,8.325000762939453,16.650001525878906
1751121037874599400,0.386599365234375,-102.5250015258789,8.100000381469727,15.825000762939453
1751121037884543500,0.39654345703125,-102.1500015258789,8.175000190734863,15.225000381469727
1751121037894487800,0.40648779296875,-102.67500305175781,7.950000286102295,14.175000190734863
1751121037914376200,0.426376220703125,-103.2750015258789,8.175000190734863,11.550000190734863
1751121037924320500,0.436320556640625,-103.35000610351562,8.625,10.200000762939453
1751121037934264800,0.446264892578125,-102.82500457763672,9.375,9.600000381469727
1751121037954153200,0.4661533203125,-102.82500457763672,9.675000190734863,8.925000190734863
1751121037964097300,0.47609716796875,-102.1500015258789,10.125,9.225000381469727
1751121037974041600,0.48604150390625,-102.30000305175781,10.800000190734863,10.200000762939453
1751121037983985700,0.495985595703125,-101.7750015258789,11.325000762939453,11.40000057220459
1751121037993929700,0.5059296875,-100.72500610351562,11.77500057220459,12
1751121038003874000,0.5158740234375,-100.72500610351562,11.77500057220459,12
1751121038053595000,0.565594970703125,-102.67500305175781,11.77500057220459,8.325000762939453
1751121038123204000,0.6352041015625,-102.1500015258789,9.975000381469727,-8.850000381469727
1751121038133148200,0.645148193359375,-102.45000457763672,9.675000190734863,-10.800000190734863
1751121038143092200,0.65509228515625,-102.45000457763672,9.675000190734863,-10.800000190734863
1751121038153036500,0.66503662109375,-102.37500762939453,8.77500057220459,-12.825000762939453
1751121038162980600,0.674980712890625,-101.47500610351562,7.575000286102295,-14.475000381469727
1751121038172925000,0.684925048828125,-101.10000610351562,6.675000190734863,-16.275001525878906
1751121038192813000,0.70481298828125,-100.95000457763672,4.5,-19.350000381469727
1751121038202757400,0.71475732421875,-101.25000762939453,2.7750000953674316,-20.775001525878906
1751121038212701400,0.724701416015625,-100.95000457763672,1.2000000476837158,-21.900001525878906
1751121038222645800,0.734645751953125,-100.80000305175781,-0.9000000357627869,-23.400001525878906
1751121038232589800,0.74458984375,-99.82500457763672,-2.8500001430511475,-25.500001907348633
1751121038242534000,0.754533935546875,-98.47500610351562,-4.425000190734863,-27.975000381469727
1751121038252478200,0.764478271484375,-94.6500015258789,-7.575000286102295,-32.10000228881836
1751121038262422300,0.77442236328125,-93.375,-9,-33.07500076293945
1751121038272366600,0.78436669921875,-93.375,-9,-33.07500076293945
1751121038282310700,0.794310546875,-92.32500457763672,-9.975000381469727,-33.375
1751121038292254700,0.804254638671875,-91.5,-10.725000381469727,-33.525001525878906
1751121038302199000,0.814198974609375,-91.05000305175781,-11.02500057220459,-34.125
1751121038312143000,0.82414306640625,-90.5250015258789,-10.725000381469727,-34.5
1751121038322087400,0.83408740234375,-89.70000457763672,-9.825000762939453,-34.42500305175781
1751121038332031500,0.844031494140625,-89.0250015258789,-7.500000476837158,-33.45000076293945
1751121038341975600,0.8539755859375,-88.57500457763672,-5.25,-32.55000305175781
1751121038361864000,0.873864013671875,-88.875,-0.45000001788139343,-30.67500114440918
1751121038371808300,0.883808349609375,-88.42500305175781,1.8000000715255737,-29.325000762939453
1751121038381752300,0.89375244140625,-88.42500305175781,3.9000000953674316,-27.900001525878906
1751121038401640700,0.913640625,-89.7750015258789,7.125000476837158,-24.225000381469727
1751121038421529000,0.933529052734375,-89.47500610351562,8.700000762939453,-23.025001525878906
1751121038441417200,0.953417236328125,-87.82500457763672,11.550000190734863,-20.100000381469727
1751121038451361500,0.963361572265625,-86.92500305175781,12.90000057220459,-19.125
1751121038471250000,0.98325,-86.47500610351562,15.52500057220459,-16.42500114440918
1751121038481194000,0.993194091796875,-87.67500305175781,15.975000381469727,-14.850000381469727
1751121038491138300,1.00313818359375,-88.80000305175781,15.975000381469727,-13.800000190734863
1751121038501082400,1.013082275390625,-90,15.600000381469727,-12.90000057220459
1751121038511026700,1.023026611328125,-91.05000305175781,15.225000381469727,-11.925000190734863
1751121038520970800,1.032970703125,-91.57500457763672,15.000000953674316,-11.700000762939453
1751121038530915000,1.0429150390625,-91.72500610351562,14.77500057220459,-11.40000057220459
1751121038540859400,1.052859375,-91.80000305175781,14.475000381469727,-11.550000190734863
1751121038550803500,1.062803466796875,-91.80000305175781,14.475000381469727,-11.550000190734863
1751121038560747800,1.072747802734375,-91.80000305175781,14.625000953674316,-11.625
1751121038570691800,1.08269189453125,-92.25,14.175000190734863,-11.700000762939453
1751121038580636200,1.09263623046875,-93,13.350000381469727,-12.52500057220459
1751121038590580500,1.10258056640625,-93.5250015258789,12.675000190734863,-13.27500057220459
1751121038600524500,1.112524658203125,-94.35000610351562,11.700000762939453,-14.02500057220459
1751121038620413200,1.1324130859375,-94.2750015258789,9.600000381469727,-15.975000381469727
1751121038650245600,1.16224560546875,-96.75000762939453,5.400000095367432,-18.600000381469727
1751121038660190000,1.17218994140625,-97.57500457763672,4.425000190734863,-19.200000762939453
1751121038670135000,1.182135009765625,-97.6500015258789,3.375000238418579,-20.25
1751121038680079000,1.1920791015625,-97.2750015258789,2.5500001907348633,-21
1751121038690023200,1.202023193359375,-97.35000610351562,1.725000023841858,-21.30000114440918
1751121038719855600,1.231855712890625,-97.50000762939453,-1.0500000715255737,-22.125
1751121038729799700,1.241799560546875,-97.42500305175781,-1.2750000953674316,-22.05000114440918
1751121038739743700,1.25174365234375,-98.17500305175781,-1.2750000953674316,-22.05000114440918
1751121038769576200,1.281576171875,-98.0250015258789,-1.125,-22.125
1751121038779520300,1.291520263671875,-98.55000305175781,-0.9000000357627869,-21.67500114440918
1751121038789464300,1.30146435546875,-98.4000015258789,-0.6000000238418579,-20.775001525878906
1751121038809352700,1.321352783203125,-97.6500015258789,-0.07500000298023224,-20.475000381469727
1751121038839185200,1.35118505859375,-97.50000762939453,-0.07500000298023224,-21.150001525878906
1751121038849129200,1.361129150390625,-96.75000762939453,-0.9000000357627869,-21.900001525878906
1751121038859073500,1.371073486328125,-96.22500610351562,-2.5500001907348633,-23.700000762939453
1751121038869017600,1.381017578125,-94.35000610351562,-4.650000095367432,-25.875001907348633
1751121038878962000,1.3909619140625,-92.0250015258789,-6.450000286102295,-28.350000381469727
1751121038908794600,1.420794677734375,-85.35000610351562,-10.800000190734863,-33.60000228881836
1751121038918738700,1.43073876953125,-85.35000610351562,-11.475000381469727,-33.75
1751121038928683000,1.44068310546875,-85.80000305175781,-11.175000190734863,-33.97500228881836
1751121038938627300,1.45062744140625,-85.57500457763672,-11.100000381469727,-33.82500076293945
1751121038948571400,1.4605712890625,-86.10000610351562,-10.875,-33.30000305175781
1751121038958515700,1.470515625,-86.10000610351562,-10.875,-33.30000305175781
1751121038968459800,1.480459716796875,-86.7750015258789,-10.800000190734863,-33.07500076293945
1751121038978404000,1.490404052734375,-87.07500457763672,-10.800000190734863,-33.07500076293945
1751121038988348400,1.500348388671875,-87.375,-10.65000057220459,-33.22500228881836
1751121039008236800,1.52023681640625,-89.17500305175781,-11.850000381469727,-32.55000305175781
1751121039018180900,1.530180908203125,-90.375,-11.700000762939453,-32.17500305175781
1751121039028125200,1.540125244140625,-90.9000015258789,-11.850000381469727,-31.650001525878906
1751121039038069500,1.550069580078125,-91.875,-12.52500057220459,-31.575000762939453
1751121039048013600,1.560013671875,-92.47500610351562,-13.200000762939453,-31.575000762939453
1751121039057958000,1.5699580078125,-92.10000610351562,-13.725000381469727,-31.350000381469727
1751121039067902000,1.57990185546875,-92.7750015258789,-14.175000190734863,-30.750001907348633
1751121039077846300,1.58984619140625,-94.05000305175781,-14.02500057220459,-30.075000762939453
1751121039107679000,1.619678955078125,-97.2750015258789,-11.850000381469727,-27.450000762939453
1751121039137511700,1.64951171875,-98.32500457763672,-8.77500057220459,-25.42500114440918
1751121039147455700,1.659455810546875,-98.4000015258789,-7.425000190734863,-24.750001907348633
1751121039157400000,1.669400146484375,-97.95000457763672,-5.625,-24
1751121039187232800,1.699232666015625,-94.42500305175781,-1.2750000953674316,-24.600000381469727
1751121039207121200,1.71912109375,-90.75,1.6500000953674316,-25.875001907348633
1751121039217065500,1.7290654296875,-89.47500610351562,2.4750001430511475,-26.250001907348633
1751121039227009500,1.739009521484375,-88.42500305175781,2.4750001430511475,-26.850000381469727
1751121039246898000,1.75889794921875,-87.1500015258789,2.0250000953674316,-27.450000762939453
1751121039276730600,1.788730712890625,-86.0250015258789,2.700000047683716,-27.375001907348633
1751121039296619000,1.808618896484375,-85.57500457763672,5.100000381469727,-26.475000381469727
1751121039306563300,1.818563232421875,-85.875,6.075000286102295,-25.125001907348633
1751121039316507600,1.828507568359375,-89.0250015258789,6.900000095367432,-22.80000114440918
1751121039326451700,1.83845166015625,-89.7750015258789,6.975000381469727,-21.375
1751121039346340000,1.858340087890625,-92.4000015258789,8.625,-16.950000762939453
1751121039356284400,1.868284423828125,-93.75,9,-15.000000953674316
1751121039366228700,1.878228759765625,-93.75,9.15000057220459,-13.950000762939453
1751121039376172800,1.8881728515625,-93.75,9.15000057220459,-13.950000762939453
1751121039386117000,1.8981171875,-93.375,9.450000762939453,-14.100000381469727
1751121039396061200,1.908061279296875,-92.92500305175781,9.375,-15.450000762939453
1751121039415949800,1.92794970703125,-91.2750015258789,9.450000762939453,-18.30000114440918
1751121039425894000,1.937893798828125,-90,9.600000381469727,-18.900001525878906
1751121039435838200,1.947838134765625,-89.32500457763672,10.575000762939453,-19.05000114440918
1751121039445782300,1.9577822265625,-88.57500457763672,11.77500057220459,-18.600000381469727
1751121039455726600,1.9677265625,-87.30000305175781,13.050000190734863,-17.325000762939453
1751121039465671000,1.9776708984375,-86.7750015258789,14.475000381469727,-15.975000381469727
1751121039485559300,1.997559326171875,-86.85000610351562,15.750000953674316,-12.600000381469727
1751121039495503400,2.00750341796875,-86.55000305175781,16.275001525878906,-11.02500057220459
1751121039505447700,2.01744775390625,-87.30000305175781,16.5,-9.225000381469727
1751121039515392000,2.02739208984375,-87.30000305175781,16.5,-9.225000381469727
1751121039525336000,2.037336181640625,-87.60000610351562,15.825000762939453,-9.450000762939453
1751121039535280400,2.0472802734375,-86.17500305175781,16.05000114440918,-11.100000381469727
1751121039545224400,2.057224365234375,-84.07500457763672,15.825000762939453,-12.825000762939453
1751121039565113000,2.077113037109375,-83.25,15.750000953674316,-14.100000381469727
1751121039575057200,2.08705712890625,-82.125,15.825000762939453,-14.700000762939453
1751121039585001500,2.09700146484375,-82.80000305175781,15.750000953674316,-14.77500057220459
1751121039594945500,2.106945556640625,-84.07500457763672,15.675000190734863,-14.77500057220459
1751121039604889900,2.116889892578125,-85.20000457763672,15.300000190734863,-14.700000762939453
1751121039614834200,2.126834228515625,-86.4000015258789,15.000000953674316,-13.800000190734863
1751121039624778200,2.1367783203125,-87.375,15.000000953674316,-12.300000190734863
1751121039634722600,2.14672265625,-88.57500457763672,15.000000953674316,-10.725000381469727
1751121039644667000,2.1566669921875,-88.42500305175781,15.15000057220459,-9.52500057220459
1751121039654611000,2.16661083984375,-88.42500305175781,15.15000057220459,-9.52500057220459
1751121039664555300,2.17655517578125,-87.97500610351562,15.300000190734863,-8.625
1751121039674499300,2.186499267578125,-88.125,15.450000762939453,-8.100000381469727
1751121039684443600,2.196443603515625,-87.75,15.450000762939453,-8.77500057220459
1751121039694388000,2.206387939453125,-87.1500015258789,15.825000762939453,-9.825000762939453
1751121039704332000,2.21633203125,-86.55000305175781,16.350000381469727,-10.800000190734863
1751121039714276400,2.2262763671875,-85.2750015258789,16.575000762939453,-11.850000381469727
1751121039724220400,2.236220458984375,-84.9000015258789,17.25,-11.550000190734863
1751121039734164700,2.246164794921875,-84.82500457763672,17.775001525878906,-10.350000381469727
1751121039754053000,2.26605322265625,-84.60000610351562,18.525001525878906,-8.850000381469727
1751121039763997400,2.27599755859375,-84.375,18.67500114440918,-8.850000381469727
1751121039773941500,2.28594140625,-84.375,18.30000114440918,-8.625
1751121039783885800,2.2958857421875,-84.375,18.30000114440918,-8.625
1751121039793830100,2.305830078125,-84.75,18,-8.175000190734863
1751121039803774200,2.315774169921875,-84.22500610351562,18.450000762939453,-8.25
1751121039813718500,2.325718505859375,-83.55000305175781,18.67500114440918,-8.475000381469727
1751121039823662600,2.33566259765625,-83.55000305175781,18.450000762939453,-8.625
1751121039833607000,2.34560693359375,-84.22500610351562,18.075000762939453,-9.15000057220459
1751121039843551200,2.35555126953125,-84.9000015258789,17.850000381469727,-9.975000381469727
1751121039853495300,2.365495361328125,-85.42500305175781,17.55000114440918,-11.25
1751121039863439600,2.375439697265625,-84.9000015258789,16.725000381469727,-12.90000057220459
1751121039873383700,2.3853837890625,-84.30000305175781,16.05000114440918,-14.475000381469727
1751121039883328000,2.395327880859375,-84.22500610351562,15.975000381469727,-15.375000953674316
1751121039893272300,2.405272216796875,-84.67500305175781,16.125,-15.375000953674316
1751121039903216400,2.41521630859375,-85.6500015258789,16.125,-14.475000381469727
1751121039913160700,2.42516064453125,-86.4000015258789,15.750000953674316,-13.125000953674316
1751121039923104800,2.435104736328125,-87.97500610351562,15.675000190734863,-10.950000762939453
1751121039933049000,2.445049072265625,-87.97500610351562,15.675000190734863,-10.950000762939453
1751121039942993400,2.454993408203125,-89.10000610351562,15.675000190734863,-8.850000381469727
1751121039952937500,2.4649375,-91.2750015258789,15.000000953674316,-5.100000381469727
1751121039962881800,2.4748818359375,-91.5,14.77500057220459,-4.050000190734863
1751121039972825900,2.484825927734375,-91.72500610351562,15.15000057220459,-3.750000238418579
1751121039982770200,2.494770263671875,-91.875,15.000000953674316,-3.825000047683716
1751121039992714500,2.504714599609375,-92.0250015258789,14.77500057220459,-3.750000238418579
1751121040002658600,2.514658447265625,-91.95000457763672,14.77500057220459,-3.2250001430511475
1751121040012603000,2.524602783203125,-91.95000457763672,14.550000190734863,-2.8500001430511475
1751121040022547000,2.534546875,-92.7750015258789,14.625000953674316,-2.700000047683716
1751121040032491300,2.5444912109375,-92.55000305175781,14.850000381469727,-2.4750001430511475
1751121040042435600,2.554435546875,-91.2750015258789,15.000000953674316,-2.325000047683716
1751121040052379600,2.564379638671875,-90.22500610351562,15.375000953674316,-2.325000047683716
1751121040062324000,2.574323974609375,-90.22500610351562,15.375000953674316,-2.325000047683716
1751121040072268300,2.584268310546875,-90,15.750000953674316,-2.4750001430511475
1751121040082212400,2.59421240234375,-89.25,15.90000057220459,-2.8500001430511475
1751121040092156700,2.60415673828125,-88.5,16.275001525878906,-3.1500000953674316
1751121040102100700,2.614100830078125,-88.5,16.5,-3.750000238418579
1751121040112045000,2.624045166015625,-87.97500610351562,16.5,-4.650000095367432
1751121040121989400,2.6339892578125,-86.92500305175781,16.725000381469727,-4.950000286102295
1751121040131933400,2.643933349609375,-86.70000457763672,16.650001525878906,-5.175000190734863
1751121040141877800,2.653877685546875,-87.5250015258789,16.200000762939453,-5.025000095367432
1751121040151821800,2.66382177734375,-88.57500457763672,15.750000953674316,-4.800000190734863
1751121040161766100,2.67376611328125,-89.55000305175781,14.625000953674316,-4.5
1751121040171710500,2.68371044921875,-90.5250015258789,14.175000190734863,-4.200000286102295
1751121040181654500,2.693654541015625,-91.80000305175781,13.725000381469727,-4.125
1751121040191598800,2.703598876953125,-92.92500305175781,12.825000762939453,-3.750000238418579
1751121040201543000,2.71354296875,-92.92500305175781,12.825000762939453,-3.750000238418579
1751121040211487200,2.7234873046875,-93.97500610351562,12.300000190734863,-3.375000238418579
1751121040221431600,2.733431640625,-95.25,11.550000190734863,-2.700000047683716
1751121040231375600,2.743375732421875,-96.22500610351562,10.575000762939453,-1.725000023841858
1751121040241320000,2.75331982421875,-97.12500762939453,9.90000057220459,-0.375
1751121040251264000,2.763263916015625,-97.80000305175781,9.15000057220459,1.9500000476837158
1751121040261208300,2.773208251953125,-98.32500457763672,8.25,4.275000095367432
1751121040271152600,2.783152587890625,-99.07500457763672,7.650000095367432,6.225000381469727
1751121040281096700,2.7930966796875,-99.22500610351562,7.650000095367432,7.575000286102295
1751121040291041000,2.803041015625,-99.9000015258789,7.500000476837158,8.40000057220459
1751121040300985000,2.812985107421875,-99.75000762939453,7.350000381469727,8.40000057220459
1751121040310929400,2.822929443359375,-99.30000305175781,7.350000381469727,7.425000190734863
1751121040320873700,2.832873779296875,-99.5250015258789,7.275000095367432,6
1751121040330817800,2.84281787109375,-100.05000305175781,6.900000095367432,4.200000286102295
1751121040340762000,2.85276220703125,-100.05000305175781,6.900000095367432,4.200000286102295
1751121040350706200,2.8627060546875,-100.6500015258789,6.525000095367432,3
1751121040360650500,2.872650390625,-100.42500305175781,6.600000381469727,1.8000000715255737
1751121040370594800,2.8825947265625,-99.9000015258789,6.825000286102295,1.2000000476837158
1751121040380539000,2.892538818359375,-98.10000610351562,8.700000762939453,1.5
1751121040390483200,2.902483154296875,-96.9000015258789,9.75,1.9500000476837158
1751121040400427300,2.91242724609375,-95.55000305175781,10.725000381469727,1.6500000953674316
1751121040410371600,2.92237158203125,-94.6500015258789,11.325000762939453,1.0500000715255737
1751121040420316700,2.932316650390625,-93.67500305175781,11.77500057220459,1.125
1751121040430260500,2.942260498046875,-93.5250015258789,11.925000190734863,1.5
1751121040440204300,2.952204345703125,-94.05000305175781,12.075000762939453,1.350000023841858
1751121040450148000,2.962148193359375,-94.125,11.77500057220459,0.6000000238418579
1751121040460092000,2.972091796875,-93.9000015258789,11.475000381469727,-0.45000001788139343
1751121040470036000,2.982035888671875,-93.97500610351562,11.175000190734863,-0.8250000476837158
1751121040479979800,2.991979736328125,-93.97500610351562,11.175000190734863,-0.8250000476837158
1751121040489923800,3.001923828125,-94.72500610351562,10.575000762939453,-0.75
1751121040499868000,3.011867919921875,-95.625,9.825000762939453,-0.30000001192092896
1751121040509812000,3.02181201171875,-96.60000610351562,9.15000057220459,0
1751121040519756300,3.03175634765625,-97.95000457763672,8.325000762939453,0.30000001192092896
1751121040529700400,3.041700439453125,-98.17500305175781,7.200000286102295,0.22500000894069672
1751121040539644700,3.051644775390625,-97.87500762939453,6.525000095367432,0.07500000298023224
1751121040559533300,3.071533203125,-97.87500762939453,6.600000381469727,-0.45000001788139343
1751121040569478000,3.081477783203125,-98.4000015258789,6.600000381469727,-1.5750000476837158
1751121040579422200,3.091422119140625,-98.4000015258789,6.600000381469727,-2.4750001430511475
1751121040589366800,3.10136669921875,-98.25000762939453,7.575000286102295,-4.050000190734863
1751121040599311400,3.111311279296875,-97.50000762939453,8.100000381469727,-4.875
1751121040609256000,3.121255859375,-97.50000762939453,8.100000381469727,-4.875
1751121040619200500,3.131200439453125,-96.82500457763672,8.175000190734863,-5.475000381469727
1751121040629145000,3.14114501953125,-96.45000457763672,8.25,-6
1751121040639089400,3.15108935546875,-96.37500762939453,8.925000190734863,-6.225000381469727
1751121040658978000,3.17097802734375,-96.60000610351562,9.300000190734863,-4.800000190734863
1751121040668922000,3.180922119140625,-96.82500457763672,9.375,-3.2250001430511475
1751121040678866400,3.190866455078125,-96.9000015258789,9.375,-1.125
1751121040688810500,3.200810546875,-96.9000015258789,9.52500057220459,1.5
1751121040698754800,3.2107548828125,-96.97500610351562,9.600000381469727,4.5
1751121040708699100,3.22069921875,-96.75000762939453,9.90000057220459,7.050000190734863
1751121040718643200,3.230643310546875,-96.37500762939453,9.675000190734863,9.15000057220459
1751121040728587500,3.24058740234375,-96.1500015258789,9.375,10.875
1751121040738531600,3.250531494140625,-95.47500610351562,9.52500057220459,11.850000381469727
1751121040748476000,3.260475830078125,-95.25,9.450000762939453,12.450000762939453
1751121040758420200,3.270420166015625,-95.25,9.450000762939453,12.450000762939453
1751121040768364300,3.2803642578125,-94.5,9.675000190734863,13.575000762939453
1751121040778308600,3.29030859375,-93.60000610351562,9.75,14.175000190734863
1751121040788252700,3.300252685546875,-93.60000610351562,10.050000190734863,14.100000381469727
1751121040798197000,3.310197021484375,-93.22500610351562,10.125,13.875000953674316
1751121040808141300,3.320141357421875,-92.92500305175781,10.65000057220459,12.15000057220459
1751121040818085400,3.33008544921875,-93.22500610351562,11.175000190734863,10.950000762939453
1751121040828029700,3.34002978515625,-92.85000610351562,11.850000381469727,10.200000762939453
1751121040837974000,3.34997412109375,-91.57500457763672,12.225000381469727,9.90000057220459
1751121040847918000,3.35991796875,-91.2750015258789,12.675000190734863,9.450000762939453
1751121040857862400,3.3698623046875,-91.875,12.975000381469727,8.925000190734863
1751121040867806500,3.379806396484375,-91.6500015258789,13.65000057220459,8.700000762939453
1751121040877750800,3.389750732421875,-91.20000457763672,14.250000953674316,8.40000057220459
1751121040887695000,3.399695068359375,-91.20000457763672,14.250000953674316,8.40000057220459
1751121040897639200,3.40963916015625,-90.60000610351562,14.250000953674316,7.575000286102295
1751121040907583500,3.41958349609375,-90.1500015258789,14.175000190734863,6.600000381469727
1751121040917527600,3.429527587890625,-90,14.475000381469727,6
1751121040927471900,3.439471923828125,-90.30000305175781,15.000000953674316,5.400000095367432
1751121040947360300,3.4593603515625,-90.82500457763672,14.925000190734863,3.750000238418579
1751121040957304600,3.4693046875,-91.35000610351562,14.475000381469727,2.7750000953674316
1751121040967248600,3.47924853515625,-91.57500457763672,14.02500057220459,2.1000001430511475
1751121040977193000,3.48919287109375,-92.0250015258789,13.65000057220459,1.5
1751121040987137300,3.49913720703125,-92.85000610351562,13.050000190734863,1.2750000953674316
1751121040997081300,3.509081298828125,-93.1500015258789,12.675000190734863,1.5750000476837158
1751121041007025700,3.519025634765625,-93.5250015258789,12.675000190734863,1.725000023841858
1751121041016969700,3.5289697265625,-94.05000305175781,12.075000762939453,2.325000047683716
1751121041026914000,3.5389140625,-94.05000305175781,12.075000762939453,2.325000047683716
1751121041036858400,3.5488583984375,-94.57500457763672,11.700000762939453,1.9500000476837158
1751121041046802400,3.558802490234375,-94.80000305175781,11.40000057220459,1.125
1751121041056746800,3.568746826171875,-94.35000610351562,11.100000381469727,-0.07500000298023224
1751121041066690800,3.57869091796875,-94.95000457763672,10.950000762939453,-1.5750000476837158
1751121041076635100,3.58863525390625,-95.4000015258789,10.575000762939453,-2.25
1751121041086579500,3.598579345703125,-95.25,10.65000057220459,-3.1500000953674316
1751121041096523500,3.6085234375,-95.32500457763672,10.425000190734863,-4.350000381469727
1751121041106467800,3.6184677734375,-95.47500610351562,9.52500057220459,-5.025000095367432
1751121041116412000,3.628411865234375,-96.30000305175781,8.77500057220459,-5.025000095367432
1751121041126356200,3.638356201171875,-96.75000762939453,8.25,-4.5
1751121041136300500,3.648300537109375,-97.20000457763672,8.25,-3.6000001430511475
1751121041146244600,3.65824462890625,-97.6500015258789,8.175000190734863,-2.4000000953674316
1751121041166133000,3.678133056640625,-97.42500305175781,8.475000381469727,-1.4250000715255737
1751121041176077300,3.688077392578125,-96.60000610351562,9.075000762939453,-0.22500000894069672
1751121041186021600,3.698021728515625,-96.67500305175781,9.600000381469727,0.45000001788139343
1751121041195965700,3.707965576171875,-97.12500762939453,10.5,0.75
1751121041205910000,3.717909912109375,-96.9000015258789,11.02500057220459,0.5250000357627869
1751121041215854300,3.727854248046875,-96.45000457763672,11.325000762939453,0.30000001192092896
1751121041225798700,3.737798583984375,-94.95000457763672,13.200000762939453,2.1000001430511475
1751121041235743000,3.747742919921875,-95.10000610351562,13.050000190734863,3.1500000953674316
1751121041245687300,3.757687255859375,-94.95000457763672,13.575000762939453,3.6750001907348633
1751121041255631400,3.76763134765625,-95.0250015258789,13.27500057220459,4.5
1751121041265575700,3.77757568359375,-95.0250015258789,12.52500057220459,5.625
1751121041285464300,3.79746435546875,-95.25,12.375000953674316,4.725000381469727
1751121041325241300,3.837241455078125,-95.32500457763672,11.925000190734863,7.200000286102295
1751121041335185700,3.847185546875,-94.95000457763672,11.325000762939453,8.325000762939453
1751121041345130000,3.8571298828125,-95.47500610351562,10.5,8.850000381469727
1751121041355074000,3.867073974609375,-96.97500610351562,10.050000190734863,8.850000381469727
1751121041365018400,3.877018310546875,-96.97500610351562,9.52500057220459,8.25
1751121041374962700,3.886962646484375,-96.9000015258789,8.550000190734863,6.675000190734863
1751121041384907000,3.896906982421875,-97.80000305175781,7.575000286102295,4.5
1751121041394851300,3.906851318359375,-98.32500457763672,7.200000286102295,2.325000047683716
1751121041404795400,3.91679541015625,-98.85000610351562,7.350000381469727,0.45000001788139343
1751121041414739700,3.92673974609375,-98.47500610351562,7.650000095367432,-1.2000000476837158
1751121041424684000,3.93668408203125,-96.75000762939453,8.100000381469727,-2.0250000953674316
1751121041434628400,3.94662841796875,-96.22500610351562,8.475000381469727,-1.8000000715255737
1751121041444572700,3.95657275390625,-96.1500015258789,8.625,-1.2000000476837158
1751121041454516700,3.966516845703125,-95.625,9,-0.9750000238418579
1751121041464461000,3.9764609375,-95.70000457763672,9.375,-0.8250000476837158
1751121041474405400,3.9864052734375,-95.32500457763672,9.52500057220459,-0.45000001788139343
1751121041484349700,3.996349609375,-95.55000305175781,9.52500057220459,-0.30000001192092896
1751121041494294000,4.0062939453125,-95.4000015258789,9.675000190734863,0.07500000298023224
1751121041504238300,4.01623828125,-95.10000610351562,10.050000190734863,0.75
1751121041514182400,4.026182373046875,-94.80000305175781,10.200000762939453,1.8750001192092896
1751121041524126700,4.036126708984375,-94.5,10.5,3.375000238418579
1751121041534071000,4.046071044921875,-94.80000305175781,10.800000190734863,4.650000095367432
1751121041553959700,4.065959716796875,-93.1500015258789,11.40000057220459,8.175000190734863
1751121041563903700,4.07590380859375,-93.9000015258789,11.475000381469727,9
1751121041573848000,4.08584814453125,-93.9000015258789,11.475000381469727,9
1751121041583792400,4.09579248046875,-93.9000015258789,11.475000381469727,9
1751121041593736700,4.10573681640625,-94.95000457763672,10.425000190734863,8.925000190734863
1751121041603681000,4.115680908203125,-95.85000610351562,10.050000190734863,8.475000381469727
1751121041613625000,4.125625,-96.07500457763672,9.300000190734863,8.25
1751121041623569400,4.1355693359375,-95.85000610351562,9,8.700000762939453
1751121041633513700,4.145513671875,-95.92500305175781,9.300000190734863,8.850000381469727
1751121041643458000,4.1554580078125,-95.92500305175781,9.600000381469727,8.25
1751121041653402400,4.16540234375,-95.4000015258789,9.600000381469727,4.800000190734863
1751121041663346400,4.175346435546875,-96.22500610351562,9.300000190734863,4.650000095367432
1751121041673290800,4.185290771484375,-96.45000457763672,9,5.700000286102295
1751121041683235000,4.195235107421875,-96.07500457763672,8.850000381469727,7.500000476837158
1751121041693179400,4.205179443359375,-95.92500305175781,8.925000190734863,9
1751121041703123700,4.215123779296875,-96.07500457763672,8.550000190734863,9.300000190734863
1751121041713067800,4.22506787109375,-96.07500457763672,8.550000190734863,9.300000190734863
1751121041723012000,4.23501220703125,-96.5250015258789,7.500000476837158,9
1751121041732956400,4.244956298828125,-97.20000457763672,6.825000286102295,7.650000095367432
1751121041742900700,4.254900634765625,-97.6500015258789,6,4.650000095367432
1751121041752845000,4.264844970703125,-98.10000610351562,5.25,0.675000011920929
1751121041762789400,4.274789306640625,-98.10000610351562,4.950000286102295,-3.6000001430511475
1751121041782677800,4.294677734375,-96.30000305175781,5.100000381469727,-9.52500057220459
1751121041792622000,4.3046220703125,-95.7750015258789,5.475000381469727,-10.27500057220459
1751121041802566400,4.31456640625,-95.10000610351562,5.925000190734863,-10.5
1751121041812510700,4.3245107421875,-94.35000610351562,6.525000095367432,-10.950000762939453
1751121041822454800,4.334454833984375,-93.97500610351562,7.275000095367432,-10.875
1751121041832399000,4.344399169921875,-93.07500457763672,8.25,-9.975000381469727
1751121041852287700,4.364287841796875,-90.67500305175781,11.175000190734863,-7.050000190734863
1751121041862232000,4.374232177734375,-90.5250015258789,12.450000762939453,-5.25
1751121041872176000,4.384176025390625,-90.45000457763672,13.200000762939453,-3.6750001907348633
1751121041882120400,4.394120361328125,-89.32500457763672,13.950000762939453,-2.7750000953674316
1751121041902009000,4.414009033203125,-90.1500015258789,14.700000762939453,-2.625
1751121041911953400,4.423953369140625,-90.5250015258789,14.250000953674316,-3
1751121041921897500,4.4338974609375,-91.2750015258789,13.950000762939453,-3.9750001430511475
1751121041931841800,4.443841796875,-91.05000305175781,13.65000057220459,-5.025000095367432
1751121041941786000,4.4537861328125,-90.82500457763672,13.050000190734863,-6.375000476837158
1751121041961674800,4.4736748046875,-90.375,12.600000381469727,-10.725000381469727
1751121041971618800,4.483618896484375,-89.32500457763672,12.375000953674316,-12.225000381469727
1751121041981563100,4.493563232421875,-87.82500457763672,12.375000953674316,-13.725000381469727
1751121041991507500,4.503507568359375,-87.82500457763672,12.375000953674316,-13.725000381469727
1751121042021340400,4.53334033203125,-87.45000457763672,12.975000381469727,-16.05000114440918
1751121042031284500,4.543284423828125,-87.1500015258789,13.27500057220459,-15.750000953674316
1751121042041228800,4.553228759765625,-86.17500305175781,13.575000762939453,-15.15000057220459
1751121042051173000,4.563173095703125,-86.70000457763672,13.950000762939453,-14.475000381469727
1751121042061117400,4.573117431640625,-86.55000305175781,14.250000953674316,-14.175000190734863
1751121042071061800,4.583061767578125,-85.42500305175781,14.02500057220459,-14.850000381469727
1751121042081005800,4.593005859375,-86.32500457763672,13.575000762939453,-16.125
1751121042090950100,4.6029501953125,-85.95000457763672,13.500000953674316,-16.05000114440918
1751121042100894500,4.61289453125,-85.95000457763672,13.425000190734863,-16.05000114440918
1751121042110838800,4.6228388671875,-86.625,13.27500057220459,-16.350000381469727
1751121042120783000,4.632783203125,-86.92500305175781,13.27500057220459,-16.725000381469727
1751121042130727200,4.64272705078125,-86.92500305175781,13.27500057220459,-16.725000381469727
1751121042140671500,4.65267138671875,-87.1500015258789,13.27500057220459,-17.025001525878906
1751121042150615800,4.66261572265625,-87.1500015258789,12.975000381469727,-16.650001525878906
1751121042160560000,4.67256005859375,-87.1500015258789,12.750000953674316,-16.650001525878906
1751121042170505700,4.682505615234375,-87.67500305175781,12.375000953674316,-16.80000114440918
1751121042180448500,4.692448486328125,-88.20000457763672,11.925000190734863,-17.025001525878906
1751121042190391600,4.7023916015625,-88.20000457763672,11.625,-17.400001525878906
1751121042200334600,4.71233447265625,-88.5,11.40000057220459,-17.475000381469727
1751121042210277600,4.722277587890625,-88.95000457763672,10.800000190734863,-17.700000762939453
1751121042240108300,4.7521083984375,-89.25,9.600000381469727,-17.850000381469727
1751121042250052000,4.762052001953125,-89.92500305175781,9.600000381469727,-17.700000762939453
1751121042259996400,4.771996337890625,-90.22500610351562,9.450000762939453,-17.55000114440918
1751121042269940700,4.781940673828125,-90.22500610351562,9.450000762939453,-17.55000114440918
1751121042279885600,4.791885498046875,-90.9000015258789,9.075000762939453,-17.25
1751121042289830400,4.801830322265625,-90.45000457763672,8.77500057220459,-16.575000762939453
1751121042299775500,4.811775390625,-90.9000015258789,8.475000381469727,-16.350000381469727
1751121042309720600,4.821720458984375,-91.6500015258789,8.700000762939453,-15.825000762939453
1751121042319666000,4.831666015625,-91.72500610351562,8.77500057220459,-15.15000057220459
1751121042329611300,4.841611328125,-91.95000457763672,8.475000381469727,-14.850000381469727
1751121042339556600,4.851556640625,-92.4000015258789,8.25,-14.325000762939453
1751121042349501200,4.861501220703125,-93.22500610351562,8.02500057220459,-13.725000381469727
1751121042359445500,4.871445556640625,-93.9000015258789,7.800000190734863,-13.27500057220459
1751121042369389800,4.881389892578125,-94.125,8.100000381469727,-12.15000057220459
1751121042379334000,4.891333984375,-94.2750015258789,8.700000762939453,-9.975000381469727
1751121042389278200,4.9012783203125,-94.5,9.225000381469727,-8.100000381469727
1751121042399222500,4.911222412109375,-94.875,9.300000190734863,-7.200000286102295
1751121042409166800,4.921166748046875,-94.875,9.300000190734863,-7.200000286102295
1751121042419111200,4.931111083984375,-94.80000305175781,9.225000381469727,-6.975000381469727
1751121042429055200,4.94105517578125,-94.72500610351562,9.075000762939453,-7.275000095367432
1751121042438999600,4.95099951171875,-95.25,9.225000381469727,-7.275000095367432
1751121042448943900,4.96094384765625,-95.32500457763672,9,-7.200000286102295
1751121042458888200,4.97088818359375,-94.72500610351562,9,-7.125000476837158
1751121042468832500,4.98083251953125,-94.875,9.600000381469727,-6.825000286102295
1751121042478776600,4.990776611328125,-95.0250015258789,9.825000762939453,-6.525000095367432
1751121042488721000,5.000720947265625,-94.57500457763672,10.125,-5.850000381469727
1751121042498665200,5.010665283203125,-94.05000305175781,10.575000762939453,-5.025000095367432
1751121042508609500,5.020609619140625,-94.57500457763672,10.725000381469727,-4.125
1751121042518553900,5.030553955078125,-95.0250015258789,10.875,-3.2250001430511475
1751121042528498200,5.040498291015625,-94.80000305175781,10.800000190734863,-3.2250001430511475
1751121042538442200,5.050442138671875,-94.80000305175781,10.800000190734863,-3.2250001430511475
1751121042548386600,5.060386474609375,-95.25,10.575000762939453,-3.825000047683716
1751121042558331000,5.070330810546875,-95.17500305175781,10.350000381469727,-4.200000286102295
1751121042568275200,5.080275146484375,-94.80000305175781,10.350000381469727,-4.650000095367432
1751121042578219500,5.090219482421875,-94.42500305175781,10.65000057220459,-4.425000190734863
1751121042588163600,5.10016357421875,-94.05000305175781,10.725000381469727,-3.6750001907348633
1751121042598108000,5.11010791015625,-94.42500305175781,10.725000381469727,-3.375000238418579
1751121042608052200,5.12005224609375,-94.6500015258789,10.5,-3.2250001430511475
1751121042617996500,5.12999658203125,-94.72500610351562,10.125,-3.2250001430511475
1751121042627940900,5.13994091796875,-95.25,9.675000190734863,-3.3000001907348633
1751121042637885000,5.149885009765625,-95.55000305175781,9.675000190734863,-3.450000047683716
1751121042647829200,5.159829345703125,-95.55000305175781,9.975000381469727,-3.2250001430511475
1751121042667718000,5.1797177734375,-96,9.225000381469727,-3
1751121042677662200,5.189662109375,-96.30000305175781,9.300000190734863,-2.9250001907348633
1751121042687606300,5.199606201171875,-96.30000305175781,9.300000190734863,-2.9250001907348633
1751121042697550600,5.209550537109375,-96,9.225000381469727,-3
1751121042707495000,5.219494873046875,-95.4000015258789,9,-3.5250000953674316
1751121042717439200,5.229439208984375,-95.55000305175781,8.850000381469727,-3.9750001430511475
1751121042727383600,5.239383544921875,-96.07500457763672,9.15000057220459,-4.125
1751121042747272000,5.25927197265625,-96.30000305175781,8.550000190734863,-3.5250000953674316
1751121042757216300,5.26921630859375,-95.625,8.850000381469727,-3.2250001430511475
1751121042767160600,5.27916064453125,-95.4000015258789,9.300000190734863,-3.375000238418579
1751121042777105000,5.28910498046875,-95.25,9.975000381469727,-2.8500001430511475
1751121042787049200,5.29904931640625,-95.25,10.27500057220459,-1.9500000476837158
1751121042796993300,5.3089931640625,-95.4000015258789,10.050000190734863,-1.5
1751121042806937600,5.3189375,-94.875,9.975000381469727,-1.6500000953674316
1751121042816882000,5.3288818359375,-94.875,9.975000381469727,-1.6500000953674316
1751121042826826200,5.338826171875,-94.57500457763672,9.975000381469727,-1.5
1751121042836770600,5.3487705078125,-94.72500610351562,9.975000381469727,-1.4250000715255737
1751121042846714600,5.358714599609375,-95.0250015258789,10.27500057220459,-2.0250000953674316
1751121042866603300,5.378603271484375,-94.5,10.5,-2.625
1751121042876547600,5.388547607421875,-94.72500610351562,10.5,-2.4750001430511475
1751121042886492000,5.398491943359375,-94.5,10.5,-2.625
1751121042896436000,5.40843603515625,-94.20000457763672,10.575000762939453,-3
1751121042906380300,5.41838037109375,-94.6500015258789,10.875,-3.075000047683716
1751121042916324600,5.42832470703125,-94.20000457763672,10.800000190734863,-3.2250001430511475
1751121042926269000,5.43826904296875,-95.25,11.475000381469727,-3.375000238418579
1751121042936213200,5.448213134765625,-94.72500610351562,11.625,-3.375000238418579
1751121042946157300,5.4581572265625,-94.05000305175781,11.475000381469727,-3.375000238418579
1751121042956101600,5.4681015625,-94.05000305175781,11.475000381469727,-3.375000238418579
1751121042966046000,5.4780458984375,-93.67500305175781,11.625,-3.375000238418579
1751121042975990300,5.487990234375,-93.97500610351562,11.40000057220459,-3.375000238418579
1751121042985934600,5.4979345703125,-94.42500305175781,11.325000762939453,-2.9250001907348633
1751121042995879000,5.50787890625,-94.42500305175781,11.325000762939453,-2.8500001430511475
1751121043005823000,5.517822998046875,-94.80000305175781,11.25,-2.7750000953674316
1751121043015767300,5.527767333984375,-94.80000305175781,11.100000381469727,-2.7750000953674316
1751121043025711600,5.537711669921875,-94.42500305175781,10.950000762939453,-3.075000047683716
1751121043035656000,5.547656005859375,-94.42500305175781,10.875,-2.9250001907348633
1751121043045600300,5.557600341796875,-94.42500305175781,10.65000057220459,-2.7750000953674316
1751121043055544300,5.56754443359375,-95.25,10.725000381469727,-2.4750001430511475
1751121043065488600,5.577488525390625,-95.47500610351562,10.875,-2.325000047683716
1751121043075433000,5.587432861328125,-94.95000457763672,10.575000762939453,-2.625
1751121043085377300,5.597377197265625,-95.70000457763672,9.90000057220459,-2.700000047683716
1751121043095321600,5.607321533203125,-95.70000457763672,9.90000057220459,-2.700000047683716
1751121043105265700,5.617265625,-96.22500610351562,9.675000190734863,-3.1500000953674316
1751121043115210000,5.6272099609375,-96.5250015258789,9.52500057220459,-3.2250001430511475
1751121043125154300,5.637154296875,-96.30000305175781,9.300000190734863,-2.9250001907348633
1751121043135098600,5.6470986328125,-95.70000457763672,9,-3.3000001907348633
1751121043145043000,5.65704296875,-96.97500610351562,8.100000381469727,-3.375000238418579
1751121043154987000,5.666987060546875,-96.9000015258789,7.950000286102295,-3.9000000953674316
1751121043164931300,5.676931396484375,-96.45000457763672,7.875000476837158,-4.275000095367432
1751121043174875600,5.686875732421875,-96.45000457763672,7.950000286102295,-4.5
1751121043184820000,5.696820068359375,-96.67500305175781,7.800000190734863,-4.650000095367432
1751121043194764300,5.706764404296875,-96.30000305175781,7.950000286102295,-4.575000286102295
1751121043204708400,5.716708251953125,-96.5250015258789,8.175000190734863,-4.725000381469727
1751121043214652700,5.726652587890625,-97.20000457763672,8.25,-4.725000381469727
1751121043224597000,5.736596923828125,-97.20000457763672,8.475000381469727,-4.725000381469727
1751121043234541300,5.746541259765625,-97.20000457763672,8.475000381469727,-4.725000381469727
1751121043244485600,5.756485595703125,-96.45000457763672,8.325000762939453,-4.875
1751121043254430000,5.766429931640625,-96.45000457763672,8.325000762939453,-4.800000190734863
1751121043264374000,5.7763740234375,-96.97500610351562,8.25,-4.425000190734863
1751121043274318300,5.786318359375,-97.05000305175781,8.02500057220459,-4.200000286102295
1751121043284262700,5.7962626953125,-97.05000305175781,7.950000286102295,-3.750000238418579
1751121043294207000,5.80620703125,-96.75000762939453,8.100000381469727,-3.6750001907348633
1751121043304151300,5.8161513671875,-96.9000015258789,8.40000057220459,-3.5250000953674316
1751121043314095400,5.826095458984375,-96.75000762939453,8.325000762939453,-3.2250001430511475
1751121043324039700,5.836039794921875,-96.9000015258789,8.02500057220459,-3.2250001430511475
1751121043333984000,5.84598388671875,-97.50000762939453,8.40000057220459,-2.625
1751121043343928300,5.85592822265625,-97.42500305175781,8.325000762939453,-2.325000047683716
1751121043353872600,5.86587255859375,-96.9000015258789,7.725000381469727,-2.4750001430511475
1751121043363816700,5.875816650390625,-96.9000015258789,7.725000381469727,-2.4750001430511475
1751121043373761000,5.885760986328125,-97.35000610351562,7.500000476837158,-1.8000000715255737
1751121043383705300,5.895705322265625,-97.72500610351562,7.875000476837158,-0.9750000238418579
1751121043393649700,5.905649658203125,-97.6500015258789,7.875000476837158,-0.9000000357627869
1751121043403594000,5.915593994140625,-97.12500762939453,7.875000476837158,-1.125
1751121043413538000,5.9255380859375,-97.42500305175781,7.875000476837158,-1.2000000476837158
1751121043423482400,5.935482421875,-97.50000762939453,7.725000381469727,-1.350000023841858
1751121043433426700,5.9454267578125,-97.42500305175781,7.800000190734863,-1.5
1751121043443371000,5.95537109375,-97.35000610351562,7.800000190734863,-1.5750000476837158
1751121043453315300,5.9653154296875,-97.35000610351562,7.350000381469727,-1.8750001192092896
1751121043463259400,5.97525927734375,-97.87500762939453,7.050000190734863,-2.1750001907348633
1751121043473203700,5.98520361328125,-97.6500015258789,7.050000190734863,-2.4750001430511475
1751121043483148000,5.99514794921875,-97.42500305175781,7.350000381469727,-2.1000001430511475
1751121043493092400,6.00509228515625,-97.42500305175781,7.500000476837158,-1.8000000715255737
1751121043503036700,6.01503662109375,-97.42500305175781,7.275000095367432,-1.8750001192092896
1751121043512981000,6.02498095703125,-97.42500305175781,7.275000095367432,-1.8750001192092896
1751121043522925000,6.034925048828125,-97.6500015258789,7.200000286102295,-1.9500000476837158
1751121043532869400,6.044869384765625,-97.50000762939453,7.350000381469727,-2.1000001430511475
1751121043542813700,6.054813720703125,-96.9000015258789,7.500000476837158,-1.8000000715255737
1751121043552758000,6.064758056640625,-96.82500457763672,7.425000190734863,-1.2750000953674316
1751121043562702300,6.074702392578125,-97.12500762939453,7.500000476837158,-1.2750000953674316
1751121043572646400,6.084646484375,-98.17500305175781,7.575000286102295,-1.6500000953674316
1751121043582590700,6.0945908203125,-97.35000610351562,7.650000095367432,-1.5
1751121043592535000,6.10453515625,-96.67500305175781,7.650000095367432,-1.2000000476837158
1751121043602479400,6.114479248046875,-96.9000015258789,7.725000381469727,-1.0500000715255737
1751121043612423700,6.124423583984375,-97.12500762939453,7.800000190734863,-1.0500000715255737
1751121043632312000,6.14431201171875,-96.97500610351562,7.800000190734863,-1.0500000715255737
1751121043642256400,6.15425634765625,-96.97500610351562,8.175000190734863,-0.9000000357627869
1751121043652200700,6.16420068359375,-96.97500610351562,8.175000190734863,-0.9000000357627869
1751121043662145000,6.17414501953125,-97.6500015258789,8.175000190734863,-0.9000000357627869
1751121043672089000,6.184089111328125,-97.20000457763672,7.950000286102295,-1.4250000715255737
1751121043682033400,6.194033447265625,-97.35000610351562,8.02500057220459,-1.5750000476837158
1751121043691977700,6.203977783203125,-97.42500305175781,7.650000095367432,-1.9500000476837158
1751121043701922000,6.213922119140625,-97.35000610351562,6.975000381469727,-2.7750000953674316
1751121043711866400,6.223866455078125,-97.35000610351562,6.750000476837158,-3.2250001430511475
1751121043721810400,6.233810546875,-97.72500610351562,6.525000095367432,-3.450000047683716
1751121043731754800,6.243754638671875,-97.80000305175781,6.900000095367432,-3.9000000953674316
1751121043741699000,6.253698974609375,-97.80000305175781,7.275000095367432,-4.650000095367432
1751121043751643400,6.263643310546875,-98.0250015258789,7.125000476837158,-4.650000095367432
1751121043761587700,6.273587646484375,-97.05000305175781,7.050000190734863,-4.425000190734863
1751121043771532000,6.283531982421875,-96.75000762939453,7.200000286102295,-4.800000190734863
1751121043781476000,6.29347607421875,-97.05000305175781,7.200000286102295,-4.950000286102295
1751121043791420400,6.30342041015625,-97.05000305175781,6.825000286102295,-5.025000095367432
1751121043801364700,6.31336474609375,-97.2750015258789,6.750000476837158,-5.175000190734863
1751121043811309000,6.32330908203125,-97.20000457763672,6.600000381469727,-5.550000190734863
1751121043821253400,6.33325341796875,-96.82500457763672,6.600000381469727,-6.150000095367432
1751121043831197400,6.343197509765625,-96.5250015258789,6.825000286102295,-6.750000476837158
1751121043841141800,6.353141845703125,-96.45000457763672,7.050000190734863,-7.125000476837158
1751121043851086000,6.363086181640625,-96,7.425000190734863,-7.500000476837158
1751121043861030400,6.373030517578125,-95.85000610351562,7.725000381469727,-7.800000190734863
1751121043870974700,6.382974609375,-95.85000610351562,8.100000381469727,-7.875000476837158
1751121043880918800,6.392918701171875,-95.55000305175781,8.475000381469727,-7.875000476837158
1751121043890863000,6.402863037109375,-95.55000305175781,8.700000762939453,-7.800000190734863
1751121043900807400,6.412807373046875,-95.625,8.40000057220459,-7.575000286102295
1751121043910751700,6.422751708984375,-95.625,8.175000190734863,-7.800000190734863
1751121043920696000,6.432696044921875,-95.32500457763672,8.175000190734863,-7.950000286102295
1751121043930640400,6.442640380859375,-95.32500457763672,8.175000190734863,-7.950000286102295
1751121043940584700,6.452584716796875,-95.32500457763672,7.950000286102295,-8.25
1751121043950529000,6.462529052734375,-95.32500457763672,8.40000057220459,-8.550000190734863
1751121043960473300,6.472473388671875,-95.4000015258789,8.700000762939453,-9
1751121043970417700,6.482417724609375,-95.4000015258789,8.550000190734863,-9.675000190734863
1751121043980362000,6.492362060546875,-94.80000305175781,8.40000057220459,-9.90000057220459
1751121043990306300,6.502306396484375,-94.42500305175781,8.40000057220459,-10.050000190734863
1751121044000250600,6.512250732421875,-95.0250015258789,7.950000286102295,-10.5
1751121044010195000,6.52219482421875,-96.45000457763672,7.800000190734863,-10.5
1751121044020139300,6.53213916015625,-96.07500457763672,7.350000381469727,-10.425000190734863
1751121044030083600,6.54208349609375,-95.625,6.750000476837158,-10.27500057220459
1751121044040028000,6.55202783203125,-96.30000305175781,6.525000095367432,-10.350000381469727
1751121044049972200,6.56197216796875,-96.5250015258789,6.525000095367432,-10.575000762939453
1751121044069860900,6.58186083984375,-96.9000015258789,6.450000286102295,-10.27500057220459
1751121044079805200,6.59180517578125,-96.60000610351562,6.300000190734863,-9.300000190734863
1751121044089749500,6.60174951171875,-96.82500457763672,6.075000286102295,-8.550000190734863
1751121044099693800,6.61169384765625,-98.25000762939453,5.925000190734863,-8.02500057220459
1751121044109638100,6.62163818359375,-98.32500457763672,6,-6.825000286102295
1751121044119582500,6.63158251953125,-98.0250015258789,5.775000095367432,-5.850000381469727
1751121044129526800,6.64152685546875,-97.50000762939453,5.925000190734863,-5.925000190734863
1751121044149415400,6.66141552734375,-96.75000762939453,8.175000190734863,-6.975000381469727
1751121044159359700,6.67135986328125,-95.85000610351562,9.15000057220459,-7.200000286102295
1751121044169303800,6.6813037109375,-94.80000305175781,9.675000190734863,-6.900000095367432
1751121044179248000,6.691248046875,-94.05000305175781,9.90000057220459,-7.050000190734863
1751121044189192400,6.7011923828125,-94.35000610351562,10.350000381469727,-7.650000095367432
1751121044199136800,6.71113671875,-93.375,10.200000762939453,-8.550000190734863
1751121044209081000,6.7210810546875,-93,9.675000190734863,-9
1751121044219025200,6.731025146484375,-93.9000015258789,9.375,-8.925000190734863
1751121044228969500,6.740969482421875,-94.35000610351562,9.075000762939453,-9
1751121044238913800,6.750913818359375,-94.6500015258789,8.77500057220459,-9.300000190734863
1751121044248858000,6.760858154296875,-95.10000610351562,8.475000381469727,-9.075000762939453
1751121044258802400,6.770802490234375,-94.875,8.475000381469727,-8.850000381469727
1751121044268746500,6.78074658203125,-94.35000610351562,8.40000057220459,-9.075000762939453
1751121044278690800,6.79069091796875,-94.05000305175781,8.325000762939453,-9.375
1751121044288635100,6.80063525390625,-94.05000305175781,8.40000057220459,-9.15000057220459
1751121044298579500,6.810579345703125,-94.35000610351562,8.175000190734863,-9.300000190734863
1751121044308523800,6.820523681640625,-94.05000305175781,8.175000190734863,-9.450000762939453
1751121044318467800,6.8304677734375,-94.05000305175781,8.325000762939453,-9.675000190734863
1751121044328412200,6.840412109375,-94.125,8.25,-10.050000190734863
1751121044338356500,6.8503564453125,-94.125,8.25,-10.050000190734863
1751121044348300800,6.86030078125,-93.97500610351562,8.325000762939453,-9.90000057220459
1751121044358245000,6.8702451171875,-94.125,8.325000762939453,-9.75
1751121044368189200,6.880189208984375,-94.6500015258789,8.25,-10.050000190734863
1751121044378133500,6.890133544921875,-94.5,8.25,-9.90000057220459
1751121044388077800,6.900077880859375,-94.125,8.100000381469727,-9.75
1751121044398022100,6.910022216796875,-93.60000610351562,8.325000762939453,-10.200000762939453
1751121044407966500,6.919966552734375,-93.30000305175781,8.325000762939453,-10.65000057220459
1751121044417910800,6.929910888671875,-94.35000610351562,7.950000286102295,-10.950000762939453
1751121044427854800,6.939854736328125,-94.2750015258789,7.875000476837158,-11.02500057220459
1751121044437799200,6.949799072265625,-93.75,7.650000095367432,-10.950000762939453
1751121044447743500,6.959743408203125,-94.35000610351562,7.425000190734863,-11.02500057220459
1751121044457687800,6.969687744140625,-95.17500305175781,7.125000476837158,-11.325000762939453
1751121044467632000,6.979632080078125,-95.0250015258789,6.975000381469727,-11.475000381469727
1751121044477576200,6.989576171875,-95.0250015258789,6.975000381469727,-11.475000381469727
1751121044487520500,6.9995205078125,-94.35000610351562,6.450000286102295,-11.625
1751121044497464800,7.00946484375,-94.125,6.450000286102295,-11.700000762939453
1751121044507409200,7.0194091796875,-94.05000305175781,6.600000381469727,-12
1751121044517353500,7.029353515625,-94.05000305175781,6.600000381469727,-12.15000057220459
1751121044527297500,7.039297607421875,-94.6500015258789,6.675000190734863,-11.850000381469727
1751121044537241900,7.049241943359375,-94.2750015258789,6.450000286102295,-11.850000381469727
1751121044547186200,7.059186279296875,-93.5250015258789,6.675000190734863,-11.625
1751121044557130500,7.069130615234375,-94.5,6.975000381469727,-11.25
1751121044567074800,7.07907470703125,-94.875,7.050000190734863,-11.325000762939453
1751121044577019000,7.089018798828125,-94.125,7.125000476837158,-11.550000190734863
1751121044586963200,7.098963134765625,-94.2750015258789,6.825000286102295,-11.625
1751121044596907500,7.108907470703125,-95.25,6.525000095367432,-11.25
1751121044606851800,7.118851806640625,-95.55000305175781,6.525000095367432,-11.325000762939453
1751121044616796200,7.128796142578125,-95.55000305175781,6.525000095367432,-11.325000762939453
1751121044626740200,7.138740234375,-94.5,6.750000476837158,-11.325000762939453
1751121044636684500,7.1486845703125,-94.6500015258789,6.750000476837158,-11.700000762939453
1751121044646628900,7.15862890625,-95.10000610351562,7.275000095367432,-11.77500057220459
1751121044656573200,7.1685732421875,-95.10000610351562,6.750000476837158,-11.700000762939453
1751121044666517500,7.178517578125,-94.57500457763672,6.525000095367432,-11.850000381469727
1751121044676461800,7.1884619140625,-94.35000610351562,6.825000286102295,-11.850000381469727
1751121044686406000,7.198406005859375,-95.17500305175781,7.050000190734863,-11.77500057220459
1751121044696350200,7.20835009765625,-95.32500457763672,6.900000095367432,-11.625
1751121044706294500,7.21829443359375,-95.0250015258789,7.125000476837158,-11.25
1751121044716238800,7.22823876953125,-94.875,7.650000095367432,-10.27500057220459
1751121044726183200,7.23818310546875,-94.72500610351562,8.02500057220459,-9.075000762939453
1751121044736127200,7.248127197265625,-95.25,8.550000190734863,-7.800000190734863
1751121044746071600,7.258071533203125,-95.32500457763672,9,-6.975000381469727
1751121044756015900,7.268015869140625,-95.32500457763672,9,-6.975000381469727
1751121044765960200,7.277960205078125,-95.32500457763672,9.300000190734863,-6.675000190734863
1751121044775904500,7.287904541015625,-95.32500457763672,9.450000762939453,-6.450000286102295
1751121044785848600,7.2978486328125,-94.57500457763672,9.675000190734863,-7.200000286102295
1751121044795793000,7.30779296875,-94.2750015258789,9.675000190734863,-8.02500057220459
1751121044805737200,7.3177373046875,-94.5,9.75,-8.100000381469727
1751121044815681500,7.327681640625,-94.5,9.375,-8.02500057220459
1751121044825625900,7.3376259765625,-94.5,9.15000057220459,-7.800000190734863
1751121044835570000,7.34756982421875,-95.4000015258789,9.15000057220459,-7.425000190734863
1751121044845514200,7.35751416015625,-95.25,9.225000381469727,-6.975000381469727
1751121044855458600,7.36745849609375,-95.25,9.450000762939453,-6.225000381469727
1751121044865403000,7.37740283203125,-94.42500305175781,9.600000381469727,-5.175000190734863
1751121044875347200,7.38734716796875,-94.2750015258789,10.27500057220459,-4.5
1751121044885291300,7.397291259765625,-94.2750015258789,10.27500057220459,-4.5
1751121044895235600,7.407235595703125,-94.2750015258789,10.27500057220459,-4.5
1751121044905180000,7.417179931640625,-94.2750015258789,10.65000057220459,-2.9250001907348633
1751121044915124200,7.427124267578125,-94.6500015258789,10.800000190734863,-2.625
1751121044925068500,7.437068603515625,-94.35000610351562,10.575000762939453,-2.325000047683716
1751121044935012900,7.447012939453125,-94.95000457763672,10.425000190734863,-2.9250001907348633
1751121044944957000,7.45695703125,-95.25,10.050000190734863,-3.5250000953674316
1751121044954901200,7.4669013671875,-94.72500610351562,9.600000381469727,-4.125
1751121044964845600,7.476845458984375,-94.6500015258789,9.600000381469727,-4.875
1751121044974790000,7.486789794921875,-94.57500457763672,9.975000381469727,-5.850000381469727
1751121044984734200,7.496734130859375,-94.35000610351562,10.27500057220459,-6.750000476837158
1751121044994678500,7.506678466796875,-94.05000305175781,10.425000190734863,-7.125000476837158
1751121045004622800,7.516622802734375,-93.82500457763672,10.5,-7.125000476837158
1751121045014567200,7.526567138671875,-93.60000610351562,10.425000190734863,-7.125000476837158
1751121045024511500,7.536511474609375,-93.97500610351562,10.200000762939453,-6.900000095367432
1751121045034455800,7.546455810546875,-93.97500610351562,10.200000762939453,-6.900000095367432
1751121045044400000,7.556400146484375,-94.72500610351562,9.52500057220459,-6.375000476837158
1751121045054344400,7.566344482421875,-95.10000610351562,10.125,-6.300000190734863
1751121045064288800,7.576288818359375,-94.125,10.050000190734863,-7.050000190734863
1751121045074233000,7.586233154296875,-93.82500457763672,10.425000190734863,-7.500000476837158
1751121045084177400,7.596177490234375,-93.82500457763672,10.350000381469727,-7.500000476837158
1751121045094121700,7.606121826171875,-93.30000305175781,9.52500057220459,-7.725000381469727
1751121045104066000,7.616066162109375,-93.60000610351562,9.450000762939453,-8.02500057220459
1751121045114010400,7.62601025390625,-94.125,9.300000190734863,-8.325000762939453
1751121045123954700,7.63595458984375,-94.125,9.300000190734863,-8.475000381469727
1751121045133899000,7.64589892578125,-94.05000305175781,9.825000762939453,-8.925000190734863
1751121045143843300,7.65584326171875,-93.82500457763672,9.825000762939453,-9.075000762939453
1751121045153787600,7.66578759765625,-93.5250015258789,9.600000381469727,-9.675000190734863
1751121045163732000,7.67573193359375,-92.85000610351562,9.825000762939453,-10.425000190734863
1751121045173676300,7.68567626953125,-92.85000610351562,9.825000762939453,-10.425000190734863
1751121045183620600,7.69562060546875,-93.30000305175781,9.90000057220459,-10.5
1751121045193565000,7.70556494140625,-93.82500457763672,9.975000381469727,-10.125
1751121045203509200,7.71550927734375,-93.375,10.050000190734863,-9.600000381469727
1751121045213453600,7.72545361328125,-93.75,9.975000381469727,-8.925000190734863
1751121045223398000,7.73539794921875,-94.42500305175781,9.975000381469727,-8.325000762939453
1751121045233342200,7.74534228515625,-94.5,9.975000381469727,-8.100000381469727
1751121045243286500,7.75528662109375,-94.05000305175781,9.75,-8.100000381469727
1751121045253230800,7.76523095703125,-93.75,9.450000762939453,-8.02500057220459
1751121045263175200,7.775175048828125,-93.82500457763672,9.825000762939453,-8.100000381469727
1751121045273119500,7.785119384765625,-93.30000305175781,10.050000190734863,-8.625
1751121045283063800,7.795063720703125,-93.82500457763672,9.90000057220459,-8.475000381469727
1751121045293008100,7.805008056640625,-93.75,9.825000762939453,-7.725000381469727
1751121045302952400,7.814952392578125,-93.75,9.825000762939453,-7.725000381469727
1751121045312896800,7.824896728515625,-93.75,10.125,-6.600000381469727
1751121045322841000,7.834841064453125,-94.95000457763672,10.27500057220459,-5.550000190734863
1751121045332785400,7.844785400390625,-94.95000457763672,10.200000762939453,-4.5
1751121045342729700,7.854729736328125,-94.95000457763672,9.975000381469727,-3.6000001430511475
1751121045352674000,7.864674072265625,-95.47500610351562,9.675000190734863,-2.325000047683716
1751121045362618400,7.874618408203125,-95.85000610351562,9.675000190734863,-1.5
1751121045372562400,7.8845625,-96.75000762939453,9.825000762939453,-0.75
1751121045382506800,7.8945068359375,-96.45000457763672,9.75,-0.30000001192092896
1751121045392451000,7.904451171875,-96.37500762939453,9.600000381469727,-0.45000001788139343
1751121045402395400,7.9143955078125,-96.22500610351562,9.90000057220459,-0.75
1751121045412339700,7.924339599609375,-95.32500457763672,9.90000057220459,-0.8250000476837158
1751121045422283800,7.93428369140625,-96.1500015258789,9.52500057220459,0.07500000298023224
1751121045432228000,7.94422802734375,-96.45000457763672,9.300000190734863,0.675000011920929
1751121045442172400,7.95417236328125,-96.37500762939453,9.375,1.350000023841858
1751121045452116700,7.96411669921875,-96.37500762939453,9.375,1.350000023841858
1751121045462061000,7.97406103515625,-97.12500762939453,9.225000381469727,2.5500001907348633
1751121045472005000,7.984005126953125,-97.2750015258789,9,3.1500000953674316
1751121045481949400,7.993949462890625,-96,8.77500057220459,4.200000286102295
1751121045491893800,8.003893798828125,-96.60000610351562,9.075000762939453,4.350000381469727
1751121045501838000,8.013838134765624,-96.60000610351562,9.15000057220459,4.5
1751121045511782400,8.023782470703125,-96.75000762939453,9.15000057220459,4.350000381469727
1751121045521726700,8.033726806640624,-96.5250015258789,9.225000381469727,4.275000095367432
1751121045531670800,8.0436708984375,-95.70000457763672,9.375,4.275000095367432
1751121045541615000,8.053614990234376,-95.0250015258789,9.75,4.875
1751121045551559400,8.063559326171875,-94.95000457763672,10.125,5.400000095367432
1751121045561503700,8.073503662109376,-95.17500305175781,10.5,5.625
1751121045571448000,8.083447998046875,-94.80000305175781,10.575000762939453,5.850000381469727
1751121045581392100,8.09339208984375,-94.80000305175781,10.575000762939453,5.850000381469727
1751121045591336400,8.10333642578125,-94.6500015258789,10.5,5.475000381469727
1751121045601280800,8.11328076171875,-95.17500305175781,10.425000190734863,4.950000286102295
1751121045611225000,8.12322509765625,-95.25,10.65000057220459,4.350000381469727
1751121045621169400,8.13316943359375,-95.47500610351562,10.65000057220459,3.6750001907348633
1751121045631113500,8.143113525390625,-95.85000610351562,10.27500057220459,2.8500001430511475
1751121045641057800,8.153057861328126,-95.55000305175781,10.27500057220459,1.8750001192092896
1751121045651002000,8.163002197265625,-95.92500305175781,10.350000381469727,1.2750000953674316
1751121045660946400,8.172946533203126,-96.45000457763672,10.350000381469727,1.0500000715255737
1751121045670891800,8.182891845703125,-96.37500762939453,10.350000381469727,1.2750000953674316
1751121045680835600,8.192835693359376,-96.37500762939453,10.350000381469727,1.5750000476837158
1751121045690779400,8.202779296875,-95.0250015258789,10.5,2.1750001907348633
1751121045700723200,8.21272314453125,-95.55000305175781,10.200000762939453,2.1750001907348633
1751121045710667300,8.222667236328125,-96.37500762939453,10.050000190734863,2.5500001907348633
1751121045720611000,8.232611083984375,-96.37500762939453,10.050000190734863,2.5500001907348633
1751121045730555100,8.24255517578125,-96.37500762939453,10.125,2.9250001907348633
1751121045740499200,8.252499267578125,-96.75000762939453,9.825000762939453,3.2250001430511475
1751121045750443300,8.262443359375,-96.5250015258789,9.90000057220459,3.750000238418579
1751121045760387600,8.2723876953125,-95.85000610351562,10.125,4.650000095367432
1751121045770331600,8.28233154296875,-96.22500610351562,10.350000381469727,5.550000190734863
1751121045780276000,8.29227587890625,-96.5250015258789,10.200000762939453,5.850000381469727
1751121045790220300,8.30222021484375,-95.92500305175781,10.5,6.150000095367432
1751121045800164600,8.31216455078125,-95.7750015258789,10.800000190734863,6.450000286102295
1751121045810109200,8.322109130859374,-95.7750015258789,10.800000190734863,5.850000381469727
1751121045820053500,8.332053466796875,-95.55000305175781,10.875,5.325000286102295
1751121045829998000,8.341998046875,-95.625,11.100000381469727,4.650000095367432
1751121045839942700,8.351942626953125,-95.55000305175781,11.40000057220459,3.6000001430511475
1751121045849887200,8.36188720703125,-95.32500457763672,11.625,2.4000000953674316
1751121045869776400,8.3817763671875,-95.625,11.550000190734863,1.9500000476837158
1751121045879721000,8.391720947265625,-95.92500305175781,11.25,2.0250000953674316
1751121045889665500,8.40166552734375,-96.07500457763672,10.800000190734863,1.9500000476837158
1751121045899609900,8.41160986328125,-96.45000457763672,10.200000762939453,2.0250000953674316
1751121045909554200,8.42155419921875,-96.67500305175781,10.65000057220459,1.8750001192092896
1751121045919498500,8.43149853515625,-95.32500457763672,11.550000190734863,1.0500000715255737
1751121045929442800,8.44144287109375,-93.9000015258789,12.075000762939453,0.5250000357627869
1751121045939387000,8.451386962890625,-93.82500457763672,12.52500057220459,0.375
1751121045949331200,8.461331298828124,-93.97500610351562,12.600000381469727,0.22500000894069672
1751121045959275500,8.471275634765625,-94.125,12.300000190734863,0.15000000596046448
1751121045969219800,8.4812197265625,-94.875,11.925000190734863,-0.07500000298023224
1751121045979164200,8.4911640625,-94.6500015258789,11.40000057220459,-0.375
1751121045989108200,8.501108154296874,-94.875,10.875,-0.15000000596046448
1751121045999052500,8.511052490234375,-94.875,10.875,-0.15000000596046448
1751121046008996900,8.520996826171874,-96,10.65000057220459,-0.07500000298023224
1751121046018941200,8.530941162109375,-96.22500610351562,10.950000762939453,0
1751121046028885500,8.540885498046874,-96.22500610351562,10.575000762939453,0.22500000894069672
1751121046038829600,8.55082958984375,-95.92500305175781,10.200000762939453,0.22500000894069672
1751121046048774000,8.56077392578125,-95.70000457763672,10.350000381469727,0.15000000596046448
1751121046058718200,8.57071826171875,-96.22500610351562,9.975000381469727,0.375
1751121046068662500,8.58066259765625,-95.70000457763672,9.75,0.6000000238418579
1751121046078606800,8.59060693359375,-95.32500457763672,9.450000762939453,0.75
1751121046088551000,8.600551025390626,-96.07500457763672,9.375,1.2000000476837158
1751121046098495200,8.6104951171875,-96.30000305175781,9.75,1.5750000476837158
1751121046108439600,8.620439453125,-96.45000457763672,9.75,1.5750000476837158
1751121046118383900,8.6303837890625,-95.85000610351562,9.90000057220459,2.8500001430511475
1751121046128328200,8.640328125,-95.55000305175781,9.90000057220459,3.9750001430511475
1751121046138272300,8.650272216796875,-95.55000305175781,9.90000057220459,3.9750001430511475
1751121046148216600,8.660216552734376,-95.25,9.825000762939453,5.25
1751121046158161000,8.670160888671875,-94.875,9.975000381469727,5.850000381469727
1751121046168105200,8.680105224609376,-94.875,10.200000762939453,6.300000190734863
1751121046178049500,8.690049560546875,-95.47500610351562,10.65000057220459,6.375000476837158
1751121046187993900,8.699993896484376,-95.4000015258789,10.725000381469727,6.150000095367432
1751121046197938000,8.70993798828125,-95.0250015258789,10.575000762939453,5.625
1751121046207882200,8.71988232421875,-95.32500457763672,10.575000762939453,5.175000190734863
1751121046217826600,8.72982666015625,-95.47500610351562,10.800000190734863,5.175000190734863
1751121046227771000,8.73977099609375,-94.95000457763672,10.875,5.625
1751121046237715200,8.749715087890625,-94.6500015258789,10.65000057220459,6.450000286102295
1751121046247659300,8.7596591796875,-94.57500457763672,10.5,7.575000286102295
1751121046257603600,8.769603515625,-94.57500457763672,10.800000190734863,8.625
1751121046267548000,8.7795478515625,-94.42500305175781,10.725000381469727,9.450000762939453
1751121046277492200,8.7894921875,-94.42500305175781,10.725000381469727,9.450000762939453
1751121046287436500,8.7994365234375,-94.35000610351562,10.725000381469727,9.675000190734863
1751121046297380600,8.809380615234375,-94.125,11.02500057220459,9.675000190734863
1751121046307325000,8.819324951171875,-93.9000015258789,11.100000381469727,9.675000190734863
1751121046317269200,8.829269287109375,-93.9000015258789,10.950000762939453,9.52500057220459
1751121046327213600,8.839213623046875,-93.375,11.100000381469727,9.15000057220459
1751121046337158000,8.849157958984375,-92.85000610351562,11.475000381469727,8.925000190734863
1751121046347102000,8.85910205078125,-93.375,11.77500057220459,9.15000057220459
1751121046357046300,8.86904638671875,-93.9000015258789,11.850000381469727,8.850000381469727
1751121046366990600,8.878990478515625,-93.45000457763672,11.850000381469727,8.625
1751121046376935000,8.888934814453124,-93.30000305175781,11.850000381469727,8.700000762939453
1751121046386879200,8.898879150390625,-93.1500015258789,11.625,9.300000190734863
1751121046396823300,8.9088232421875,-92.85000610351562,11.850000381469727,9.825000762939453
1751121046406767600,8.918767578125,-92.4000015258789,12.225000381469727,9.90000057220459
1751121046416712000,8.9287119140625,-92.4000015258789,12.225000381469727,9.90000057220459
1751121046426656300,8.93865625,-92.25,12.300000190734863,9.90000057220459
1751121046436600600,8.9486005859375,-92.625,12,9.600000381469727
1751121046446545000,8.958544921875,-92.85000610351562,11.850000381469727,9.600000381469727
1751121046456489000,8.968489013671874,-93.375,11.475000381469727,10.350000381469727
1751121046466433300,8.978433349609375,-93.97500610351562,11.100000381469727,11.25
1751121046476377600,8.988377685546874,-93.1500015258789,10.800000190734863,12.15000057220459
1751121046486322000,8.998322021484375,-92.92500305175781,10.5,12.90000057220459
1751121046496266200,9.008266357421874,-93.9000015258789,9.675000190734863,13.200000762939453
1751121046506210300,9.018210205078125,-94.6500015258789,9.15000057220459,13.575000762939453
1751121046516154600,9.028154541015626,-94.35000610351562,9.300000190734863,13.800000190734863
1751121046526099000,9.038098876953125,-94.42500305175781,8.550000190734863,14.02500057220459
1751121046536043300,9.048043212890626,-95.32500457763672,7.650000095367432,14.925000190734863
1751121046545987600,9.057987548828125,-95.7750015258789,6.075000286102295,15.825000762939453
1751121046555931600,9.067931640625,-95.7750015258789,6.075000286102295,15.825000762939453
1751121046565876000,9.0778759765625,-96.5250015258789,5.475000381469727,15.975000381469727
1751121046575820300,9.0878203125,-96.45000457763672,5.025000095367432,16.875
1751121046585764600,9.0977646484375,-96.30000305175781,4.725000381469727,17.475000381469727
1751121046595709000,9.107708984375,-96.37500762939453,4.125,17.475000381469727
1751121046605653000,9.117653076171875,-96.9000015258789,3.6000001430511475,17.850000381469727
1751121046615597300,9.127597412109376,-97.2750015258789,3.825000047683716,18.075000762939453
1751121046625541600,9.137541748046875,-97.05000305175781,3.750000238418579,17.625
1751121046635486000,9.14748583984375,-97.6500015258789,3.2250001430511475,17.100000381469727
1751121046645430300,9.15743017578125,-97.95000457763672,3.2250001430511475,16.650001525878906
1751121046655374800,9.167374755859376,-97.95000457763672,3.2250001430511475,16.350000381469727
1751121046665319200,9.177319091796875,-98.25000762939453,3.2250001430511475,16.650001525878906
1751121046675263500,9.187263427734376,-98.32500457763672,3.6000001430511475,16.725000381469727
1751121046685207800,9.197207763671875,-97.80000305175781,4.275000095367432,16.5
1751121046695152000,9.207152099609376,-97.80000305175781,4.275000095367432,16.5
1751121046705096400,9.217096435546875,-96.5250015258789,4.725000381469727,16.200000762939453
1751121046715040800,9.227040771484376,-96.37500762939453,5.775000095367432,15.975000381469727
1751121046724985000,9.236985107421875,-96.82500457763672,6.600000381469727,15.15000057220459
1751121046734929400,9.246929443359376,-96.67500305175781,6.900000095367432,13.950000762939453
1751121046744873700,9.256873779296875,-96.45000457763672,7.125000476837158,13.425000190734863
1751121046754818000,9.266818115234376,-96.45000457763672,6.975000381469727,13.200000762939453
1751121046764762400,9.276762451171875,-96.22500610351562,6.975000381469727,12.90000057220459
1751121046774706700,9.286706787109376,-96.75000762939453,7.050000190734863,12.52500057220459
1751121046784651000,9.296651123046875,-96.75000762939453,7.125000476837158,12.300000190734863
1751121046794595300,9.30659521484375,-96.97500610351562,7.200000286102295,12.225000381469727
1751121046804539600,9.31653955078125,-97.05000305175781,6.900000095367432,12.600000381469727
1751121046814484000,9.32648388671875,-96.5250015258789,6.825000286102295,12.750000953674316
1751121046824428300,9.33642822265625,-96.37500762939453,7.125000476837158,12.450000762939453
1751121046834372600,9.34637255859375,-96.37500762939453,7.125000476837158,12.450000762939453
1751121046844317000,9.35631689453125,-96.67500305175781,6.750000476837158,12.750000953674316
1751121046864205600,9.37620556640625,-96.9000015258789,6.975000381469727,13.425000190734863
1751121046874150000,9.38614990234375,-96.67500305175781,6.975000381469727,13.050000190734863
1751121046884094200,9.39609423828125,-96.60000610351562,6.750000476837158,13.200000762939453
1751121046894038500,9.40603857421875,-96.67500305175781,6.825000286102295,13.350000381469727
1751121046903982800,9.41598291015625,-96.97500610351562,6.450000286102295,13.425000190734863
1751121046913927200,9.42592724609375,-96.60000610351562,6.450000286102295,13.725000381469727
1751121046923871500,9.43587158203125,-96.37500762939453,6.525000095367432,13.875000953674316
1751121046933815800,9.44581591796875,-97.35000610351562,6.525000095367432,14.100000381469727
1751121046943760100,9.455760009765624,-96.97500610351562,6.825000286102295,14.250000953674316
1751121046953704400,9.465704345703125,-96.45000457763672,6.675000190734863,13.950000762939453
1751121046963648800,9.475648681640624,-96.37500762939453,6.750000476837158,13.575000762939453
1751121046973593000,9.485593017578125,-95.92500305175781,7.125000476837158,13.725000381469727
1751121046983537400,9.495537353515624,-96.45000457763672,7.200000286102295,13.800000190734863
1751121046993481700,9.505481689453125,-96.67500305175781,7.125000476837158,13.200000762939453
1751121047003426000,9.515426025390624,-96.75000762939453,7.200000286102295,13.350000381469727
1751121047013370000,9.5253701171875,-96.97500610351562,7.125000476837158,13.950000762939453
1751121047023314400,9.535314453125,-96.45000457763672,7.200000286102295,13.725000381469727
1751121047033258800,9.5452587890625,-96.22500610351562,7.125000476837158,13.425000190734863
1751121047043203000,9.555203125,-96.07500457763672,6.825000286102295,13.875000953674316
1751121047053147400,9.5651474609375,-95.32500457763672,6.825000286102295,13.725000381469727
1751121047063091500,9.575091552734374,-96.07500457763672,7.125000476837158,13.65000057220459
1751121047073035800,9.585035888671875,-96.22500610351562,6.900000095367432,13.350000381469727
1751121047082980000,9.59497998046875,-96.45000457763672,6.825000286102295,13.125000953674316
1751121047092924400,9.60492431640625,-96.45000457763672,7.125000476837158,13.125000953674316
1751121047102868700,9.61486865234375,-95.625,7.050000190734863,13.050000190734863
1751121047112812800,9.624812744140625,-95.625,7.050000190734863,13.050000190734863
1751121047122757000,9.634757080078124,-95.625,7.125000476837158,13.125000953674316
1751121047132701400,9.644701416015625,-95.70000457763672,7.050000190734863,12.825000762939453
1751121047142645800,9.654645751953124,-95.85000610351562,6.900000095367432,12.825000762939453
1751121047152590000,9.664590087890625,-95.92500305175781,7.050000190734863,13.125000953674316
1751121047162534100,9.6745341796875,-97.12500762939453,6.750000476837158,13.050000190734863
1751121047172478500,9.684478515625,-97.2750015258789,6.750000476837158,12.600000381469727
1751121047182422800,9.6944228515625,-96.22500610351562,6.900000095367432,12.225000381469727
1751121047192367000,9.7043671875,-96,6.750000476837158,12.15000057220459
1751121047202311400,9.7143115234375,-96.22500610351562,7.125000476837158,12.52500057220459
1751121047212255500,9.72425537109375,-96.30000305175781,7.425000190734863,12.450000762939453
1751121047222199800,9.73419970703125,-96.1500015258789,7.425000190734863,12.300000190734863
1751121047232144100,9.74414404296875,-96,7.200000286102295,12.750000953674316
1751121047242088400,9.75408837890625,-96,7.200000286102295,12.750000953674316
1751121047252032800,9.76403271484375,-96,7.200000286102295,12.750000953674316
1751121047261977000,9.77397705078125,-96.37500762939453,6.975000381469727,12.300000190734863
1751121047271921200,9.783921142578125,-96.22500610351562,7.275000095367432,12.225000381469727
1751121047281865500,9.793865478515626,-96.97500610351562,7.425000190734863,12.300000190734863
1751121047291809800,9.803809814453125,-96.5250015258789,7.350000381469727,12.300000190734863
1751121047301754000,9.813754150390626,-95.25,7.500000476837158,12.52500057220459
1751121047311698400,9.823698486328125,-95.47500610351562,7.500000476837158,12.750000953674316
1751121047321642500,9.833642578125,-96.22500610351562,7.500000476837158,12.600000381469727
1751121047331586800,9.8435869140625,-95.70000457763672,7.725000381469727,12.600000381469727
1751121047341531100,9.85353125,-95.47500610351562,7.800000190734863,12.825000762939453
1751121047351475500,9.863475341796875,-95.7750015258789,7.950000286102295,12.675000190734863
1751121047361419800,9.873419677734375,-96,8.100000381469727,12.825000762939453
1751121047371363800,9.88336376953125,-95.7750015258789,7.800000190734863,13.050000190734863
1751121047381308200,9.89330810546875,-95.7750015258789,7.650000095367432,13.050000190734863
1751121047391252500,9.90325244140625,-96,7.875000476837158,13.125000953674316
1751121047401196800,9.91319677734375,-95.70000457763672,7.575000286102295,13.125000953674316
1751121047411141000,9.92314111328125,-95.4000015258789,7.650000095367432,12.90000057220459
1751121047421085200,9.933085205078125,-95.4000015258789,7.950000286102295,12.90000057220459
1751121047431029500,9.943029541015624,-95.25,7.875000476837158,12.90000057220459
1751121047440973800,9.952973876953125,-95.17500305175781,7.650000095367432,12.600000381469727
1751121047450918100,9.962918212890624,-95.25,7.650000095367432,12.600000381469727
1751121047460862500,9.972862548828125,-95.47500610351562,7.800000190734863,12.750000953674316
1751121047470806500,9.982806640625,-95.47500610351562,7.950000286102295,12.750000953674316
1751121047480750800,9.992750732421875,-94.875,8.100000381469727,12.90000057220459
1751121047500639500,10.012639404296875,-94.95000457763672,7.725000381469727,12.825000762939453
1751121047510583800,10.022583740234374,-95.625,7.875000476837158,13.200000762939453
1751121047520528100,10.032528076171875,-95.70000457763672,8.02500057220459,13.200000762939453
1751121047530472200,10.04247216796875,-95.70000457763672,8.02500057220459,13.200000762939453
1751121047540416500,10.05241650390625,-95.47500610351562,8.02500057220459,13.425000190734863
1751121047550360800,10.06236083984375,-95.25,7.875000476837158,13.200000762939453
1751121047560305200,10.07230517578125,-94.6500015258789,8.02500057220459,12.750000953674316
1751121047570249500,10.08224951171875,-94.5,8.02500057220459,12.750000953674316
1751121047580193500,10.092193603515625,-94.6500015258789,8.25,12.825000762939453
1751121047590137900,10.102137939453126,-94.875,8.02500057220459,12.600000381469727
1751121047600082200,10.112082275390625,-95.4000015258789,7.575000286102295,12.600000381469727
1751121047610026500,10.122026611328126,-95.25,8.175000190734863,12.600000381469727
1751121047619970800,10.131970703125,-95.625,8.02500057220459,12.600000381469727
1751121047629915000,10.141914794921876,-96.07500457763672,8.40000057220459,12.375000953674316
1751121047639859200,10.151859130859375,-95.7750015258789,8.475000381469727,12.075000762939453
1751121047649803500,10.161803466796876,-95.25,8.475000381469727,12.300000190734863
1751121047659747800,10.171747802734375,-95.25,8.475000381469727,12.300000190734863
1751121047669692200,10.181692138671876,-95.17500305175781,8.40000057220459,12.300000190734863
1751121047679636200,10.19163623046875,-94.95000457763672,8.325000762939453,12.375000953674316
1751121047689580500,10.20158056640625,-94.72500610351562,8.325000762939453,12.300000190734863
1751121047699524900,10.21152490234375,-95.25,8.550000190734863,12
1751121047709469200,10.22146923828125,-95.25,8.625,12.075000762939453
1751121047719413500,10.23141357421875,-94.95000457763672,8.550000190734863,12.225000381469727
1751121047729357800,10.24135791015625,-95.70000457763672,8.325000762939453,12.075000762939453
1751121047739302400,10.251302490234375,-95.70000457763672,8.475000381469727,11.925000190734863
1751121047749246700,10.261246826171876,-95.25,8.850000381469727,11.925000190734863
1751121047759191000,10.27119091796875,-94.95000457763672,9,11.925000190734863
1751121047769135400,10.28113525390625,-94.72500610351562,8.77500057220459,12.075000762939453
1751121047779079700,10.29107958984375,-95.17500305175781,8.77500057220459,12.52500057220459
1751121047789024000,10.30102392578125,-95.47500610351562,8.925000190734863,12.675000190734863
1751121047798968300,10.31096826171875,-95.55000305175781,8.925000190734863,12.375000953674316
1751121047808912600,10.32091259765625,-95.55000305175781,8.925000190734863,12.375000953674316
1751121047818857000,10.33085693359375,-95.70000457763672,8.925000190734863,12.450000762939453
1751121047828801300,10.34080126953125,-95.32500457763672,8.925000190734863,12.075000762939453
1751121047838745600,10.35074560546875,-95.32500457763672,8.850000381469727,11.700000762939453
1751121047848690000,10.36068994140625,-96.22500610351562,8.550000190734863,11.475000381469727
1751121047858634200,10.37063427734375,-95.85000610351562,8.700000762939453,11.100000381469727
1751121047868578600,10.38057861328125,-95.10000610351562,8.550000190734863,10.5
1751121047888467200,10.40046728515625,-95.47500610351562,8.475000381469727,10.575000762939453
1751121047898411500,10.41041162109375,-95.625,8.40000057220459,10.27500057220459
1751121047908355800,10.42035595703125,-95.47500610351562,8.100000381469727,10.200000762939453
1751121047918300200,10.430300048828125,-95.55000305175781,8.100000381469727,10.27500057220459
1751121047928244500,10.440244384765625,-95.625,8.625,10.425000190734863
1751121047938188800,10.450188720703125,-95.625,8.625,10.425000190734863
1751121047948133000,10.460133056640625,-95.625,8.625,10.425000190734863
1751121047958077400,10.470077392578125,-96.67500305175781,8.325000762939453,9.600000381469727
1751121047968021800,10.480021728515625,-96.67500305175781,8.475000381469727,9.375
1751121047977966000,10.489966064453125,-96.30000305175781,8.325000762939453,9.075000762939453
1751121047987910400,10.499910400390625,-95.85000610351562,7.800000190734863,9.300000190734863
1751121047997854700,10.509854736328125,-96,8.325000762939453,9.825000762939453
1751121048007799000,10.519799072265625,-95.85000610351562,8.625,9.375
1751121048017743400,10.529743408203124,-95.625,8.40000057220459,9.300000190734863
1751121048027687700,10.539687744140625,-95.7750015258789,8.40000057220459,9.225000381469727
1751121048047576300,10.559576416015625,-96.82500457763672,8.25,9.075000762939453
1751121048057520600,10.569520751953124,-96.82500457763672,8.25,8.700000762939453
1751121048067465000,10.57946484375,-95.625,8.175000190734863,8.77500057220459
1751121048077409000,10.589408935546874,-95.625,8.175000190734863,8.77500057220459
1751121048087353300,10.599353271484375,-95.85000610351562,8.175000190734863,9.075000762939453
1751121048107242000,10.619241943359375,-96.07500457763672,7.875000476837158,9.600000381469727
1751121048117186300,10.629186279296874,-95.85000610351562,7.800000190734863,9.600000381469727
1751121048127130600,10.639130615234375,-95.625,8.02500057220459,9.375
1751121048137074700,10.64907470703125,-96.60000610351562,8.02500057220459,9.90000057220459
1751121048147019000,10.65901904296875,-97.2750015258789,7.500000476837158,10.125
1751121048156963300,10.66896337890625,-96.75000762939453,7.350000381469727,9.825000762939453
1751121048166907600,10.67890771484375,-96.07500457763672,7.500000476837158,9.300000190734863
1751121048176852000,10.68885205078125,-96.07500457763672,7.575000286102295,8.625
1751121048186796000,10.698796142578125,-96.82500457763672,7.800000190734863,8.475000381469727
1751121048196740400,10.708740234375,-96.82500457763672,8.02500057220459,8.77500057220459
1751121048206684700,10.7186845703125,-96.37500762939453,7.875000476837158,8.77500057220459
1751121048226573300,10.7385732421875,-96.37500762939453,7.875000476837158,8.700000762939453
1751121048236517400,10.748517333984376,-96.5250015258789,7.725000381469727,9.225000381469727
1751121048246461700,10.758461669921875,-96.60000610351562,7.575000286102295,9.300000190734863
1751121048256406000,10.768406005859376,-96.82500457763672,8.175000190734863,9.225000381469727
1751121048266350300,10.778350341796875,-96.67500305175781,7.800000190734863,9.075000762939453
1751121048286238700,10.79823876953125,-97.12500762939453,7.350000381469727,9.225000381469727
1751121048296183000,10.80818310546875,-97.05000305175781,7.425000190734863,9.15000057220459
1751121048306127400,10.81812744140625,-97.2750015258789,7.350000381469727,9.15000057220459
1751121048316071700,10.82807177734375,-97.95000457763672,7.425000190734863,9
1751121048326016000,10.83801611328125,-97.42500305175781,7.650000095367432,8.77500057220459
1751121048335960000,10.8479599609375,-96.82500457763672,7.500000476837158,8.625
1751121048345904400,10.857904296875,-97.57500457763672,7.500000476837158,8.40000057220459
1751121048355848700,10.8678486328125,-97.57500457763672,7.500000476837158,8.40000057220459
1751121048365793000,10.87779296875,-97.72500610351562,7.500000476837158,8.100000381469727
1751121048375737300,10.8877373046875,-97.35000610351562,7.500000476837158,7.725000381469727
1751121048385681700,10.897681640625,-97.12500762939453,7.575000286102295,7.800000190734863
1751121048405570000,10.917570068359375,-96.82500457763672,7.425000190734863,8.550000190734863
1751121048415514400,10.927514404296875,-96.82500457763672,7.050000190734863,9
1751121048425458700,10.937458740234375,-96.82500457763672,7.200000286102295,9.52500057220459
1751121048435403000,10.947403076171875,-96.60000610351562,7.425000190734863,9.825000762939453
1751121048445347000,10.95734716796875,-96.60000610351562,6.900000095367432,10.350000381469727
1751121048455291400,10.96729150390625,-96,6.975000381469727,10.800000190734863
1751121048465235700,10.977235595703124,-96.75000762939453,6.975000381469727,10.950000762939453
1751121048475180000,10.987179931640625,-97.35000610351562,7.125000476837158,11.02500057220459
1751121048485124400,10.997124267578124,-98.0250015258789,7.275000095367432,11.325000762939453
1751121048495068400,11.007068359375,-98.0250015258789,7.275000095367432,11.325000762939453
1751121048505012700,11.0170126953125,-97.2750015258789,7.200000286102295,11.550000190734863
1751121048514957000,11.02695703125,-96.97500610351562,7.200000286102295,11.625
1751121048524901400,11.0369013671875,-96.75000762939453,7.275000095367432,11.925000190734863
1751121048534845700,11.046845703125,-96,7.275000095367432,11.925000190734863
1751121048544789800,11.056789794921874,-96.75000762939453,6.975000381469727,12
1751121048554734000,11.066734130859375,-97.05000305175781,7.050000190734863,12.300000190734863
1751121048564678400,11.076678466796874,-96.30000305175781,7.425000190734863,12.15000057220459
1751121048574622700,11.086622802734375,-96.5250015258789,7.500000476837158,12
1751121048584567000,11.096567138671874,-96.75000762939453,7.125000476837158,12.225000381469727
1751121048594511400,11.106511474609375,-96.5250015258789,7.050000190734863,12.15000057220459
1751121048604455400,11.116455322265624,-96.22500610351562,7.275000095367432,11.925000190734863
1751121048614399700,11.126399658203125,-96.82500457763672,7.425000190734863,11.700000762939453
1751121048624344000,11.136343994140624,-97.05000305175781,7.575000286102295,11.700000762939453
1751121048634288400,11.146288330078125,-97.05000305175781,7.050000190734863,12.225000381469727
1751121048644232700,11.156232666015624,-97.05000305175781,7.050000190734863,12.225000381469727
1751121048654176800,11.1661767578125,-96.97500610351562,6.975000381469727,12.15000057220459
1751121048664121000,11.17612109375,-96.5250015258789,7.425000190734863,12
1751121048674065400,11.1860654296875,-97.2750015258789,7.650000095367432,11.625
1751121048684009700,11.196009765625,-97.2750015258789,7.200000286102295,11.700000762939453
1751121048693954000,11.2059541015625,-97.20000457763672,7.275000095367432,11.550000190734863
1751121048703898000,11.215898193359376,-97.20000457763672,7.575000286102295,11.475000381469727
1751121048713842400,11.225842529296875,-97.2750015258789,7.500000476837158,11.40000057220459
1751121048723786800,11.235786865234376,-97.2750015258789,7.350000381469727,11.325000762939453
1751121048733731000,11.24573095703125,-97.50000762939453,7.425000190734863,11.100000381469727
1751121048743675400,11.25567529296875,-97.12500762939453,7.275000095367432,10.800000190734863
1751121048753619700,11.26561962890625,-97.50000762939453,7.200000286102295,10.800000190734863
1751121048763564000,11.27556396484375,-97.87500762939453,6.975000381469727,10.725000381469727
1751121048773508400,11.28550830078125,-97.87500762939453,6.975000381469727,10.725000381469727
1751121048783452700,11.29545263671875,-97.2750015258789,7.050000190734863,10.5
1751121048793397000,11.30539697265625,-97.57500457763672,7.200000286102295,10.350000381469727
1751121048803341300,11.31534130859375,-97.57500457763672,6.900000095367432,9.90000057220459
1751121048813285600,11.32528564453125,-97.2750015258789,6.750000476837158,9.450000762939453
1751121048823230000,11.33522998046875,-97.35000610351562,6.975000381469727,9.225000381469727
1751121048833174300,11.34517431640625,-97.57500457763672,7.050000190734863,9.15000057220459
1751121048843118600,11.35511865234375,-97.57500457763672,7.200000286102295,8.625
1751121048853063000,11.36506298828125,-97.87500762939453,7.200000286102295,8.625
1751121048863007200,11.37500732421875,-97.87500762939453,7.125000476837158,8.40000057220459
1751121048872951600,11.38495166015625,-97.2750015258789,6.975000381469727,8.02500057220459
1751121048882896000,11.394895751953126,-97.12500762939453,7.575000286102295,7.650000095367432
1751121048892840200,11.404840087890625,-97.35000610351562,7.500000476837158,7.200000286102295
1751121048902784500,11.414784423828126,-98.10000610351562,7.425000190734863,6.975000381469727
1751121048912728800,11.424728759765625,-98.10000610351562,7.425000190734863,6.975000381469727
1751121048922673200,11.434673095703126,-98.62500762939453,7.350000381469727,6.900000095367432
1751121048932617500,11.444617431640625,-97.95000457763672,7.500000476837158,6.600000381469727
1751121048942561800,11.454561767578125,-97.95000457763672,7.800000190734863,6.300000190734863
1751121048952506000,11.464506103515625,-98.17500305175781,7.650000095367432,5.625
1751121048962450400,11.474450439453125,-97.72500610351562,7.650000095367432,5.100000381469727
1751121048972394800,11.484394775390625,-97.80000305175781,7.575000286102295,5.025000095367432
1751121048982339000,11.494339111328125,-97.72500610351562,7.125000476837158,4.800000190734863
1751121048992283400,11.504283447265625,-97.20000457763672,7.275000095367432,4.725000381469727
1751121049002227700,11.514227783203125,-96.97500610351562,7.350000381469727,4.425000190734863
1751121049012172000,11.524172119140625,-97.20000457763672,7.500000476837158,4.125
1751121049022116400,11.534116455078125,-97.42500305175781,7.800000190734863,3.9000000953674316
1751121049032060700,11.544060791015625,-97.20000457763672,7.725000381469727,3.9750001430511475
1751121049042005000,11.5540048828125,-97.2750015258789,7.725000381469727,4.5
1751121049051949300,11.56394921875,-97.2750015258789,7.725000381469727,4.5
1751121049061893600,11.5738935546875,-97.2750015258789,7.650000095367432,4.5
1751121049071838000,11.583837890625,-97.2750015258789,7.950000286102295,4.125
1751121049081782300,11.5937822265625,-97.2750015258789,8.40000057220459,4.425000190734863
1751121049091726600,11.6037265625,-96.5250015258789,8.40000057220459,3.9000000953674316
1751121049101671000,11.6136708984375,-96.5250015258789,8.550000190734863,4.125
1751121049111615200,11.623615234375,-96.67500305175781,8.77500057220459,4.275000095367432
1751121049131503900,11.64350390625,-96.97500610351562,9.15000057220459,4.350000381469727
1751121049141448200,11.6534482421875,-96.5250015258789,8.77500057220459,3.9750001430511475
1751121049151392300,11.663392333984374,-96.30000305175781,8.77500057220459,3.825000047683716
1751121049161336600,11.673336669921875,-96.5250015258789,9.375,3.750000238418579
1751121049171281000,11.683281005859374,-96.07500457763672,9.450000762939453,3.6000001430511475
1751121049181225200,11.69322509765625,-95.70000457763672,9.675000190734863,3.450000047683716
1751121049191169500,11.70316943359375,-95.70000457763672,9.675000190734863,3.450000047683716
1751121049201113900,11.71311376953125,-95.55000305175781,10.050000190734863,3.450000047683716
1751121049211058000,11.723057861328124,-95.55000305175781,9.825000762939453,3
1751121049221002200,11.733002197265625,-95.7750015258789,9.75,2.5500001907348633
1751121049230946600,11.742946533203124,-95.85000610351562,9.75,2.700000047683716
1751121049240891000,11.752890869140625,-95.47500610351562,9.75,2.4750001430511475
1751121049250835200,11.762835205078124,-95.32500457763672,9.975000381469727,2.700000047683716
1751121049260779300,11.772779296875,-94.80000305175781,10.350000381469727,2.625
1751121049270723600,11.7827236328125,-94.35000610351562,10.575000762939453,2.25
1751121049280668000,11.79266796875,-94.6500015258789,10.575000762939453,2.0250000953674316
1751121049290612200,11.8026123046875,-94.5,10.725000381469727,2.25
1751121049300556500,11.812556640625,-94.35000610351562,10.800000190734863,2.25
1751121049310500600,11.82250048828125,-94.2750015258789,11.02500057220459,1.350000023841858
1751121049320445000,11.83244482421875,-93.82500457763672,11.40000057220459,1.4250000715255737
1751121049330389200,11.84238916015625,-93.82500457763672,11.40000057220459,1.4250000715255737
1751121049340333600,11.85233349609375,-94.20000457763672,11.700000762939453,1.350000023841858
1751121049350278000,11.86227783203125,-93.67500305175781,11.700000762939453,1.0500000715255737
1751121049360222000,11.872221923828125,-93.30000305175781,11.77500057220459,1.0500000715255737
1751121049370166300,11.882166259765626,-93.375,12,0.9000000357627869
1751121049380110600,11.892110595703125,-93.30000305175781,12.15000057220459,0.6000000238418579
1751121049390055000,11.902054931640626,-92.92500305175781,12.375000953674316,0.22500000894069672
1751121049399999200,11.911999267578125,-92.55000305175781,12.600000381469727,0
1751121049409943300,11.921943359375,-91.95000457763672,13.200000762939453,-0.5250000357627869
1751121049419887600,11.9318876953125,-91.875,13.800000190734863,-0.9750000238418579
1751121049429832000,11.94183203125,-92.17500305175781,14.02500057220459,-0.9000000357627869
1751121049439776300,11.9517763671875,-91.95000457763672,13.875000953674316,-0.9750000238418579
1751121049449720600,11.961720458984376,-91.6500015258789,14.02500057220459,-1.2000000476837158
1751121049459665000,11.971664794921875,-91.2750015258789,14.550000190734863,-1.725000023841858
1751121049469609000,11.98160888671875,-91.2750015258789,14.550000190734863,-1.725000023841858
1751121049479553300,11.99155322265625,-90.97500610351562,14.700000762939453,-2.4000000953674316
1751121049489497600,12.00149755859375,-90.97500610351562,14.700000762939453,-2.4000000953674316
1751121049499442000,12.01144189453125,-90.22500610351562,15.000000953674316,-2.700000047683716
1751121049509386200,12.02138623046875,-90.5250015258789,15.300000190734863,-3.1500000953674316
1751121049519330300,12.031330322265624,-90.22500610351562,15.600000381469727,-4.050000190734863
1751121049529274600,12.041274658203125,-90.30000305175781,15.90000057220459,-4.425000190734863
1751121049539219000,12.051218994140624,-89.47500610351562,16.05000114440918,-4.575000286102295
1751121049549163300,12.061163330078125,-89.55000305175781,15.975000381469727,-5.175000190734863
1751121049559107600,12.071107666015624,-89.47500610351562,16.200000762939453,-5.625
1751121049569051600,12.0810517578125,-89.0250015258789,16.05000114440918,-6.150000095367432
1751121049578996000,12.090995849609374,-88.80000305175781,16.200000762939453,-6.375000476837158
1751121049588940300,12.100940185546875,-88.05000305175781,16.42500114440918,-6.675000190734863
1751121049598884600,12.110884521484374,-87.82500457763672,16.725000381469727,-7.350000381469727
1751121049608829000,12.120828857421875,-87.82500457763672,16.725000381469727,-7.350000381469727
1751121049618773000,12.13077294921875,-87.5250015258789,16.875,-7.950000286102295
1751121049628717300,12.14071728515625,-86.625,16.950000762939453,-8.325000762939453
1751121049638661600,12.15066162109375,-86.85000610351562,17.100000381469727,-8.77500057220459
1751121049648606000,12.16060595703125,-86.55000305175781,16.950000762939453,-9.375
1751121049658550300,12.17055029296875,-85.57500457763672,17.025001525878906,-9.825000762939453
1751121049668494300,12.180494384765625,-85.2750015258789,17.325000762939453,-10.350000381469727
1751121049678438700,12.190438720703124,-85.2750015258789,17.325000762939453,-10.950000762939453
1751121049688383000,12.200383056640625,-85.05000305175781,17.625,-11.625
1751121049698327300,12.210327392578124,-84.30000305175781,17.400001525878906,-12.15000057220459
1751121049708271600,12.220271728515625,-83.92500305175781,17.25,-12.300000190734863
1751121049728160000,12.240159912109375,-84.1500015258789,17.55000114440918,-13.65000057220459
1751121049738104300,12.250104248046876,-83.70000457763672,17.475000381469727,-14.925000190734863
1751121049748048600,12.260048583984375,-83.70000457763672,17.475000381469727,-14.925000190734863
1751121049757993000,12.269992919921876,-83.25,17.475000381469727,-15.450000762939453
1751121049767937300,12.279937255859375,-82.42500305175781,17.325000762939453,-15.90000057220459
1751121049777881300,12.28988134765625,-81.97500610351562,16.950000762939453,-16.575000762939453
1751121049787825700,12.29982568359375,-81.60000610351562,16.950000762939453,-17.625
1751121049797770000,12.30977001953125,-81,16.950000762939453,-18.525001525878906
1751121049807714300,12.31971435546875,-80.85000610351562,16.875,-19.125
1751121049817658600,12.32965869140625,-80.32500457763672,16.350000381469727,-19.5
1751121049827603000,12.33960302734375,-79.72500610351562,16.275001525878906,-20.25
1751121049837547300,12.34954736328125,-79.95000457763672,16.05000114440918,-21.150001525878906
1751121049847491600,12.35949169921875,-80.17500305175781,15.52500057220459,-21.67500114440918
1751121049857436000,12.369435791015626,-79.875,15.375000953674316,-22.125
1751121049867380200,12.379380126953125,-79.35000610351562,15.225000381469727,-22.650001525878906
1751121049877324500,12.389324462890626,-78.375,15.000000953674316,-23.325000762939453
1751121049887268900,12.399268798828125,-78.375,15.000000953674316,-23.325000762939453
1751121049897213200,12.409213134765626,-77.47500610351562,15.15000057220459,-24.225000381469727
1751121049907157500,12.419157470703125,-76.95000457763672,15.15000057220459,-24.600000381469727
1751121049917101800,12.429101806640626,-76.125,14.925000190734863,-24.900001525878906
1751121049927046100,12.439046142578125,-75.375,14.700000762939453,-25.350000381469727
1751121049936990500,12.448990478515626,-74.55000305175781,14.625000953674316,-25.875001907348633
1751121049946934800,12.458934814453125,-73.5,14.40000057220459,-26.025001525878906
1751121049956879000,12.468879150390626,-73.20000457763672,14.325000762939453,-26.17500114440918
1751121049966823400,12.478823486328125,-73.2750015258789,14.40000057220459,-26.55000114440918
1751121049976767700,12.488767822265626,-73.875,14.625000953674316,-26.55000114440918
1751121049986712000,12.498712158203125,-73.6500015258789,14.850000381469727,-26.250001907348633
1751121050006600700,12.5186005859375,-73.05000305175781,14.100000381469727,-26.17500114440918
1751121050016545000,12.528544921875,-72.5250015258789,14.40000057220459,-26.625001907348633
1751121050026489300,12.5384892578125,-72.5250015258789,14.40000057220459,-26.625001907348633
1751121050036433700,12.54843359375,-73.35000610351562,14.77500057220459,-26.400001525878906
1751121050046378000,12.5583779296875,-73.5,14.625000953674316,-26.100000381469727
1751121050056322300,12.568322265625,-73.05000305175781,14.850000381469727,-25.950000762939453
1751121050066266600,12.5782666015625,-73.05000305175781,15.52500057220459,-25.500001907348633
1751121050076211000,12.5882109375,-73.35000610351562,15.375000953674316,-24.975000381469727
1751121050086155300,12.5981552734375,-73.72500610351562,15.52500057220459,-25.125001907348633
1751121050096099600,12.608099609375,-73.35000610351562,15.825000762939453,-25.200000762939453
1751121050106044000,12.6180439453125,-73.80000305175781,15.675000190734863,-24.975000381469727
1751121050115988200,12.62798828125,-74.85000610351562,15.750000953674316,-24.600000381469727
1751121050125932500,12.6379326171875,-75.1500015258789,15.600000381469727,-24.225000381469727
1751121050135876900,12.647876953125,-75.1500015258789,15.825000762939453,-24.075000762939453
1751121050145821200,12.6578212890625,-75.07500457763672,15.825000762939453,-24.30000114440918
1751121050155765500,12.667765625,-75.1500015258789,15.450000762939453,-24.375001907348633
1751121050165709800,12.677709716796874,-75.5250015258789,15.450000762939453,-24.225000381469727
1751121050175654100,12.687654052734375,-76.05000305175781,15.375000953674316,-24.375001907348633
1751121050185598500,12.697598388671874,-76.20000457763672,15.375000953674316,-24.600000381469727
1751121050195542800,12.707542724609375,-75.82500457763672,15.450000762939453,-24.67500114440918
1751121050205486800,12.71748681640625,-75.60000610351562,15.375000953674316,-24.900001525878906
1751121050215431200,12.72743115234375,-75.9000015258789,15.450000762939453,-25.275001525878906
1751121050225375500,12.73737548828125,-75.9000015258789,15.600000381469727,-25.125001907348633
1751121050235319800,12.74731982421875,-75.375,15.300000190734863,-25.200000762939453
1751121050245264100,12.75726416015625,-75.5250015258789,14.925000190734863,-25.500001907348633
1751121050255208200,12.767208251953125,-75.82500457763672,14.850000381469727,-25.500001907348633
1751121050265152500,12.777152587890624,-75.375,14.925000190734863,-25.350000381469727
1751121050275096800,12.787096923828125,-74.55000305175781,15.075000762939453,-25.350000381469727
1751121050285041200,12.797041259765624,-74.10000610351562,15.52500057220459,-24.975000381469727
1751121050294985500,12.8069853515625,-75.07500457763672,15.600000381469727,-24.30000114440918
1751121050304929800,12.8169296875,-75.07500457763672,15.600000381469727,-24.30000114440918
1751121050314873900,12.826873779296875,-75.60000610351562,15.90000057220459,-24.150001525878906
1751121050324818200,12.836818115234376,-75.9000015258789,16.575000762939453,-23.700000762939453
1751121050334762500,12.846762451171875,-76.35000610351562,16.950000762939453,-23.55000114440918
1751121050344706800,12.856706787109376,-76.20000457763672,17.025001525878906,-23.325000762939453
1751121050354651100,12.866651123046875,-76.125,17.17500114440918,-22.650001525878906
1751121050364595200,12.87659521484375,-75.67500305175781,17.475000381469727,-22.42500114440918
1751121050374539500,12.88653955078125,-75.67500305175781,17.475000381469727,-22.875
1751121050384483800,12.89648388671875,-75.375,17.325000762939453,-22.875
1751121050394428200,12.90642822265625,-75.5250015258789,17.025001525878906,-22.650001525878906
1751121050404372500,12.91637255859375,-75.375,17.475000381469727,-22.350000381469727
1751121050414316500,12.926316650390625,-75.30000305175781,18,-22.05000114440918
1751121050424260900,12.9362607421875,-75.375,18.075000762939453,-21.75
1751121050434205200,12.946205078125,-75.30000305175781,17.92500114440918,-21.67500114440918
1751121050444149500,12.9561494140625,-75.30000305175781,17.92500114440918,-21.67500114440918
1751121050454093800,12.96609375,-75.60000610351562,17.92500114440918,-21.375
1751121050464038000,12.976037841796876,-76.20000457763672,18.375,-21
1751121050473982200,12.985982177734375,-76.57500457763672,18.375,-20.92500114440918
1751121050483926500,12.995926513671876,-76.57500457763672,18.150001525878906,-20.850000381469727
1751121050493870800,13.005870849609375,-76.6500015258789,18.150001525878906,-20.775001525878906
1751121050503815200,13.015815185546876,-76.6500015258789,18.75,-20.475000381469727
1751121050513759200,13.02575927734375,-76.875,18.75,-20.100000381469727
1751121050523703600,13.03570361328125,-77.10000610351562,18.450000762939453,-19.875
1751121050533648000,13.04564794921875,-76.57500457763672,18.450000762939453,-19.80000114440918
1751121050543592200,13.05559228515625,-77.17500305175781,18.450000762939453,-19.42500114440918
1751121050553536500,13.06553662109375,-77.92500305175781,18.825000762939453,-19.200000762939453
1751121050563480800,13.075480712890625,-77.32500457763672,19.125,-18.900001525878906
1751121050573425000,13.0854248046875,-77.55000305175781,18.825000762939453,-18.600000381469727
1751121050583369200,13.095369140625,-78.07500457763672,18.825000762939453,-18.30000114440918
1751121050593313500,13.1053134765625,-77.92500305175781,19.200000762939453,-17.850000381469727
1751121050603257900,13.1152578125,-77.92500305175781,18.900001525878906,-17.850000381469727
1751121050613202200,13.1252021484375,-78.5250015258789,18.525001525878906,-17.625
1751121050623146200,13.135146240234375,-78.60000610351562,18.75,-17.25
1751121050633090600,13.145090576171874,-79.125,18.900001525878906,-16.950000762939453
1751121050643035000,13.155034912109375,-80.4000015258789,18.975000381469727,-16.575000762939453
1751121050652979200,13.164979248046874,-80.85000610351562,18.900001525878906,-16.350000381469727
1751121050662923500,13.174923583984375,-81.375,18.525001525878906,-16.275001525878906
1751121050672867600,13.18486767578125,-82.20000457763672,18.075000762939453,-15.825000762939453
1751121050692756200,13.204756103515624,-82.95000457763672,17.700000762939453,-15.15000057220459
1751121050702700500,13.214700439453125,-83.4000015258789,17.400001525878906,-15.000000953674316
1751121050712644900,13.224644775390624,-83.92500305175781,17.25,-15.000000953674316
1751121050722589000,13.2345888671875,-83.92500305175781,17.25,-15.000000953674316
1751121050732533200,13.244533203125,-84,17.100000381469727,-14.850000381469727
1751121050742477600,13.2544775390625,-84.67500305175781,16.875,-14.325000762939453
1751121050752422000,13.264421875,-84.67500305175781,16.80000114440918,-14.02500057220459
1751121050762366200,13.2743662109375,-84.82500457763672,16.950000762939453,-13.500000953674316
1751121050772310500,13.284310546875,-86.10000610351562,16.650001525878906,-13.050000190734863
1751121050782254600,13.294254638671875,-86.625,16.350000381469727,-12.450000762939453
1751121050792199000,13.304198974609376,-86.47500610351562,16.350000381469727,-11.925000190734863
1751121050802143200,13.314143310546875,-86.85000610351562,16.80000114440918,-11.25
1751121050812087600,13.324087646484376,-86.70000457763672,16.650001525878906,-11.02500057220459
1751121050822032000,13.334031982421875,-87.45000457763672,16.275001525878906,-11.02500057220459
1751121050831976000,13.343975830078126,-88.42500305175781,15.90000057220459,-10.800000190734863
1751121050841920300,13.353920166015625,-88.125,15.675000190734863,-10.350000381469727
1751121050851864600,13.363864501953126,-88.875,15.975000381469727,-9.75
1751121050861809000,13.373808837890625,-88.875,15.975000381469727,-9.75
1751121050871753200,13.383753173828126,-89.32500457763672,15.675000190734863,-9.52500057220459
1751121050881697300,13.393697265625,-89.10000610351562,15.375000953674316,-8.925000190734863
1751121050891641600,13.4036416015625,-89.55000305175781,15.300000190734863,-8.02500057220459
1751121050901586000,13.4135859375,-89.92500305175781,15.225000381469727,-7.350000381469727
1751121050911530200,13.4235302734375,-90.1500015258789,15.600000381469727,-6.825000286102295
1751121050921475800,13.433475830078125,-90.5250015258789,15.600000381469727,-6.525000095367432
1751121050931420000,13.443419921875,-91.125,15.375000953674316,-6.075000286102295
1751121050951308300,13.463308349609376,-91.05000305175781,15.075000762939453,-4.800000190734863
1751121050961252400,13.47325244140625,-90.82500457763672,15.075000762939453,-4.350000381469727
1751121050971196700,13.48319677734375,-91.35000610351562,15.000000953674316,-4.050000190734863
1751121050981140700,13.493140625,-91.72500610351562,14.850000381469727,-3.450000047683716
1751121050991085000,13.5030849609375,-91.57500457763672,15.15000057220459,-2.7750000953674316
1751121051001029000,13.513029052734375,-91.57500457763672,15.15000057220459,-2.7750000953674316
1751121051010973200,13.52297314453125,-92.32500457763672,14.850000381469727,-1.5
1751121051020917500,13.53291748046875,-92.55000305175781,14.850000381469727,-0.675000011920929
1751121051030861600,13.542861572265625,-93,14.77500057220459,0.15000000596046448
1751121051040806000,13.552805908203124,-93,14.77500057220459,1.0500000715255737
1751121051050750200,13.562750244140625,-92.92500305175781,15.075000762939453,1.725000023841858
1751121051060694500,13.572694580078124,-93.07500457763672,14.925000190734863,2.325000047683716
1751121051070638800,13.582638916015625,-93.07500457763672,14.625000953674316,3.375000238418579
1751121051080583200,13.592583251953124,-93.45000457763672,14.77500057220459,4.050000190734863
1751121051090527500,13.602527587890625,-93.375,15.000000953674316,4.650000095367432
1751121051100471800,13.612471923828124,-92.7750015258789,14.925000190734863,5.550000190734863
1751121051110416100,13.622416015625,-92.47500610351562,14.925000190734863,6.450000286102295
1751121051120360400,13.6323603515625,-92.7750015258789,15.000000953674316,6.825000286102295
1751121051130304800,13.6423046875,-92.55000305175781,14.77500057220459,7.275000095367432
1751121051140249000,13.6522490234375,-92.55000305175781,14.77500057220459,7.275000095367432
1751121051150193400,13.662193359375,-91.72500610351562,14.850000381469727,8.02500057220459
1751121051160137700,13.6721376953125,-91.95000457763672,14.925000190734863,8.475000381469727
1751121051170082000,13.68208203125,-92.47500610351562,14.625000953674316,9.450000762939453
1751121051180026400,13.6920263671875,-92.70000457763672,14.475000381469727,10.050000190734863
1751121051189970700,13.701970703125,-92.70000457763672,14.625000953674316,10.27500057220459
1751121051199915000,13.7119150390625,-92.55000305175781,14.325000762939453,10.65000057220459
1751121051209859300,13.721859375,-92.70000457763672,14.175000190734863,10.875
1751121051219803600,13.7318037109375,-91.72500610351562,14.175000190734863,12
1751121051229748000,13.741748046875,-91.35000610351562,13.875000953674316,12.375000953674316
1751121051239692300,13.7516923828125,-92.10000610351562,13.725000381469727,12.675000190734863
1751121051249636600,13.76163671875,-93.07500457763672,13.27500057220459,12.975000381469727
1751121051259581000,13.771580810546874,-93,13.27500057220459,13.200000762939453
1751121051269525200,13.781525146484375,-93,13.27500057220459,13.200000762939453
1751121051279469600,13.791469482421874,-92.85000610351562,13.350000381469727,13.200000762939453
1751121051289414000,13.801413818359375,-93.375,13.050000190734863,13.27500057220459
1751121051299358200,13.811358154296874,-92.7750015258789,13.200000762939453,13.800000190734863
1751121051309302500,13.821302490234375,-92.55000305175781,13.27500057220459,14.100000381469727
1751121051319246800,13.831246826171874,-93,13.050000190734863,14.175000190734863
1751121051329191200,13.841191162109375,-92.7750015258789,12.750000953674316,14.100000381469727
1751121051339135500,13.851135498046874,-93.22500610351562,12.750000953674316,14.475000381469727
1751121051349079800,13.861079833984375,-93.30000305175781,12.52500057220459,14.77500057220459
1751121051359024000,13.871024169921874,-93.22500610351562,12.375000953674316,14.475000381469727
1751121051368968400,13.880968505859375,-93.45000457763672,12.300000190734863,14.700000762939453
1751121051378912800,13.890912841796874,-93.45000457763672,12.300000190734863,15.075000762939453
1751121051388857000,13.900857177734375,-93.45000457763672,12.075000762939453,15.450000762939453
1751121051398801400,13.910801513671874,-93.9000015258789,11.40000057220459,15.300000190734863
1751121051408745500,13.920745361328125,-94.125,11.625,15.450000762939453
1751121051418689800,13.930689697265626,-94.125,11.625,15.450000762939453
1751121051428634000,13.940634033203125,-94.125,11.77500057220459,15.600000381469727
1751121051438578400,13.950578369140626,-94.42500305175781,11.25,15.450000762939453
1751121051448522800,13.960522705078125,-94.125,10.950000762939453,15.15000057220459
1751121051458466800,13.970466796875,-94.42500305175781,10.875,15.225000381469727
1751121051468411100,13.9804111328125,-94.875,10.725000381469727,15.52500057220459
1751121051488299800,14.0002998046875,-95.10000610351562,9.975000381469727,15.375000953674316
1751121051498244000,14.010244140625,-95.25,9.675000190734863,15.075000762939453
1751121051508188200,14.020188232421875,-95.625,9.52500057220459,15.450000762939453
1751121051518132500,14.030132568359376,-95.92500305175781,9.300000190734863,15.675000190734863
1751121051528076800,14.040076904296875,-96.1500015258789,9.450000762939453,15.300000190734863
1751121051538021000,14.050021240234376,-96.5250015258789,9.52500057220459,15.075000762939453
1751121051547965400,14.05996533203125,-96.67500305175781,9.15000057220459,15.075000762939453
1751121051557909500,14.069909423828125,-96.67500305175781,9.15000057220459,15.075000762939453
1751121051567853800,14.079853759765625,-96.22500610351562,8.77500057220459,15.000000953674316
1751121051587742500,14.099742431640625,-96.97500610351562,8.700000762939453,14.475000381469727
1751121051597686800,14.109686767578125,-97.2750015258789,8.325000762939453,14.475000381469727
1751121051607630800,14.119630859375,-97.2750015258789,8.175000190734863,14.475000381469727
1751121051617575200,14.1295751953125,-97.50000762939453,8.100000381469727,13.875000953674316
1751121051627519500,14.13951953125,-97.2750015258789,8.100000381469727,13.800000190734863
1751121051637463800,14.1494638671875,-97.20000457763672,8.175000190734863,14.02500057220459
1751121051647408000,14.159408203125,-97.72500610351562,7.725000381469727,13.725000381469727
1751121051667296500,14.179296630859374,-98.32500457763672,7.275000095367432,13.575000762939453
1751121051677240800,14.18924072265625,-97.80000305175781,6.975000381469727,13.200000762939453
1751121051687185200,14.19918505859375,-97.80000305175781,6.975000381469727,13.200000762939453
1751121051697129500,14.20912939453125,-98.47500610351562,6.900000095367432,13.200000762939453
1751121051707073800,14.21907373046875,-99.00000762939453,6.600000381469727,13.500000953674316
1751121051717017900,14.229017822265625,-98.70000457763672,6.300000190734863,13.500000953674316
1751121051726962200,14.238962158203124,-97.95000457763672,6.600000381469727,13.350000381469727
1751121051736906500,14.248906494140625,-98.0250015258789,6.825000286102295,13.350000381469727
1751121051746850800,14.258850830078124,-98.25000762939453,6.600000381469727,13.800000190734863
1751121051756795100,14.268795166015625,-98.7750015258789,6.675000190734863,13.725000381469727
1751121051766739200,14.2787392578125,-99.07500457763672,6.375000476837158,13.65000057220459
1751121051776683500,14.28868359375,-99.1500015258789,5.850000381469727,13.425000190734863
1751121051786627800,14.2986279296875,-99.5250015258789,5.325000286102295,13.65000057220459
1751121051796572200,14.308572265625,-100.2750015258789,5.25,13.875000953674316
1751121051806516500,14.3185166015625,-101.25000762939453,5.700000286102295,13.65000057220459
1751121051816460500,14.32846044921875,-100.80000305175781,5.25,13.725000381469727
1751121051826404900,14.33840478515625,-100.95000457763672,4.875,13.875000953674316
1751121051836349200,14.34834912109375,-100.95000457763672,4.875,13.875000953674316
1751121051846293500,14.35829345703125,-101.32500457763672,4.950000286102295,13.65000057220459
1751121051856237800,14.36823779296875,-101.17500305175781,4.725000381469727,13.350000381469727
1751121051866182000,14.378181884765626,-100.6500015258789,4.575000286102295,13.575000762939453
1751121051876126200,14.388126220703125,-100.2750015258789,4.650000095367432,13.800000190734863
1751121051886070500,14.398070556640626,-100.42500305175781,4.875,14.02500057220459
1751121051896014800,14.408014892578125,-100.2750015258789,4.875,13.725000381469727
1751121051905959200,14.417959228515626,-100.50000762939453,5.25,13.425000190734863
1751121051915903500,14.427903564453125,-101.10000610351562,5.325000286102295,13.425000190734863
1751121051925847600,14.43784765625,-101.32500457763672,5.025000095367432,13.425000190734863
1751121051935791900,14.4477919921875,-100.80000305175781,5.100000381469727,13.350000381469727
1751121051945736200,14.457736083984376,-100.35000610351562,5.625,13.350000381469727
1751121051955680500,14.467680419921875,-100.50000762939453,5.775000095367432,13.725000381469727
1751121051965624800,14.477624755859376,-100.80000305175781,5.775000095367432,14.250000953674316
1751121051975569000,14.48756884765625,-100.80000305175781,5.775000095367432,14.250000953674316
1751121051985513200,14.49751318359375,-101.0250015258789,5.775000095367432,14.625000953674316
1751121051995457500,14.50745751953125,-100.6500015258789,5.850000381469727,15.15000057220459
1751121052005401900,14.51740185546875,-100.50000762939453,5.775000095367432,15.225000381469727
1751121052015346200,14.52734619140625,-100.42500305175781,5.775000095367432,15.300000190734863
1751121052025290200,14.537290283203125,-100.6500015258789,5.775000095367432,15.825000762939453
1751121052035234600,14.547234619140625,-101.0250015258789,5.925000190734863,16.05000114440918
1751121052045179000,14.557178955078125,-100.2750015258789,6.150000095367432,16.05000114440918
1751121052055123200,14.567123291015625,-100.20000457763672,6.075000286102295,16.200000762939453
1751121052065067500,14.577067626953125,-100.20000457763672,6.375000476837158,16.5
1751121052075011600,14.587011474609374,-99.45000457763672,6.150000095367432,17.100000381469727
1751121052084956000,14.596955810546875,-99.37500762939453,6.450000286102295,17.325000762939453
1751121052094900200,14.606900146484374,-99.67500305175781,6.225000381469727,17.325000762939453
1751121052104844500,14.616844482421875,-99.67500305175781,6.225000381469727,17.325000762939453
1751121052114788900,14.626788818359374,-99.9000015258789,6.150000095367432,17.55000114440918
