time,seconds_elapsed,z,y,x
1748008362838189800,0.09918994140625,0.2779437005519867,0.025656340643763542,-0.04459316283464432
1748008362853998000,0.114998046875,0.2779437005519867,0.025656340643763542,-0.04459316283464432
1748008362869806000,0.13080615234375,0.2779437005519867,0.025656340643763542,-0.04459316283464432
1748008362885644800,0.146644775390625,0.2779437005519867,0.025656340643763542,-0.04459316283464432
1748008362901392000,0.162391845703125,0.2779437005519867,0.025656340643763542,-0.04459316283464432
1748008362917230300,0.178230224609375,0.2779437005519867,0.025656340643763542,-0.04459316283464432
1748008362933008100,0.194008056640625,0.2779437005519867,0.025656340643763542,-0.04459316283464432
1748008362948816100,0.209816162109375,0.2779437005519867,0.025656340643763542,-0.04459316283464432
1748008362964685300,0.225685302734375,-0.17104226350784302,-0.2174680233001709,-0.018936822190880775
1748008362980462800,0.241462890625,-0.1111774742603302,-0.17592918872833252,0.20097467303276062
1748008362996240400,0.257240478515625,-0.06719517707824707,-0.10323622822761536,0.3439171314239502
1748008363012018000,0.273017822265625,-0.01038470957428217,-0.006719517521560192,0.4251621961593628
1748008363027826200,0.288826171875,0.033597588539123535,-0.0659734457731247,0.36224308609962463
1748008363043664600,0.30466455078125,0.04948008432984352,-0.20525072515010834,0.1716531366109848
1748008363059411700,0.32041162109375,0.025045474991202354,-0.2822197377681732,0.006719517521560192
1748008363075250400,0.33625048828125,-0.05619960278272629,-0.3323107063770294,-0.1417207419872284
1748008363091028000,0.352028076171875,-0.17104226350784302,-0.3543018400669098,-0.2565633952617645
1748008363106866700,0.36786669921875,-0.3066543638706207,-0.38606682419776917,-0.3891211748123169
1748008363122766300,0.383766357421875,-0.3842342495918274,-0.39584067463874817,-0.4605923891067505
1748008363138543900,0.3995439453125,-0.37690386176109314,-0.3787364661693573,-0.4453207552433014
1748008363154321400,0.4153212890625,-0.2834414839744568,-0.28527405858039856,-0.3683517575263977
1748008363170099200,0.43109912109375,-0.16554448008537292,-0.12828169763088226,-0.2877175211906433
1748008363185907200,0.4469072265625,-0.01771509274840355,0.09957103431224823,-0.2015855312347412
1748008363201746000,0.462745849609375,0.09773843735456467,0.2272418737411499,-0.1270599663257599
1748008363217493000,0.478492919921875,0.21991148591041565,0.32498031854629517,-0.012217304669320583
1748008363233270500,0.4942705078125,0.303600013256073,0.3536909818649292,0.08124507963657379
1748008363249139700,0.5101396484375,0.35246923565864563,0.3701843321323395,0.15943582355976105
1748008363264917200,0.525917236328125,0.3433062732219696,0.3988949954509735,0.18570303916931152
1748008363280817000,0.54181689453125,0.313373863697052,0.4092797040939331,0.17409659922122955
1748008363296564000,0.55756396484375,0.3029891550540924,0.423329621553421,0.14905111491680145
1748008363312372000,0.5733720703125,0.34086281061172485,0.4239404797554016,0.12400564551353455
1748008363328149500,0.5891494140625,0.4288274049758911,0.40683624148368835,0.09285151958465576
1748008363343957800,0.604957763671875,0.4960225820541382,0.36163222789764404,0.05192354694008827
1748008363359827000,0.620826904296875,0.5229006409645081,0.3738495409488678,0.018325956538319588
1748008363375604500,0.6366044921875,0.5363397002220154,0.46181413531303406,0.01710422709584236
1748008363391412500,0.65241259765625,0.6298020482063293,0.5870414972305298,0.03420845419168472
1748008363407220700,0.668220703125,0.79840087890625,0.6212499737739563,0.03726277872920036
1748008363423028700,0.68402880859375,1.034194827079773,0.5821545720100403,-0.01160643994808197
1748008363438958800,0.699958740234375,1.2198978662490845,0.5125159621238708,-0.07391469180583954
1748008363454675500,0.715675537109375,1.3634512424468994,0.503963828086853,-0.11178833991289139
1748008363470483700,0.731483642578125,1.4043792486190796,0.49846604466438293,-0.10812314599752426
1748008363486291700,0.747291748046875,1.3909401893615723,0.48747047781944275,-0.03787364438176155
1748008363502099700,0.763099609375,1.351233959197998,0.45753806829452515,0.0910189226269722
1748008363517969000,0.778968994140625,1.2760975360870361,0.27611109614372253,0.20097467303276062
1748008363533685500,0.794685546875,1.2198978662490845,0.09040805697441101,0.22357667982578278
1748008363549463000,0.810463134765625,1.19912850856781,-0.07208210229873657,0.22663100063800812
1748008363565271300,0.826271240234375,1.3817771673202515,-0.00733038317412138,0.35552358627319336
1748008363581079300,0.842079345703125,1.5778648853302002,0.11972958594560623,0.5595525503158569
1748008363597009400,0.858009521484375,1.3377948999404907,-0.9468411207199097,0.8362745046615601
1748008363612787200,0.873787109375,1.2608258724212646,-0.6334672570228577,0.8900306820869446
1748008363628564700,0.889564697265625,1.0018190145492554,-1.4489723443984985,0.8148942589759827
1748008363644342300,0.90534228515625,0.8387179970741272,-1.0574077367782593,0.8442157506942749
1748008363660119800,0.921119873046875,0.7397578358650208,-0.2474004179239273,1.036027431488037
1748008363675989000,0.936989013671875,0.8588765263557434,-0.4306600093841553,0.6499606370925903
1748008363691736000,0.952736083984375,1.0018190145492554,-0.7489207983016968,-0.10751228034496307
1748008363707574800,0.96857470703125,1.0280861854553223,-0.6230825781822205,-0.7654141783714294
1748008363723413200,0.984413330078125,0.9474520087242126,-0.2174680233001709,-1.2522737979888916
1748008363739252000,1.000251953125,0.9382890462875366,-0.09529497474431992,-1.4495831727981567
1748008363755151600,1.016151611328125,0.8820894360542297,-0.2021963894367218,-1.4001030921936035
1748008363770929200,1.03192919921875,0.8759807348251343,-0.2223549485206604,-1.1917980909347534
1748008363786706700,1.047706787109375,0.8851437568664551,-0.21991148591041565,-0.9645562171936035
1748008363802515000,1.063514892578125,0.7580837607383728,0.50335294008255,-0.5497786998748779
1748008363818353400,1.079353515625,0.6090326309204102,0.1765400618314743,-0.01710422709584236
1748008363834222600,1.09522265625,0.4392121136188507,0.11667526513338089,0.47830748558044434
1748008363849969700,1.1109697265625,0.39217549562454224,0.31581732630729675,0.797789990901947
1748008363865716700,1.126716796875,0.6432411074638367,0.8429940342903137,0.9266825914382935
1748008363881525000,1.14252490234375,0.7721336483955383,0.8735373020172119,0.7043276429176331
1748008363897333000,1.1583330078125,0.656069278717041,1.2779301404953003,0.2064724564552307
1748008363913232600,1.174232666015625,0.637132465839386,1.7458528280258179,-0.5601634383201599
1748008363928949200,1.18994921875,0.6432411074638367,0.8619308471679688,-1.2162326574325562
1748008363944726800,1.205726806640625,0.740368664264679,0.39645153284072876,-1.3194689750671387
1748008363960565500,1.2215654296875,0.6120869517326355,-0.022602014243602753,-1.1447614431381226
1748008363976312600,1.2373125,0.4605923891067505,-0.25595253705978394,-0.6426302194595337
1748008363992181500,1.253181396484375,0.37262779474258423,-0.27061331272125244,-0.2431243658065796
1748008364007928600,1.268928466796875,0.3396410644054413,-0.26939156651496887,-0.313373863697052
1748008364023797800,1.2847978515625,0.31459560990333557,0.015271631069481373,-0.45692721009254456
1748008364039575300,1.3005751953125,0.44776421785354614,0.25106561183929443,-0.4996877610683441
1748008364055414000,1.3164140625,0.7037167549133301,0.4001167416572571,-0.3677408695220947
1748008364071313700,1.332313720703125,0.9150761365890503,0.4948008358478546,-0.17959438264369965
1748008364087060700,1.348060791015625,0.8851437568664551,0.45265114307403564,-0.09162978827953339
1748008364102899500,1.3638994140625,0.7452555894851685,0.4196644127368927,-0.01466076634824276
1748008364118677000,1.379677001953125,0.7098253965377808,0.47830748558044434,0.15760323405265808
1748008364134515700,1.395515625,0.7464773058891296,0.5864306092262268,0.4990769028663635
1748008364150354200,1.411354248046875,0.7611380815505981,0.7305948138237,0.7476990818977356
1748008364166101200,1.427101318359375,0.6994407176971436,0.9034696817398071,0.7812966704368591
1748008364181909500,1.442909423828125,0.66584312915802,0.9914342761039734,0.6487388610839844
1748008364197687000,1.45868701171875,0.5913175344467163,1.1062769889831543,0.44165557622909546
1748008364213525500,1.474525390625,0.4691445231437683,1.1942415237426758,0.30115658044815063
1748008364229364200,1.4903642578125,0.394618958234787,1.2760975360870361,0.2828305959701538
1748008364245080800,1.506080810546875,0.3176499307155609,1.3066407442092896,0.2938261926174164
1748008364260888800,1.521888916015625,0.32498031854629517,0.3634648323059082,0.27977627515792847
1748008364276697000,1.537697021484375,0.21868975460529327,0.09285151958465576,0.3604104816913605
1748008364292505000,1.553505126953125,0.09834930300712585,0.018936822190880775,0.6688974499702454
1748008364308404700,1.56940478515625,-0.022602014243602753,0.27977627515792847,1.1582005023956299
1748008364324182300,1.585182373046875,-0.3219259977340698,0.5070181488990784,1.480737328529358
1748008364339990500,1.600990478515625,-0.4899139404296875,0.6389650702476501,1.7275269031524658
1748008364355798500,1.616798583984375,-0.5491678714752197,0.7764097452163696,1.891238808631897
1748008364371606500,1.6326064453125,-0.37079519033432007,0.8924741148948669,2.009746551513672
1748008364387475700,1.648475830078125,-0.07513642311096191,1.0934487581253052,2.0146336555480957
1748008364403161900,1.664161865234375,0.3494149148464203,1.4379768371582031,1.8478673696517944
1748008364418969900,1.679969970703125,0.7519751191139221,1.7843374013900757,1.463022232055664
1748008364434808600,1.69580859375,1.0238101482391357,1.9785925149917603,0.6811147332191467
1748008364450586000,1.711586181640625,1.0042624473571777,1.5809192657470703,0.00855211354792118
1748008364466485800,1.72748583984375,0.8381071090698242,0.5913175344467163,-0.0959058403968811
1748008364482202400,1.743202392578125,0.7257078886032104,-1.1661417484283447,0.39706242084503174
1748008364498041000,1.759041015625,0.6780604124069214,-2.456289052963257,0.9480628371238708
1748008364513818600,1.774818603515625,0.49724429845809937,-2.8264734745025635,1.2944234609603882
1748008364529626600,1.790626708984375,0.2877175211906433,-2.144136905670166,1.5143349170684814
1748008364545526300,1.8065263671875,-0.024434609338641167,-0.5296201705932617,1.9559905529022217
1748008364561273300,1.8222734375,-0.1319468915462494,0.4300491213798523,2.5802948474884033
1748008364577081600,1.83808154296875,-0.17531833052635193,0.4080579876899719,3.156951665878296
1748008364592889600,1.8538896484375,-0.22418753802776337,-0.3280346393585205,3.249803066253662
1748008364608728300,1.869728271484375,-0.3237585723400116,-1.1954632997512817,3.014620065689087
1748008364624566800,1.88556689453125,-0.5931501388549805,-1.6927075386047363,2.5271494388580322
1748008364640283400,1.901283447265625,-0.9327912330627441,-1.8594738245010376,1.7941112518310547
1748008364656061000,1.91706103515625,-1.3866641521453857,-1.7751743793487549,1.2571606636047363
1748008364671838500,1.93283837890625,-1.9352210760116577,-1.3237450122833252,0.5955936312675476
1748008364687646700,1.948646728515625,-2.3683245182037354,-0.9230173826217651,-0.17592918872833252
1748008364703516000,1.964515869140625,-2.646268129348755,-0.6664539575576782,-0.9743300676345825
1748008364719263000,1.980262939453125,-2.4361305236816406,-0.35185837745666504,-2.0225749015808105
1748008364735040500,1.99604052734375,-2.1429152488708496,-0.3854559659957886,-2.989574432373047
1748008364750818000,2.011818115234375,-1.4880677461624146,-0.2675589919090271,-3.8991527557373047
1748008364766626300,2.027626220703125,-0.979827880859375,0.24556782841682434,-4.268726348876953
1748008364782495200,2.0434951171875,-0.6395758986473083,0.769079327583313,-4.128227233886719
1748008364798211800,2.0592119140625,-0.7202101349830627,0.6835582256317139,-3.6053266525268555
1748008364813989400,2.0749892578125,-0.7806857824325562,0.8197811841964722,-2.9413161277770996
1748008364829797600,2.090797607421875,-0.7776314616203308,0.7110471725463867,-2.4782803058624268
1748008364845605600,2.106605712890625,-0.6279694437980652,0.42638394236564636,-1.9566013813018799
1748008364861505300,2.12250537109375,-0.4251621961593628,0.25595253705978394,-1.455691933631897
1748008364877252400,2.13825244140625,-0.16371189057826996,0.18875735998153687,-0.979216992855072
1748008364892999400,2.15399951171875,0.021380282938480377,0.19425514340400696,-0.8008443117141724
1748008364908777000,2.16977685546875,0.1313360333442688,0.09224065393209457,-0.6829473376274109
1748008364924585200,2.185585205078125,0.20341812074184418,0.06475171446800232,-0.46547931432724
1748008364940454400,2.201454345703125,0.29077184200286865,0.251676470041275,-0.01710422709584236
1748008364956201500,2.217201416015625,0.42149701714515686,0.47708576917648315,0.4893030524253845
1748008364972040000,2.2330400390625,0.5748242139816284,0.4105014503002167,0.7959573864936829
1748008364987848200,2.24884814453125,0.6579018831253052,0.10934487730264664,0.807563841342926
1748008365003595300,2.26459521484375,0.6352998614311218,-0.3121521472930908,0.49846604466438293
1748008365019464400,2.28046435546875,0.5265658497810364,-0.39156460762023926,-0.022602014243602753
1748008365035242000,2.296241943359375,0.3341432809829712,0.031154127791523933,-0.2541199326515198
1748008365051019500,2.31201953125,0.1765400618314743,0.970054030418396,-0.03420845419168472
1748008365066797000,2.327797119140625,0.20586158335208893,1.6310101747512817,0.5198463201522827
1748008365082605300,2.343605224609375,0.05742133408784866,1.9804251194000244,1.0793988704681396
1748008365098474200,2.35947412109375,-0.3378084897994995,1.8985692262649536,1.1924089193344116
1748008365114221300,2.37522119140625,-0.5112941861152649,1.4575244188308716,0.8869763612747192
1748008365129999000,2.3909990234375,-0.07819075137376785,0.4508185386657715,0.04092797264456749
1748008365145807000,2.40680712890625,0.8442157506942749,-1.4453071355819702,-1.7201964855194092
1748008365161584600,2.422584716796875,1.4227051734924316,-2.861903667449951,-3.4581081867218018
1748008365177453800,2.438453857421875,1.284038782119751,-3.6639697551727295,-4.806898593902588
1748008365193140000,2.454139892578125,0.5815436840057373,-3.0867021083831787,-4.77452278137207
1748008365208917500,2.46991748046875,-0.3488040566444397,-1.69148588180542,-3.3841934204101562
1748008365224756000,2.485755859375,-0.8820894360542297,-0.10262536257505417,-1.3646728992462158
1748008365240564200,2.501564208984375,-0.9871582388877869,0.9034696817398071,0.2565633952617645
1748008365256433400,2.517433349609375,-0.9779952764511108,1.3701707124710083,1.4422528743743896
1748008365272180500,2.533180419921875,-1.043968677520752,1.0708467960357666,1.6951510906219482
1748008365287927600,2.548927490234375,-1.112385630607605,0.39645153284072876,1.2803735733032227
1748008365303735600,2.564735595703125,-1.1276572942733765,-0.12889257073402405,0.6841690540313721
1748008365319574300,2.58057421875,-1.0971139669418335,-0.4856378734111786,0.21135938167572021
1748008365335443200,2.596443115234375,-1.1197160482406616,-0.6487388610839844,0.17837265133857727
1748008365351159800,2.612159912109375,-1.2541064023971558,-0.8497135639190674,0.4331034719944
1748008365366937300,2.627937255859375,-1.3909401893615723,-1.2064588069915771,0.7110471725463867
1748008365382745600,2.64374560546875,-1.5430456399917603,-1.6615535020828247,0.9065240025520325
1748008365398584300,2.659584228515625,-1.63467538356781,-1.871691107749939,0.9902125597000122
1748008365414453200,2.675453369140625,-1.8093829154968262,-1.8765780925750732,1.0836749076843262
1748008365430200300,2.691200439453125,-2.020742177963257,-1.7256942987442017,1.1178834438323975
1748008365446039000,2.7070390625,-2.2430970668792725,-1.6450600624084473,1.1520918607711792
1748008365461847000,2.722846923828125,-2.5002715587615967,-1.5369369983673096,1.405600905418396
1748008365477655300,2.7386552734375,-2.6786441802978516,-1.3054190874099731,1.8307631015777588
1748008365493493800,2.75449365234375,-2.6896395683288574,-0.9285151958465576,2.27852725982666
1748008365509240800,2.77024072265625,-2.506380081176758,-0.7715228199958801,2.4666738510131836
1748008365525018600,2.7860185546875,-2.5418102741241455,-0.7538077235221863,2.4239132404327393
1748008365540796200,2.801796142578125,-2.899777412414551,-0.8454375267028809,2.4892759323120117
1748008365556573700,2.81757373046875,-3.185051441192627,-1.0140362977981567,2.783712863922119
1748008365572473300,2.833473388671875,-3.2369749546051025,-1.0653489828109741,2.800206184387207
1748008365588220400,2.849220458984375,-3.0445523262023926,-0.912021815776825,2.2846360206604004
1748008365604059100,2.86505908203125,-2.6358835697174072,-0.5540547966957092,1.4813482761383057
1748008365619836700,2.880836669921875,-2.023796558380127,-0.0910189226269722,0.42210787534713745
1748008365635614200,2.8966142578125,-1.4996742010116577,0.29626965522766113,-0.3280346393585205
1748008365659357000,2.92035693359375,-0.9358455538749695,0.6010913848876953,-1.151481032371521
1748008365675195600,2.936195556640625,-0.7916813492774963,0.4697553813457489,-1.3139711618423462
1748008365691125800,2.952125732421875,-0.7550294399261475,0.27611109614372253,-1.2626584768295288
1748008365706842400,2.96784228515625,-0.5613851547241211,0.06719517707824707,-1.1594222784042358
1748008365722680800,2.983680908203125,-0.3335324227809906,-0.048258353024721146,-1.0879509449005127
1748008365738489000,2.999489013671875,-0.07147123664617538,-0.06658431142568588,-1.0958921909332275
1748008365754297000,3.015297119140625,0.12461651116609573,-0.036651913076639175,-1.2003501653671265
1748008365777978600,3.038978515625,0.22968533635139465,0.012217304669320583,-1.2388347387313843
1748008365793817300,3.0548173828125,0.13988813757896423,0.1362229436635971,-1.0213667154312134
1748008365809717000,3.070717041015625,0.07269296050071716,0.2718350291252136,-0.7232644557952881
1748008365825494500,3.08649462890625,0.13316862285137177,0.5277875661849976,-0.28588494658470154
1748008365841302800,3.102302734375,0.31581732630729675,0.6829473376274109,0.11362093687057495
1748008365857110800,3.11811083984375,0.5522221922874451,0.6719517707824707,0.39156460762023926
1748008365873041000,3.134041015625,0.5528330206871033,0.19975294172763824,0.33536502718925476
1748008365888910000,3.14991015625,0.3933972120285034,-0.4966334402561188,0.19486601650714874
1748008365904657200,3.1656572265625,0.06475171446800232,-0.8613200187683105,0.04092797264456749
1748008365920434700,3.1814345703125,-0.17531833052635193,-0.7153232097625732,0.06902777403593063
1748008365936273400,3.1972734375,-0.3280346393585205,-0.5723807215690613,0.455705463886261
1748008365952112000,3.213112060546875,-0.6359107494354248,-0.5369505286216736,0.9285151958465576
1748008365967950600,3.22895068359375,-1.1679743528366089,-0.5424483418464661,1.3267992734909058
1748008365983697700,3.24469775390625,-1.4764612913131714,-0.5992587804794312,1.3701707124710083
1748008365999566800,3.26056689453125,-1.4966198205947876,-0.5534439086914062,1.1099421977996826
1748008366015374800,3.276374755859375,-1.2315043210983276,-0.3543018400669098,0.749531626701355
1748008366031152600,3.292152587890625,-1.0500773191452026,0.11545353382825851,0.24984388053417206
1748008366047021600,3.308021484375,-1.1264355182647705,0.47219884395599365,-0.2321287989616394
1748008366062738200,3.32373828125,-1.3261884450912476,0.6817256212234497,-0.6041457056999207
1748008366078546400,3.33954638671875,-1.4049900770187378,0.7971791625022888,-0.6517932415008545
1748008366094354400,3.3553544921875,-1.0800096988677979,0.6114761233329773,-0.6511823534965515
1748008366110162700,3.37116259765625,-0.4502076804637909,0.12522737681865692,-0.7281513810157776
1748008366126092800,3.3870927734375,0.0012217304902151227,-0.30970868468284607,-0.9242390990257263
1748008366141840000,3.40283984375,0.22540926933288574,-0.6487388610839844,-1.3982704877853394
1748008366157678300,3.41867822265625,0.20463985204696655,-0.7379252314567566,-1.8887953758239746
1748008366173486600,3.434486572265625,0.10201449692249298,-0.5497786998748779,-2.1038198471069336
1748008366189294600,3.450294677734375,-0.045204028487205505,-0.19486601650714874,-1.6688838005065918
1748008366205163800,3.466163818359375,-0.17348572611808777,0.10323622822761536,-0.5009095072746277
1748008366220910800,3.481910888671875,-0.2583959996700287,0.07208210229873657,0.6860016584396362
1748008366236688400,3.4976884765625,-0.294437050819397,-0.22357667982578278,1.7330247163772583
1748008366252557600,3.5135576171875,-0.33719760179519653,-0.4306600093841553,2.076941728591919
1748008366268365600,3.529365478515625,-0.43615779280662537,-0.6591235995292664,2.007303237915039
1748008366284234800,3.54523486328125,-0.5913175344467163,-1.0396926403045654,1.8466455936431885
1748008366299981800,3.56098193359375,-0.9010262489318848,-1.3897184133529663,1.863139033317566
1748008366315759600,3.576759521484375,-1.3005321025848389,-1.0219775438308716,2.3322834968566895
1748008366331567600,3.592567626953125,-1.4220943450927734,-0.33658674359321594,2.9095511436462402
1748008366347314700,3.608314697265625,-1.3854423761367798,0.3982841372489929,3.1893274784088135
1748008366363183900,3.624183837890625,-1.1227703094482422,0.2889392673969269,2.959031343460083
1748008366378931000,3.639930908203125,-0.8252789378166199,-0.5271766781806946,2.3512203693389893
1748008366394769400,3.655769287109375,-0.740368664264679,-1.207069754600525,1.5106697082519531
1748008366410547200,3.671547119140625,-0.7617489695549011,-1.7825047969818115,0.3536909818649292
1748008366426355200,3.687355224609375,-0.8631525635719299,-1.8991800546646118,-0.5326744914054871
1748008366442224400,3.703224365234375,-0.9743300676345825,-1.560760736465454,-1.2651019096374512
1748008366457971500,3.718971435546875,-0.9706648588180542,-1.0958921909332275,-1.5161675214767456
1748008366473779500,3.734779541015625,-0.9193521738052368,-0.694553792476654,-1.4275920391082764
1748008366489587700,3.750587646484375,-0.8497135639190674,-0.42699480056762695,-1.2424999475479126
1748008366505395700,3.766395751953125,-0.6976081132888794,-0.08185594528913498,-1.150259256362915
1748008366521265000,3.782264892578125,-0.5265658497810364,0.1966986060142517,-1.1753047704696655
1748008366537012000,3.798011962890625,-0.4056145250797272,0.43737950921058655,-1.1673635244369507
1748008366552820000,3.813820068359375,-0.42638394236564636,0.5094616413116455,-0.9535606503486633
1748008366568597500,3.829597412109375,-0.4996877610683441,0.45265114307403564,-0.5534439086914062
1748008366584405800,3.84540576171875,-0.49724429845809937,0.33536502718925476,0.06658431142568588
1748008366600305400,3.861305419921875,-0.36713001132011414,0.3243694305419922,0.5619960427284241
1748008366616052500,3.877052490234375,-0.14966198801994324,0.44593164324760437,1.0109820365905762
1748008366631860500,3.892860595703125,0.09651670604944229,0.6536257863044739,1.3182471990585327
1748008366647699200,3.90869921875,0.4343251883983612,0.9376781582832336,1.6004669666290283
1748008366663598800,3.924598876953125,0.6927211880683899,1.0781772136688232,1.7354681491851807
1748008366679498500,3.94049853515625,1.1062769889831543,1.2345587015151978,1.718363881111145
1748008366695215000,3.956215087890625,1.7244726419448853,1.189354658126831,1.4776830673217773
1748008366711053600,3.972053466796875,2.5021040439605713,1.0836749076843262,0.8680394887924194
1748008366734765800,3.995765869140625,2.4740042686462402,0.7440338730812073,-0.3280346393585205
1748008366750543400,4.01154345703125,1.9504927396774292,0.4190535545349121,-0.5992587804794312
1748008366766351600,4.0273515625,1.6407840251922607,0.20952677726745605,-0.17043140530586243
1748008366782190000,4.043190185546875,1.6847662925720215,0.3243694305419922,0.40744712948799133
1748008366798089700,4.05908984375,1.510058879852295,0.6627888083457947,0.6872233748435974
1748008366813806300,4.074806396484375,1.0122036933898926,1.035416603088379,0.6389650702476501
1748008366829614600,4.090614501953125,0.3585779070854187,1.3811663389205933,0.6029239892959595
1748008366845422600,4.106422607421875,-0.009773843921720982,1.730581283569336,0.7819074988365173
1748008366861230600,4.122230712890625,-0.19547687470912933,2.132530689239502,1.0231993198394775
1748008366877099800,4.138099853515625,-0.46670106053352356,2.610227108001709,1.2162326574325562
1748008366892846800,4.153846923828125,-0.7861835956573486,2.8771753311157227,1.1099421977996826
1748008366908655000,4.169655029296875,-0.8607091307640076,2.6762006282806396,0.6994407176971436
1748008366924432600,4.1854326171875,-0.7183775305747986,2.1453588008880615,0.23884831368923187
1748008366940240600,4.20124072265625,-0.4343251883983612,1.4618005752563477,-0.19975294172763824
1748008366956109800,4.21710986328125,-0.21074850857257843,0.9395107626914978,-0.46547931432724
1748008366971857000,4.23285693359375,-0.1014036312699318,0.3481931984424591,-0.6682865619659424
1748008366987634400,4.248634521484375,-0.1258382350206375,-0.07880161702632904,-0.7287622094154358
1748008367003442700,4.264442626953125,-0.2889392673969269,-0.3787364661693573,-0.5754350423812866
1748008367019281200,4.28028125,-0.35063666105270386,-0.4098905920982361,-0.30604347586631775
1748008367035150300,4.296150390625,-0.2125810980796814,-0.3897320330142975,0.03237585723400116
1748008367050927900,4.311927978515625,-0.06902777403593063,-0.4245513379573822,0.294437050819397
1748008367066736000,4.327736083984375,0.08429940044879913,-0.6414085030555725,0.45142942667007446
1748008367082513700,4.343513671875,0.20830504596233368,-1.0207557678222656,0.3536909818649292
1748008367098321700,4.35932177734375,0.30604347586631775,-1.3946053981781006,0.19425514340400696
1748008367114160400,4.375160400390625,0.4960225820541382,-1.6756033897399902,0.19425514340400696
1748008367129907500,4.390907470703125,0.49357911944389343,-1.938886284828186,0.38240164518356323
1748008367145746200,4.40674609375,0.04459316283464432,-2.361604928970337,0.6114761233329773
1748008367161493200,4.4224931640625,-0.44104471802711487,-2.7647759914398193,0.8063421249389648
1748008367177301200,4.43830126953125,-0.7446447610855103,-2.66642689704895,1.1374311447143555
1748008367193201000,4.454200927734375,-0.7226535677909851,-2.305405378341675,1.5259413719177246
1748008367208917500,4.46991748046875,-0.5290092825889587,-1.7104226350784302,2.0036380290985107
1748008367224725500,4.4857255859375,-0.18448130786418915,-1.0390818119049072,2.1007654666900635
1748008367240564200,4.501564208984375,0.24007004499435425,-0.5076290369033813,1.6194037199020386
1748008367256372200,4.517372314453125,0.48319441080093384,-0.6707300543785095,0.7727445363998413
1748008367272241400,4.533241455078125,0.6542366743087769,-0.9828822016716003,-0.42760565876960754
1748008367287988500,4.548988525390625,0.5644394755363464,-1.2424999475479126,-1.4569135904312134
1748008367303796500,4.56479638671875,0.4544837474822998,-1.1508700847625732,-2.4184155464172363
1748008367319574300,4.58057421875,0.3982841372489929,-0.6188064813613892,-2.8264734745025635
1748008367335382300,4.59638232421875,0.39095374941825867,-0.1319468915462494,-2.727513313293457
1748008367351251500,4.61225146484375,0.31520646810531616,0.23579397797584534,-2.2937989234924316
1748008367366937300,4.627937255859375,0.11850785464048386,0.46853363513946533,-1.8478673696517944
1748008367382715100,4.643715087890625,-0.12889257073402405,0.8289441466331482,-1.380555510520935
1748008367398492700,4.65949267578125,-0.26572638750076294,1.091616153717041,-1.043968677520752
1748008367414270200,4.675270263671875,-0.29504790902137756,1.218676209449768,-0.7648032903671265
1748008367430139400,4.691139404296875,-0.25473082065582275,1.214400053024292,-0.6841690540313721
1748008367445856000,4.70685595703125,-0.27061331272125244,1.0848966836929321,-0.7348709106445312
1748008367461664000,4.7226640625,-0.3549126982688904,0.8301658630371094,-0.7299839854240417
1748008367477472300,4.73847216796875,-0.40744712948799133,0.37690386176109314,-0.5711590051651001
1748008367493249800,4.754249755859375,-0.16004669666290283,0.030543262138962746,-0.3023782968521118
1748008367509088300,4.770088134765625,0.4398229718208313,-0.2125810980796814,0.18020524084568024
1748008367524804900,4.785804931640625,0.9297369122505188,-0.16859880089759827,0.5699372887611389
1748008367540613000,4.801613037109375,1.1337659358978271,-0.009773843921720982,0.7195992469787598
1748008367556421000,4.817421142578125,1.0225883722305298,0.14355333149433136,0.5363397002220154
1748008367572198700,4.83319873046875,0.9639453291893005,0.3591887652873993,0.19425514340400696
1748008367588067800,4.84906787109375,1.1282681226730347,0.7666358947753906,-0.08735372871160507
1748008367603784400,4.864784423828125,1.3622294664382935,1.1093312501907349,-0.4349360466003418
1748008367619592400,4.880592529296875,1.3365731239318848,0.8717046976089478,-0.8698720932006836
1748008367635370000,4.896369873046875,1.1441506147384644,0.2974913716316223,-1.054964303970337
1748008367651208700,4.912208740234375,0.7806857824325562,-0.1563815027475357,-0.8655960559844971
1748008367667108400,4.9281083984375,0.4355469346046448,-0.2076941877603531,-0.5375614166259766
1748008367682886000,4.943885986328125,0.006108652334660292,0.02626720629632473,-0.1258382350206375
1748008367698724600,4.959724609375,-0.4245513379573822,0.4178318381309509,0.19975294172763824
1748008367714502100,4.975502197265625,-0.9724974632263184,0.9034696817398071,0.4648684561252594
1748008367730340900,4.9913408203125,-1.5442672967910767,1.081842303276062,0.5277875661849976
1748008367746240500,5.007240478515625,-2.233934164047241,1.1753047704696655,0.3995058834552765
1748008367761987600,5.022987548828125,-2.4104743003845215,1.1826350688934326,0.3280346393585205
1748008367777765000,5.03876513671875,-2.0775527954101562,0.9535606503486633,0.27977627515792847
1748008367793603800,5.054603759765625,-1.616349458694458,0.6010913848876953,0.00427605677396059
1748008367809442300,5.0704423828125,-1.2852604389190674,0.2028072625398636,-0.6139195561408997
1748008367825311500,5.0863115234375,-1.1801916360855103,-0.015882495790719986,-1.3078625202178955
1748008367841058600,5.10205859375,-1.0903944969177246,-0.17592918872833252,-1.7629570960998535
1748008367856866600,5.117866455078125,-0.9975429177284241,-0.34697145223617554,-1.9792033433914185
1748008367872613600,5.133613525390625,-0.7941248416900635,-0.40622538328170776,-1.709811806678772
1748008367888452400,5.149452392578125,-0.4001167416572571,-0.4300491213798523,-0.8008443117141724
1748008367904321500,5.165321533203125,-0.1667662113904953,-0.4911356568336487,0.07513642311096191
1748008367920099000,5.18109912109375,0.05375614017248154,-0.5613851547241211,0.7348709106445312
1748008367935937800,5.196937744140625,0.25961771607398987,-0.7580837607383728,0.9462302923202515
1748008367951745800,5.212745849609375,0.4392121136188507,-1.2626584768295288,0.856433093547821
1748008367967523300,5.2285234375,0.4801400899887085,-1.570534586906433,0.7195992469787598
1748008367983423000,5.244423095703125,0.4386012554168701,-1.6493362188339233,0.8582656979560852
1748008367999139600,5.2601396484375,0.4001167416572571,-1.511891484260559,1.2669345140457153
1748008368014947800,5.27594775390625,0.5900958180427551,-1.2406673431396484,1.7049249410629272
1748008368030725400,5.291725341796875,0.7580837607383728,-0.9327912330627441,1.9211711883544922
1748008368046533400,5.307533447265625,0.7305948138237,-1.0629055500030518,1.9688186645507812
1748008368062463500,5.32346337890625,0.6908885836601257,-1.7635679244995117,1.9785925149917603
1748008368078210600,5.33921044921875,0.7037167549133301,-2.2852468490600586,2.0311269760131836
1748008368094018800,5.355018798828125,0.5577199459075928,-2.3915374279022217,2.0415115356445312
1748008368109857300,5.370857177734375,0.423329621553421,-2.163684606552124,1.9743164777755737
1748008368125635000,5.386635009765625,0.2871066629886627,-1.6853772401809692,1.711033582687378
1748008368141473500,5.4024736328125,0.07269296050071716,-1.1355985403060913,1.2431107759475708
1748008368157220600,5.418220703125,-0.3225368559360504,-0.7061602473258972,0.455705463886261
1748008368172998100,5.433998046875,-0.656680166721344,-0.7556403279304504,-0.23518311977386475
1748008368188806400,5.449806396484375,-0.769079327583313,-0.9193521738052368,-0.7440338730812073
1748008368204614400,5.465614501953125,-0.6621779203414917,-0.7269296646118164,-0.8943067193031311
1748008368220514000,5.48151416015625,-0.42760565876960754,-0.07391469180583954,-0.96883225440979
1748008368236261000,5.49726123046875,-0.1459967941045761,0.5943718552589417,-1.0983357429504395
1748008368252008200,5.51300830078125,0.16920967400074005,1.197906732559204,-1.3524556159973145
1748008368267816400,5.52881640625,0.36590829491615295,1.463022232055664,-1.645671010017395
1748008368283594000,5.544593994140625,0.4086688458919525,1.395827054977417,-1.7843374013900757
1748008368299463200,5.560463134765625,0.41233405470848083,1.0659598112106323,-1.6236798763275146
1748008368315179800,5.5761796875,0.5583308339118958,0.8185594081878662,-1.2412781715393066
1748008368330957300,5.591957275390625,0.8753699064254761,0.7134906053543091,-0.7874053120613098
1748008368346765300,5.607765380859375,1.1808024644851685,0.8008443117141724,-0.4306600093841553
1748008368362573600,5.623573486328125,1.3903292417526245,0.978606104850769,-0.06230825558304787
1748008368378442500,5.6394423828125,1.3909401893615723,0.9071348905563354,0.2070833146572113
1748008368394220300,5.65522021484375,1.2388347387313843,0.4966334402561188,0.494189977645874
1748008368409997800,5.670997802734375,1.0891727209091187,0.16249015927314758,0.5736024379730225
1748008368425836300,5.686836181640625,1.1099421977996826,0.14477506279945374,0.46303585171699524
1748008368441644500,5.70264453125,1.179580807685852,0.59803706407547,0.5106833577156067
1748008368457544200,5.718544189453125,1.1899654865264893,1.0867292881011963,0.7220427393913269
1748008368473291300,5.734291259765625,1.1313223838806152,1.1533136367797852,0.8472700715065002
1748008368489129700,5.750129638671875,1.1074986457824707,0.797789990901947,0.9822713136672974
1748008368504938000,5.76593798828125,1.10139000415802,0.3243694305419922,1.0708467960357666
1748008368520746000,5.78174609375,0.8918632864952087,0.2987131178379059,1.0506882667541504
1748008368536615200,5.797615234375,0.45692721009254456,0.6426302194595337,1.112385630607605
1748008368552392700,5.813392822265625,0.07757988572120667,0.8185594081878662,1.2308934926986694
1748008368568201000,5.829200927734375,-0.11423180252313614,0.375071257352829,1.348179578781128
1748008368584039400,5.845039306640625,-0.07147123664617538,-0.4648684561252594,1.4184291362762451
1748008368599847700,5.86084765625,0.015271631069481373,-1.3213015794754028,1.5155566930770874
1748008368615747300,5.876747314453125,0.006108652334660292,-1.7116444110870361,1.5302174091339111
1748008368631494400,5.892494384765625,-0.2687807083129883,-1.6468926668167114,1.3738359212875366
1748008368647241500,5.908241455078125,-0.6310238242149353,-1.149037480354309,1.1820242404937744
1748008368663049500,5.924049560546875,-1.0971139669418335,-0.27000242471694946,1.0323622226715088
1748008368678857700,5.939857666015625,-1.2180652618408203,0.403781920671463,1.009149432182312
1748008368694787800,5.955787841796875,-0.9468411207199097,0.6047565937042236,0.9779952764511108
1748008368710535000,5.971534912109375,-0.5027421116828918,0.33536502718925476,0.7409795522689819
1748008368726312400,5.9873125,-0.17959438264369965,0.11911872029304504,0.3243694305419922
1748008368742120400,6.003120361328125,0.11667526513338089,0.1722639948129654,-0.303600013256073
1748008368757898200,6.018898193359375,0.3237585723400116,0.2272418737411499,-0.7507534027099609
1748008368773767400,6.034767333984375,0.5742133259773254,0.11362093687057495,-0.93095862865448
1748008368789483800,6.05048388671875,0.7336491346359253,-0.16249015927314758,-0.8216137290000916
1748008368805292000,6.0662919921875,0.9419541954994202,-0.607200026512146,-0.45692721009254456
1748008368821130500,6.082130615234375,1.177748203277588,-0.8680394887924194,-0.033597588539123535
1748008368836938800,6.097938720703125,1.281595230102539,-0.9480628371238708,0.35063666105270386
1748008368852777200,6.113777099609375,1.2370021343231201,-0.9395107626914978,0.5473352670669556
1748008368868524300,6.129524169921875,0.959669291973114,-0.9419541954994202,0.8008443117141724
1748008368884363000,6.145363037109375,0.4715879559516907,-0.7672467231750488,1.0476338863372803
1748008368900140500,6.161140625,-0.025656340643763542,-0.38240164518356323,1.4746286869049072
1748008368915979300,6.176979248046875,-0.18081611394882202,-0.18081611394882202,1.7452419996261597
1748008368931879000,6.19287890625,-0.18387043476104736,-0.5296201705932617,1.5143349170684814
1748008368947626000,6.2086259765625,-0.17287486791610718,-1.2247848510742188,0.9144652485847473
1748008368963434000,6.22443408203125,-0.35124751925468445,-1.7373007535934448,0.4642575979232788
1748008368979242200,6.2402421875,-0.770301103591919,-2.007303237915039,0.09773843735456467
1748008368995019800,6.256019775390625,-1.0793988704681396,-2.043955087661743,-0.1618792861700058
1748008369018731800,6.279731689453125,-1.4135421514511108,-1.935831904411316,-0.6065891981124878
1748008369034509600,6.295509521484375,-1.4703526496887207,-1.7366899251937866,-0.9627236127853394
1748008369050348000,6.31134814453125,-1.397048830986023,-1.2889256477355957,-1.5754214525222778
1748008369066095000,6.32709521484375,-1.3457361459732056,-0.7556403279304504,-2.2760839462280273
1748008369081964300,6.34296435546875,-1.3732250928878784,-0.26572638750076294,-2.7898216247558594
1748008369097925000,6.358925048828125,-1.508837103843689,0.3390302062034607,-3.155118942260742
1748008369113763600,6.374763671875,-1.6841554641723633,0.8753699064254761,-3.244305372238159
1748008369129602300,6.390602294921875,-1.7525724172592163,1.3524556159973145,-3.1300735473632812
1748008369145349400,6.406349365234375,-1.6102408170700073,1.508837103843689,-3.032335042953491
1748008369161157400,6.422157470703125,-1.1661417484283447,1.3927727937698364,-2.9248228073120117
1748008369176996000,6.43799609375,-0.7226535677909851,1.2302825450897217,-2.598620653152466
1748008369192773600,6.453773681640625,-0.2877175211906433,1.0378600358963013,-1.872912883758545
1748008369208642800,6.469642822265625,-0.12461651116609573,0.7806857824325562,-1.2528846263885498
1748008369224390000,6.485389892578125,-0.12034045159816742,0.4398229718208313,-0.949895441532135
1748008369240198000,6.501197998046875,-0.07330382615327835,0.25595253705978394,-0.9462302923202515
1748008369255975400,6.516975341796875,0.11362093687057495,0.28038713335990906,-0.959669291973114
1748008369271814100,6.532814208984375,0.46731191873550415,0.3878994286060333,-0.7238753437995911
1748008369287713800,6.5487138671875,0.7000515460968018,0.323147714138031,-0.4331034719944
1748008369303491300,6.5644912109375,0.788016140460968,-0.06291911751031876,-0.2571742534637451
1748008369319330000,6.580330078125,0.7635815739631653,-0.4245513379573822,-0.1563815027475357
1748008369335138000,6.596137939453125,0.6304129362106323,-0.42210787534713745,0.004886921960860491
1748008369350946300,6.6119462890625,0.5516113042831421,-0.10018189996480942,0.19975294172763824
1748008369366815500,6.6278154296875,0.6200281977653503,0.30482175946235657,0.49785518646240234
1748008369382593000,6.643593017578125,0.6719517707824707,0.46670106053352356,0.665232241153717
1748008369398431500,6.659431396484375,0.5766568183898926,0.3597996234893799,0.5809328556060791
1748008369414239700,6.67523974609375,0.3445279896259308,0.09957103431224823,0.22296582162380219
1748008369430017300,6.691017333984375,0.16065755486488342,-0.36163222789764404,-0.31093040108680725
1748008369445886500,6.706886474609375,0.16493362188339233,-0.7098253965377808,-0.8924741148948669
1748008369461603000,6.72260302734375,0.3121521472930908,-0.9804387092590332,-1.7959438562393188
1748008369477411000,6.7384111328125,0.5448917746543884,-1.1563678979873657,-2.737898111343384
1748008369493219300,6.75421923828125,0.636521577835083,-1.1380419731140137,-3.1868839263916016
1748008369508996900,6.769996826171875,0.5479460954666138,-0.9816604256629944,-3.0805933475494385
1748008369524896500,6.785896484375,0.4147774875164032,-0.8814785480499268,-2.719572067260742
1748008369540643600,6.8016435546875,0.28466320037841797,-0.8142833709716797,-2.2284364700317383
1748008369556512800,6.8175126953125,0.23457226157188416,-0.5326744914054871,-1.7611244916915894
1748008369572290300,6.833290283203125,0.29626965522766113,-0.05803219974040985,-1.0903944969177246
1748008369588067800,6.84906787109375,0.4502076804637909,0.34636059403419495,-0.34697145223617554
1748008369603967500,6.864967529296875,0.6047565937042236,0.7116580009460449,0.5381723046302795
1748008369619714600,6.880714599609375,0.5485569834709167,0.9743300676345825,1.129489779472351
1748008369635522600,6.8965224609375,0.26939156651496887,1.1771373748779297,1.5418238639831543
1748008369651300400,6.91230029296875,-0.13316862285137177,1.1191051006317139,1.5467108488082886
1748008369667108400,6.9281083984375,-0.7409795522689819,0.7635815739631653,1.0574077367782593
1748008369682977500,6.9439775390625,-1.2608258724212646,0.01466076634824276,0.32986724376678467
1748008369698724600,6.959724609375,-1.6316211223602295,-0.6536257863044739,0.010995574295520782
1748008369714593800,6.97559375,-1.9785925149917603,-1.1252137422561646,0.16432274878025055
1748008369730340900,6.9913408203125,-1.9492709636688232,-1.4104878902435303,0.6200281977653503
1748008369746088000,7.007087890625,-1.4947872161865234,-1.5540411472320557,1.4355332851409912
1748008369761957000,7.02295703125,-1.1148290634155273,-1.5503759384155273,2.0616703033447266
1748008369777673500,7.038673583984375,-1.084285855293274,-1.6658295392990112,2.2437081336975098
1748008369793451300,7.054451171875,-1.330464482307434,-1.8539760112762451,1.901012659072876
1748008369809259300,7.07025927734375,-1.370781660079956,-1.6768250465393066,1.4752395153045654
1748008369825006300,7.08600634765625,-1.0684033632278442,-0.8234463334083557,1.4007140398025513
1748008369840875500,7.10187548828125,-0.7849618196487427,0.6157521605491638,1.7275269031524658
1748008369856622600,7.11762255859375,-0.598647952079773,1.4282029867172241,2.2870795726776123
1748008369872461000,7.1334609375,-0.17531833052635193,1.3866641521453857,2.989574432373047
1748008369888299800,7.1492998046875,0.10873401165008545,0.8741481900215149,3.2400293350219727
1748008369904107800,7.165107666015625,0.18875735998153687,0.1765400618314743,2.936429262161255
1748008369920007400,7.18100732421875,0.30543261766433716,-0.48747047781944275,2.450791358947754
1748008369935724000,7.19672412109375,0.5894849896430969,-1.1056660413742065,1.797776460647583
1748008369951562800,7.212562744140625,0.8588765263557434,-1.7348573207855225,0.7849618196487427
1748008369967340300,7.22834033203125,0.9450085163116455,-2.3353378772735596,-0.28038713335990906
1748008369983117800,7.244117919921875,0.8038986921310425,-2.8606820106506348,-1.423926830291748
1748008369999017500,7.260017578125,0.5180137157440186,-2.975524663925171,-2.155743360519409
1748008370014734000,7.275734130859375,0.00427605677396059,-2.593733787536621,-2.668259382247925
1748008370030572800,7.29157275390625,-0.5345070958137512,-1.9914207458496094,-2.7934868335723877
1748008370046350300,7.307350341796875,-1.0555751323699951,-1.1301007270812988,-2.521040916442871
1748008370062158300,7.323158447265625,-1.348179578781128,-0.4141666293144226,-2.048841953277588
1748008370078027500,7.339027587890625,-1.4966198205947876,0.30970868468284607,-1.4123204946517944
1748008370093713700,7.354713623046875,-1.5485434532165527,0.6902777552604675,-0.8741481900215149
1748008370109491200,7.3704912109375,-1.6010777950286865,0.9083566069602966,-0.3127630054950714
1748008370125299200,7.38629931640625,-1.6566665172576904,0.9382890462875366,0.1007927656173706
1748008370141107500,7.402107421875,-1.6438384056091309,0.8295549750328064,0.43127086758613586
1748008370157007000,7.418007080078125,-1.528384804725647,0.5687155723571777,0.6047565937042236
1748008370172754200,7.433754150390625,-1.2620476484298706,0.1765400618314743,0.6963863968849182
1748008370188531700,7.44953173828125,-0.9071348905563354,-0.054367005825042725,0.608421802520752
1748008370204339700,7.465339599609375,-0.5296201705932617,-0.04642575979232788,0.4043927788734436
1748008370220117500,7.481117431640625,-0.08918632566928864,0.09407325088977814,0.08307767659425735
1748008370235986400,7.496986328125,0.15577064454555511,0.12339477986097336,-0.1466076523065567
1748008370251672600,7.512672607421875,0.28038713335990906,-0.04886921867728233,-0.23945917189121246
1748008370267480600,7.52848046875,0.2535090744495392,-0.27550023794174194,-0.17470745742321014
1748008370283288800,7.544288818359375,0.13011430203914642,-0.3433062732219696,0.004886921960860491
1748008370299096800,7.560096923828125,0.12828169763088226,-0.22602014243602753,0.14966198801994324
1748008370314966000,7.575966064453125,0.23029619455337524,0.10690141469240189,0.2174680233001709
1748008370330682600,7.5916826171875,0.37629300355911255,0.484416127204895,0.18020524084568024
1748008370346460200,7.607460205078125,0.48747047781944275,0.8717046976089478,0.07208210229873657
1748008370362299000,7.623298828125,0.45814892649650574,1.0134254693984985,-0.00427605677396059
1748008370378076400,7.639076416015625,0.37201693654060364,1.0225883722305298,-0.10201449692249298
1748008370393945600,7.654945556640625,0.34025195240974426,0.9578366875648499,-0.15821409225463867
1748008370409662000,7.670661865234375,0.3274237811565399,0.8222246170043945,-0.13561208546161652
1748008370425470200,7.68647021484375,0.2565633952617645,0.6334672570228577,-0.0403171069920063
1748008370441309000,7.702308837890625,0.06963863968849182,0.152105450630188,0.08674286305904388
1748008370457117000,7.718116943359375,-0.2223549485206604,-0.38240164518356323,0.08552113175392151
1748008370472986000,7.733986083984375,-0.5009095072746277,-0.6988298296928406,0.018936822190880775
1748008370488763600,7.749763671875,-0.8503243923187256,-0.8753699064254761,-0.04153883829712868
1748008370504541200,7.765541259765625,-1.1759155988693237,-0.8460483551025391,-0.05742133408784866
1748008370520349400,7.781349365234375,-1.570534586906433,-0.6811147332191467,-0.08002334833145142
1748008370536188000,7.79718798828125,-1.870469331741333,-0.5791002511978149,-0.14416420459747314
1748008370552057000,7.81305712890625,-2.0231857299804688,-0.6120869517326355,-0.1820378452539444
1748008370567743200,7.8287431640625,-1.9675970077514648,-0.7684684991836548,-0.14844025671482086
1748008370583551200,7.84455126953125,-1.7678439617156982,-1.054964303970337,-0.1472185254096985
1748008370599390000,7.860389892578125,-1.500285029411316,-1.3164145946502686,-0.2376265823841095
1748008370615167500,7.87616748046875,-1.2760975360870361,-1.4813482761383057,-0.5051855444908142
1748008370631036700,7.89203662109375,-1.1789699792861938,-1.4037683010101318,-0.797789990901947
1748008370646875100,7.907875244140625,-1.0836749076843262,-1.141707181930542,-1.0268645286560059
1748008370662652700,7.923652587890625,-1.0421360731124878,-0.817337691783905,-1.0305296182632446
1748008370678521900,7.93952197265625,-1.0757336616516113,-0.6029239892959595,-0.8759807348251343
1748008370694330000,7.955330078125,-1.1869112253189087,-0.43615779280662537,-0.6157521605491638
1748008370710199300,7.97119921875,-1.3249666690826416,-0.3536909818649292,-0.38667771220207214
1748008370725946400,7.9869462890625,-1.4324790239334106,-0.21013765037059784,-0.16554448008537292
1748008370741784800,8.002784912109375,-1.3982704877853394,0.09896016865968704,-0.11301007121801376
1748008370757593000,8.018593017578125,-1.2852604389190674,0.4905247986316681,-0.22540926933288574
1748008370773462000,8.0344619140625,-1.2217304706573486,0.6884451508522034,-0.33658674359321594
1748008370789361700,8.050361572265626,-1.2822061777114868,0.5913175344467163,-0.303600013256073
1748008370805078300,8.066078369140625,-1.4471397399902344,0.2021963894367218,-0.14233160018920898
1748008370820886500,8.081886474609375,-1.712866187095642,-0.4129449129104614,0.03176499158143997
1748008370836664000,8.0976640625,-1.9559905529022217,-0.7849618196487427,0.039706241339445114
1748008370852472000,8.11347216796875,-2.14902400970459,-0.9639453291893005,-0.05803219974040985
1748008370868310800,8.129310791015625,-2.2547035217285156,-0.9468411207199097,-0.07696902006864548
1748008370884088300,8.14508837890625,-2.30051851272583,-0.8930850028991699,0.1459967941045761
1748008370899927000,8.160927001953125,-2.347555160522461,-0.9920451641082764,0.48808133602142334
1748008370915735000,8.176735107421875,-2.3597724437713623,-1.1594222784042358,0.6792821288108826
1748008370931543300,8.192543212890625,-2.3011293411254883,-1.2394455671310425,0.7305948138237
1748008370947412200,8.208412109375,-2.1960606575012207,-1.1246029138565063,0.6762278079986572
1748008370963159300,8.2241591796875,-1.976149082183838,-0.7819074988365173,0.5186246037483215
1748008370978937000,8.23993701171875,-1.7550158500671387,-0.4990769028663635,0.33292156457901
1748008370994714600,8.255714599609375,-1.521665334701538,-0.35735616087913513,0.048258353024721146
1748008371010522600,8.271522705078125,-1.4092661142349243,-0.43249258399009705,-0.14294247329235077
1748008371026391800,8.287391845703125,-1.3335188627243042,-0.5418374538421631,-0.1270599663257599
1748008371042108400,8.3031083984375,-1.2376129627227783,-0.5076290369033813,0.14538592100143433
1748008371057916400,8.31891650390625,-1.1001683473587036,-0.38240164518356323,0.543059229850769
1748008371073694000,8.33469384765625,-0.9749409556388855,-0.251676470041275,0.6860016584396362
1748008371089502200,8.350502197265625,-0.8307767510414124,0.004886921960860491,0.6340781450271606
1748008371105401900,8.36640185546875,-0.797789990901947,0.3500257730484009,0.5149593949317932
1748008371121149000,8.38214892578125,-0.9266825914382935,0.6407976150512695,0.4184426963329315
1748008371136957000,8.39795703125,-1.0708467960357666,0.7727445363998413,0.35735616087913513
1748008371152795600,8.413795654296875,-1.1545352935791016,0.7764097452163696,0.3793473243713379
1748008371168634400,8.42963427734375,-1.0867292881011963,0.7757988572120667,0.3836233615875244
1748008371184503300,8.44550341796875,-0.950506329536438,0.7452555894851685,0.3640756905078888
1748008371200220000,8.461219970703125,-1.0140362977981567,0.588874101638794,0.30115658044815063
1748008371216058600,8.47705859375,-1.1997393369674683,0.41661009192466736,0.08918632566928864
1748008371231866600,8.49286669921875,-1.2699888944625854,0.27000242471694946,-0.15515977144241333
1748008371247675000,8.5086748046875,-1.0390818119049072,0.4709770977497101,-0.04886921867728233
1748008371263543800,8.524543701171876,-0.5791002511978149,0.655458390712738,0.2535090744495392
1748008371279291000,8.540290771484376,-0.2638937830924988,0.3286454975605011,0.21624629199504852
1748008371295068700,8.556068603515625,-0.17348572611808777,-0.18875735998153687,-0.10506882518529892
1748008371310876700,8.571876708984375,-0.2919935882091522,-0.5656611919403076,-0.3933972120285034
1748008371326684700,8.5876845703125,-0.4440990388393402,-0.9388998746871948,-0.5363397002220154
1748008371342553900,8.603553955078125,-0.48258355259895325,-1.1282681226730347,-0.5149593949317932
1748008371358270500,8.6192705078125,-0.4392121136188507,-1.0458012819290161,-0.342695415019989
1748008371374078500,8.635078369140626,-0.37629300355911255,-0.7757988572120667,-0.04764748737215996
1748008371389947600,8.65094775390625,-0.37568211555480957,-0.5601634383201599,0.08552113175392151
1748008371405725200,8.66672509765625,-0.38606682419776917,-0.44226643443107605,0.016493361443281174
1748008371421564000,8.68256396484375,-0.37140607833862305,-0.3982841372489929,-0.16493362188339233
1748008371437311000,8.69831103515625,-0.3219259977340698,-0.3701843321323395,-0.3988949954509735
1748008371453180200,8.71418017578125,-0.2675589919090271,-0.41111230850219727,-0.5424483418464661
1748008371468957700,8.729957763671875,-0.22907446324825287,-0.5558874011039734,-0.675616979598999
1748008371484766000,8.745765869140625,-0.2174680233001709,-0.6798930168151855,-0.7195992469787598
1748008371500665600,8.76166552734375,-0.25106561183929443,-0.7024950385093689,-0.6432411074638367
1748008371516443100,8.777443115234375,-0.27061331272125244,-0.6200281977653503,-0.5534439086914062
1748008371532220700,8.793220703125,-0.2779437005519867,-0.49724429845809937,-0.494189977645874
1748008371548028700,8.809028564453126,-0.29077184200286865,-0.34758231043815613,-0.4147774875164032
1748008371563837000,8.8248369140625,-0.33047810196876526,-0.22540926933288574,-0.2840523421764374
1748008371579675400,8.84067529296875,-0.42577308416366577,-0.14049901068210602,-0.1417207419872284
1748008371595422500,8.85642236328125,-0.5106833577156067,-0.12400564551353455,-0.07391469180583954
1748008371611230700,8.872230712890625,-0.5522221922874451,-0.1264491081237793,-0.07391469180583954
1748008371627008300,8.88800830078125,-0.4862487316131592,-0.08735372871160507,-0.1368338167667389
1748008371642785800,8.903785888671875,-0.36102136969566345,-0.009162978269159794,-0.23579397797584534
1748008371658655000,8.919655029296875,-0.27550023794174194,0.09712757170200348,-0.2675589919090271
1748008371674432500,8.9354326171875,-0.2791654169559479,0.16920967400074005,-0.3072652220726013
1748008371690210000,8.9512099609375,-0.3488040566444397,0.17898350954055786,-0.32986724376678467
1748008371706048800,8.967048828125,-0.43127086758613586,0.2125810980796814,-0.3072652220726013
1748008371721857000,8.98285693359375,-0.3988949954509735,0.2779437005519867,-0.23640485107898712
1748008371737726000,8.998725830078126,-0.22968533635139465,0.2840523421764374,-0.16859880089759827
1748008371753503700,9.014503662109375,-0.08491026610136032,0.16371189057826996,-0.18081611394882202
1748008371769281300,9.03028125,-0.039706241339445114,-0.04153883829712868,-0.22418753802776337
1748008371785058800,9.046058837890625,-0.09712757170200348,-0.17776179313659668,-0.2565633952617645
1748008371800806000,9.061805908203125,-0.16982053220272064,-0.27611109614372253,-0.2474004179239273
1748008371816675000,9.077675048828125,-0.15515977144241333,-0.2681698501110077,-0.13011430203914642
1748008371832422100,9.093422119140625,-0.08368854224681854,-0.22357667982578278,0.00855211354792118
1748008371848260600,9.109260498046876,0.00366519158706069,-0.20891591906547546,0.09040805697441101
1748008371864068900,9.12506884765625,0.06108652427792549,-0.23457226157188416,0.13561208546161652
1748008371879876900,9.140876953125,0.039706241339445114,-0.2431243658065796,0.12034045159816742
1748008371895746000,9.15674609375,-0.05192354694008827,-0.24862214922904968,0.06169738993048668
1748008371911523600,9.172523681640625,-0.18570303916931152,-0.22602014243602753,-0.015882495790719986
1748008371927331800,9.188331787109375,-0.22479841113090515,-0.1771509200334549,-0.06902777403593063
1748008371943109400,9.204109375,-0.20097467303276062,-0.10506882518529892,-0.05925392732024193
1748008371958917400,9.21991748046875,-0.12278391420841217,-0.07269296050071716,-0.018936822190880775
1748008371974725600,9.2357255859375,-0.10812314599752426,-0.022602014243602753,0.04398229718208313
1748008371990442000,9.25144189453125,-0.16859880089759827,-0.005497787147760391,0.06169738993048668
1748008372006280700,9.26728076171875,-0.2816088795661926,0.003054326167330146,0.02932153269648552
1748008372022119400,9.283119384765625,-0.33597588539123535,-0.006719517521560192,0.004886921960860491
1748008372037927400,9.298927490234375,-0.2370157092809677,-0.05925392732024193,0.04153883829712868
1748008372053766100,9.31476611328125,-0.12950342893600464,-0.06230825558304787,0.13561208546161652
1748008372069513200,9.33051318359375,-0.12278391420841217,-0.00733038317412138,0.17592918872833252
1748008372085290800,9.346290771484375,-0.16432274878025055,0.025045474991202354,0.15454891324043274
1748008372101098800,9.3620986328125,-0.16798794269561768,-0.025045474991202354,0.11423180252313614
1748008372116845800,9.377845703125,-0.13072516024112701,-0.11239920556545258,0.07147123664617538
1748008372132776200,9.393776123046875,-0.09957103431224823,-0.16798794269561768,0.0507018156349659
1748008372148492500,9.409492431640626,-0.09468411654233932,-0.1618792861700058,0.07330382615327835
1748008372164270300,9.425270263671875,-0.0861319974064827,-0.11239920556545258,0.10445795953273773
1748008372180108800,9.44110888671875,-0.05314527451992035,-0.04398229718208313,0.1270599663257599
1748008372195917000,9.4569169921875,-0.012828170321881771,0.02687807008624077,0.12400564551353455
1748008372211786000,9.472785888671876,0.0555887371301651,0.11056660860776901,0.09162978827953339
1748008372227563800,9.488563720703125,0.11972958594560623,0.16004669666290283,0.03176499158143997
1748008372243341300,9.50434130859375,0.1508837193250656,0.1722639948129654,-0.05192354694008827
1748008372259118800,9.520118896484375,0.16798794269561768,0.17470745742321014,-0.13500121235847473
1748008372274896400,9.535896484375,0.17837265133857727,0.18448130786418915,-0.21502456068992615
1748008372290765600,9.551765625,0.1722639948129654,0.22602014243602753,-0.2877175211906433
1748008372306512600,9.5675126953125,0.18448130786418915,0.23335053026676178,-0.3194825351238251
1748008372322320600,9.583320556640626,0.2168571650981903,0.18814650177955627,-0.2883284091949463
1748008372338098400,9.599098388671875,0.24007004499435425,0.10323622822761536,-0.1771509200334549
1748008372353906400,9.614906494140625,0.2272418737411499,-0.027488935738801956,-0.024434609338641167
1748008372369775600,9.630775634765625,0.18631389737129211,-0.0959058403968811,0.07269296050071716
1748008372385553200,9.64655322265625,0.1319468915462494,-0.1258382350206375,0.07757988572120667
1748008372401361400,9.662361328125,0.14233160018920898,-0.08796459436416626,0.05497787147760391
1748008372417169400,9.67816943359375,0.20036379992961884,-0.02321287989616394,0.07269296050071716
1748008372432977400,9.693977294921876,0.2626720666885376,0.02076941914856434,0.1215621829032898
1748008372448877000,9.709876953125,0.3439171314239502,0.09285151958465576,0.23090706765651703
1748008372464593700,9.72559375,0.4043927788734436,0.16737708449363708,0.33597588539123535
1748008372480402000,9.74140185546875,0.4294382631778717,0.25106561183929443,0.3933972120285034
1748008372496210000,9.7572099609375,0.3933972120285034,0.32559117674827576,0.375071257352829
1748008372511987500,9.772987548828125,0.32986724376678467,0.4141666293144226,0.2871066629886627
1748008372527856600,9.788856689453125,0.35124751925468445,0.49296826124191284,0.11301007121801376
1748008372543573200,9.8045732421875,0.37568211555480957,0.5461135506629944,-0.06536258012056351
1748008372559381200,9.82038134765625,0.3842342495918274,0.4642575979232788,-0.16310101747512817
1748008372575158800,9.83615869140625,0.3628539443016052,0.2822197377681732,-0.1111774742603302
1748008372590997500,9.85199755859375,0.26572638750076294,0.04764748737215996,0.06230825558304787
1748008372606897200,9.867897216796875,0.17776179313659668,-0.10751228034496307,0.21135938167572021
1748008372622644200,9.883644287109375,0.12400564551353455,-0.2015855312347412,0.3396410644054413
1748008372638452500,9.899452392578125,0.10995574295520782,-0.18875735998153687,0.34758231043815613
1748008372654260500,9.915260498046875,0.1368338167667389,-0.07941248267889023,0.2015855312347412
1748008372670038000,9.9310380859375,0.19303341209888458,0.039095375686883926,0.02321287989616394
1748008372685968100,9.946968017578126,0.26145032048225403,0.16982053220272064,-0.13011430203914642
1748008372701715200,9.962715087890626,0.29565876722335815,0.26450464129447937,-0.21135938167572021
1748008372717523500,9.9785234375,0.3219259977340698,0.3384193480014801,-0.24617868661880493
1748008372733331500,9.99433154296875,0.3695734739303589,0.3023782968521118,-0.22540926933288574
1748008372749139700,10.0101396484375,0.43676865100860596,0.17531833052635193,-0.23273965716362
1748008372765039400,10.026039306640625,0.5027421116828918,-0.009162978269159794,-0.2785545587539673
1748008372780755700,10.041755615234376,0.5277875661849976,-0.12278391420841217,-0.36590829491615295
1748008372796502800,10.057502685546876,0.5027421116828918,-0.21319197118282318,-0.4764748811721802
1748008372812280600,10.073280517578125,0.4349360466003418,-0.18936823308467865,-0.5424483418464661
1748008372828088600,10.089088623046875,0.33597588539123535,-0.12034045159816742,-0.5357288122177124
1748008372843957800,10.104957763671875,0.2736676335334778,-0.09773843735456467,-0.47769662737846375
1748008372859704800,10.120704833984375,0.1973094791173935,-0.15393804013729095,-0.3543018400669098
1748008372875482400,10.136482421875,0.11728613078594208,-0.23945917189121246,-0.24373523890972137
1748008372891229400,10.1522294921875,0.0006108652451075613,-0.32009339332580566,-0.09407325088977814
1748008372907037400,10.168037353515626,-0.11423180252313614,-0.37201693654060364,-0.00366519158706069
1748008372922937300,10.183937255859375,-0.21563543379306793,-0.4202753007411957,0.08491026610136032
1748008372938653700,10.19965380859375,-0.2736676335334778,-0.4043927788734436,0.1472185254096985
1748008372954462000,10.2154619140625,-0.31642818450927734,-0.3488040566444397,0.21991148591041565
1748008372970300400,10.231300537109375,-0.33658674359321594,-0.28527405858039856,0.304210901260376
1748008372986139100,10.24713916015625,-0.3799581825733185,-0.1875356286764145,0.38179078698158264
1748008373002038800,10.263038818359375,-0.45875978469848633,-0.09957103431224823,0.3988949954509735
1748008373017755400,10.27875537109375,-0.5229006409645081,-0.02015855349600315,0.3897320330142975
1748008373033593900,10.29459375,-0.5393940210342407,0.039706241339445114,0.3878994286060333
1748008373049402000,10.310402099609375,-0.504574716091156,0.04337143152952194,0.37262779474258423
1748008373065240600,10.326240478515626,-0.4648684561252594,0.016493361443281174,0.2932153046131134
1748008373081109800,10.34210986328125,-0.4758640229701996,-0.033597588539123535,0.20830504596233368
1748008373096856800,10.35785693359375,-0.4990769028663635,-0.08124507963657379,0.1472185254096985
1748008373112665000,10.3736650390625,-0.48808133602142334,-0.2021963894367218,0.2321287989616394
1748008373128473000,10.38947314453125,-0.44593164324760437,-0.3396410644054413,0.44165557622909546
1748008373144281000,10.405281005859376,-0.42271876335144043,-0.4440990388393402,0.5937610268592834
1748008373160150300,10.421150390625,-0.40683624148368835,-0.5589417219161987,0.6817256212234497
1748008373175928000,10.436927978515625,-0.40622538328170776,-0.5540547966957092,0.6298020482063293
1748008373191736000,10.452736083984375,-0.3830125033855438,-0.44837507605552673,0.45326200127601624
1748008373207574800,10.46857470703125,-0.3439171314239502,-0.33292156457901,0.28038713335990906
1748008373223382800,10.4843828125,-0.2938261926174164,-0.3323107063770294,0.1973094791173935
1748008373239252000,10.500251953125,-0.28038713335990906,-0.36163222789764404,0.11850785464048386
1748008373254968600,10.515968505859375,-0.3090978264808655,-0.3628539443016052,0.04398229718208313
1748008373270776600,10.531776611328125,-0.3579670190811157,-0.27122417092323303,-0.07269296050071716
1748008373286584600,10.54758447265625,-0.36713001132011414,-0.18814650177955627,-0.1319468915462494
1748008373302453800,10.563453857421875,-0.37140607833862305,-0.1814269721508026,-0.13927727937698364
1748008373318323000,10.579322998046875,-0.3701843321323395,-0.27000242471694946,-0.07208210229873657
1748008373334070000,10.595070068359375,-0.41661009192466736,-0.40133845806121826,0.05925392732024193
1748008373349908700,10.61090869140625,-0.4990769028663635,-0.46303585171699524,0.1814269721508026
1748008373365778000,10.62677783203125,-0.5937610268592834,-0.4239404797554016,0.3023782968521118
1748008373381586000,10.6425859375,-0.6432411074638367,-0.3023782968521118,0.3982841372489929
1748008373397455000,10.658455078125,-0.6420193910598755,-0.17104226350784302,0.4386012554168701
1748008373413202200,10.6742021484375,-0.607810914516449,-0.02076941914856434,0.44287729263305664
1748008373429010200,10.69001025390625,-0.5369505286216736,0.039095375686883926,0.4178318381309509
1748008373444787700,10.70578759765625,-0.44654250144958496,-0.051312681287527084,0.39217549562454224
1748008373460596000,10.721595947265625,-0.4141666293144226,-0.20402899384498596,0.3549126982688904
1748008373476434400,10.737434326171876,-0.4239404797554016,-0.3494149148464203,0.2926044464111328
1748008373492181500,10.753181396484376,-0.44837507605552673,-0.3842342495918274,0.22968533635139465
1748008373508020200,10.769020263671875,-0.4398229718208313,-0.33475416898727417,0.19853121042251587
1748008373523797800,10.7847978515625,-0.3549126982688904,-0.294437050819397,0.21807889640331268
1748008373539606000,10.80060595703125,-0.2125810980796814,-0.2620611786842346,0.22479841113090515
1748008373555444500,10.816444580078125,-0.1264491081237793,-0.2528982162475586,0.16249015927314758
1748008373571161000,10.8321611328125,-0.08368854224681854,-0.28527405858039856,0.031154127791523933
1748008373586969000,10.847968994140626,-0.08674286305904388,-0.32986724376678467,-0.07635815441608429
1748008373602838300,10.86383837890625,-0.06475171446800232,-0.3543018400669098,-0.17043140530586243
1748008373618615800,10.87961572265625,-0.01710422709584236,-0.3127630054950714,-0.19608774781227112
1748008373634515700,10.895515625,0.04581489413976669,-0.23396138846874237,-0.16859880089759827
1748008373650232000,10.911232177734375,0.12461651116609573,-0.1514945775270462,-0.11239920556545258
1748008373666040300,10.927040283203125,0.1918116807937622,-0.13988813757896423,-0.05864306539297104
1748008373681787400,10.942787353515625,0.26145032048225403,-0.2791654169559479,0.0354301854968071
1748008373697595400,10.958595458984375,0.31581732630729675,-0.45814892649650574,0.11056660860776901
1748008373713525500,10.974525390625,0.3897320330142975,-0.6340781450271606,0.16249015927314758
1748008373729272600,10.9902724609375,0.5351179838180542,-0.789237916469574,0.23029619455337524
1748008373745141800,11.006141845703125,0.7318165898323059,-0.9541715383529663,0.3634648323059082
1748008373760980500,11.02198046875,0.7898487448692322,-0.9676105380058289,0.42271876335144043
1748008373776788500,11.03778857421875,0.7715228199958801,-0.827111542224884,0.40744712948799133
1748008373792688000,11.053688232421875,0.7617489695549011,-0.6499606370925903,0.4502076804637909
1748008373808465700,11.069465576171876,0.8087855577468872,-0.41233405470848083,0.5803219676017761
1748008373824274000,11.08527392578125,0.8668177723884583,-0.21380282938480377,0.7043276429176331
1748008373840112600,11.101112548828125,0.8833111524581909,-0.02871066704392433,0.7269296646118164
1748008373855951000,11.116951171875,0.8600982427597046,0.08796459436416626,0.6902777552604675
1748008373871820300,11.1328203125,0.8344419002532959,0.09224065393209457,0.6646214127540588
1748008373887537000,11.148536865234375,0.8161159753799438,0.0354301854968071,0.626747727394104
1748008373903314400,11.164314453125,0.8002334833145142,-0.0403171069920063,0.5351179838180542
1748008373919122400,11.180122314453126,0.8228355050086975,-0.13561208546161652,0.35246923565864563
1748008373934900200,11.195900146484375,0.8784242272377014,-0.14782938361167908,0.20402899384498596
1748008373950800000,11.2117998046875,0.9321803450584412,-0.08185594528913498,0.06658431142568588
1748008373966547000,11.227546875,0.9676105380058289,-0.031154127791523933,-0.012828170321881771
1748008373982355000,11.24335498046875,0.931569516658783,0.021380282938480377,-0.07757988572120667
1748008373998224100,11.25922412109375,0.8472700715065002,0.02871066704392433,-0.17470745742321014
1748008374014032100,11.2750322265625,0.7128797173500061,0.0910189226269722,-0.31093040108680725
1748008374029870800,11.290870849609375,0.5870414972305298,0.2773328125476837,-0.39584067463874817
1748008374045618000,11.306617919921875,0.4862487316131592,0.5748242139816284,-0.4538728892803192
1748008374069421600,11.330421630859375,0.44287729263305664,0.6963863968849182,-0.3927863538265228
1748008374085267700,11.346267822265625,0.34697145223617554,0.4697553813457489,-0.303600013256073
1748008374101076000,11.362075927734375,0.12828169763088226,0.01038470957428217,-0.22296582162380219
1748008374116853500,11.377853515625,-0.1466076523065567,-0.38667771220207214,-0.1716531366109848
1748008374132661500,11.39366162109375,-0.44593164324760437,-0.6786713004112244,-0.019547687843441963
1748008374148561400,11.4095615234375,-0.626747727394104,-0.6982190012931824,0.24495697021484375
1748008374164308500,11.42530859375,-0.7226535677909851,-0.5619960427284241,0.4954117238521576
1748008374180116500,11.441116455078125,-0.7776314616203308,-0.375071257352829,0.7648032903671265
1748008374195894000,11.45689404296875,-0.7898487448692322,-0.2974913716316223,0.9327912330627441
1748008374211671600,11.472671630859375,-0.7935139536857605,-0.2565633952617645,1.0018190145492554
1748008374227540700,11.488540771484375,-0.7641924023628235,-0.25045475363731384,0.9572258591651917
1748008374243257300,11.50425732421875,-0.6670648455619812,-0.22113321721553802,0.8429940342903137
1748008374259004400,11.52000439453125,-0.5027421116828918,-0.20402899384498596,0.7764097452163696
1748008374274812400,11.5358125,-0.25045475363731384,-0.2119702398777008,0.7079927921295166
1748008374290620700,11.55162060546875,-0.024434609338641167,-0.22907446324825287,0.616973876953125
1748008374306489900,11.56748974609375,0.2015855312347412,-0.29504790902137756,0.4538728892803192
1748008374322237000,11.58323681640625,0.3182607889175415,-0.36651915311813354,0.2773328125476837
1748008374338045000,11.599044921875,0.36102136969566345,-0.3836233615875244,0.12461651116609573
1748008374353883600,11.614883544921875,0.35552358627319336,-0.3494149148464203,0.10323622822761536
1748008374369661200,11.6306611328125,0.3396410644054413,-0.24556782841682434,0.19425514340400696
1748008374385499600,11.646499755859375,0.32498031854629517,-0.11484266817569733,0.28588494658470154
1748008374401216300,11.66221630859375,0.32681289315223694,0.02076941914856434,0.34208452701568604
1748008374417024500,11.6780244140625,0.33536502718925476,0.04764748737215996,0.3139847218990326
1748008374432832500,11.69383251953125,0.32009339332580566,0.02687807008624077,0.24068090319633484
1748008374448610000,11.709610107421875,0.2974913716316223,-0.003054326167330146,0.1820378452539444
1748008374464540400,11.72554052734375,0.2883284091949463,-0.05375614017248154,0.21319197118282318
1748008374480287500,11.74128759765625,0.2785545587539673,-0.152105450630188,0.304210901260376
1748008374496095500,11.757095458984375,0.2474004179239273,-0.22113321721553802,0.3933972120285034
1748008374511873000,11.772873046875,0.16065755486488342,-0.21930062770843506,0.4489859640598297
1748008374527650600,11.788650634765625,0.08002334833145142,-0.21563543379306793,0.4642575979232788
1748008374543519700,11.804519775390625,-0.00733038317412138,-0.19975294172763824,0.4343251883983612
1748008374559236400,11.820236328125,-0.06475171446800232,-0.16004669666290283,0.375071257352829
1748008374575014000,11.836013916015625,-0.11484266817569733,-0.048258353024721146,0.26083946228027344
1748008374590852600,11.8518525390625,-0.1160643994808197,0.1459967941045761,0.10506882518529892
1748008374606660600,11.86766064453125,-0.0757472887635231,0.4098905920982361,-0.05497787147760391
1748008374622529800,11.88352978515625,-0.07147123664617538,0.6163630485534668,-0.1215621829032898
1748008374638216000,11.8992158203125,-0.13011430203914642,0.7519751191139221,-0.19914206862449646
1748008374654024000,11.91502392578125,-0.21624629199504852,0.7806857824325562,-0.2791654169559479
1748008374669832000,11.93083203125,-0.24678955972194672,0.8411614298820496,-0.3280346393585205
1748008374685640200,11.94664013671875,-0.20891591906547546,0.8967501521110535,-0.2968805134296417
1748008374701539800,11.962539794921875,-0.16004669666290283,0.8442157506942749,-0.21930062770843506
1748008374717287000,11.978286865234375,-0.13744467496871948,0.7250970602035522,-0.19364428520202637
1748008374733125400,11.99412548828125,-0.15393804013729095,0.59803706407547,-0.2474004179239273
1748008374748903200,12.009903076171875,-0.06780604273080826,0.5216789245605469,-0.2981022298336029
1748008374764711200,12.025711181640625,0.09773843735456467,0.5167919993400574,-0.2272418737411499
1748008374780580400,12.041580322265625,0.3744603991508484,0.5864306092262268,-0.06352998316287994
1748008374796327400,12.057327392578125,0.5778785347938538,0.6597344875335693,-0.00733038317412138
1748008374812166100,12.073166259765625,0.7226535677909851,0.485027015209198,-0.13805554807186127
1748008374827974100,12.08897412109375,0.749531626701355,0.14049901068210602,-0.29138273000717163
1748008374843751700,12.104751708984375,0.7159340381622314,-0.20891591906547546,-0.37629300355911255
1748008374859681800,12.120681884765625,0.6737843751907349,-0.2877175211906433,-0.2840523421764374
1748008374875368000,12.136367919921875,0.6065891981124878,-0.17409659922122955,-0.04764748737215996
1748008374891176000,12.152176025390625,0.504574716091156,0.007941247895359993,0.19303341209888458
1748008374906984200,12.167984130859375,0.4092797040939331,0.11239920556545258,0.323147714138031
1748008374922792200,12.183792236328125,0.2871066629886627,0.11362093687057495,0.42088615894317627
1748008374938691800,12.19969189453125,0.19608774781227112,0.08735372871160507,0.5112941861152649
1748008374954408400,12.215408447265625,0.2064724564552307,0.21074850857257843,0.6236934065818787
1748008374970277600,12.231277587890625,0.3494149148464203,0.44226643443107605,0.655458390712738
1748008374986085600,12.247085693359375,0.627358615398407,0.6872233748435974,0.5962044596672058
1748008375001863200,12.26286328125,0.8820894360542297,0.7165449261665344,0.475253164768219
1748008375017763000,12.27876318359375,1.1184942722320557,0.5204572081565857,0.24984388053417206
1748008375033479400,12.2944794921875,1.2327260971069336,0.2577851414680481,0.04398229718208313
1748008375049257200,12.31025732421875,1.2870930433273315,-0.00733038317412138,-0.14844025671482086
1748008375065126100,12.326126220703125,1.2809844017028809,-0.12217304855585098,-0.19058994948863983
1748008375080904000,12.341904052734375,1.2095131874084473,-0.07757988572120667,-0.09834930300712585
1748008375096803600,12.357803466796875,1.0910053253173828,0.07880161702632904,0.051312681287527084
1748008375112550700,12.373550537109375,0.960280179977417,0.25534167885780334,0.152105450630188
1748008375128358700,12.389358642578125,0.7904596328735352,0.3933972120285034,0.242513507604599
1748008375144197400,12.405197265625,0.627358615398407,0.43615779280662537,0.30482175946235657
1748008375160005400,12.42100537109375,0.4343251883983612,0.4141666293144226,0.3579670190811157
1748008375175874600,12.43687451171875,0.28527405858039856,0.36529740691185,0.394008070230484
1748008375191621600,12.45262158203125,0.14844025671482086,0.3188716471195221,0.4306600093841553
1748008375207429600,12.4684296875,0.054367005825042725,0.28527405858039856,0.48197266459465027
1748008375223238000,12.48423779296875,-0.04092797264456749,0.2480112910270691,0.5473352670669556
1748008375239076400,12.500076416015625,-0.11239920556545258,0.23884831368923187,0.5424483418464661
1748008375254945500,12.515945556640625,-0.17592918872833252,0.2877175211906433,0.5100724697113037
1748008375270692600,12.531692626953125,-0.19058994948863983,0.35674530267715454,0.4862487316131592
1748008375286470100,12.54747021484375,-0.13927727937698364,0.413555771112442,0.4434881806373596
1748008375302278400,12.5632783203125,-0.06902777403593063,0.4306600093841553,0.34086281061172485
1748008375318086400,12.57908642578125,0.04337143152952194,0.4538728892803192,0.15515977144241333
1748008375333986000,12.594986083984375,0.182648703455925,0.47769662737846375,0.012828170321881771
1748008375349763600,12.610763671875,0.28527405858039856,0.49296826124191284,-0.04459316283464432
1748008375365602300,12.626602294921875,0.375071257352829,0.47708576917648315,-0.09162978827953339
1748008375381410300,12.642410400390625,0.4190535545349121,0.48869219422340393,-0.11362093687057495
1748008375397188000,12.65818798828125,0.4489859640598297,0.5852088928222656,-0.11056660860776901
1748008375413087700,12.674087646484375,0.47708576917648315,0.6322455406188965,-0.02932153269648552
1748008375428834800,12.689834716796875,0.46181413531303406,0.5412266254425049,0.1264491081237793
1748008375444612400,12.7056123046875,0.41599923372268677,0.3500257730484009,0.21868975460529327
1748008375460420400,12.72142041015625,0.35613444447517395,0.10384709388017654,0.21380282938480377
1748008375476198000,12.737197998046875,0.31520646810531616,-0.07391469180583954,0.16798794269561768
1748008375492036600,12.75303662109375,0.2632829248905182,-0.242513507604599,0.12400564551353455
1748008375507783700,12.76878369140625,0.2064724564552307,-0.39095374941825867,0.08124507963657379
1748008375523591700,12.784591796875,0.10934487730264664,-0.49357911944389343,-0.001832595793530345
1748008375539369500,12.800369384765625,0.0012217304902151227,-0.49724429845809937,-0.06719517707824707
1748008375555177500,12.816177490234375,-0.17043140530586243,-0.4080579876899719,-0.09529497474431992
1748008375571046700,12.832046630859375,-0.34025195240974426,-0.2736676335334778,-0.09346238523721695
1748008375586793700,12.847793701171875,-0.4386012554168701,-0.15882496535778046,-0.11301007121801376
1748008375602601700,12.863601806640625,-0.5180137157440186,-0.07819075137376785,-0.1973094791173935
1748008375618379500,12.879379638671875,-0.5644394755363464,-0.056810468435287476,-0.30604347586631775
1748008375634187500,12.8951875,-0.5827654600143433,-0.036651913076639175,-0.4434881806373596
1748008375650087200,12.911087158203125,-0.5662720799446106,-0.024434609338641167,-0.5369505286216736
1748008375673738200,12.93473828125,-0.5821545720100403,-0.13866640627384186,-0.5943718552589417
1748008375689638000,12.950637939453125,-0.6426302194595337,-0.2883284091949463,-0.5198463201522827
1748008375705385000,12.966385009765625,-0.7177666425704956,-0.3701843321323395,-0.4404338300228119
1748008375721193200,12.982193115234375,-0.8142833709716797,-0.39217549562454224,-0.3390302062034607
1748008375737031700,12.99803173828125,-0.8735373020172119,-0.3677408695220947,-0.2382374405860901
1748008375752840000,13.01383984375,-0.9071348905563354,-0.27000242471694946,-0.08735372871160507
1748008375768739600,13.029739501953125,-0.9260717034339905,-0.17592918872833252,0.019547687843441963
1748008375784486700,13.045486572265625,-0.9382890462875366,-0.07513642311096191,0.056810468435287476
1748008375800325000,13.0613251953125,-0.9028588533401489,-0.01038470957428217,0.03420845419168472
1748008375816133400,13.07713330078125,-0.8228355050086975,0.05253441259264946,0.03481931984424591
1748008375831971800,13.092971923828125,-0.7611380815505981,0.08124507963657379,0.05864306539297104
1748008375847841000,13.108841064453125,-0.7055493593215942,0.03726277872920036,0.08124507963657379
1748008375863557600,13.1245576171875,-0.6230825781822205,-0.10384709388017654,0.04948008432984352
1748008375879426800,13.1404267578125,-0.523511528968811,-0.2431243658065796,0.03726277872920036
1748008375895204400,13.156204345703125,-0.43737950921058655,-0.41661009192466736,0.021380282938480377
1748008375911043000,13.17204296875,-0.41661009192466736,-0.49724429845809937,0.012217304669320583
1748008375926912000,13.187912109375,-0.4337143301963806,-0.4899139404296875,0.05864306539297104
1748008375942659000,13.2036591796875,-0.44654250144958496,-0.4153883755207062,0.14966198801994324
1748008375958467300,13.21946728515625,-0.44165557622909546,-0.313373863697052,0.2638937830924988
1748008375990083600,13.25108349609375,-0.413555771112442,-0.2742784917354584,0.3378084897994995
1748008376005952800,13.266952880859375,-0.3842342495918274,-0.313373863697052,0.2981022298336029
1748008376021669000,13.282669189453125,-0.35613444447517395,-0.35613444447517395,0.21624629199504852
1748008376037507800,13.2985078125,-0.34758231043815613,-0.35246923565864563,0.14538592100143433
1748008376053315800,13.31431591796875,-0.35185837745666504,-0.32009339332580566,0.08735372871160507
1748008376069124000,13.3301240234375,-0.3500257730484009,-0.3243694305419922,0.03176499158143997
1748008376085054200,13.34605419921875,-0.3286454975605011,-0.3988949954509735,-0.031154127791523933
1748008376100801300,13.36180126953125,-0.3280346393585205,-0.5418374538421631,-0.19853121042251587
1748008376116578800,13.377578857421875,-0.4147774875164032,-0.5968153476715088,-0.38728857040405273
1748008376132417500,13.39341748046875,-0.578489363193512,-0.3378084897994995,-0.6096435189247131
1748008376148164600,13.40916455078125,-0.6407976150512695,0.14538592100143433,-0.608421802520752
1748008376164064300,13.425064208984375,-0.5925393104553223,0.5009095072746277,-0.32559117674827576
1748008376179841800,13.440841796875,-0.5436700582504272,0.35674530267715454,-0.09957103431224823
1748008376195619300,13.456619384765625,-0.5827654600143433,-0.2174680233001709,-0.09896016865968704
1748008376211427600,13.472427490234375,-0.6591235995292664,-0.7953465580940247,-0.2840523421764374
1748008376227266000,13.48826611328125,-0.6866125464439392,-1.2131783962249756,-0.3933972120285034
1748008376243135200,13.50413525390625,-0.6743952035903931,-1.2791517972946167,-0.29077184200286865
1748008376258851800,13.519851806640625,-0.7189884185791016,-1.1001683473587036,-0.07330382615327835
1748008376274659800,13.535659912109375,-0.7922922372817993,-0.8063421249389648,0.07880161702632904
1748008376290468000,13.551468017578125,-0.8888089060783386,-0.38728857040405273,0.2834414839744568
1748008376306276000,13.567276123046875,-0.911410927772522,-0.06902777403593063,0.46242499351501465
1748008376322114800,13.58311474609375,-0.8655960559844971,0.08674286305904388,0.4960225820541382
1748008376337862000,13.59886181640625,-0.7586946487426758,0.14233160018920898,0.4098905920982361
1748008376353700400,13.614700439453125,-0.6395758986473083,0.13500121235847473,0.26083946228027344
1748008376369508600,13.630508544921875,-0.4715879559516907,0.1966986060142517,0.06108652427792549
1748008376385316600,13.646316650390625,-0.3585779070854187,0.39645153284072876,-0.11362093687057495
1748008376401155300,13.6621552734375,-0.2278527319431305,0.7806857824325562,-0.3292563557624817
1748008376416902400,13.67790234375,-0.06963863968849182,1.0659598112106323,-0.48685958981513977
1748008376432680000,13.693679931640625,0.02932153269648552,1.0433578491210938,-0.6389650702476501
1748008376448488000,13.709488037109375,-0.10018189996480942,0.6866125464439392,-0.8032878041267395
1748008376464235000,13.725235107421875,-0.45692721009254456,0.23396138846874237,-1.1398745775222778
1748008376480134700,13.741134765625,-0.6817256212234497,0.15943582355976105,-0.9834930300712585
1748008376495881700,13.7568818359375,-0.7654141783714294,0.3170390725135803,-0.607810914516449
1748008376511690000,13.77268994140625,-0.6426302194595337,0.5418374538421631,-0.23457226157188416
1748008376527467500,13.788467529296875,-0.3793473243713379,0.5418374538421631,0.10018189996480942
1748008376543275500,13.804275634765625,-0.17959438264369965,0.6230825781822205,0.16798794269561768
1748008376559175400,13.820175537109375,-0.04398229718208313,0.5754350423812866,0.059864792972803116
1748008376574861300,13.835861328125,-0.02015855349600315,0.3604104816913605,-0.12950342893600464
1748008376590700000,13.851699951171875,-0.00427605677396059,0.16554448008537292,-0.2681698501110077
1748008376606477600,13.8674775390625,-0.001832595793530345,-0.042760565876960754,-0.3604104816913605
1748008376622316300,13.88331640625,-0.03298672288656235,-0.03726277872920036,-0.3274237811565399
1748008376638154800,13.89915478515625,-0.06414084881544113,0.03481931984424591,-0.16798794269561768
1748008376653901800,13.91490185546875,-0.07391469180583954,-0.02321287989616394,0.003054326167330146
1748008376669740500,13.930740478515625,-0.059864792972803116,-0.16798794269561768,0.16371189057826996
1748008376685548500,13.946548583984375,-0.029932396486401558,-0.29626965522766113,0.21380282938480377
1748008376701387300,13.96238720703125,-0.015882495790719986,-0.28649580478668213,0.26083946228027344
1748008376717225700,13.978225830078125,-0.013439035043120384,-0.26083946228027344,0.313373863697052
1748008376732942300,13.9939423828125,-0.007941247895359993,-0.294437050819397,0.3885102868080139
1748008376748689400,14.009689453125,-0.048258353024721146,-0.26633724570274353,0.4489859640598297
1748008376764497700,14.02549755859375,-0.13988813757896423,-0.2174680233001709,0.40072759985923767
1748008376780305700,14.0413056640625,-0.23029619455337524,-0.17043140530586243,0.28588494658470154
1748008376796144400,14.057144287109375,-0.26450464129447937,-0.1472185254096985,0.2583959996700287
1748008376811891500,14.072891357421875,-0.2321287989616394,-0.1319468915462494,0.36651915311813354
1748008376827699500,14.088699462890625,-0.18997909128665924,-0.192422553896904,0.4355469346046448
1748008376843538200,14.1045380859375,-0.25106561183929443,-0.3127630054950714,0.40622538328170776
1748008376859315700,14.120315673828125,-0.3396410644054413,-0.36163222789764404,0.3219259977340698
1748008376875185000,14.136184814453125,-0.37751471996307373,-0.29138273000717163,0.16554448008537292
1748008376890932000,14.151931884765625,-0.3982841372489929,-0.1062905490398407,-0.04337143152952194
1748008376906709500,14.16770947265625,-0.37629300355911255,0.16798794269561768,-0.303600013256073
1748008376922487000,14.183487060546875,-0.342695415019989,0.24495697021484375,-0.4697553813457489
1748008376938295300,14.19929541015625,-0.35124751925468445,0.04581489413976669,-0.5766568183898926
1748008376954164200,14.215164306640625,-0.46547931432724,-0.2272418737411499,-0.5583308339118958
1748008376969911300,14.230911376953125,-0.6548475623130798,-0.45814892649650574,-0.44837507605552673
1748008376985689000,14.246689208984375,-0.7953465580940247,-0.5143485069274902,-0.35735616087913513
1748008377001466600,14.262466552734375,-0.8894197940826416,-0.49296826124191284,-0.26145032048225403
1748008377017244200,14.278244140625,-0.8863654732704163,-0.44226643443107605,-0.12950342893600464
1748008377033143800,14.294143798828125,-0.826500654220581,-0.375071257352829,0.07452555745840073
1748008377048891000,14.309890869140625,-0.759305477142334,-0.35124751925468445,0.2474004179239273
1748008377064699000,14.325698974609375,-0.7189884185791016,-0.36224308609962463,0.31581732630729675
1748008377080537600,14.34153759765625,-0.7238753437995911,-0.35613444447517395,0.2724458873271942
1748008377096376300,14.357376220703125,-0.759305477142334,-0.32498031854629517,0.18387043476104736
1748008377112245200,14.373245361328125,-0.769690215587616,-0.2926044464111328,0.10812314599752426
1748008377127992300,14.388992431640625,-0.7189884185791016,-0.2889392673969269,0.08552113175392151
1748008377143770000,14.40477001953125,-0.6737843751907349,-0.2938261926174164,0.0910189226269722
1748008377159639300,14.420639404296875,-0.7153232097625732,-0.2669481039047241,0.07941248267889023
1748008377175477800,14.436477783203125,-0.8008443117141724,-0.24068090319633484,0.005497787147760391
1748008377191347000,14.452346923828125,-0.8869763612747192,-0.21380282938480377,-0.07330382615327835
1748008377207124500,14.46812451171875,-0.9810495972633362,-0.17959438264369965,-0.1007927656173706
1748008377222932700,14.4839326171875,-1.0305296182632446,-0.14294247329235077,-0.0012217304902151227
1748008377238801700,14.4998017578125,-1.0812314748764038,-0.08307767659425735,0.22296582162380219
1748008377254640400,14.515640380859375,-1.1001683473587036,0.00733038317412138,0.47219884395599365
1748008377270509600,14.531509521484375,-1.1142182350158691,0.001832595793530345,0.5742133259773254
1748008377286226200,14.54722607421875,-1.0867292881011963,-0.17776179313659668,0.5094616413116455
1748008377302003700,14.563003662109375,-1.0293079614639282,-0.4306600093841553,0.3634648323059082
1748008377317781200,14.57878125,-0.950506329536438,-0.7672467231750488,0.20952677726745605
1748008377333589200,14.59458935546875,-0.8906415104866028,-1.0494664907455444,0.14355333149433136
1748008377349458400,14.61045849609375,-0.8045095205307007,-1.301142930984497,0.20097467303276062
1748008377365205500,14.62620556640625,-0.740368664264679,-1.3548991680145264,0.32131510972976685
1748008377381074700,14.64207470703125,-0.6414085030555725,-1.2724323272705078,0.3933972120285034
1748008377396852200,14.657852294921875,-0.5180137157440186,-1.1527026891708374,0.3591887652873993
1748008377412630000,14.673630126953125,-0.3646865487098694,-1.007927656173706,0.24862214922904968
1748008377428499000,14.6894990234375,-0.2565633952617645,-0.9938777685165405,0.14844025671482086
1748008377444276700,14.70527685546875,-0.19303341209888458,-1.1575896739959717,0.12767083942890167
1748008377460054300,14.72105419921875,-0.2638937830924988,-1.3836097717285156,0.24556782841682434
1748008377475923500,14.73692333984375,-0.5106833577156067,-1.4947872161865234,0.4355469346046448
1748008377491701000,14.752700927734375,-0.7305948138237,-1.281595230102539,0.7098253965377808
1748008377507600600,14.7686005859375,-0.7544185519218445,-0.9040805697441101,0.9382890462875366
1748008377523347700,14.78434765625,-0.6010913848876953,-0.38728857040405273,1.0751228332519531
1748008377539155700,14.80015576171875,-0.3952298164367676,0.00855211354792118,1.024420976638794
1748008377554994400,14.815994384765625,-0.1062905490398407,0.2938261926174164,0.8252789378166199
1748008377570802400,14.831802490234375,0.08185594528913498,0.3952298164367676,0.6126978397369385
1748008377586732800,14.84773291015625,0.1459967941045761,0.3799581825733185,0.3341432809829712
1748008377602479900,14.86347998046875,0.1569923609495163,0.29077184200286865,0.14233160018920898
1748008377618287900,14.879287841796875,0.20097467303276062,0.06841690838336945,-0.0024434609804302454
1748008377634157000,14.895156982421875,0.24373523890972137,-0.16004669666290283,-0.08124507963657379
1748008377649965000,14.910965087890625,0.24862214922904968,-0.4056145250797272,-0.19058994948863983
1748008377665834200,14.926834228515625,0.21807889640331268,-0.578489363193512,-0.3274237811565399
1748008377681520400,14.942520263671875,0.17470745742321014,-0.6524040699005127,-0.45326200127601624
1748008377697328400,14.958328369140625,0.08307767659425735,-0.6224716901779175,-0.5387831330299377
1748008377713106000,14.97410595703125,-0.02626720629632473,-0.5143485069274902,-0.484416127204895
1748008377728914200,14.9899140625,-0.17287486791610718,-0.32498031854629517,-0.23396138846874237
1748008377744813800,15.005813720703125,-0.2742784917354584,-0.1667662113904953,0.08674286305904388
1748008377760561000,15.021560791015625,-0.38606682419776917,-0.009162978269159794,0.38240164518356323
1748008377776338400,15.03733837890625,-0.49785518646240234,0.12034045159816742,0.4605923891067505
1748008377792116000,15.053115966796875,-0.6151412725448608,0.30970868468284607,0.384845107793808
1748008377807893500,15.0688935546875,-0.646906316280365,0.4660901725292206,0.20586158335208893
1748008377823762700,15.0847626953125,-0.5265658497810364,0.5650503635406494,-0.03787364438176155
1748008377839479300,15.100479248046875,-0.32498031854629517,0.5112941861152649,-0.1661553531885147
1748008377855317800,15.11631787109375,-0.11911872029304504,0.2981022298336029,-0.23151792585849762
1748008377871064800,15.13206494140625,-0.04214970022439957,0.02932153269648552,-0.29504790902137756
1748008377886842600,15.147842529296875,-0.05375614017248154,-0.304210901260376,-0.4147774875164032
1748008377902742300,15.1637421875,-0.11728613078594208,-0.47219884395599365,-0.5143485069274902
1748008377918489300,15.1794892578125,-0.19364428520202637,-0.45631635189056396,-0.5442809462547302
1748008377934267000,15.195266845703125,-0.252287358045578,-0.3243694305419922,-0.455705463886261
1748008377950105600,15.211105712890625,-0.29077184200286865,-0.23457226157188416,-0.304210901260376
1748008377965944000,15.226944091796875,-0.3384193480014801,-0.19547687470912933,-0.04581489413976669
1748008377981813200,15.242813232421875,-0.4202753007411957,-0.17043140530586243,0.1771509200334549
1748008377997529900,15.25852978515625,-0.5595525503158569,-0.15393804013729095,0.3738495409488678
1748008378013337900,15.274337890625,-0.6860016584396362,-0.1258382350206375,0.4593706727027893
1748008378029115400,15.290115478515625,-0.7745771408081055,-0.036041051149368286,0.4691445231437683
1748008378044923600,15.305923583984375,-0.7373143434524536,0.07330382615327835,0.4538728892803192
1748008378060792800,15.321792724609375,-0.5894849896430969,0.17409659922122955,0.413555771112442
1748008378076509200,15.33750927734375,-0.44226643443107605,0.2168571650981903,0.35246923565864563
1748008378092317400,15.3533173828125,-0.29565876722335815,0.28099802136421204,0.2736676335334778
1748008378108125400,15.36912548828125,-0.20891591906547546,0.33108896017074585,0.1918116807937622
1748008378123903000,15.384903076171875,-0.16432274878025055,0.38728857040405273,0.07147123664617538
1748008378139833300,15.400833251953125,-0.1667662113904953,0.3952298164367676,-0.06841690838336945
1748008378155580400,15.416580322265625,-0.1667662113904953,0.3585779070854187,-0.24495697021484375
1748008378171419000,15.4324189453125,-0.1160643994808197,0.3127630054950714,-0.3543018400669098
1748008378187257600,15.448257568359375,-0.04337143152952194,0.24190263450145721,-0.36102136969566345
1748008378203065600,15.464065673828125,0.03848451003432274,0.12217304855585098,-0.2981022298336029
1748008378218965200,15.47996533203125,0.07208210229873657,0.02321287989616394,-0.20952677726745605
1748008378234681900,15.495681884765625,0.04459316283464432,-0.05864306539297104,-0.12400564551353455
1748008378250459400,15.51145947265625,-0.03787364438176155,0.014049900695681572,-0.13805554807186127
1748008378266237200,15.5272373046875,-0.12767083942890167,0.2064724564552307,-0.19792033731937408
1748008378282014700,15.5430146484375,-0.11789698898792267,0.3646865487098694,-0.18814650177955627
1748008378297914400,15.558914306640625,-0.00733038317412138,0.4001167416572571,-0.08368854224681854
1748008378313661400,15.574661376953125,0.09407325088977814,0.2577851414680481,0.007941247895359993
1748008378329439000,15.59043896484375,0.12767083942890167,0.019547687843441963,0.016493361443281174
1748008378345277700,15.606277587890625,0.07269296050071716,-0.0910189226269722,-0.04703662544488907
1748008378361024800,15.622024658203125,-0.01771509274840355,-0.0659734457731247,-0.14355333149433136
1748008378376863200,15.63786328125,-0.051312681287527084,0.009773843921720982,-0.19792033731937408
1748008378392610300,15.6536103515625,-0.00733038317412138,0.05864306539297104,-0.18020524084568024
1748008378408418600,15.66941845703125,0.09040805697441101,0.04886921867728233,-0.1014036312699318
1748008378424196000,15.685196044921875,0.15760323405265808,-0.013439035043120384,-0.06963863968849182
1748008378439973600,15.7009736328125,0.17287486791610718,-0.13072516024112701,-0.11484266817569733
1748008378455873300,15.716873291015625,0.1313360333442688,-0.2021963894367218,-0.15515977144241333
1748008378471620400,15.732620361328125,0.04581489413976669,-0.2064724564552307,-0.15027284622192383
1748008378487428400,15.748428466796875,-0.022602014243602753,-0.11362093687057495,-0.13255776464939117
1748008378503206100,15.7642060546875,-0.04153883829712868,0.04886921867728233,-0.10201449692249298
1748008378519014100,15.78001416015625,-0.01771509274840355,0.24678955972194672,-0.06536258012056351
1748008378534883300,15.79588330078125,-0.00366519158706069,0.5002986192703247,-0.07330382615327835
1748008378550630400,15.81163037109375,-0.001832595793530345,0.6023131608963013,-0.11789698898792267
1748008378566469000,15.82746923828125,0.01038470957428217,0.5424483418464661,-0.15027284622192383
1748008378582246700,15.84324658203125,0.025045474991202354,0.3689626157283783,-0.12034045159816742
1748008378598054700,15.8590546875,0.048258353024721146,0.08857546001672745,-0.02321287989616394
1748008378613984800,15.87498486328125,0.07635815441608429,-0.1258382350206375,0.08429940044879913
1748008378629701400,15.890701416015625,0.07757988572120667,-0.2480112910270691,0.13500121235847473
1748008378645540000,15.9065400390625,0.04581489413976669,-0.24129177629947662,0.14844025671482086
1748008378661317600,15.922317626953125,0.0006108652451075613,-0.14844025671482086,0.15027284622192383
1748008378677095200,15.93809521484375,-0.05742133408784866,0.031154127791523933,0.15454891324043274
1748008378692964400,15.95396435546875,-0.08002334833145142,0.16065755486488342,0.15515977144241333
1748008378708711400,15.96971142578125,-0.09224065393209457,0.20830504596233368,0.1270599663257599
1748008378724489000,15.985489013671875,-0.0861319974064827,0.19364428520202637,0.08185594528913498
1748008378740297200,16.001297119140624,-0.0757472887635231,0.17287486791610718,-0.01771509274840355
1748008378756105200,16.017105224609374,-0.06108652427792549,0.17592918872833252,-0.1563815027475357
1748008378772004900,16.0330048828125,-0.0507018156349659,0.20341812074184418,-0.3243694305419922
1748008378787752000,16.048751953125,-0.03237585723400116,0.23029619455337524,-0.40194934606552124
1748008378803560200,16.064560302734375,-0.012828170321881771,0.24007004499435425,-0.3885102868080139
1748008378819337700,16.080337646484374,-0.007941247895359993,0.20891591906547546,-0.34025195240974426
1748008378835145700,16.096145751953124,-0.0354301854968071,0.1466076523065567,-0.2993239760398865
1748008378851015000,16.112014892578124,-0.05803219974040985,0.1111774742603302,-0.27122417092323303
1748008378866762000,16.127761962890624,-0.05314527451992035,0.11301007121801376,-0.21441370248794556
1748008378882539500,16.14353955078125,-0.04948008432984352,0.13316862285137177,-0.1459967941045761
1748008378898317000,16.159317138671874,-0.05253441259264946,0.11972958594560623,-0.07941248267889023
1748008378914125300,16.175125244140624,-0.06108652427792549,0.06475171446800232,-0.001832595793530345
1748008378929933300,16.190933349609374,-0.06169738993048668,0.009162978269159794,0.045204028487205505
1748008378945680400,16.206680419921874,-0.04581489413976669,-0.054367005825042725,0.054367005825042725
1748008378969453600,16.23045361328125,-0.022602014243602753,-0.13316862285137177,0.021380282938480377
1748008378985200600,16.24620068359375,-0.02321287989616394,-0.1814269721508026,0.019547687843441963
1748008379001009000,16.2620087890625,-0.01710422709584236,-0.2528982162475586,0.0354301854968071
1748008379024721000,16.285720947265624,-0.001832595793530345,-0.35185837745666504,0.05375614017248154
1748008379040498400,16.30149853515625,0.00733038317412138,-0.37751471996307373,0.09712757170200348
1748008379056245500,16.31724560546875,-0.00427605677396059,-0.37140607833862305,0.12095131725072861
1748008379072084200,16.333084228515624,0.0006108652451075613,-0.35552358627319336,0.13377949595451355
1748008379088014300,16.349014404296874,0.013439035043120384,-0.3384193480014801,0.182648703455925
1748008379103761400,16.364761474609374,0.02321287989616394,-0.37140607833862305,0.2736676335334778
1748008379143312400,16.4043125,0.02321287989616394,-0.5198463201522827,0.4508185386657715
1748008379159150800,16.42015087890625,0.02076941914856434,-0.5937610268592834,0.4660901725292206
1748008379174989600,16.435989501953124,0.01771509274840355,-0.6609562039375305,0.44776421785354614
1748008379190828000,16.451828125,0.019547687843441963,-0.616973876953125,0.4092797040939331
1748008379206666800,16.467666748046874,0.07696902006864548,-0.5088507533073425,0.3445279896259308
1748008379222413800,16.483413818359374,0.17898350954055786,-0.4508185386657715,0.32620203495025635
1748008379238191400,16.49919140625,0.2968805134296417,-0.513126790523529,0.33047810196876526
1748008379254030000,16.515030029296874,0.32559117674827576,-0.6432411074638367,0.3530801236629486
1748008379269868500,16.53086865234375,0.30604347586631775,-0.7715228199958801,0.4612032473087311
1748008379285707300,16.546707275390624,0.2987131178379059,-0.8252789378166199,0.5791002511978149
1748008379301454300,16.562454345703124,0.3243694305419922,-0.8356636762619019,0.6646214127540588
1748008379317231900,16.57823193359375,0.35063666105270386,-0.7654141783714294,0.6682865619659424
1748008379333009400,16.594009521484374,0.37201693654060364,-0.5748242139816284,0.6151412725448608
1748008379348817700,16.609817626953124,0.39095374941825867,-0.34208452701568604,0.5809328556060791
1748008379364686800,16.625686767578124,0.4129449129104614,-0.06780604273080826,0.5729916095733643
1748008379380434000,16.641433837890624,0.42271876335144043,0.12461651116609573,0.5583308339118958
1748008379396211500,16.65721142578125,0.4080579876899719,0.2217440903186798,0.4996877610683441
1748008379412019500,16.67301953125,0.3701843321323395,0.20952677726745605,0.43249258399009705
1748008379427797200,16.68879736328125,0.3176499307155609,0.15027284622192383,0.36529740691185
1748008379443666200,16.704666259765624,0.31642818450927734,0.07391469180583954,0.303600013256073
1748008379459413200,16.720413330078124,0.3335324227809906,0.031154127791523933,0.2028072625398636
1748008379475252000,16.736251953125,0.3237585723400116,0.1362229436635971,0.04948008432984352
1748008379491029500,16.752029541015624,0.32498031854629517,0.28588494658470154,-0.08307767659425735
1748008379506807000,16.76780712890625,0.3634648323059082,0.394618958234787,-0.1612684279680252
1748008379522676200,16.78367626953125,0.43737950921058655,0.40072759985923767,-0.1612684279680252
1748008379538423300,16.79942333984375,0.5216789245605469,0.2822197377681732,-0.07819075137376785
1748008379554200800,16.815200927734374,0.5345070958137512,0.15760323405265808,0.001832595793530345
1748008379570039600,16.83103955078125,0.48380526900291443,0.11850785464048386,0.012217304669320583
1748008379585878300,16.846878173828124,0.4502076804637909,0.20891591906547546,-0.09712757170200348
1748008379601778000,16.86277783203125,0.5119050741195679,0.384845107793808,-0.294437050819397
1748008379617525000,16.87852490234375,0.6481280326843262,0.45692721009254456,-0.43799036741256714
1748008379633302500,16.894302490234374,0.8008443117141724,0.35735616087913513,-0.5247332453727722
1748008379649110500,16.910110595703124,0.8411614298820496,0.12767083942890167,-0.5583308339118958
1748008379664888300,16.925888427734375,0.7525860071182251,-0.16798794269561768,-0.5265658497810364
1748008379680818400,16.941818359375,0.6285803318023682,-0.37201693654060364,-0.3903428912162781
1748008379696565500,16.9575654296875,0.5479460954666138,-0.3549126982688904,-0.21441370248794556
1748008379712373500,16.97337353515625,0.5002986192703247,-0.12522737681865692,-0.021991148591041565
1748008379728151000,16.989151123046874,0.47342056035995483,0.11789698898792267,0.08979719132184982
1748008379743959300,17.004959228515624,0.4190535545349121,0.4050036668777466,0.1973094791173935
1748008379759828500,17.020828369140624,0.3695734739303589,0.5870414972305298,0.2474004179239273
1748008379775575600,17.036575439453124,0.34636059403419495,0.6701191663742065,0.2376265823841095
1748008379791353000,17.05235302734375,0.36163222789764404,0.6481280326843262,0.18814650177955627
1748008379807161000,17.0681611328125,0.4098905920982361,0.6065891981124878,0.1319468915462494
1748008379822938600,17.083938720703124,0.4599815309047699,0.5772676467895508,0.09407325088977814
1748008379838838300,17.09983837890625,0.5119050741195679,0.6010913848876953,0.060475658625364304
1748008379854585300,17.11558544921875,0.5546656250953674,0.6401867866516113,0.05619960278272629
1748008379870363100,17.131363037109374,0.6261368989944458,0.6432411074638367,0.07147123664617538
1748008379886201600,17.14720166015625,0.7006624341011047,0.588874101638794,0.12034045159816742
1748008379902009900,17.163009765625,0.7562511563301086,0.5363397002220154,0.16737708449363708
1748008379917879000,17.178879150390625,0.7574729323387146,0.5180137157440186,0.15271630883216858
1748008379933595400,17.194595458984374,0.7556403279304504,0.5222898125648499,0.12767083942890167
1748008379957368600,17.21836865234375,0.769079327583313,0.6133087277412415,0.11484266817569733
1748008379973085200,17.234085205078124,0.7941248416900635,0.6890559792518616,0.11423180252313614
1748008379988862700,17.24986279296875,0.8399397134780884,0.7684684991836548,0.1062905490398407
1748008380004671000,17.2656708984375,0.8863654732704163,0.7751879692077637,0.09346238523721695
1748008380020479000,17.28147900390625,0.941343367099762,0.7464773058891296,0.05009094998240471
1748008380036348200,17.29734814453125,0.9896016716957092,0.6670648455619812,0.018936822190880775
1748008380052095200,17.31309521484375,1.0641272068023682,0.5729916095733643,0.029932396486401558
1748008380067872800,17.328872802734374,1.1465940475463867,0.6212499737739563,0.02015855349600315
1748008380083711500,17.34471142578125,1.1832460165023804,0.8038986921310425,-0.05497787147760391
1748008380099519500,17.36051953125,1.2198978662490845,0.9938777685165405,-0.1661553531885147
1748008380115419100,17.376419189453124,1.264491081237793,0.9859365224838257,-0.24129177629947662
1748008380131166200,17.392166259765624,1.301142930984497,0.7605272531509399,-0.24984388053417206
1748008380146943700,17.40794384765625,1.2760975360870361,0.504574716091156,-0.18631389737129211
1748008380162782500,17.423782470703124,1.1820242404937744,0.3494149148464203,-0.07635815441608429
1748008380178560000,17.43956005859375,1.074512004852295,0.38240164518356323,0.02321287989616394
1748008380194429200,17.45542919921875,0.9944885969161987,0.5283984541893005,0.11972958594560623
1748008380210176300,17.47117626953125,0.9761626720428467,0.6762278079986572,0.1814269721508026
1748008380226015000,17.487014892578124,0.9871582388877869,0.8087855577468872,0.16493362188339233
1748008380241792500,17.50279248046875,1.0012081861495972,0.8943067193031311,0.0861319974064827
1748008380257600500,17.5186005859375,0.9779952764511108,0.9712757468223572,-0.05925392732024193
1748008380273500200,17.534500244140624,0.931569516658783,1.0445796251296997,-0.16432274878025055
1748008380289247200,17.550247314453124,0.912021815776825,1.1184942722320557,-0.2076941877603531
1748008380305055500,17.566055419921874,0.9431759119033813,1.207680583000183,-0.2278527319431305
1748008380320833000,17.5818330078125,1.034194827079773,1.2583824396133423,-0.27550023794174194
1748008380336641000,17.59764111328125,1.197295904159546,1.2571606636047363,-0.4178318381309509
1748008380352540700,17.613540771484374,1.3329079151153564,1.216843605041504,-0.5803219676017761
1748008380368257300,17.62925732421875,1.443474531173706,1.1465940475463867,-0.7031059265136719
1748008380384065500,17.6450654296875,1.5125023126602173,1.0910053253173828,-0.7110471725463867
1748008380399843000,17.660843017578124,1.576032280921936,1.018923282623291,-0.6695083379745483
1748008380415681500,17.676681640625,1.6297885179519653,0.9859365224838257,-0.607200026512146
1748008380439393800,17.700393798828124,1.7177530527114868,1.0073168277740479,-0.5381723046302795
1748008380455201800,17.716201904296874,1.7690657377243042,1.062294602394104,-0.5051855444908142
1748008380471132200,17.732132080078124,1.804495930671692,1.1337659358978271,-0.46853363513946533
1748008380486848800,17.747848876953125,1.842369556427002,1.2064588069915771,-0.45204028487205505
1748008380502687200,17.763687255859374,1.833817481994629,1.2919800281524658,-0.42760565876960754
1748008380518495500,17.77949560546875,1.7556266784667969,1.5015068054199219,-0.4092797040939331
1748008380534303500,17.795303466796874,1.6157386302947998,1.7831156253814697,-0.46303585171699524
1748008380550172700,17.811172607421874,1.4489723443984985,2.0360138416290283,-0.5723807215690613
1748008380565919700,17.826919677734374,1.389107584953308,2.0891592502593994,-0.6126978397369385
1748008380581727700,17.842727783203124,1.4782938957214355,1.834428310394287,-0.5027421116828918
1748008380597536000,17.858535888671874,1.6187928915023804,1.3213015794754028,-0.384845107793808
1748008380613344000,17.874343994140624,1.6701055765151978,0.8875871896743774,-0.39645153284072876
1748008380629243600,17.89024365234375,1.5601497888565063,0.5827654600143433,-0.4691445231437683
1748008380644990700,17.90599072265625,1.463022232055664,0.4660901725292206,-0.5253441333770752
1748008380660860000,17.92185986328125,1.4422528743743896,0.40133845806121826,-0.543059229850769
1748008380676698400,17.937698486328124,1.492343783378601,0.3677408695220947,-0.513737678527832
1748008380692506600,17.953506591796874,1.5583171844482422,0.3072652220726013,-0.44837507605552673
1748008380708345300,17.969345458984375,1.580308437347412,0.22357667982578278,-0.37751471996307373
1748008380724092400,17.985092529296875,1.568701982498169,0.1215621829032898,-0.2571742534637451
1748008380739900400,18.000900390625,1.5143349170684814,0.07819075137376785,-0.1514945775270462
1748008380755678000,18.016677978515624,1.4196507930755615,0.05925392732024193,-0.07513642311096191
1748008380771486200,18.032486328125,1.3371840715408325,0.07208210229873657,-0.05803219974040985
1748008380787385900,18.0483857421875,1.2553280591964722,0.07330382615327835,-0.07024950534105301
1748008380803133000,18.0641328125,1.1936306953430176,0.06108652427792549,-0.08552113175392151
1748008380818941000,18.07994091796875,1.1074986457824707,-0.0024434609804302454,-0.12522737681865692
1748008380834718500,18.095718505859374,1.0042624473571777,-0.07513642311096191,-0.14966198801994324
1748008380850526700,18.111526611328124,0.931569516658783,-0.09346238523721695,-0.13377949595451355
1748008380866426400,18.12742626953125,0.8393288254737854,-0.06536258012056351,-0.12400564551353455
1748008380882173400,18.14317333984375,0.7605272531509399,-0.021380282938480377,-0.12095131725072861
1748008380897981400,18.1589814453125,0.6615670323371887,0.029932396486401558,-0.09224065393209457
1748008380913759000,18.174759033203124,0.5852088928222656,0.04703662544488907,-0.03420845419168472
1748008380929567200,18.190567138671874,0.4960225820541382,0.016493361443281174,0.00855211354792118
1748008380945467000,18.206466796875,0.41233405470848083,-0.033597588539123535,0.021380282938480377
1748008380961214000,18.2222138671875,0.2877175211906433,-0.07819075137376785,0.024434609338641167
1748008380976991500,18.237991455078124,0.1918116807937622,-0.09224065393209457,0.036041051149368286
1748008380992799500,18.253799560546874,0.10995574295520782,-0.03787364438176155,0.01038470957428217
1748008381008638200,18.26963818359375,0.1014036312699318,0.060475658625364304,-0.05497787147760391
1748008381024537900,18.285537841796874,0.16310101747512817,0.16920967400074005,-0.17531833052635193
1748008381040285000,18.301284912109374,0.27122417092323303,0.1472185254096985,-0.3078760802745819
1748008381056123600,18.31712353515625,0.3237585723400116,0.01710422709584236,-0.37079519033432007
1748008381071931600,18.332931640625,0.26511552929878235,-0.16920967400074005,-0.3219259977340698
1748008381087709200,18.348709228515624,0.14782938361167908,-0.23518311977386475,-0.18081611394882202
1748008381103578400,18.364578369140624,0.01771509274840355,-0.16859880089759827,0.022602014243602753
1748008381119264500,18.380264404296874,-0.025656340643763542,-0.03298672288656235,0.17531833052635193
1748008381135164200,18.3961640625,0.025045474991202354,0.05375614017248154,0.2993239760398865
1748008381150941700,18.411941650390624,0.11789698898792267,0.039706241339445114,0.3579670190811157
1748008381166749700,18.427749755859374,0.152105450630188,-0.015271631069481373,0.3243694305419922
1748008381182619000,18.443618896484374,0.13439035415649414,-0.08735372871160507,0.24556782841682434
1748008381198335500,18.45933544921875,0.05742133408784866,-0.17287486791610718,0.1618792861700058
1748008381214143500,18.4751435546875,-0.03481931984424591,-0.22357667982578278,0.10384709388017654
1748008381229921300,18.49092138671875,-0.14416420459747314,-0.21868975460529327,0.06963863968849182
1748008381245759700,18.506759765625,-0.17043140530586243,-0.12461651116609573,0.05742133408784866
1748008381261598500,18.522598388671874,-0.060475658625364304,-0.01160643994808197,0.015271631069481373
1748008381277345500,18.538345458984374,0.14294247329235077,0.02871066704392433,-0.08918632566928864
1748008381293153500,18.554153564453124,0.2877175211906433,0.01771509274840355,-0.20952677726745605
1748008381308931000,18.56993115234375,0.35552358627319336,-0.02687807008624077,-0.3335324227809906
1748008381324708900,18.585708984375,0.3481931984424591,-0.09896016865968704,-0.4092797040939331
1748008381340608500,18.6016083984375,0.29138273000717163,-0.20097467303276062,-0.45142942667007446
1748008381380128800,18.641128662109374,0.22296582162380219,-0.2773328125476837,-0.3701843321323395
1748008381395875800,18.656875732421874,0.2382374405860901,-0.3072652220726013,-0.2779437005519867
1748008381411683800,18.672683837890624,0.2272418737411499,-0.3274237811565399,-0.23090706765651703
1748008381427491800,18.688491943359374,0.16004669666290283,-0.3139847218990326,-0.2278527319431305
1748008381443330600,18.70433056640625,0.07819075137376785,-0.2577851414680481,-0.22663100063800812
1748008381459169300,18.720169189453124,-0.00733038317412138,-0.1569923609495163,-0.24129177629947662
1748008381474916400,18.735916259765624,-0.0555887371301651,-0.06291911751031876,-0.2822197377681732
1748008381490694000,18.75169384765625,-0.054367005825042725,0.05192354694008827,-0.34574973583221436
1748008381506563000,18.76756298828125,-0.045204028487205505,0.1007927656173706,-0.3995058834552765
1748008381522371000,18.78337109375,-0.05375614017248154,0.1007927656173706,-0.394618958234787
1748008381538240300,18.799240234375,-0.09957103431224823,0.08674286305904388,-0.3543018400669098
1748008381553956900,18.814956787109374,-0.19486601650714874,0.05192354694008827,-0.30054569244384766
1748008381569764900,18.830764892578124,-0.2675589919090271,0.02871066704392433,-0.24007004499435425
1748008381585573000,18.846572998046874,-0.32681289315223694,0.029932396486401558,-0.13988813757896423
1748008381601381000,18.862381103515624,-0.33169981837272644,0.024434609338641167,-0.029932396486401558
1748008381617280800,18.87828076171875,-0.33169981837272644,0.03420845419168472,0.02382374368607998
1748008381633027800,18.89402783203125,-0.32986724376678467,0.0403171069920063,0.045204028487205505
1748008381648835800,18.9098359375,-0.33597588539123535,0.039095375686883926,0.05009094998240471
1748008381664613600,18.925613525390624,-0.34086281061172485,0.0555887371301651,0.05864306539297104
1748008381680452000,18.9414521484375,-0.35063666105270386,0.07269296050071716,0.07147123664617538
1748008381696321300,18.9573212890625,-0.33475416898727417,0.10751228034496307,0.11728613078594208
1748008381712068400,18.973068359375,-0.3090978264808655,0.14049901068210602,0.17409659922122955
1748008381727876400,18.98887646484375,-0.2816088795661926,0.19303341209888458,0.2125810980796814
1748008381743715000,19.004715087890624,-0.2626720666885376,0.2382374405860901,0.2125810980796814
1748008381759523300,19.0205234375,-0.22296582162380219,0.2223549485206604,0.23457226157188416
1748008381775392300,19.036392333984374,-0.182648703455925,0.22968533635139465,0.2474004179239273
1748008381791139300,19.052139404296874,-0.15332718193531036,0.3897320330142975,0.182648703455925
1748008381807008500,19.068008544921874,-0.07880161702632904,0.6145304441452026,0.12461651116609573
1748008381822786000,19.0837861328125,0.07757988572120667,0.7629706859588623,0.12889257073402405
1748008381838624800,19.099624755859374,0.2742784917354584,0.6536257863044739,0.1569923609495163
1748008381854524400,19.1155244140625,0.3781255781650543,0.4807509481906891,0.2070833146572113
1748008381870271500,19.131271484375,0.3982841372489929,0.37201693654060364,0.2620611786842346
1748008381886049000,19.147049072265624,0.3830125033855438,0.342695415019989,0.252287358045578
1748008381901887700,19.1628876953125,0.42638394236564636,0.3127630054950714,0.23396138846874237
1748008381917665300,19.178665283203124,0.5259549617767334,0.2626720666885376,0.2431243658065796
1748008381933534500,19.194534423828124,0.617584764957428,0.1618792861700058,0.2119702398777008
1748008381949281500,19.210281494140624,0.6481280326843262,0.059864792972803116,0.19120082259178162
1748008381965059000,19.22605908203125,0.6450737118721008,-0.0024434609804302454,0.24373523890972137
1748008381980867000,19.2418671875,0.6200281977653503,-0.018936822190880775,0.3488040566444397
1748008381996705800,19.257705810546874,0.6243042945861816,0.08979719132184982,0.5094616413116455
1748008382012575000,19.273574951171874,0.6725626587867737,0.25045475363731384,0.598647952079773
1748008382028322000,19.289322021484374,0.7464773058891296,0.375071257352829,0.5858197808265686
1748008382044130000,19.305130126953124,0.8203920125961304,0.41661009192466736,0.46181413531303406
1748008382059907800,19.320907958984375,0.8417723178863525,0.394618958234787,0.2620611786842346
1748008382075685400,19.336685302734374,0.8295549750328064,0.3029891550540924,0.01160643994808197
1748008382091554600,19.352554443359374,0.7831292152404785,0.16310101747512817,-0.14538592100143433
1748008382107240400,19.368240478515624,0.7360926270484924,-0.031154127791523933,-0.19975294172763824
1748008382123018000,19.38401806640625,0.7067710757255554,-0.16432274878025055,-0.11545353382825851
1748008382138856700,19.399856689453124,0.6597344875335693,-0.2015855312347412,0.06841690838336945
1748008382154603800,19.415603759765624,0.5803219676017761,-0.12278391420841217,0.23640485107898712
1748008382178316000,19.43931591796875,0.4691445231437683,-0.1368338167667389,0.11972958594560623
1748008382194124000,19.4551240234375,0.3585779070854187,0.12828169763088226,0.19058994948863983
1748008382209962800,19.470962646484374,0.34636059403419495,0.3243694305419922,0.19608774781227112
1748008382225709800,19.486709716796874,0.41233405470848083,0.3488040566444397,0.13988813757896423
1748008382241487400,19.5024873046875,0.4856378734111786,0.24678955972194672,0.05619960278272629
1748008382257325800,19.518325927734374,0.5387831330299377,0.11545353382825851,-0.0806342139840126
1748008382273134000,19.534134033203124,0.5143485069274902,0.12522737681865692,-0.15027284622192383
1748008382289003300,19.550003173828124,0.46181413531303406,0.19425514340400696,-0.0757472887635231
1748008382304719600,19.5657197265625,0.4196644127368927,0.2528982162475586,0.08674286305904388
1748008382320466700,19.581466796875,0.4331034719944,0.10506882518529892,0.2480112910270691
1748008382336275000,19.59727490234375,0.4960225820541382,0.04092797264456749,0.33169981837272644
1748008382352144100,19.61314404296875,0.485027015209198,0.012217304669320583,0.4343251883983612
1748008382368013300,19.629013427734375,0.384845107793808,-0.012217304669320583,0.3799581825733185
1748008382383729700,19.644729736328124,0.2070833146572113,-0.05192354694008827,0.24923302233219147
1748008382399538000,19.660537841796874,0.12339477986097336,-0.09407325088977814,0.20402899384498596
1748008382415346000,19.676345947265624,0.10873401165008545,-0.3121521472930908,0.2278527319431305
1748008382431123500,19.69212353515625,0.13439035415649414,-0.4801400899887085,0.4245513379573822
1748008382446992600,19.70799267578125,0.03481931984424591,-0.2791654169559479,0.6603453159332275
1748008382462739700,19.72373974609375,-0.05742133408784866,-0.31520646810531616,0.7354817390441895
1748008382478517200,19.739517333984374,-0.18875735998153687,-0.494189977645874,0.6188064813613892
1748008382494356000,19.75535595703125,-0.39095374941825867,-0.6517932415008545,0.31154128909111023
1748008382510194700,19.771194580078124,-0.6200281977653503,-0.9749409556388855,-0.33597588539123535
