time,seconds_elapsed,z,y,x
1747978040065478700,0.078478759765625,1.733482837677002,1.75608491897583,-0.5322163701057434
1747978040083760600,0.0967607421875,1.8416060209274292,1.4735597372055054,-0.4161519408226013
1747978040102024400,0.1150244140625,1.7145460844039917,1.7765488624572754,-0.20341812074184418
1747978040120289300,0.133289306640625,1.6552921533584595,1.3574953079223633,0.4764748811721802
1747978040138550000,0.151550048828125,1.6809484958648682,0.39125919342041016,1.6352862119674683
1747978040156817700,0.169817626953125,0.6056728959083557,-0.7367035150527954,1.9504927396774292
1747978040175085600,0.18808544921875,-0.3124575614929199,-1.0138835906982422,1.4602733850479126
1747978040193349400,0.206349365234375,-0.9207266569137573,-1.1930198669433594,1.0682506561279297
1747978040211614700,0.22461474609375,-1.490816593170166,-1.2687671184539795,0.7576256394386292
1747978040229878300,0.242878173828125,-1.2844969034194946,-1.7366899251937866,0.588263213634491
1747978040248145400,0.2611455078125,-0.6887505650520325,-3.405726432800293,0.703411340713501
1747978040266404900,0.27940478515625,-0.5198463201522827,-0.7713701128959656,0.1469130963087082
1747978040284674800,0.2976748046875,-0.3055853247642517,-0.47219884395599365,0.7536550164222717
1747978040302939000,0.31593896484375,-0.3672827184200287,-0.8400924205780029,1.055269718170166
1747978040321204500,0.33420458984375,-0.3010038435459137,-1.1740829944610596,1.432020902633667
1747978040339469600,0.352469482421875,0.05375614017248154,-1.3339769840240479,1.3376421928405762
1747978040357734100,0.370734130859375,0.3776674270629883,-1.0458012819290161,0.8984300494194031
1747978040375999000,0.3889990234375,0.4282165467739105,-0.9524916410446167,0.584750771522522
1747978040394264300,0.407264404296875,0.2727513313293457,-1.8361082077026367,0.5094616413116455
1747978040412528000,0.425528076171875,-0.054367005825042725,-2.665815830230713,0.5062545537948608
1747978040430796000,0.443796142578125,-0.2802344262599945,-2.207972526550293,0.18417587876319885
1747978040449059000,0.46205908203125,-0.3888157308101654,-1.0700831413269043,-0.29016098380088806
1747978040467324200,0.48032421875,-0.32100969552993774,-0.2532036304473877,-0.6149885654449463
1747978040485584600,0.498584716796875,-0.09086620807647705,-0.11774427443742752,-0.7441865801811218
1747978040503853300,0.516853271484375,-0.096211276948452,0.002138028386980295,-0.8642216324806213
1747978040522120200,0.5351201171875,-0.2002110779285431,-0.0010690141934901476,-0.898124635219574
1747978040540372200,0.553372314453125,-0.16859880089759827,-0.26053401827812195,-0.7672467231750488
1747978040558644200,0.571644287109375,0.006108652334660292,-0.2915354371070862,-0.49235737323760986
1747978040576914700,0.589914794921875,0.1647808998823166,-0.22907446324825287,-0.23518311977386475
1747978040595178800,0.6081787109375,0.3095559775829315,-0.4271475374698639,-0.15653422474861145
1747978040613440300,0.626440185546875,0.25274550914764404,-0.8610145449638367,-0.17928895354270935
1747978040631710700,0.644710693359375,0.03497203439474106,-1.1913399696350098,-0.12950342893600464
1747978040649973000,0.662972900390625,-0.16920967400074005,-1.2559388875961304,-0.2324342280626297
1747978040668239400,0.6812392578125,-0.2941316068172455,-1.2195924520492554,-0.5813909769058228
1747978040686504000,0.69950390625,-0.24037547409534454,-0.9862419366836548,-1.0572550296783447
1747978040704769000,0.71776904296875,-0.07620543986558914,-0.6679811477661133,-1.255022644996643
1747978040723034600,0.73603466796875,-0.02886338345706463,-0.49754974246025085,-1.0810787677764893
1747978040741298400,0.75429833984375,-0.06276640295982361,-0.6223189830780029,-0.9210320711135864
1747978040759564000,0.77256396484375,-0.16264286637306213,-0.9127854108810425,-0.988379955291748
1747978040777830400,0.790830322265625,-0.17592918872833252,-0.8880453705787659,-0.9529497623443604
1747978040796102400,0.809102294921875,-0.07406741380691528,-0.6542366743087769,-0.779464066028595
1747978040814358800,0.82735888671875,-0.03985895588994026,-0.5748242139816284,-0.6111706495285034
1747978040832624000,0.8456240234375,-0.08475755155086517,-0.5765040516853333,-0.7189884185791016
1747978040850890500,0.863890380859375,-0.04841107130050659,-0.7066183686256409,-0.8101600408554077
1747978040869153000,0.882153076171875,0.07406741380691528,-1.170875906944275,-0.5279402732849121
1747978040887414000,0.9004140625,0.3599523603916168,-1.6378824710845947,-0.013133603148162365
1747978040905683700,0.91868359375,0.6116288304328918,-2.021658420562744,0.30512720346450806
1747978040923947800,0.93694775390625,0.6543893814086914,-2.2631030082702637,0.3793473243713379
1747978040942215400,0.95521533203125,0.7307475209236145,-2.4969117641448975,0.27030786871910095
1747978040960478700,0.973478759765625,0.9056077003479004,-2.780505895614624,0.17516560852527618
1747978040978739500,0.991739501953125,1.1841622591018677,-2.8545732498168945,0.035582900047302246
1747978040997003800,1.010003662109375,1.4986051321029663,-2.830902338027954,-0.2678644061088562
1747978041015273000,1.02827294921875,1.6885842084884644,-3.0312659740448,-0.4755585789680481
1747978041033540000,1.0465400390625,1.7449365854263306,-3.1369457244873047,-0.8573493957519531
1747978041051804200,1.06480419921875,1.826945185661316,-3.042719841003418,-0.997848391532898
1747978041070068700,1.08306884765625,2.177581787109375,-3.128851890563965,-0.6667594313621521
1747978041088334000,1.101333984375,2.755765914916992,-3.461315155029297,-0.14340060949325562
1747978041106598700,1.1195986328125,3.310736894607544,-3.981161594390869,0.24144448339939117
1747978041124863000,1.137863037109375,3.6558756828308105,-4.648378849029541,0.7744244337081909
1747978041152261400,1.165261474609375,3.7818667888641357,-5.709452152252197,2.0389153957366943
1747978041170525700,1.183525634765625,3.5659258365631104,-5.603619575500488,2.615877628326416
1747978041188778500,1.201778564453125,3.5439348220825195,-4.249942302703857,2.632370948791504
1747978041207052000,1.220052001953125,3.213609457015991,-2.5919013023376465,2.1791090965270996
1747978041225320200,1.2383203125,2.246762275695801,-1.163851022720337,1.654223084449768
1747978041243587000,1.256587158203125,1.8929187059402466,-0.9224064946174622,1.4129313230514526
1747978041261848600,1.2748486328125,1.9115500450134277,-1.027475357055664,1.0664180517196655
1747978041280119000,1.293119140625,2.0282254219055176,-1.0082330703735352,0.8929322957992554
1747978041298382300,1.31138232421875,2.059837579727173,-0.9421069025993347,0.9624181985855103
1747978041316644400,1.329644287109375,1.8057177066802979,-0.9300423264503479,1.1858421564102173
1747978041334912300,1.347912353515625,1.4283556938171387,-0.8648324608802795,1.23394775390625
1747978041353175300,1.36617529296875,1.225395679473877,-0.7376197576522827,0.9912815690040588
1747978041371437300,1.384437255859375,0.9279043078422546,-0.6931793093681335,0.8704829812049866
1747978041389705200,1.402705322265625,0.5490151643753052,-0.3966042697429657,1.0835222005844116
1747978041407971600,1.4209716796875,0.1339322030544281,-0.058184914290905,1.2513574361801147
1747978041426236000,1.43923583984375,-0.12171489745378494,-0.012522737495601177,1.0682506561279297
1747978041444501200,1.457501220703125,-0.2203696370124817,-0.06933320313692093,0.7475463151931763
1747978041462760700,1.4757607421875,-0.3066543638706207,-0.10735956579446793,0.6948592066764832
1747978041481030100,1.494030029296875,-0.24923302233219147,0.11835514008998871,0.8918632864952087
1747978041499296800,1.512296875,-0.27641651034355164,0.2002110779285431,0.907898485660553
1747978041517558000,1.53055810546875,-0.16142113506793976,0.2817615866661072,0.08445212244987488
1747978041535825400,1.548825439453125,-0.1966986060142517,0.3878994286060333,-0.6235406994819641
1747978041554087400,1.56708740234375,-0.7863363027572632,0.18677204847335815,-0.3404046595096588
1747978041572356400,1.5853564453125,-1.565953016281128,-0.3090978264808655,0.13454307615756989
1747978041590621000,1.603620849609375,-1.997223973274231,-0.8941540122032166,0.029932396486401558
1747978041608880000,1.621880126953125,-2.275473117828369,-1.4329371452331543,-0.4340197443962097
1747978041627152000,1.64015185546875,-2.355954647064209,-1.2760975360870361,-1.1649199724197388
1747978041645410800,1.658410888671875,-2.166128158569336,-0.5229006409645081,-1.6626224517822266
1747978041663681300,1.676681396484375,-2.3206770420074463,-0.8057312369346619,-1.4958562850952148
1747978041681945600,1.694945556640625,-2.395355224609375,-1.8376353979110718,-0.7831292152404785
1747978041700204500,1.71320458984375,-2.258368730545044,-2.4605650901794434,-0.24297164380550385
1747978041718470700,1.731470703125,-1.8916969299316406,-2.275320291519165,-0.4132503271102905
1747978041736741600,1.74974169921875,-1.937359094619751,-1.7006487846374512,-0.77472984790802
1747978041755002400,1.76800244140625,-1.9843957424163818,-1.3539828062057495,-0.7309002876281738
1747978041773270800,1.786270751953125,-1.9031506776809692,-1.4220943450927734,-0.2402227520942688
1747978041791538400,1.804538330078125,-1.4831807613372803,-1.5792393684387207,0.11010845750570297
1747978041809796400,1.82279638671875,-0.8920159935951233,-1.2205088138580322,0.19654589891433716
1747978041828061400,1.8410615234375,-0.4810563921928406,-0.10705413669347763,0.21731531620025635
1747978041846322200,1.859322265625,0.32498031854629517,0.8206974864006042,0.23808473348617554
1747978041864595500,1.877595458984375,1.4355332851409912,0.280539870262146,-0.09697485715150833
1747978041882859500,1.895859619140625,1.8083138465881348,-0.9876163601875305,-0.6101016402244568
1747978041901126700,1.914126708984375,2.135432243347168,-2.470491886138916,-0.9691377282142639
1747978041919390200,1.93239013671875,2.7545440196990967,-3.188411235809326,-1.0125091075897217
1747978041937658400,1.950658447265625,3.7862954139709473,-2.339308500289917,0.07910704612731934
1747978041955921000,1.9689208984375,4.940525531768799,-0.7634288668632507,1.8694003820419312
1747978041974184400,1.987184326171875,6.241209983825684,0.3533855378627777,3.4209980964660645
1747978041992446500,2.005446533203125,7.729888916015625,1.1397218704223633,3.983910322189331
1747978042010716200,2.023716064453125,8.494081497192383,1.045495867729187,3.8537960052490234
1747978042028979500,2.0419794921875,8.312043190002441,0.006261368747800589,3.815922498703003
1747978042047246000,2.06024609375,8.096713066101074,-2.847853660583496,3.445432662963867
1747978042065506000,2.078506103515625,7.346418380737305,-7.584808349609375,1.8718438148498535
1747978042083775000,2.09677490234375,3.5830299854278564,-5.728999614715576,-1.41690194606781
1747978042102040000,2.1150400390625,-1.2684617042541504,0.1774563491344452,-2.233781576156616
1747978042120304400,2.133304443359375,-1.7189748287200928,2.2350032329559326,-1.3726142644882202
1747978042138571000,2.151571044921875,-1.2333369255065918,1.8011361360549927,-0.5155702829360962
1747978042156830500,2.16983056640625,-0.6863071322441101,1.2324206829071045,0.04963280260562897
1747978042175101700,2.188101806640625,-0.12003502249717712,1.6560556888580322,0.09422596544027328
1747978042193364700,2.20636474609375,-0.1537853181362152,2.3515257835388184,-0.3390302062034607
1747978042211630300,2.22463037109375,-0.31123584508895874,2.3695461750030518,-0.699288010597229
1747978042229895200,2.242895263671875,-0.21991148591041565,1.975232720375061,-0.5732970237731934
1747978042248160300,2.26116015625,0.02687807008624077,1.5419765710830688,-0.04046982154250145
1747978042266420000,2.279419921875,0.33017265796661377,1.0983357429504395,0.6916521787643433
1747978042284690200,2.297690185546875,0.4427245855331421,0.6133087277412415,1.1537717580795288
1747978042302954500,2.31595458984375,0.2974913716316223,0.12278391420841217,1.468672752380371
1747978042321215700,2.3342158203125,0.11484266817569733,-0.5114469528198242,2.283872365951538
1747978042339483400,2.3524833984375,-0.28496864438056946,0.6223189830780029,3.4568865299224854
1747978042357751600,2.37075146484375,0.054367005825042725,-1.4669928550720215,2.1335995197296143
1747978042376014300,2.389014404296875,0.5146539807319641,-0.8665123581886292,1.0314459800720215
1747978042394279400,2.407279541015625,0.16798794269561768,0.385303258895874,0.9897544384002686
1747978042412546000,2.425546142578125,-0.058184914290905,0.7473936080932617,0.9775370955467224
1747978042430810600,2.443810546875,-0.06123924255371094,0.42180246114730835,0.7950411438941956
1747978042449074700,2.46207470703125,0.06368270516395569,0.34804046154022217,0.7234171628952026
1747978042467340300,2.48034033203125,0.16310101747512817,0.46593746542930603,0.6218608021736145
1747978042485604900,2.49860498046875,0.26190847158432007,0.2747366428375244,0.41431936621665955
1747978042503857000,2.51685693359375,0.38438695669174194,-0.14874568581581116,0.3686571717262268
1747978042522135800,2.5351357421875,0.4144720733165741,-0.18738290667533875,0.5662720799446106
1747978042540398800,2.55339892578125,0.32131510972976685,0.17852537333965302,0.797789990901947
1747978042558659600,2.57165966796875,0.2541199326515198,0.5109887719154358,0.8845328688621521
1747978042576925200,2.58992529296875,0.35674530267715454,0.3836233615875244,1.056796908378601
1747978042595193300,2.608193359375,0.313373863697052,0.6171266436576843,1.500590443611145
1747978042613462800,2.626462890625,0.13454307615756989,1.1928671598434448,1.6505578756332397
1747978042631724500,2.644724609375,0.26679539680480957,1.3799445629119873,1.0009026527404785
1747978042649990100,2.662990234375,0.31841349601745605,1.1566733121871948,0.5126686692237854
1747978042668254700,2.681254638671875,0.08674286305904388,1.1018482446670532,0.30024027824401855
1747978042686520000,2.69952001953125,-0.008399397134780884,1.189049243927002,0.05054909735918045
1747978042704784400,2.717784423828125,0.06658431142568588,0.7800748944282532,-0.16890424489974976
1747978042723050000,2.736050048828125,0.28588494658470154,0.6409503817558289,-0.7061602473258972
1747978042741314600,2.754314453125,0.8266534209251404,1.0827586650848389,-1.6391041278839111
1747978042759580000,2.772579833984375,0.694553792476654,0.5135849714279175,-2.1264219284057617
1747978042777843000,2.790843017578125,0.28038713335990906,-0.16661348938941956,-2.3632848262786865
1747978042796111000,2.809111083984375,-0.30772337317466736,-0.7053966522216797,-2.939789056777954
1747978042814373400,2.827373291015625,-1.186300277709961,-1.2838860750198364,-3.3450980186462402
1747978042832636200,2.84563623046875,-1.3269519805908203,-1.701259732246399,-3.182760715484619
1747978042850903000,2.863903076171875,-1.6307047605514526,-2.7629435062408447,-1.8277088403701782
1747978042869171000,2.8821708984375,-1.2345587015151978,-2.3800837993621826,-1.432020902633667
1747978042887430000,2.900429931640625,-1.0684033632278442,-1.1856894493103027,-1.811673641204834
1747978042905699800,2.918699951171875,-1.1261301040649414,-0.21762074530124664,-1.8345810174942017
1747978042923959300,2.936959228515625,-1.0891727209091187,0.06520986557006836,-1.488220453262329
1747978042942227000,2.95522705078125,-1.027169942855835,-0.3969096839427948,-1.3093897104263306
1747978042960497200,2.9734970703125,-0.9509644508361816,-0.9404270648956299,-1.207069754600525
1747978042978751500,2.99175146484375,-0.9225592613220215,-0.8153523802757263,-1.112691044807434
1747978042997027800,3.01002783203125,-0.9306532144546509,-0.4944954216480255,-1.0088438987731934
1747978043015289600,3.02828955078125,-0.8674286603927612,-0.42271876335144043,-0.9764680862426758
1747978043033554000,3.046553955078125,-0.8797986507415771,-0.6696610450744629,-0.8570439219474792
1747978043051819800,3.06481982421875,-0.9836457371711731,-1.1635456085205078,-0.5885686874389648
1747978043070083800,3.083083740234375,-0.9998337030410767,-1.8141170740127563,-0.2519819140434265
1747978043088349700,3.101349609375,-0.9873109459877014,-2.2098050117492676,0.0555887371301651
1747978043106614000,3.119614013671875,-0.8500189781188965,-2.3080015182495117,0.45005497336387634
1747978043124878300,3.13787841796875,-0.503963828086853,-1.5537357330322266,0.7043276429176331
1747978043143145200,3.156145263671875,0.1189660057425499,-0.5035057067871094,1.2044734954833984
1747978043161405000,3.174405029296875,0.6806566119194031,0.4547891616821289,1.9570595026016235
1747978043179669000,3.1926689453125,1.0248792171478271,1.1650726795196533,2.5836546421051025
1747978043197938000,3.21093798828125,1.349706768989563,1.0320568084716797,2.1896464824676514
1747978043216205000,3.229205078125,1.3544409275054932,0.13041973114013672,0.17791450023651123
1747978043234456600,3.24745654296875,0.6858489513397217,-0.01664607785642147,-1.2484558820724487
1747978043252722400,3.265722412109375,-0.5099197626113892,-0.5442809462547302,-0.755793035030365
1747978043270998800,3.283998779296875,-1.1826350688934326,-1.399950385093689,-0.408363401889801
1747978043289263900,3.302263916015625,-0.6420193910598755,-0.8023715019226074,-0.37369680404663086
1747978043307529000,3.320529052734375,-0.16111570596694946,0.9008735418319702,-0.6047565937042236
1747978043325794000,3.3387939453125,0.5306891798973083,2.3968825340270996,-0.997848391532898
1747978043344058000,3.35705810546875,1.5250251293182373,1.4190399646759033,-0.8032878041267395
1747978043362324700,3.37532470703125,1.1229230165481567,0.3223841190338135,-0.4004221558570862
1747978043380589000,3.393589111328125,0.5004513263702393,1.0810787677764893,0.27718010544776917
1747978043398847700,3.41184765625,0.6375905871391296,1.693318486213684,0.8153523802757263
1747978043417120300,3.430120361328125,1.1423180103302002,1.6826282739639282,1.1791226863861084
1747978043435379000,3.44837890625,1.5042556524276733,1.165378212928772,1.5308283567428589
1747978043453649000,3.46664892578125,1.3406964540481567,0.9372199773788452,1.8112154006958008
1747978043471914500,3.48491455078125,0.8778133392333984,1.5627460479736328,2.4773640632629395
1747978043490178600,3.503178466796875,0.3660610020160675,2.16628098487854,2.9405524730682373
1747978043508439800,3.521439697265625,0.046731192618608475,1.7884607315063477,2.3834433555603027
1747978043526709200,3.539709228515625,-0.004428773187100887,0.8759807348251343,1.2544118165969849
1747978043554106400,3.5671064453125,0.06704246252775192,-0.05604688450694084,0.7602217793464661
1747978043572372700,3.585372802734375,0.23426681756973267,-0.29733866453170776,1.354135513305664
1747978043590636000,3.603635986328125,0.4108068645000458,-0.10873401165008545,1.8400788307189941
1747978043608896500,3.621896484375,0.49525898694992065,0.06704246252775192,1.906968593597412
1747978043627166500,3.64016650390625,0.4216497242450714,0.11026117950677872,1.7614299058914185
1747978043645427000,3.658427001953125,0.2893974184989929,0.19578230381011963,1.7938058376312256
1747978043663696400,3.6766962890625,0.2848159074783325,0.2594650089740753,1.9792033433914185
1747978043681960700,3.694960693359375,0.5484042763710022,-0.2519819140434265,1.5741997957229614
1747978043700226300,3.713226318359375,0.6024658679962158,-0.11255192011594772,0.99250328540802
1747978043718491600,3.73149169921875,0.555429220199585,0.826500654220581,0.9753990769386292
1747978043736750600,3.74975048828125,0.508087158203125,1.4477506875991821,1.1093312501907349
1747978043755020000,3.76802001953125,0.5160284042358398,1.2441798448562622,1.0797042846679688
1747978043773284600,3.78628466796875,0.6017022728919983,0.18157969415187836,0.9390525817871094
1747978043791551500,3.804551513671875,0.6375905871391296,-0.37827831506729126,0.39125919342041016
1747978043809815800,3.82281591796875,0.3533855378627777,0.35674530267715454,-0.10354165732860565
1747978043828081200,3.8410810546875,-0.048105638474226,1.073595643043518,-0.2587014436721802
1747978043846346000,3.859345947265625,-0.23380866646766663,0.4340197443962097,-0.741895854473114
1747978043864611600,3.877611572265625,-0.5103778839111328,-1.0039570331573486,-1.359786033630371
1747978043882863000,3.895863037109375,-1.1476631164550781,-1.9014707803726196,-1.4756977558135986
1747978043901142300,3.914142333984375,-1.562135100364685,-2.3819162845611572,-2.0022635459899902
1747978043919401500,3.9324013671875,-1.429271936416626,-2.534632682800293,-2.5441009998321533
1747978043937671700,3.950671630859375,-1.0157161951065063,-2.0260872840881348,-2.7154486179351807
1747978043955935700,3.968935791015625,-1.0852020978927612,-0.8717046976089478,-2.4889705181121826
1747978043974200000,3.987199951171875,-1.0436632633209229,-0.3882048726081848,-2.4769058227539062
1747978043992462300,4.00546240234375,-1.2014192342758179,-0.3594942092895508,-2.8652634620666504
1747978044010731500,4.0237314453125,-1.1673635244369507,-0.34086281061172485,-3.0938796997070312
1747978044028995600,4.04199560546875,-0.9399688839912415,-0.22647829353809357,-2.626567840576172
1747978044047261200,4.06026123046875,-0.7015787363052368,0.04902193695306778,-1.9704985618591309
1747978044065526000,4.078526123046875,-0.403781920671463,0.1869247704744339,-1.4561500549316406
1747978044083791400,4.096791259765625,-0.22067506611347198,0.06963863968849182,-1.0655016899108887
1747978044102056000,4.115055908203125,-0.2921462953090668,-0.09789115190505981,-0.7571674585342407
1747978044120321000,4.133321044921875,-0.5407684445381165,-0.38957929611206055,-0.4101960062980652
1747978044138585600,4.151585693359375,-0.8671231865882874,-0.8071057200431824,-0.09208793938159943
1747978044156850400,4.169850341796875,-1.1050552129745483,-1.1775954961776733,0.009621127508580685
1747978044175117000,4.188116943359375,-1.253495454788208,-1.4963144063949585,-0.048716504126787186
1747978044193382000,4.2063818359375,-1.2583824396133423,-1.6716327667236328,-0.14553864300251007
1747978044211646200,4.224646240234375,-0.8891143798828125,-1.6348280906677246,-0.09972374886274338
1747978044229911600,4.24291162109375,-0.33658674359321594,-1.278388261795044,0.19013181328773499
1747978044248171300,4.261171142578125,0.03894266113638878,-0.7938193678855896,0.5647448897361755
1747978044266435300,4.279435302734375,0.2347249686717987,-0.34834590554237366,0.864679753780365
1747978044284707000,4.29770703125,0.43447789549827576,-0.0006108652451075613,1.2191343307495117
1747978044302971400,4.315971435546875,0.6481280326843262,0.5957463383674622,1.6362025737762451
1747978044321236000,4.334236083984375,0.7907650470733643,0.9718865752220154,0.9897544384002686
1747978044339501300,4.352501220703125,0.5395467281341553,0.9376781582832336,-0.3530801236629486
1747978044357766100,4.37076611328125,0.08261952549219131,0.22663100063800812,-0.8373435139656067
1747978044376031200,4.38903125,-0.7959573864936829,-0.8550586104393005,-0.2719877362251282
1747978044394294800,4.407294677734375,-1.306793451309204,-2.0781636238098145,0.01160643994808197
1747978044412562200,4.425562255859375,-0.7203628420829773,-1.9214766025543213,-0.5703954100608826
1747978044430827000,4.443826904296875,-0.24404066801071167,0.09941831976175308,-1.0461066961288452
1747978044449090800,4.4620908203125,0.2664899528026581,1.8138116598129272,-0.8706356883049011
1747978044467356000,4.48035595703125,1.6934711933135986,3.681532144546509,-0.34926220774650574
1747978044485621200,4.498621337890625,3.062420129776001,4.062864780426025,1.0170906782150269
1747978044503880700,4.516880615234375,3.0720412731170654,1.2454015016555786,2.467284679412842
1747978044522150100,4.535150146484375,1.8351919651031494,0.5054910182952881,2.0835087299346924
1747978044540414000,4.5534140625,0.8469646573066711,0.6250678896903992,1.466840147972107
1747978044558674000,4.571673828125,0.4550946056842804,0.5190827250480652,1.3413074016571045
1747978044576939000,4.58993896484375,0.3698789179325104,0.59803706407547,1.5260940790176392
1747978044595209200,4.608209228515625,0.7170031070709229,1.0958921909332275,1.9938641786575317
1747978044613478400,4.626478515625,1.1215485334396362,1.684613585472107,2.476447820663452
1747978044631741400,4.644741455078125,1.1339186429977417,1.9792033433914185,2.9268081188201904
1747978044650006500,4.663006591796875,0.9265298843383789,1.2563971281051636,2.7317893505096436
1747978044668271600,4.681271728515625,0.8397870063781738,-0.25182920694351196,1.8167132139205933
1747978044686536200,4.6995361328125,0.5952881574630737,-0.6850853562355042,1.0636690855026245
1747978044704801300,4.71780126953125,0.4586070775985718,0.21044307947158813,1.0151053667068481
1747978044723066000,4.736066162109375,0.4992296099662781,1.2841914892196655,1.3868168592453003
1747978044741331700,4.754331787109375,0.5694791078567505,1.5943583250045776,1.6190983057022095
1747978044759591400,4.77259130859375,0.6771441102027893,1.03037691116333,1.5363260507583618
1747978044777860000,4.790860107421875,0.8408560156822205,0.3859141170978546,1.453248381614685
1747978044796127700,4.809127685546875,1.0201449394226074,0.20616702735424042,1.6765196323394775
1747978044814380000,4.827380126953125,0.9576839804649353,0.007941247895359993,1.8417587280273438
1747978044832656400,4.845656494140625,0.6525567770004272,-0.47830748558044434,1.7062993049621582
1747978044850909700,4.86390966796875,0.24159720540046692,-0.5623014569282532,1.769829273223877
1747978044869186600,4.8821865234375,-0.11194105446338654,-0.16203200817108154,1.5196800231933594
1747978044887448300,4.9004482421875,-0.3019201457500458,-0.13729196786880493,0.6988298296928406
1747978044905716200,4.91871630859375,-0.43157628178596497,-0.588263213634491,-1.1143709421157837
1747978044923981300,4.936981201171875,-0.479834645986557,-0.28985556960105896,-2.719572067260742
1747978044942246700,4.95524658203125,-0.4853324294090271,-0.06688974797725677,-3.483306407928467
1747978044960511500,4.973511474609375,-0.6346889734268188,0.30314189195632935,-3.665496826171875
1747978044978771700,4.991771728515625,-1.0946705341339111,0.7150177955627441,-2.9181032180786133
1747978044997041400,5.01004150390625,-1.5329663753509521,0.2600758671760559,-2.294562578201294
1747978045024435200,5.037435302734375,-1.9058995246887207,-0.889267086982727,-3.0253100395202637
1747978045042704000,5.055703857421875,-2.124131202697754,-0.02672535367310047,-2.814256191253662
1747978045060963800,5.0739638671875,-1.704161286354065,1.5957326889038086,-2.6473371982574463
1747978045079233500,5.092233642578125,-1.183704137802124,1.3307698965072632,-3.0355420112609863
1747978045097497900,5.110497802734375,-1.482569932937622,-0.275958389043808,-3.0245466232299805
1747978045115767000,5.12876708984375,-1.826945185661316,-1.3904820680618286,-2.4298691749572754
1747978045134026800,5.14702685546875,-2.1985039710998535,-2.057699680328369,-2.035555601119995
1747978045152296700,5.165296630859375,-2.5607471466064453,-1.2965614795684814,-2.1558961868286133
1747978045170559500,5.1835595703125,-2.138486623764038,-0.5836817622184753,-1.9179641008377075
1747978045188824800,5.201824951171875,-1.7938058376312256,-1.0444267988204956,-1.3271046876907349
1747978045207088600,5.220088623046875,-1.588555097579956,-2.623818874359131,-0.5303837656974792
1747978045225354000,5.23835400390625,-1.0558805465698242,-3.7482690811157227,-0.1388191282749176
1747978045243619600,5.25661962890625,-0.2148718535900116,-3.810882806777954,0.04352414980530739
1747978045261883400,5.27488330078125,0.6178901791572571,-2.671619176864624,0.1368338167667389
1747978045280150300,5.293150390625,1.080162525177002,-1.3225232362747192,0.13988813757896423
1747978045298409500,5.311409423828125,1.2487612962722778,-0.342695415019989,0.09239336848258972
1747978045316674800,5.3296748046875,1.2211196422576904,0.02168571576476097,0.14614951610565186
1747978045334943000,5.34794287109375,1.0348057746887207,-0.04214970022439957,0.6878342628479004
1747978045353198800,5.36619873046875,0.7060074806213379,0.5648976564407349,1.5505287647247314
1747978045371474200,5.38447412109375,0.36132678389549255,2.149176597595215,1.5734361410140991
1747978045389745000,5.402744873046875,-0.12492194026708603,2.8713719844818115,1.4115568399429321
1747978045408004000,5.421004150390625,-0.761443555355072,3.377779483795166,1.5748106241226196
1747978045426269700,5.439269775390625,-1.1383473873138428,3.9399280548095703,1.8121317625045776
1747978045444534000,5.457533935546875,-1.476613998413086,-1.3799445629119873,-1.1884382963180542
1747978045462799600,5.475799560546875,-0.9051495790481567,-4.918839454650879,-3.6560285091400146
1747978045481064400,5.494064453125,0.4105014503002167,-2.6508498191833496,-2.431396484375
1747978045499329500,5.51232958984375,3.7194056510925293,5.5399370193481445,-1.2754865884780884
1747978045517594400,5.530594482421875,6.161950588226318,6.997308731079102,-1.450346827507019
1747978045535858400,5.5488583984375,4.7752861976623535,1.6969836950302124,0.7898487448692322
1747978045554124800,5.567124755859375,2.490039348602295,-1.5935946702957153,2.040595293045044
1747978045572385800,5.5853857421875,0.8055785298347473,-2.88420033454895,2.370615243911743
1747978045590653400,5.6036533203125,0.3504839241504669,-3.4742960929870605,2.9378037452697754
1747978045608920800,5.6219208984375,1.878868818283081,1.3113750219345093,6.76426362991333
1747978045627184600,5.6401845703125,2.43949031829834,4.913800239562988,8.643896102905273
1747978045645446100,5.658446044921875,1.3933836221694946,4.046982288360596,6.321538925170898
1747978045663709700,5.676709716796875,0.7015787363052368,-1.5925257205963135,2.032959461212158
1747978045681980000,5.69497998046875,0.6204863786697388,-2.509587049484253,2.096336841583252
1747978045700244700,5.71324462890625,0.22510384023189545,-2.666274070739746,2.4602596759796143
1747978045718510300,5.73151025390625,-0.17501288652420044,-1.8703166246414185,2.0428860187530518
1747978045736774700,5.749774658203125,-0.39904773235321045,-0.413097620010376,1.6267341375350952
1747978045755040000,5.7680400390625,-0.1495092660188675,-0.2796235680580139,0.3260493278503418
1747978045773304600,5.7863046875,-0.05742133408784866,-0.850782573223114,-0.6846272349357605
1747978045791570200,5.804570068359375,-0.15943582355976105,-1.8945986032485962,-0.8494081497192383
1747978045809833700,5.822833740234375,-0.670577347278595,-2.9388725757598877,-1.2654073238372803
1747978045828101400,5.841101318359375,-1.1985175609588623,-2.57983660697937,-2.035708427429199
1747978045846364700,5.85936474609375,-1.0393872261047363,-1.7165313959121704,-2.450791358947754
1747978045864630800,5.877630859375,-1.0684033632278442,-1.6015359163284302,-2.878396987915039
1747978045882894800,5.895894775390625,-1.041067123413086,-1.705993890762329,-3.701690673828125
1747978045901160400,5.914160400390625,-1.209971308708191,-1.7478381395339966,-4.143040657043457
1747978045919420200,5.932420166015625,-1.7873916625976562,-1.6354389190673828,-4.551403999328613
1747978045937690600,5.950690673828125,-1.3599387407302856,1.0288498401641846,-5.918673515319824
1747978045955955200,5.968955078125,-0.784503698348999,5.354386806488037,-4.700150012969971
1747978045974219300,5.98721923828125,-1.857793927192688,5.359731674194336,-3.168710708618164
1747978045992486400,6.005486328125,-2.9497156143188477,3.8589885234832764,-2.1120665073394775
1747978046010750700,6.023750732421875,-3.997654914855957,1.9016234874725342,-1.3892602920532227
1747978046029015000,6.04201513671875,-3.704134225845337,-1.1719449758529663,-0.9117164015769958
1747978046047280600,6.06028076171875,-2.171473264694214,-4.013842582702637,-0.7721336483955383
1747978046065545200,6.078545166015625,-0.6009386777877808,-5.481141090393066,-0.08720101416110992
1747978046083811000,6.09681103515625,0.043676864355802536,-6.0984206199646,0.718224823474884
1747978046102073900,6.115073974609375,0.508087158203125,-5.265964031219482,0.998153805732727
1747978046120342000,6.133342041015625,0.8527678847312927,-3.405726432800293,0.722959041595459
1747978046138601500,6.1516015625,0.9625709056854248,-1.663996934890747,0.41599923372268677
1747978046156870000,6.169869873046875,0.897513747215271,-0.5473352670669556,0.30604347586631775
1747978046175131100,6.188131103515625,0.8706356883049011,0.09728029370307922,0.7006624341011047
1747978046193397000,6.20639697265625,1.149037480354309,1.866346001625061,1.758986473083496
1747978046211664100,6.2246640625,1.5031867027282715,3.500715970993042,2.7566821575164795
1747978046229933600,6.24293359375,1.3715451955795288,4.693124771118164,2.6891815662384033
1747978046248195600,6.261195556640625,0.3729332387447357,4.915021896362305,2.1206185817718506
1747978046266462200,6.279462158203125,-0.44089198112487793,4.73390007019043,1.8106045722961426
1747978046284725000,6.29772509765625,-1.0459539890289307,-0.6551529765129089,-0.3271183371543884
1747978046302991000,6.3159912109375,-1.5903877019882202,-4.452444076538086,-2.3990204334259033
1747978046321255700,6.334255615234375,-1.569007396697998,-3.19665789604187,-2.060601234436035
1747978046339521000,6.35252099609375,-1.2467759847640991,-2.472935199737549,-1.9431623220443726
1747978046357785900,6.370785888671875,1.7033977508544922,-1.5758795738220215,-1.2893837690353394
1747978046376051500,6.389051513671875,6.318637371063232,4.812243461608887,-1.806328535079956
1747978046394315500,6.4073154296875,5.269476413726807,6.354983806610107,-0.8460483551025391
1747978046412581000,6.4255810546875,3.1694743633270264,5.039791107177734,1.4341589212417603
1747978046430839300,6.44383935546875,1.6714800596237183,2.951090097427368,4.293619155883789
1747978046449099300,6.462099365234375,0.6154467463493347,1.3119858503341675,5.543449401855469
1747978046467360000,6.480360107421875,2.3131940364837646,1.3214542865753174,5.5035905838012695
1747978046485641200,6.49864111328125,4.387234210968018,6.663012504577637,6.738912582397461
1747978046503906800,6.51690673828125,2.9045114517211914,3.2125403881073,2.858391284942627
1747978046522170400,6.53517041015625,1.3704761266708374,-3.888615369796753,1.0525208711624146
1747978046540431000,6.55343115234375,0.38728857040405273,-3.517514705657959,2.2925772666931152
1747978046558698000,6.571697998046875,-0.015271631069481373,-2.29746413230896,2.5257749557495117
1747978046576953000,6.589953125,-0.06185010448098183,-1.1068878173828125,2.01509165763855
1747978046595231500,6.6082314453125,0.1615738570690155,-0.7849618196487427,0.6872233748435974
1747978046613495600,6.62649560546875,0.3627012372016907,-0.8228355050086975,-0.17501288652420044
1747978046631761700,6.64476171875,0.28588494658470154,-1.1844676733016968,-0.7470881938934326
1747978046650026000,6.66302587890625,-0.29046642780303955,-1.3596333265304565,-1.2939653396606445
1747978046668291600,6.68129150390625,-1.0682506561279297,-1.3584115505218506,-1.5748106241226196
1747978046686551300,6.69955126953125,-1.2414308786392212,-1.5706872940063477,-2.026545524597168
1747978046704820700,6.71782080078125,-1.0065531730651855,-1.9233092069625854,-2.3545801639556885
1747978046723086800,6.7360869140625,-0.7544185519218445,-2.38741397857666,-2.7351491451263428
1747978046741351700,6.7543515625,-0.7232644557952881,-2.4581217765808105,-3.208111524581909
1747978046759616300,6.7726162109375,-0.8431467413902283,-2.387108564376831,-3.4830009937286377
1747978046777880600,6.790880615234375,-2.147038698196411,-2.2634084224700928,-4.36264705657959
1747978046796147200,6.809147216796875,-2.8215866088867188,2.3330471515655518,-6.059630393981934
1747978046814407000,6.827406982421875,-1.563051462173462,7.438964366912842,-3.8087449073791504
1747978046832676400,6.84567626953125,-2.582432746887207,5.6628737449646,-1.8774943351745605
1747978046850941700,6.863941650390625,-3.3570098876953125,1.0897835493087769,-1.0699304342269897
1747978046869206300,6.882206298828125,-2.9639182090759277,-1.5859588384628296,-0.8497135639190674
1747978046887471900,6.900471923828125,-2.3411409854888916,-2.397798776626587,-0.7570147514343262
1747978046905736200,6.918736083984375,-0.9795224070549011,-2.858849287033081,-0.32528573274612427
1747978046924002300,6.937002197265625,0.22403483092784882,-3.4352006912231445,0.2554943859577179
1747978046942266000,6.95526611328125,1.0209085941314697,-3.568216562271118,0.5664247870445251
1747978046960531000,6.973531005859375,1.7076737880706787,-3.269198179244995,0.7073819637298584
1747978046978793000,6.99179296875,2.113288402557373,-2.314262866973877,0.7612907886505127
1747978046997062100,7.010062255859375,2.197587728500366,-1.3238977193832397,0.8397870063781738
1747978047015326500,7.028326416015625,2.0868682861328125,-0.20295998454093933,1.0419833660125732
1747978047033587200,7.046587158203125,1.737911581993103,0.9298896193504333,1.1456778049468994
1747978047051855600,7.064855712890625,1.4004086256027222,1.3063353300094604,1.1876747608184814
1747978047070123500,7.08312353515625,1.0998629331588745,1.5050193071365356,1.475545048713684
1747978047088387300,7.10138720703125,0.7484626173973083,2.4529294967651367,1.4566081762313843
1747978047106652400,7.11965234375,0.7770205736160278,3.0082058906555176,0.1267545372247696
1747978047124916700,7.137916748046875,1.2933543920516968,2.6276369094848633,-1.2498302459716797
1747978047143182000,7.15618212890625,1.0332785844802856,2.45063853263855,-1.7289013862609863
1747978047161439700,7.174439697265625,0.6901249885559082,3.0495920181274414,-1.2738068103790283
1747978047175146800,7.188146728515625,0.6203336715698242,2.648559093475342,-0.40943244099617004
1747978047193409300,7.2064091796875,1.7776178121566772,-7.601912498474121,0.8104654550552368
1747978047211675000,7.2246748046875,4.024532794952393,-2.252871036529541,0.35552358627319336
1747978047229943300,7.242943359375,4.8055243492126465,5.7438130378723145,-0.8530732989311218
1747978047248207000,7.26120703125,2.4350616931915283,5.370574474334717,-0.5635231733322144
1747978047266467000,7.279467041015625,1.1762210130691528,3.1787900924682617,0.9263771176338196
1747978047284737000,7.297737060546875,1.0574077367782593,-0.3969096839427948,4.621959209442139
1747978047303003100,7.316003173828125,0.451123982667923,-2.0004310607910156,6.105445384979248
1747978047321267200,7.33426708984375,1.4761558771133423,0.7052439451217651,6.673550128936768
1747978047339532300,7.3525322265625,2.34786057472229,5.226410388946533,5.064073085784912
1747978047357797000,7.370797119140625,1.5454890727996826,1.138958215713501,2.2992968559265137
1747978047376063500,7.3890634765625,1.080467939376831,-4.569272041320801,1.2557861804962158
1747978047394327000,7.4073271484375,0.5829181671142578,-4.740467071533203,1.5540411472320557
1747978047412592400,7.42559228515625,0.3098613917827606,-2.61603045463562,1.3938417434692383
1747978047430856200,7.443856201171875,0.20082195103168488,-1.3851369619369507,1.0725266933441162
1747978047449124600,7.46212451171875,0.0708603709936142,-1.1684324741363525,0.5094616413116455
1747978047467372800,7.480372802734375,0.016493361443281174,-1.399950385093689,0.013133603148162365
1747978047485655000,7.498655029296875,-0.15271630883216858,-1.6728544235229492,-0.47082439064979553
1747978047503918600,7.516918701171875,-0.4251621961593628,-1.689195156097412,-1.324508547782898
1747978047522177800,7.535177734375,-0.8203920125961304,-1.630246639251709,-1.9196439981460571
1747978047540442600,7.553442626953125,-1.1284208297729492,-1.4879150390625,-2.398562431335449
1747978047558708700,7.571708740234375,-1.2848023176193237,-1.2760975360870361,-2.8761062622070312
1747978047576965400,7.58996533203125,-1.1937834024429321,-1.0290025472640991,-3.1198415756225586
1747978047595243800,7.608243896484375,-0.9378308653831482,-0.7139487266540527,-3.598149061203003
1747978047613507600,7.626507568359375,-0.7602217793464661,-0.33536502718925476,-4.456109046936035
1747978047631773000,7.64477294921875,-0.9721920490264893,0.304669052362442,-4.660138130187988
1747978047650037500,7.66303759765625,-2.218967914581299,1.0577131509780884,-4.530482292175293
1747978047668303600,7.6813037109375,-2.905427932739258,2.1671972274780273,-1.6827809810638428
1747978047686567700,7.699567626953125,-1.8307631015777588,4.350887775421143,-0.18387043476104736
1747978047704833000,7.7178330078125,-3.2724051475524902,5.521458148956299,-1.2800681591033936
1747978047723097300,7.736097412109375,-4.158465385437012,3.302337408065796,-1.7683022022247314
1747978047741364000,7.754364013671875,-4.017202377319336,0.43249258399009705,-0.7970264554023743
1747978047759627500,7.77262744140625,-2.830138683319092,-1.5948164463043213,-0.07437284290790558
1747978047777893600,7.7908935546875,-1.3129020929336548,-3.4936909675598145,-0.038179077208042145
1747978047796156200,7.80915625,0.5062545537948608,-4.296826362609863,-0.08032877743244171
1747978047814420500,7.82742041015625,1.7279850244522095,-3.6166276931762695,0.1359175145626068
1747978047832682500,7.8456826171875,2.2956316471099854,-2.1536054611206055,0.2721404731273651
1747978047850953000,7.863952880859375,2.161241292953491,-0.6307183504104614,0.3254384696483612
1747978047869217500,7.882217529296875,1.7438675165176392,0.4786129295825958,0.4415028691291809
1747978047887484000,7.90048388671875,1.281595230102539,1.2454015016555786,0.5319108963012695
1747978047905747700,7.918747802734375,0.8199338912963867,1.6342172622680664,0.675006091594696
1747978047924013600,7.937013671875,0.513737678527832,1.080467939376831,0.9642508029937744
1747978047942277000,7.955277099609375,0.21700987219810486,0.5952881574630737,1.3190107345581055
1747978047960544300,7.973544189453125,-0.39064833521842957,1.2527319192886353,0.99250328540802
1747978047978803500,7.991803466796875,-1.0319041013717651,1.6708691120147705,0.3116939961910248
1747978047997073200,8.0100732421875,-1.4023939371109009,1.6607898473739624,0.11942415684461594
1747978048015338000,8.028337890625,-1.5370897054672241,1.8784105777740479,0.09529497474431992
1747978048033599500,8.046599609375,-0.8016079068183899,-2.305558204650879,-0.35750889778137207
1747978048051866600,8.06486669921875,3.377932071685791,-11.29123306274414,-1.9721784591674805
1747978048070134000,8.083134033203125,5.299255847930908,2.916881561279297,-0.21609358489513397
1747978048088400100,8.101400146484375,3.581197500228882,7.217220306396484,-0.9514226317405701
1747978048106664200,8.119664306640624,2.028988838195801,7.11459493637085,-0.17623461782932281
1747978048124928300,8.13792822265625,1.0433578491210938,4.440532207489014,1.7683022022247314
1747978048143193000,8.156193115234375,1.2147055864334106,1.3691017627716064,3.751781702041626
1747978048161462000,8.1744619140625,2.038151979446411,0.5852088928222656,5.24152946472168
1747978048179724000,8.19272412109375,3.3425018787384033,1.7773123979568481,7.458206653594971
1747978048197988400,8.21098828125,3.4830009937286377,4.238946437835693,5.575977802276611
1747978048216253200,8.229253173828125,2.7094926834106445,-2.632676601409912,1.0737483501434326
1747978048234518300,8.247518310546875,0.9996809959411621,-4.958240509033203,1.7470746040344238
1747978048252784400,8.265784423828125,0.4239404797554016,-3.1146490573883057,1.9674441814422607
1747978048271048200,8.284048095703126,0.04337143152952194,-0.9358455538749695,1.282817006111145
1747978048289313300,8.302313232421875,-0.32910364866256714,0.20036379992961884,0.5206099152565002
1747978048307578000,8.320578125,-0.3799581825733185,-0.403323769569397,-0.06811147183179855
1747978048325843500,8.338843505859375,-0.3504839241504669,-1.3909401893615723,-0.21792617440223694
1747978048344108300,8.3571083984375,-0.5632177591323853,-1.3900238275527954,-0.9334021210670471
1747978048362374700,8.375374755859376,-1.0297660827636719,-0.5641340613365173,-1.8620699644088745
1747978048380633600,8.393633544921874,-1.4159855842590332,-0.7451028823852539,-2.143373489379883
1747978048398903600,8.411903564453125,-1.5276212692260742,-1.0509936809539795,-2.4572055339813232
1747978048417169700,8.430169677734375,-1.5745052099227905,-0.9671524167060852,-2.8855748176574707
1747978048435428900,8.448428955078125,-1.642922043800354,-0.8326093554496765,-3.0883820056915283
1747978048453698600,8.466698486328125,-1.7066047191619873,-0.8787296414375305,-3.0778446197509766
1747978048471961900,8.4849619140625,-1.940108060836792,-1.272737741470337,-3.0534098148345947
1747978048490217000,8.503217041015626,-3.3269248008728027,-0.9092729091644287,-4.231158256530762
1747978048508496400,8.521496337890625,-3.1581733226776123,4.434118270874023,-3.888615369796753
1747978048526758700,8.539758544921876,-1.785559058189392,4.700608253479004,-1.4080443382263184
1747978048545024800,8.558024658203125,-3.1777210235595703,2.0474674701690674,-0.05207626149058342
1747978048563288600,8.57628857421875,-3.6019668579101562,-0.9692904353141785,-0.4245513379573822
1747978048581549600,8.594549560546875,-2.3693935871124268,-3.9788708686828613,-0.5867360830307007
1747978048599822800,8.61282275390625,-1.0986411571502686,-4.643492221832275,-0.6356052756309509
1747978048618084600,8.631084716796876,0.07651086896657944,-4.420526504516602,-0.3066543638706207
1747978048636348700,8.6493486328125,0.9111055135726929,-4.274071216583252,0.14798210561275482
1747978048654613800,8.66761376953125,1.545030951499939,-4.160297870635986,0.5035057067871094
1747978048677444600,8.690444580078125,2.1374175548553467,-2.80845308303833,0.645684540271759
1747978048695708700,8.708708740234375,2.12703275680542,-1.578475832939148,0.6717990636825562
1747978048713973800,8.726973876953124,1.8177822828292847,0.07299839705228806,0.9297369122505188
1747978048732238600,8.745238525390626,1.4117095470428467,1.4359915256500244,1.0349584817886353
1747978048750503700,8.763503662109375,1.0468703508377075,2.2481367588043213,1.2185235023498535
1747978048768765700,8.781765625,0.5115996599197388,3.0521881580352783,1.4941763877868652
1747978048787033600,8.80003369140625,-0.02779436856508255,3.983299493789673,1.4963144063949585
1747978048805298700,8.818298583984374,-0.5552765130996704,4.262312412261963,1.183704137802124
1747978048823563800,8.836563720703126,-0.9870055317878723,4.310112476348877,1.059393048286438
1747978048841827600,8.85482763671875,-1.2996158599853516,0.9570731520652771,0.22861631214618683
1747978048860095200,8.87309521484375,-1.4178181886672974,-2.015702486038208,-0.1872301995754242
1747978048878355700,8.891355712890626,-1.1336132287979126,-3.4857497215270996,-0.6782131195068359
1747978048896627000,8.909626953125,0.36529740691185,-8.752324104309082,-3.036916494369507
1747978048914886000,8.927885986328125,3.684739112854004,-3.198643207550049,-1.1354458332061768
1747978048933151000,8.94615087890625,5.731748580932617,4.983133316040039,0.07192938029766083
1747978048951415600,8.96441552734375,3.232546091079712,6.747159481048584,1.6375770568847656
1747978048969684000,8.98268408203125,2.012495517730713,5.980676174163818,2.827389717102051
1747978048987949300,9.00094921875,1.0305296182632446,3.888920783996582,4.059199333190918
1747978049006214000,9.0192138671875,1.0702359676361084,1.314734697341919,4.061184883117676
1747978049024479000,9.03747900390625,2.4523184299468994,2.227367401123047,5.365687370300293
1747978049042744300,9.055744384765624,2.956740617752075,2.8759536743164062,5.176166534423828
1747978049061009200,9.074009033203126,2.1152737140655518,-1.1687378883361816,2.0425806045532227
1747978049079274000,9.09227392578125,0.5723807215690613,-3.475517749786377,1.4489723443984985
1747978049097539300,9.110539306640625,-0.13439035415649414,-2.4976751804351807,1.6206254959106445
1747978049115804200,9.12880419921875,-0.22937989234924316,-0.9430232048034668,1.6481144428253174
1747978049134068000,9.14706787109375,-0.17821992933750153,-0.1849394589662552,1.4672982692718506
1747978049152335000,9.165335205078126,0.0705549344420433,-0.712574303150177,0.5795583724975586
1747978049170594300,9.18359423828125,0.15515977144241333,-1.5706872940063477,-0.11392636597156525
1747978049188863200,9.20186328125,-0.02871066704392433,-2.012800931930542,-0.5450445413589478
1747978049207130400,9.22013037109375,-0.5123631954193115,-1.2935070991516113,-1.028544306755066
1747978049225397800,9.238397705078125,-1.3542882204055786,-0.5655084848403931,-1.7287486791610718
1747978049243659500,9.256659423828125,-1.9117027521133423,-0.6163630485534668,-2.384359836578369
1747978049261921000,9.274921142578124,-2.1087067127227783,-0.5707008838653564,-2.978426218032837
1747978049280189400,9.293189453125,-2.1235203742980957,-0.5105306506156921,-3.581961154937744
1747978049298452000,9.311451904296876,-1.9952386617660522,-0.5694791078567505,-4.021783828735352
1747978049316720400,9.329720458984376,-2.2562308311462402,-1.1649199724197388,-3.9539780616760254
1747978049334985500,9.3479853515625,-2.939941644668579,-1.7220290899276733,-4.158923149108887
1747978049353250300,9.366250244140625,-1.715767741203308,0.3010038435459137,-2.8425087928771973
1747978049371515100,9.38451513671875,-1.2116512060165405,2.520735502243042,-1.6812539100646973
1747978049389780200,9.4027802734375,-3.120757818222046,2.819448471069336,-0.6275113224983215
1747978049408042500,9.42104248046875,-3.738342523574829,2.554943799972534,-1.0858129262924194
1747978049426308400,9.439308349609375,-3.0917418003082275,-0.4486805200576782,-0.6444628238677979
1747978049444574700,9.45757470703125,-2.2295055389404297,-3.8038578033447266,-0.12751811742782593
1747978049462839800,9.47583984375,-0.8184067010879517,-5.430897235870361,0.09040805697441101
1747978049481106400,9.4941064453125,0.5728389024734497,-5.678297996520996,0.17638733983039856
1747978049499358200,9.512358154296875,1.578475832939148,-4.945717811584473,0.144622340798378
1747978049517621800,9.530621826171876,2.1322250366210938,-3.233004331588745,-0.054825156927108765
1747978049535903500,9.548903564453125,2.0593793392181396,-1.06351637840271,-0.2444988191127777
1747978049554164200,9.567164306640626,1.391703724861145,1.065043568611145,-0.1518000066280365
1747978049572426200,9.58542626953125,0.7956519722938538,2.559830904006958,0.5517640113830566
1747978049590695700,9.60369580078125,0.5009095072746277,3.1059443950653076,1.4016302824020386
1747978049608960300,9.621960205078125,0.7724391222000122,3.2733213901519775,2.5616633892059326
1747978049627225300,9.640225341796874,1.1340713500976562,4.019035339355469,3.107166051864624
1747978049645490400,9.658490478515626,0.46822822093963623,5.484042644500732,2.5173757076263428
1747978049663743500,9.676743408203125,-0.5316054821014404,5.3472089767456055,1.9987510442733765
1747978049682020400,9.695020263671875,-0.8674286603927612,-5.160437107086182,0.8237518072128296
1747978049700282000,9.7132822265625,-1.949881911277771,-10.365008354187012,-1.540907621383667
1747978049718551800,9.7315517578125,-1.8371772766113281,-7.316638469696045,-2.451249599456787
1747978049736815400,9.7498154296875,-0.6850853562355042,-2.2792909145355225,-2.3686299324035645
1747978049755080400,9.76808056640625,2.0086777210235596,2.766761302947998,-1.5146403312683105
1747978049773345300,9.78634521484375,6.0701680183410645,4.6940412521362305,0.7296785116195679
1747978049791610400,9.8046103515625,6.0451226234436035,4.110970497131348,2.584723472595215
1747978049809874200,9.822874267578126,4.377460479736328,3.877467155456543,2.6846001148223877
1747978049828141600,9.8411416015625,2.493093729019165,2.36679744720459,2.4190263748168945
1747978049846400800,9.85940087890625,1.102611780166626,1.1314750909805298,2.4448354244232178
1747978049864670500,9.87767041015625,1.7971655130386353,2.1565070152282715,3.824321985244751
1747978049882935300,9.895935302734374,3.2568280696868896,5.173417568206787,6.137057781219482
1747978049901200400,9.914200439453126,2.378556489944458,7.351152420043945,5.24656867980957
1747978049919465200,9.93246533203125,1.6427693367004395,1.3231340646743774,-0.2684752643108368
1747978049937726000,9.950725830078126,0.8973610401153564,-2.581821918487549,-0.17760907113552094
1747978049955994400,9.968994384765624,0.5972734689712524,-3.087312936782837,1.2365440130233765
1747978049974261800,9.98726171875,0.2632829248905182,-2.996141195297241,1.5838208198547363
1747978049992525800,10.00552587890625,-0.027947084978222847,-2.741410493850708,1.1661417484283447
1747978050010791000,10.023791015625,-0.08918632566928864,-2.23897385597229,0.48716503381729126
1747978050029055500,10.042055419921875,-0.1944078654050827,-0.7958046793937683,-0.6925684809684753
1747978050047320300,10.0603203125,-0.24205535650253296,1.0309878587722778,-1.9961549043655396
1747978050065585400,10.07858544921875,-0.5288565754890442,1.1328495740890503,-2.3409883975982666
1747978050083849000,10.096848876953125,-0.9894489645957947,-0.31520646810531616,-2.4474315643310547
1747978050102116600,10.11511669921875,-1.3014483451843262,-1.4016302824020386,-2.538145065307617
1747978050120381200,10.133381103515624,-1.4188872575759888,-1.8327484130859375,-2.6780333518981934
1747978050138641000,10.151640869140625,-1.4497359991073608,-1.673770785331726,-2.8316657543182373
1747978050156910300,10.169910400390625,-1.4804319143295288,-1.3941471576690674,-2.9353601932525635
1747978050175175400,10.188175537109375,-1.5552629232406616,-1.345583438873291,-2.973386526107788
1747978050193436000,10.206435791015625,-1.9378172159194946,-0.9314168095588684,-3.517056703567505
1747978050211704300,10.224704345703126,-1.6100881099700928,4.011704921722412,-3.794084072113037
1747978050229971700,10.2429716796875,-2.1812469959259033,5.328883171081543,0.0757472887635231
1747978050248235500,10.261235595703125,-3.927710771560669,4.194047927856445,-0.6252205967903137
1747978050266500600,10.27950048828125,-3.587306261062622,0.956156849861145,-0.5262604355812073
1747978050284760600,10.297760498046875,-2.47094988822937,-1.9799669981002808,0.004123340360820293
1747978050303029200,10.316029296875,-1.300837516784668,-3.498425245285034,-0.11362093687057495
1747978050321296600,10.334296630859376,0.22113321721553802,-3.9452731609344482,-0.23426681756973267
1747978050339560400,10.352560546875,1.403004765510559,-3.7696495056152344,-0.12660181522369385
1747978050357826300,10.370826416015625,2.10809588432312,-3.1752774715423584,0.1160643994808197
1747978050376089900,10.38908984375,2.4278838634490967,-2.1061105728149414,0.20204368233680725
1747978050394355700,10.407355712890626,2.282956123352051,-0.8758280277252197,0.20402899384498596
1747978050412620500,10.42562060546875,1.7837265729904175,0.19807305932044983,0.22098049521446228
1747978050430884600,10.443884521484375,1.1701123714447021,0.9569203853607178,0.26313021779060364
1747978050449151700,10.46215185546875,0.5899431109428406,1.7177530527114868,0.7142542004585266
1747978050467411000,10.480410888671875,0.20952677726745605,1.8547395467758179,1.8115209341049194
1747978050485680400,10.498680419921875,-0.2616030275821686,1.7290540933609009,1.3381003141403198
1747978050503945700,10.51694580078125,-0.4352414906024933,1.6168075799942017,-0.02733621932566166
1747978050522197500,10.535197509765625,-0.47311514616012573,0.11362093687057495,-0.6007859706878662
1747978050540477000,10.553476806640624,-0.6415612101554871,-4.517501354217529,1.9029979705810547
1747978050558734800,10.57173486328125,-1.2060006856918335,-4.379140377044678,2.1349740028381348
1747978050577002200,10.590002197265624,1.7614299058914185,-13.432315826416016,-2.749657154083252
1747978050595269000,10.60826904296875,4.042248249053955,1.7270687818527222,-2.3206770420074463
1747978050613535000,10.626534912109374,3.5433237552642822,9.726960182189941,-1.9408715963363647
1747978050631799300,10.64479931640625,2.7085764408111572,10.140515327453613,-0.6204863786697388
1747978050650065000,10.66306494140625,2.202322006225586,5.4673967361450195,2.1449005603790283
1747978050668329200,10.6813291015625,2.1371121406555176,0.5994115471839905,4.227340221405029
1747978050686594800,10.6995947265625,2.0083723068237305,-2.1036672592163086,4.847063064575195
1747978050704857900,10.71785791015625,1.7948747873306274,-3.66228985786438,5.187467575073242
1747978050723126000,10.7361259765625,3.207195281982422,1.4504995346069336,8.615490913391113
1747978050741389600,10.7543896484375,3.020576000213623,9.11380386352539,5.678450584411621
1747978050759655000,10.772655029296875,0.7764097452163696,2.286621332168579,-0.8150469660758972
1747978050777916400,10.79091650390625,0.11972958594560623,-3.77423095703125,-0.2629774808883667
1747978050796180000,10.809179931640625,0.3119994103908539,-4.106389045715332,1.024726390838623
1747978050814444000,10.827444091796876,0.4075998365879059,-3.070361375808716,1.197601318359375
1747978050832715800,10.8457158203125,0.33887749910354614,-2.2482895851135254,0.9896016716957092
1747978050850979000,10.86397900390625,0.30375275015830994,-1.9497292041778564,0.5363397002220154
1747978050869245000,10.882244873046876,0.19914206862449646,-1.197295904159546,-0.1765400618314743
1747978050887508700,10.9005087890625,-0.04948008432984352,0.3219259977340698,-1.1757628917694092
1747978050905774800,10.91877490234375,-0.4836525619029999,0.5929974317550659,-1.501812219619751
1747978050924037600,10.93703759765625,-1.1110111474990845,-0.43768495321273804,-1.8515325784683228
1747978050942305800,10.955305908203124,-1.5984816551208496,-1.0503827333450317,-2.4359779357910156
1747978050960569300,10.9735693359375,-1.8139643669128418,-0.8608618378639221,-3.0353894233703613
1747978050978833400,10.99183349609375,-1.9521726369857788,-0.5966626405715942,-3.2817208766937256
1747978050997088300,11.010088134765626,-2.0783162117004395,-0.5627595782279968,-3.1781792640686035
1747978051015364000,11.028364013671874,-2.2232439517974854,-0.6837109327316284,-3.084563970565796
1747978051033631000,11.046630859375,-1.795027494430542,1.2759448289871216,-3.1189253330230713
1747978051051895300,11.064895263671875,0.07788532227277756,6.277556896209717,-1.066265344619751
1747978051070159000,11.0831591796875,-1.348484992980957,5.668066024780273,-0.4509712755680084
1747978051088422000,11.101421875,-3.053868055343628,2.5169174671173096,-0.32910364866256714
1747978051106690600,11.119690673828124,-3.5999815464019775,-0.5783366560935974,-0.7195992469787598
1747978051124955400,11.137955322265626,-2.484999895095825,-2.758667469024658,-1.0998629331588745
1747978051143217400,11.156217529296875,-1.0961977243423462,-3.02958607673645,-1.2548699378967285
1747978051161488600,11.174488525390625,-0.1508837193250656,-2.9918651580810547,-1.041372537612915
1747978051179750100,11.192750244140624,0.40194934606552124,-3.4326045513153076,-0.6282749176025391
1747978051198015700,11.211015625,0.8127561807632446,-3.830277919769287,-0.20143280923366547
1747978051216280300,11.2292802734375,1.08718740940094,-3.27713942527771,0.04184427112340927
1747978051234545400,11.24754541015625,1.1016954183578491,-2.414292097091675,0.20876319706439972
1747978051252810500,11.265810546875,0.9592111706733704,-1.672243595123291,0.36651915311813354
1747978051271075000,11.284074951171876,0.7247915863990784,-1.0332785844802856,0.44715335965156555
1747978051289340700,11.302340576171876,0.4291328489780426,0.48945578932762146,0.4772384762763977
1747978051307600600,11.3206005859375,0.005955935921519995,2.9828550815582275,0.24174992740154266
1747978051325869300,11.338869384765625,-0.4105014503002167,3.955963373184204,0.11713340878486633
1747978051344135700,11.3571357421875,-0.8452847599983215,4.256814479827881,0.22143864631652832
1747978051362399000,11.37539892578125,-1.0896308422088623,4.408308982849121,0.5827654600143433
1747978051380665300,11.393665283203125,-0.8258898258209229,3.2175800800323486,1.4873042106628418
1747978051398930400,11.411930419921875,-0.3507893681526184,0.9416487812995911,1.8779524564743042
1747978051417195000,11.430195068359374,1.1438452005386353,-9.438173294067383,-1.0800096988677979
1747978051435461400,11.44846142578125,2.2884538173675537,-11.20937728881836,-2.372753381729126
1747978051453725400,11.466725341796876,5.654168605804443,-2.3377811908721924,-0.7396050691604614
1747978051471989000,11.484989013671875,7.251276016235352,6.0455803871154785,1.5761851072311401
1747978051490257000,11.5032568359375,3.1164817810058594,4.568202972412109,4.581183910369873
1747978051508520000,11.52152001953125,0.40775254368782043,1.5291484594345093,4.289495944976807
1747978051526786600,11.53978662109375,-1.3515393733978271,-0.164170041680336,3.888768196105957
1747978051545049000,11.558049072265625,-2.5554020404815674,0.35750889778137207,4.561789035797119
1747978051563314700,11.576314697265625,-1.8081611394882202,1.892460584640503,4.60882568359375
1747978051581580800,11.594580810546875,0.8839219808578491,4.835151195526123,4.158617973327637
1747978051599843300,11.61284326171875,2.3489296436309814,3.4045047760009766,3.3040173053741455
1747978051618112300,11.6311123046875,1.624596118927002,-2.7481300830841064,0.9526443481445312
1747978051636375000,11.649375,0.3446807265281677,-3.8041632175445557,0.3903428912162781
1747978051654635300,11.66763525390625,-0.10965031385421753,-1.4764612913131714,0.7605272531509399
1747978051672902400,11.68590234375,-0.25671613216400146,-0.6246097087860107,0.6065891981124878
1747978051691173000,11.704173095703124,-0.456163614988327,-0.2719877362251282,0.43279802799224854
1747978051709430500,11.722430419921874,-0.6603453159332275,-0.027947084978222847,0.4732678532600403
1747978051727700000,11.740699951171875,-1.03037691116333,-0.6126978397369385,-0.168751522898674
1747978051745965000,11.758965087890624,-1.4317153692245483,-1.878868818283081,-1.5163202285766602
1747978051764229000,11.77722900390625,-1.3894129991531372,-2.361910581588745,-2.18048357963562
1747978051782495500,11.79549560546875,-1.3990341424942017,-1.7968600988388062,-2.621222734451294
1747978051800760000,11.813760009765625,-1.347110629081726,-1.081842303276062,-2.9778153896331787
1747978051819013600,11.832013671875,-1.0752755403518677,-0.7154759168624878,-3.2343788146972656
1747978051837290200,11.850290283203124,-0.9517280459403992,-0.5778785347938538,-3.2165110111236572
1747978051855538000,11.868537841796876,-1.0273226499557495,-0.6145304441452026,-3.112205743789673
1747978051873820000,11.88681982421875,-1.161560297012329,-0.8431467413902283,-3.048981189727783
1747978051892084700,11.905084716796875,-2.1734585762023926,-0.9054549932479858,-3.7456729412078857
1747978051910349800,11.923349853515624,-2.2878429889678955,2.542726516723633,-3.690389633178711
1747978051928610000,11.941610107421875,-1.1406381130218506,5.705939769744873,-1.361007809638977
1747978051946879000,11.95987890625,-2.2681427001953125,5.608811855316162,-0.15546520054340363
1747978051965145600,11.9781455078125,-3.5859317779541016,2.75026798248291,-0.28817567229270935
1747978051983405600,11.996405517578125,-3.6969563961029053,-1.07771897315979,-0.654542088508606
1747978052001674800,12.0146748046875,-2.3412938117980957,-3.1593949794769287,-0.541532039642334
1747978052019939800,12.03293994140625,-0.5949827432632446,-3.006525993347168,-0.3222314119338989
1747978052038205000,12.051204833984375,0.6433938145637512,-2.725375175476074,-0.15806138515472412
1747978052056470000,12.069469970703125,1.2525792121887207,-2.996141195297241,0.34406983852386475
1747978052074734600,12.087734619140624,1.8402315378189087,-2.640770435333252,0.7515169382095337
1747978052092999700,12.105999755859376,2.417346477508545,-1.8028160333633423,0.9715811610221863
1747978052111264800,12.1242646484375,2.6678011417388916,-0.869719386100769,1.1131491661071777
1747978052129529600,12.142529541015625,2.6503915786743164,-0.13759739696979523,1.246165156364441
1747978052147795000,12.160794921875,2.5532639026641846,0.49525898694992065,1.4723379611968994
1747978052166055000,12.179054931640625,2.428952932357788,0.8736900091171265,1.666593074798584
1747978052184323600,12.197323486328125,2.283719778060913,0.7777841687202454,1.6836973428726196
1747978052202590700,12.2155908203125,1.8413006067276,0.5450445413589478,1.2275336980819702
1747978052220853500,12.233853515625,0.9437867999076843,0.7644978761672974,0.31261029839515686
1747978052239121000,12.252120849609375,0.2535090744495392,0.7220427393913269,-0.304210901260376
1747978052257385000,12.270385009765626,-0.39904773235321045,0.5013676285743713,-0.9332493543624878
1747978052275649800,12.28864990234375,-0.4807509481906891,0.7301366925239563,-5.60468864440918
1747978052293914600,12.30691455078125,-0.21074850857257843,1.957212209701538,-1.0264062881469727
1747978052312179700,12.3251796875,0.43768495321273804,3.888920783996582,0.5926920175552368
1747978052330440700,12.343440673828125,0.6120869517326355,2.488054037094116,0.37491855025291443
1747978052348706000,12.3617060546875,1.2580770254135132,0.04459316283464432,0.11652254313230515
1747978052366974500,12.379974365234375,1.7385225296020508,-1.8808541297912598,1.1998920440673828
1747978052385239300,12.3982392578125,1.236391305923462,-2.5810582637786865,2.7226264476776123
1747978052403504400,12.41650439453125,1.4986051321029663,-0.12767083942890167,6.513808727264404
1747978052421764600,12.4347646484375,2.6253461837768555,6.337421417236328,8.87129020690918
1747978052440033300,12.453033203125,1.7931948900222778,6.962336540222168,4.601953506469727
1747978052458300700,12.47130078125,0.30894508957862854,-1.2356276512145996,0.5958990454673767
1747978052476560400,12.489560302734375,0.7417431473731995,-3.807523012161255,1.655444860458374
1747978052494827000,12.507826904296875,1.0546588897705078,-3.118314266204834,2.814561605453491
1747978052513002800,12.526002685546874,0.5560401082038879,-2.771800994873047,1.863139033317566
1747978052531358200,12.544358154296875,0.3335324227809906,-1.3495540618896484,0.7012733221054077
1747978052549623300,12.562623291015624,0.2050980031490326,-0.21242839097976685,0.058795779943466187
1747978052567890200,12.58089013671875,0.3471241891384125,-0.42012256383895874,-0.566730260848999
1747978052586151700,12.599151611328125,-0.03573561832308769,-0.6343835592269897,-1.4836390018463135
1747978052604411000,12.617410888671875,-0.7024950385093689,-0.31871894001960754,-1.8564194440841675
1747978052622685700,12.635685791015625,-1.2667818069458008,-0.8206974864006042,-2.2800545692443848
1747978052640947200,12.653947265625,-1.6708691120147705,-1.367727279663086,-2.686127185821533
1747978052659214300,12.67221435546875,-1.7637206315994263,-1.1827877759933472,-3.057380437850952
1747978052677464800,12.69046484375,-1.8490891456604004,-0.9410378932952881,-3.3156237602233887
1747978052695757300,12.70875732421875,-1.9485074281692505,-0.9761626720428467,-3.2586605548858643
1747978052714012000,12.727011962890625,-2.2514965534210205,-1.104138970375061,-3.350137710571289
1747978052732277000,12.745277099609375,-2.4078781604766846,1.383151650428772,-4.6660943031311035
1747978052750539300,12.763539306640626,-0.5410739183425903,6.398202419281006,-2.716212272644043
1747978052768806100,12.78180615234375,-1.747685432434082,5.985868453979492,-0.88361656665802
1747978052787069000,12.80006884765625,-3.034167766571045,3.5185837745666504,-0.44394633173942566
1747978052805334000,12.818333984375,-3.5657732486724854,1.5306755304336548,-0.21151208877563477
1747978052823599000,12.83659912109375,-3.0381383895874023,-1.0490083694458008,-0.00015271631127689034
1747978052841863200,12.85486328125,-1.9120081663131714,-3.088229179382324,-0.29565876722335815
1747978052860130000,12.873130126953125,-0.5334380865097046,-3.838219165802002,-0.5091561675071716
1747978052878397700,12.891397705078125,0.5097670555114746,-4.355927467346191,-0.30695977807044983
1747978052896658700,12.90965869140625,1.4773776531219482,-4.505283832550049,0.06582073122262955
1747978052914923800,12.927923828125,2.2088887691497803,-3.459177255630493,0.28267788887023926
1747978052933194800,12.94619482421875,2.599231719970703,-2.037388324737549,0.4005748927593231
1747978052951449900,12.964449951171876,2.579531192779541,-0.9219483733177185,0.5306891798973083
1747978052969718800,12.98271875,2.065640926361084,-0.13561208546161652,0.48655417561531067
1747978052987984000,13.00098388671875,1.1830933094024658,0.4440990388393402,0.6088799238204956
1747978053006248400,13.01924853515625,0.11698069423437119,1.976149082183838,0.9245445728302002
1747978053024509000,13.037509033203126,-0.8052731156349182,3.3521230220794678,0.7105889916419983
1747978053042778600,13.055778564453124,-1.0807733535766602,3.6719110012054443,0.6792821288108826
1747978053061043700,13.074043701171876,-0.9847147464752197,2.9918651580810547,0.9680687189102173
1747978053079308500,13.09230859375,-0.21838432550430298,-7.85313081741333,1.133460521697998
1747978053097573600,13.11057373046875,-0.4769330322742462,-9.520792961120605,0.5158756971359253
1747978053115837200,13.128837158203124,-0.6142250299453735,-7.642535209655762,0.12767083942890167
1747978053134103600,13.147103515625,1.1647672653198242,-5.31895637512207,-2.90649676322937
1747978053152369700,13.16536962890625,5.480682849884033,5.123785018920898,-1.7683022022247314
1747978053170633500,13.183633544921875,6.218608379364014,8.407490730285645,-0.6798930168151855
1747978053188893700,13.201893798828126,3.844480514526367,6.297104358673096,1.5332717895507812
1747978053207162000,13.220162109375,2.1452059745788574,3.835317373275757,3.6615262031555176
1747978053225425200,13.238425048828125,0.650418758392334,1.1525499820709229,5.661957263946533
1747978053243693300,13.256693359375,-1.3107640743255615,-1.2528846263885498,6.704551696777344
1747978053261958700,13.274958740234375,-1.5613715648651123,-2.077247381210327,5.968611717224121
1747978053280223500,13.293223388671874,1.7563903331756592,6.933167934417725,5.701510906219482
1747978053298488300,13.31148828125,2.6424503326416016,8.529511451721191,3.08166241645813
1747978053316753200,13.329753173828125,1.415680170059204,-2.286468505859375,0.07177666574716568
1747978053335018500,13.3480185546875,0.6948592066764832,-4.373642444610596,1.093143343925476
1747978053353283600,13.36628369140625,0.48685958981513977,-2.478433132171631,1.8498526811599731
1747978053371548400,13.38454833984375,0.25854870676994324,-1.771356463432312,1.4237741231918335
1747978053389813500,13.4028134765625,0.16111570596694946,-1.2945761680603027,0.318566232919693
1747978053408077800,13.421077880859375,-0.006719517521560192,-1.074512004852295,-0.7744244337081909
1747978053426343200,13.43934326171875,-0.47448956966400146,-0.4349360466003418,-1.6618589162826538
1747978053444608300,13.457608154296874,-1.1702650785446167,0.3049744665622711,-2.0618228912353516
1747978053462871800,13.475871826171876,-1.7686076164245605,-0.5771149396896362,-2.495842695236206
1747978053481139200,13.49413916015625,-1.8975001573562622,-1.2232576608657837,-2.866637945175171
1747978053499398700,13.512398681640626,-2.02929425239563,-1.564884066581726,-3.1983377933502197
1747978053517668400,13.53066845703125,-2.168571710586548,-1.8200730085372925,-3.2041409015655518
1747978053535928300,13.54892822265625,-2.3681719303131104,-2.1699459552764893,-3.380833625793457
1747978053554197000,13.567197021484375,-2.3657283782958984,0.166460782289505,-5.225341320037842
1747978053572460500,13.58546044921875,-1.027169942855835,5.66317892074585,-3.8954877853393555
1747978053590730800,13.603730712890625,-1.0844385623931885,6.810689449310303,-2.004859685897827
1747978053608993000,13.621992919921874,-0.9656252264976501,3.874871015548706,-0.7389942407608032
1747978053627257900,13.6402578125,-2.995988607406616,1.5920675992965698,-0.24572055041790009
1747978053645523000,13.65852294921875,-4.618905067443848,0.2561052441596985,-0.6890559792518616
1747978053663788000,13.6767880859375,-2.8596129417419434,-2.2550089359283447,-0.7299839854240417
1747978053682052400,13.69505224609375,-0.875064492225647,-4.576449871063232,-0.5148066878318787
1747978053700317700,13.713317626953126,0.41004329919815063,-5.231297016143799,-0.45036038756370544
1747978053718585000,13.731585205078124,1.059698462486267,-5.37103271484375,-0.1134682223200798
1747978053736846600,13.7498466796875,1.4387403726577759,-4.443281173706055,0.17867808043956757
1747978053755113700,13.76811376953125,1.5822937488555908,-2.7872254848480225,0.20326541364192963
1747978053773377800,13.786377685546874,1.4732542037963867,-1.0358747243881226,0.27809640765190125
1747978053791637500,13.804637451171875,1.2690725326538086,0.11316278576850891,0.38011088967323303
1747978053809906400,13.822906494140625,1.2904528379440308,0.9940304756164551,1.338711142539978
1747978053828173800,13.841173828125,1.1249083280563354,2.4071145057678223,1.6194037199020386
1747978053846432500,13.8594326171875,0.24526239931583405,4.488332271575928,0.6467535495758057
1747978053864702700,13.87770263671875,-0.4651738703250885,4.829348087310791,0.26481008529663086
1747978053882967600,13.895967529296875,-0.9932668805122375,4.845993995666504,0.40225476026535034
1747978053901232400,13.914232421875,-0.6640105247497559,-1.687362551689148,1.2182179689407349
1747978053919497000,13.9324970703125,0.11224649101495743,-11.54489517211914,-0.2474004179239273
1747978053937762000,13.950761962890626,1.8952094316482544,-16.002531051635742,-1.652695894241333
1747978053956027400,13.96902734375,4.398077011108398,-5.661957263946533,-0.18310685455799103
1747978053974292000,13.9872919921875,5.112636566162109,6.806565761566162,0.9723447561264038
1747978053992557000,14.00555712890625,3.726583480834961,9.276599884033203,1.2179125547409058
1747978054010812700,14.023812744140624,2.5915958881378174,8.53287124633789,2.568077564239502
1747978054029087200,14.042087158203126,2.174069404602051,4.906164169311523,5.545740127563477
1747978054047347200,14.06034716796875,0.4167627990245819,1.988824486732483,6.419888496398926
1747978054065615600,14.07861572265625,-1.2553280591964722,-1.5225815773010254,5.8216986656188965
1747978054083882000,14.096882080078124,0.12247848510742188,-1.466840147972107,5.287343978881836
1747978054102148000,14.115148193359374,3.338836669921875,8.783631324768066,6.022825717926025
1747978054120407000,14.133406982421874,1.8813122510910034,2.9962940216064453,-0.2713768780231476
1747978054138672000,14.151672119140626,0.5864306092262268,-2.532036542892456,-0.8394815921783447
1747978054156941600,14.169941650390625,0.29733866453170776,-2.5218043327331543,1.2231049537658691
1747978054175207000,14.18820703125,0.04657847434282303,-2.3432791233062744,1.5989397764205933
1747978054193472000,14.206471923828126,-0.16814066469669342,-2.434603452682495,1.0671815872192383
1747978054211735800,14.22473583984375,-0.17119498550891876,-2.3159427642822266,0.7461718916893005
1747978054230000000,14.243000244140624,-0.41340306401252747,-0.8100073337554932,-0.483957976102829
1747978054248266000,14.261265869140624,-0.6614143252372742,1.0677924156188965,-2.107943296432495
1747978054266530300,14.2795302734375,-1.1087204217910767,0.42668938636779785,-2.3831379413604736
1747978054284795400,14.29779541015625,-1.7392860651016235,-1.260367751121521,-2.338697671890259
1747978054303060200,14.316060302734375,-2.1562016010284424,-1.858099341392517,-2.5421156883239746
1747978054321325800,14.334325927734374,-2.2562308311462402,-1.8706220388412476,-2.891988754272461
1747978054339590400,14.35259033203125,-2.367255449295044,-2.0392208099365234,-3.0671544075012207
1747978054357854500,14.3708544921875,-2.5579981803894043,-2.970026731491089,-3.318983554840088
1747978054376121300,14.389121337890625,-1.4605787992477417,0.10781771689653397,-5.306281089782715
1747978054394386200,14.40738623046875,-0.7867944240570068,7.2706708908081055,-3.4104607105255127
1747978054412650000,14.42564990234375,-2.087631940841675,6.600246429443359,-0.4017966091632843
1747978054430915600,14.44391552734375,-2.764165163040161,2.79119610786438,0.47769662737846375
1747978054449180200,14.46218017578125,-3.7024543285369873,-0.07162395119667053,-0.4732678532600403
1747978054467441400,14.48044140625,-3.743840456008911,-2.1279489994049072,-1.239292860031128
1747978054485709800,14.498709716796874,-2.4494168758392334,-3.25514817237854,-1.3921618461608887
1747978054503975400,14.516975341796876,-0.8550586104393005,-4.2919392585754395,-0.9790642857551575
1747978054522239700,14.53523974609375,0.3295617997646332,-5.121646881103516,-0.4688390791416168
1747978054540505300,14.55350537109375,1.286940336227417,-5.2858171463012695,0.042760565876960754
1747978054558764800,14.571764892578125,1.8446602821350098,-4.249636650085449,0.532369077205658
1747978054577018400,14.590018310546874,1.9104810953140259,-2.799748182296753,0.8764389157295227
1747978054595301000,14.608301025390626,1.7056884765625,-1.3576480150222778,1.0723739862442017
1747978054613565200,14.626565185546875,1.4278974533081055,-0.4170682430267334,0.8984300494194031
1747978054631830800,14.644830810546875,1.2626584768295288,1.3607022762298584,1.1917980909347534
1747978054650094000,14.663093994140626,0.9984592199325562,4.136474132537842,1.3574953079223633
1747978054668359700,14.681359619140625,0.1537853181362152,6.272974967956543,0.6716463565826416
1747978054686625000,14.699625,-0.7993171811103821,6.600399017333984,0.6543893814086914
1747978054704891000,14.717890869140625,-1.2770137786865234,4.8026227951049805,2.0140228271484375
1747978054723153700,14.736153564453126,-0.9286679029464722,-6.019465923309326,1.6213890314102173
1747978054741414700,14.75441455078125,-0.9301950335502625,-9.002016067504883,0.13026700913906097
1747978054759684600,14.7726845703125,0.8196284174919128,-8.505229949951172,-1.3135130405426025
1747978054777949000,14.790948974609375,4.522387981414795,-1.240820050239563,-1.01617431640625
1747978054796215000,14.809215087890625,5.494732856750488,4.542394161224365,-0.31841349601745605
1747978054814478800,14.827478759765626,4.760014533996582,5.451056003570557,1.4007140398025513
1747978054832744700,14.84574462890625,4.021326065063477,4.563468933105469,3.62609601020813
1747978054851009000,14.864009033203125,2.208430528640747,2.9520063400268555,5.170210838317871
1747978054869274600,14.882274658203125,-0.1843285858631134,0.46639561653137207,5.832846641540527
1747978054887539200,14.900539306640624,-1.5448782444000244,-1.5383113622665405,5.141347408294678
1747978054905799700,14.918799560546875,0.7325801253318787,4.588972568511963,5.654626846313477
1747978054924067600,14.937067626953125,2.2182044982910156,11.059867858886719,3.3229541778564453
1747978054942335700,14.955335693359375,0.7267768979072571,2.551736831665039,-1.8339701890945435
1747978054960598800,14.973598876953124,0.2096794992685318,-2.291508197784424,-0.9789115786552429
1747978054978863000,14.991863037109376,0.4720461070537567,-2.596329927444458,1.2318097352981567
1747978054997130000,15.0101298828125,0.2444988191127777,-2.8901562690734863,1.8669569492340088
1747978055015398000,15.02839794921875,0.025045474991202354,-3.085175037384033,1.3451253175735474
1747978055033658600,15.04665869140625,-0.06429356336593628,-2.3347270488739014,0.7472409009933472
1747978055051923700,15.064923828125,-0.24098633229732513,0.19135354459285736,0.11194105446338654
1747978055070188500,15.0831884765625,-0.8866708874702454,1.4775303602218628,-1.9952386617660522
1747978055088447000,15.101447021484375,-1.5499178171157837,-0.15806138515472412,-2.5592198371887207
1747978055106718500,15.119718505859375,-2.027156352996826,-1.9671387672424316,-2.34480619430542
1747978055124983800,15.13798388671875,-2.1865921020507812,-2.3799309730529785,-2.4022276401519775
1747978055143248600,15.15624853515625,-2.3098342418670654,-2.5257749557495117,-2.5303566455841064
1747978055161508900,15.1745087890625,-2.525927782058716,-2.9214630126953125,-2.6989552974700928
1747978055179778300,15.1927783203125,-2.8771753311157227,-3.9544360637664795,-3.2641584873199463
1747978055198043600,15.211043701171874,-1.8055649995803833,-0.40591996908187866,-6.819852352142334
1747978055216308200,15.22930810546875,-1.1630873680114746,7.316638469696045,-4.072333335876465
1747978055234573300,15.2475732421875,-2.1335995197296143,6.416375637054443,0.29565876722335815
1747978055252837000,15.265837158203125,-2.691624879837036,3.7502543926239014,0.4576907753944397
1747978055271104300,15.284104248046875,-3.7618608474731445,0.9944885969161987,0.2742784917354584
1747978055289368000,15.3023681640625,-3.6219727993011475,-1.7851009368896484,0.03084869496524334
1747978055307633400,15.32063330078125,-2.291966438293457,-3.659388303756714,-0.8023715019226074
1747978055325898000,15.33889794921875,-0.660803496837616,-5.031239032745361,-0.8959866166114807
1747978055344163000,15.3571630859375,0.8181012868881226,-5.913175582885742,-0.26740625500679016
1747978055362423800,15.375423828125,1.8585574626922607,-5.477170467376709,0.3527746796607971
1747978055380693200,15.393693359375,2.319760799407959,-3.7279579639434814,0.44974952936172485
1747978055398957800,15.411957763671875,2.202016592025757,-1.7092009782791138,0.18707747757434845
1747978055417218600,15.430218505859376,1.6774359941482544,-0.13148874044418335,-0.08765916526317596
1747978055435486500,15.448486572265624,1.3390166759490967,1.3643674850463867,0.2076941877603531
1747978055453754000,15.466754150390624,0.873842716217041,2.584876298904419,0.6076582074165344
1747978055472018400,15.485018310546875,-0.002138028386980295,3.829972267150879,0.39614611864089966
1747978055490282000,15.503281982421875,-1.0261008739471436,4.4063239097595215,0.39614611864089966
1747978055508547600,15.521547607421875,-1.3072515726089478,1.2625057697296143,2.769510269165039
1747978055526813200,15.539813232421874,-0.7583891749382019,-8.717963218688965,3.642894983291626
1747978055545077200,15.5580771484375,-1.5012013912200928,-11.448683738708496,0.4619668424129486
1747978055572476000,15.585475830078124,-0.2811507284641266,-7.557319164276123,-3.8545596599578857
1747978055590739500,15.603739501953125,2.878702402114868,3.509573459625244,-1.5946637392044067
1747978055609005000,15.622005126953125,4.961752891540527,10.495275497436523,0.5389358401298523
1747978055627257300,15.64025732421875,5.011843681335449,11.515268325805664,0.49556443095207214
1747978055645534700,15.65853466796875,5.5370354652404785,10.10126781463623,0.77472984790802
1747978055663799300,15.67679931640625,5.5761308670043945,2.8568639755249023,3.5993707180023193
1747978055682064100,15.695064208984375,3.045774221420288,-3.628692388534546,5.183802604675293
1747978055700329700,15.713329833984375,0.5783366560935974,-7.513337135314941,5.289940357208252
1747978055718590500,15.731590576171875,0.8266534209251404,-3.860821008682251,7.06862735748291
1747978055736857900,15.74985791015625,3.173750400543213,12.03587818145752,8.356178283691406
1747978055755125800,15.768125732421876,1.3329079151153564,5.722585678100586,-0.7907650470733643
1747978055773389800,15.786389892578125,0.058184914290905,-2.9265027046203613,-1.550681471824646
1747978055791654100,15.804654052734374,0.32100969552993774,-2.95383882522583,0.6640105247497559
1747978055809919000,15.8229189453125,0.23716843128204346,-2.523331642150879,1.240820050239563
1747978055828184000,15.84118408203125,-0.08261952549219131,-2.4633140563964844,0.9191994667053223
1747978055846445000,15.859445068359374,-0.15347988903522491,-2.378556489944458,0.6284276247024536
1747978055864714000,15.8777138671875,-0.27290403842926025,-0.46211954951286316,0.1941024363040924
1747978055882978800,15.895978759765624,-0.6152940392494202,2.3684773445129395,-1.8498526811599731
1747978055901244000,15.914243896484376,-1.1226176023483276,1.3910928964614868,-2.565175771713257
1747978055919509000,15.932509033203125,-1.7304285764694214,-0.7727445363998413,-2.258216142654419
1747978055937773600,15.950773681640625,-2.0983221530914307,-1.5748106241226196,-2.3383922576904297
1747978055956039000,15.969038818359374,-2.1678080558776855,-1.77670156955719,-2.8066203594207764
1747978055974299100,15.987299072265625,-2.282956123352051,-2.068084239959717,-3.1056389808654785
1747978055992567800,16.00556787109375,-2.5305092334747314,-2.3912320137023926,-3.916715145111084
1747978056010834000,16.023833984375,-1.2980886697769165,2.034639358520508,-5.959906578063965
1747978056029099500,16.042099609375,-0.5707008838653564,7.459275722503662,-2.4935519695281982
1747978056047363800,16.06036376953125,-2.2148447036743164,5.367214679718018,0.20402899384498596
1747978056065629000,16.07862890625,-2.886796474456787,1.8248071670532227,0.03176499158143997
1747978056083892000,16.09689208984375,-3.425426959991455,0.18585574626922607,-0.3150537610054016
1747978056102159400,16.115159423828125,-3.579212188720703,-1.0693196058273315,-0.36819902062416077
1747978056120418600,16.13341845703125,-2.7061331272125244,-2.325563907623291,-0.8723155856132507
1747978056138685000,16.151684814453127,-1.1649199724197388,-4.030794143676758,-1.0560332536697388
1747978056156952800,16.169952880859373,0.16752979159355164,-4.976261138916016,-0.8364272117614746
1747978056175218200,16.18821826171875,1.2179125547409058,-4.952742576599121,-0.37888917326927185
1747978056193483500,16.2064833984375,1.8354973793029785,-3.7928624153137207,0.020311269909143448
1747978056211748400,16.224748291015626,1.9624046087265015,-2.1624629497528076,0.40454551577568054
1747978056230013000,16.243012939453124,1.7084373235702515,-0.3462078869342804,0.8278751373291016
1747978056248276700,16.26127685546875,1.4414892196655273,0.7458664774894714,0.7959573864936829
1747978056266544000,16.279544189453127,0.8026769161224365,1.8668042421340942,0.6484334468841553
1747978056284808000,16.297807861328124,-0.00931569468230009,3.6422839164733887,0.3481931984424591
1747978056303072800,16.31607275390625,-0.8816312551498413,4.700455188751221,0.3462078869342804
1747978056321337600,16.334337646484375,-1.395827054977417,4.302171230316162,1.173930287361145
1747978056339602700,16.352602783203125,-0.6279694437980652,-1.9165897369384766,3.5576791763305664
1747978056357866800,16.37086669921875,-1.3154983520507812,-9.353874206542969,1.1861475706100464
1747978056376133400,16.38913330078125,-1.8535178899765015,-7.364896774291992,-0.16264286637306213
1747978056394386400,16.407386474609375,0.15775595605373383,-9.232922554016113,-3.97001314163208
1747978056430927600,16.443927734375,6.070778846740723,6.696915626525879,0.31154128909111023
1747978056449192200,16.462192138671874,5.255426406860352,8.035932540893555,1.2680035829544067
1747978056467461600,16.480461669921876,4.309654235839844,6.862001895904541,2.4950790405273438
1747978056485717200,16.49871728515625,3.1361820697784424,3.5807392597198486,4.83301305770874
1747978056503986400,16.516986328125,0.7023423314094543,0.3260493278503418,6.227313041687012
1747978056531380000,16.5443798828125,-1.2327260971069336,-2.8680124282836914,5.7071614265441895
1747978056549650000,16.56264990234375,2.2321016788482666,6.150802135467529,7.392080307006836
1747978056567914000,16.5809140625,2.7154486179351807,8.803637504577637,2.5923593044281006
1747978056586179800,16.599179931640624,0.7912232279777527,-1.1412489414215088,-1.3515393733978271
1747978056604440300,16.6174404296875,0.37919458746910095,-2.9077186584472656,0.4738787114620209
1747978056622709800,16.635709716796875,0.29474249482154846,-2.8968756198883057,1.26067316532135
1747978056640973800,16.653973876953124,-0.23900102078914642,-3.0856330394744873,1.0186177492141724
1747978056659239400,16.672239501953126,-0.41859540343284607,-2.732553005218506,0.7339546084403992
1747978056677503500,16.69050341796875,-0.45295658707618713,-1.7214182615280151,0.22540926933288574
1747978056695769300,16.708769287109376,-0.6276640295982361,0.8567385077476501,-1.7026340961456299
1747978056714032600,16.72703271484375,-0.893390417098999,1.4483615159988403,-2.590679407119751
1747978056732300000,16.745300048828124,-1.2327260971069336,-0.10048733651638031,-2.4133758544921875
1747978056750563600,16.7635634765625,-1.4633276462554932,-1.2739595174789429,-2.479349374771118
1747978056768831700,16.781831787109375,-1.5661057233810425,-1.653917670249939,-2.8733572959899902
1747978056791649300,16.804649169921873,-1.6575828790664673,-1.8987219333648682,-3.229644536972046
1747978056809918200,16.822918212890624,-1.8209892511367798,-2.15849232673645,-3.4177911281585693
1747978056828192800,16.84119287109375,-3.145803213119507,-1.947438359260559,-4.80628776550293
1747978056846463500,16.85946337890625,-3.177262783050537,2.8606820106506348,-5.825363636016846
1747978056864721000,16.877720947265626,-2.074651002883911,8.086787223815918,-1.849547266960144
1747978056882985500,16.8959853515625,-2.26432466506958,6.393162727355957,-0.22907446324825287
1747978056901250800,16.914250732421873,-3.263547658920288,2.5757133960723877,-0.48319441080093384
1747978056919515400,16.932515380859375,-3.5382843017578125,-1.1829406023025513,-0.5380195379257202
1747978056946914000,16.9599140625,-1.5068517923355103,-4.668385028839111,-0.015271631069481373
1747978056965178000,16.97817822265625,0.13607023656368256,-4.099363803863525,-0.1511891484260559
1747978056983439000,16.996439208984373,1.5832099914550781,-3.9292380809783936,0.06704246252775192
1747978057001708000,17.0147080078125,2.3796255588531494,-4.101807594299316,0.4651738703250885
1747978057019974000,17.032973876953125,2.939178228378296,-3.2922582626342773,0.790154218673706
1747978057038237000,17.05123681640625,3.0838005542755127,-1.8753563165664673,0.9999864101409912
1747978057056503800,17.06950390625,2.758362054824829,-0.48197266459465027,1.2330315113067627
1747978057074767600,17.087767578125,2.0535762310028076,0.5984952449798584,1.246165156364441
1747978057093033700,17.10603369140625,1.2687671184539795,1.161102056503296,0.9724974632263184
1747978057111297300,17.12429736328125,0.34284812211990356,1.8861991167068481,0.5393940210342407
1747978057129562600,17.142562744140626,-0.4893030524253845,2.48515248298645,0.2025018334388733
1747978057147828200,17.160828125,-1.2290608882904053,2.72491717338562,0.03741549700498581
1747978057166092500,17.179092529296874,-1.46424400806427,3.10197377204895,0.14233160018920898
1747978057184356900,17.19735693359375,-1.663996934890747,3.063030958175659,0.3119994103908539
1747978057202622000,17.2156220703125,-1.1905763149261475,-3.6813793182373047,-0.1966986060142517
1747978057220886300,17.23388623046875,0.5827654600143433,-14.427873611450195,-2.0051651000976562
1747978057239150600,17.252150634765623,2.6229026317596436,-8.3438081741333,-0.7577783465385437
1747978057257415700,17.270415771484377,3.6943602561950684,1.97080397605896,0.28237244486808777
1747978057275681800,17.288681884765627,3.171001434326172,5.357593536376953,1.0253373384475708
1747978057293945600,17.306945556640624,2.691624879837036,5.892253398895264,2.213470220565796
1747978057312214000,17.325214111328126,1.9804251194000244,4.949382781982422,3.687182664871216
1747978057330476800,17.343476806640624,0.12171489745378494,3.196810483932495,4.8614182472229
1747978057348737300,17.3617373046875,-1.1687378883361816,1.6180293560028076,5.870872974395752
1747978057367001900,17.380001953125,0.963792622089386,4.55201530456543,7.897265911102295
1747978057385271000,17.39827099609375,2.263866662979126,7.692015171051025,5.219232559204102
1747978057403538000,17.416537841796874,1.1908818483352661,-0.7777841687202454,-0.23151792585849762
1747978057421801500,17.434801513671875,0.8344419002532959,-2.4998133182525635,-0.1388191282749176
1747978057440066600,17.453066650390625,0.5383250117301941,-0.8659014701843262,1.6128369569778442
1747978057458332000,17.471331787109374,0.2669481039047241,-0.6247624158859253,1.9065104722976685
1747978057476584000,17.489583984375,0.060322944074869156,-0.5480988621711731,1.6685783863067627
1747978057494859800,17.50785986328125,0.08521570265293121,-0.8723155856132507,0.31444287300109863
1747978057513127200,17.526127197265627,-0.033139441162347794,-1.3267992734909058,-0.8643743395805359
1747978057531394600,17.54439453125,-0.11927144229412079,-1.8365663290023804,-0.970054030418396
1747978057549655800,17.56265576171875,-0.607200026512146,-0.993114173412323,-1.047023057937622
1747978057567920600,17.580920654296875,-1.6870571374893188,-0.6493497490882874,-1.9546160697937012
1747978057586186000,17.59918603515625,-2.716823101043701,-1.6362025737762451,-2.5531113147735596
1747978057604448000,17.617447998046874,-3.070972204208374,-2.6119070053100586,-2.8480064868927
1747978057622711000,17.6357109375,-3.5329391956329346,-3.734830141067505,-3.0526463985443115
1747978057640979000,17.65397900390625,-3.8198931217193604,-4.38356876373291,-3.690847873687744
1747978057659246800,17.672246826171875,-2.3906211853027344,0.4401284158229828,-5.943260669708252
1747978057677507300,17.69050732421875,-1.7244726419448853,7.28640079498291,-4.423428058624268
1747978057695775500,17.708775390625,-1.9914207458496094,5.6043829917907715,-1.6022995710372925
1747978057714038800,17.727038818359375,-1.4298827648162842,2.719266653060913,-0.707534670829773
1747978057732306200,17.74530615234375,-2.810590982437134,-0.006872233934700489,-0.18707747757434845
1747978057750570800,17.76357080078125,-4.252233028411865,-0.47479501366615295,-1.0209085941314697
1747978057768834000,17.781833984375,-2.344500780105591,-2.2802071571350098,-1.496161699295044
1747978057787101000,17.800100830078126,-0.16569720208644867,-4.922810077667236,-0.8294022679328918
1747978057805365000,17.818364990234375,1.1522445678710938,-6.401867866516113,-0.015577063895761967
1747978057823617000,17.836616943359374,1.920560359954834,-6.018549919128418,0.35521814227104187
1747978057841883400,17.85488330078125,2.36985182762146,-4.086841106414795,0.2926044464111328
1747978057860162300,17.873162353515625,2.308459758758545,-1.8738291263580322,0.23105977475643158
1747978057878420000,17.891419921875,1.866346001625061,0.2742784917354584,0.4271475374698639
1747978057896689400,17.909689453125,1.5612188577651978,1.7695238590240479,1.514487624168396
1747978057914955800,17.927955810546877,1.5680910348892212,2.442697286605835,2.492330312728882
1747978057933219600,17.946219482421874,0.8016079068183899,3.4909422397613525,1.8878790140151978
1747978057951484400,17.964484375,-0.7811439037322998,3.978107213973999,0.9317222237586975
1747978057969750500,17.98275048828125,-1.7719674110412598,3.637091636657715,1.0403034687042236
1747978057988014000,18.00101416015625,-1.5274685621261597,-2.8351783752441406,1.8374826908111572
1747978058006279200,18.019279052734376,-1.4280502796173096,-9.164505958557129,-0.08796459436416626
1747978058024544000,18.0375439453125,-1.4485142230987549,-7.307628154754639,-0.5531384944915771
1747978058042810000,18.05581005859375,0.6637051105499268,-8.798444747924805,-3.6500725746154785
1747978058061074000,18.074073974609377,3.0195069313049316,6.11705207824707,-1.2574660778045654
1747978058079338800,18.0923388671875,3.855170488357544,11.092854499816895,-1.026253581047058
1747978058097603800,18.110603759765624,3.2180380821228027,10.340269088745117,-0.6527095437049866
1747978058115868700,18.12886865234375,3.333338975906372,6.791447162628174,1.0015136003494263
1747978058134129200,18.147129150390626,3.76644229888916,1.6366606950759888,3.265532970428467
1747978058152400000,18.16539990234375,3.5184311866760254,-2.196824073791504,4.414570331573486
1747978058170665000,18.1836650390625,3.054020881652832,-4.6245551109313965,4.603175163269043
1747978058188929300,18.20192919921875,4.017355442047119,-0.06750060617923737,8.503244400024414
1747978058207193300,18.220193359375,3.798818349838257,8.814632415771484,8.284859657287598
1747978058225453300,18.238453369140625,0.8830057382583618,2.6865854263305664,-0.6820310354232788
1747978058243723300,18.25672314453125,-0.04306599870324135,-2.9043588638305664,-1.4075862169265747
1747978058261989400,18.2749892578125,0.6701191663742065,-2.035708427429199,1.3449726104736328
1747978058280253000,18.2932529296875,0.40591996908187866,-2.6170995235443115,2.2069034576416016
1747978058293953000,18.306953125,-0.10965031385421753,-3.1277828216552734,2.0283780097961426
1747978058312215300,18.32521533203125,-0.3637702465057373,-2.8706085681915283,1.29381263256073
1747978058330481200,18.343481201171876,-0.684779942035675,-1.3561208248138428,-0.6826419234275818
1747978058348740600,18.36174072265625,-0.8446739315986633,0.68325275182724,-2.222175121307373
1747978058367010600,18.380010498046875,-1.1184942722320557,1.2131783962249756,-2.264630079269409
1747978058385273600,18.398273681640624,-1.8490891456604004,-0.6998988389968872,-2.244776964187622
1747978058403542000,18.4165419921875,-2.347249746322632,-2.1675026416778564,-2.507449150085449
1747978058421804500,18.434804443359376,-2.4909558296203613,-2.6794075965881348,-2.704758644104004
1747978058440070100,18.453070068359374,-2.5787675380706787,-2.9526171684265137,-2.916881561279297
1747978058458334700,18.471334716796875,-2.6256515979766846,-3.2782082557678223,-3.712533473968506
1747978058476586500,18.48958642578125,-1.3660473823547363,0.7396050691604614,-7.101613998413086
1747978058494863000,18.507863037109374,-0.7802276611328125,7.041290760040283,-4.1917572021484375
1747978058513131000,18.526131103515624,-1.4442381858825684,6.383083820343018,-1.04289972782135
1747978058531397600,18.544397705078126,-1.6765196323394775,2.4413230419158936,-0.10018189996480942
1747978058549660400,18.562660400390627,-3.308140754699707,-0.26908615231513977,-0.3680463135242462
1747978058567924000,18.580924072265624,-4.310417652130127,-1.112691044807434,-0.9147707223892212
1747978058586189800,18.59918994140625,-2.5534167289733887,-2.3264803886413574,-0.8936958312988281
1747978058604461800,18.6174619140625,-0.5337435007095337,-3.869067668914795,-0.48517972230911255
1747978058622719700,18.6357197265625,0.7680103182792664,-4.871497631072998,-0.016035212203860283
1747978058640983600,18.653983642578126,1.5968017578125,-5.033682346343994,0.48517972230911255
1747978058659249400,18.67224951171875,2.1821634769439697,-4.045607566833496,0.8491026759147644
1747978058677497300,18.690497314453125,2.4559836387634277,-2.5917484760284424,0.940732479095459
1747978058695779800,18.70877978515625,2.3527474403381348,-1.1832460165023804,0.941343367099762
1747978058714037200,18.727037353515627,1.9611828327178955,0.3274237811565399,1.1016954183578491
1747978058732308700,18.745308837890626,1.3715451955795288,1.4219415187835693,1.3477214574813843
1747978058750574600,18.76357470703125,0.6487388610839844,2.925128221511841,1.2455542087554932
1747978058768838100,18.781838134765625,-0.5633704662322998,3.709937334060669,0.47479501366615295
1747978058787104000,18.80010400390625,-1.653001308441162,4.1221184730529785,0.1895209401845932
1747978058805369000,18.818369140625,-2.093129873275757,4.25238561630249,0.47739118337631226
1747978058823632600,18.836632568359374,-1.5819882154464722,-0.7571674585342407,1.3703234195709229
1747978058841899000,18.85489892578125,0.20311269164085388,-16.349807739257812,-1.4648548364639282
1747978058860149000,18.87314892578125,1.5222761631011963,-15.842331886291504,-1.5954272747039795
1747978058878423300,18.89142333984375,3.3296737670898438,-1.5654948949813843,0.3517056703567505
1747978058896692200,18.909692138671875,3.445432662963867,8.322122573852539,0.7221954464912415
1747978058914958600,18.92795849609375,2.7737863063812256,9.914190292358398,0.9011789560317993
1747978058933222100,18.94622216796875,2.959489345550537,9.105557441711426,1.93766450881958
1747978058951488300,18.96448828125,3.94771671295166,4.729471206665039,5.525428771972656
1747978058969747500,18.98274755859375,2.2409591674804688,1.714240550994873,6.089410305023193
1747978058988017000,19.001016845703123,-0.08827003091573715,-2.0331122875213623,5.285664081573486
1747978059006282800,19.01928271484375,0.1774563491344452,-1.5552629232406616,6.031072616577148
1747978059024547600,19.037547607421875,2.8486173152923584,8.26134204864502,6.82916784286499
1747978059042812200,19.055812255859376,1.6006196737289429,5.23404598236084,0.19578230381011963
1747978059061078000,19.074078125,0.3865249752998352,-1.3492486476898193,-1.3158037662506104
1747978059079341600,19.092341552734375,0.5125159621238708,-1.7904460430145264,0.7101308703422546
1747978059097607400,19.110607421875,0.3367394804954529,-1.8358027935028076,1.614822268486023
1747978059115870700,19.12887060546875,-0.12980885803699493,-2.2208006381988525,1.4115568399429321
1747978059134137600,19.1471376953125,-0.3410155177116394,-2.3744332790374756,0.7677049040794373
1747978059152398600,19.165398681640625,-0.5134322643280029,-1.7821993827819824,0.06627888232469559
1747978059170667300,19.183667236328127,-0.8665123581886292,0.1837177276611328,-1.4621059894561768
1747978059188931600,19.201931640625,-1.196379542350769,0.3462078869342804,-2.2371411323547363
1747978059207197400,19.220197509765626,-1.7136297225952148,-1.1259773969650269,-2.1682662963867188
1747978059225456000,19.2384560546875,-2.017993450164795,-1.7715091705322266,-2.285857677459717
1747978059248283100,19.261283203125,-2.1308507919311523,-1.8490891456604004,-2.777604341506958
1747978059266574300,19.27957421875,-2.171473264694214,-1.9453003406524658,-2.911994695663452
1747978059284814600,19.297814697265625,-2.588236093521118,-2.5497515201568604,-3.419776439666748
1747978059303088000,19.316088134765625,-3.089756488800049,-0.7791585922241211,-6.16332483291626
1747978059321353500,19.334353515625,-1.7997617721557617,5.053535461425781,-4.964654445648193
1747978059339618300,19.352618408203124,-1.5916093587875366,6.119495391845703,-1.5847371816635132
1747978059357883400,19.37088330078125,-1.7136297225952148,3.5544722080230713,-0.33948835730552673
1747978059376149200,19.389149169921875,-2.624582529067993,1.43751859664917,-0.47937649488449097
1747978059394407400,19.407407470703124,-3.7614028453826904,-0.004886921960860491,-0.693026602268219
1747978059412679200,19.42567919921875,-2.878244400024414,-2.0109684467315674,-0.7779368758201599
1747978059430944000,19.443944091796876,-0.7617489695549011,-3.85471248626709,-0.48380526900291443
1747978059449208000,19.4622080078125,0.7380779385566711,-4.746575832366943,-0.044745877385139465
1747978059467472600,19.48047265625,1.5763378143310547,-4.822781085968018,0.36911532282829285
1747978059485737700,19.49873779296875,2.079843521118164,-4.094324111938477,0.7348709106445312
1747978059504003800,19.51700390625,2.246915102005005,-2.755765914916992,0.9219483733177185
1747978059522266400,19.535266357421875,2.051590919494629,-1.4231632947921753,0.9697485566139221
1747978059540533800,19.55353369140625,1.7205020189285278,-0.35552358627319336,1.0070114135742188
1747978059558797300,19.57179736328125,1.4482088088989258,0.6956228017807007,1.0684033632278442
1747978059577051600,19.5900517578125,1.1024590730667114,1.9665279388427734,1.6369661092758179
1747978059595327500,19.608327392578126,0.3269656300544739,2.2200369834899902,1.676366925239563
1747978059613591800,19.626591796875,-0.8475755453109741,2.8480064868927,0.6710354685783386
1747978059631855900,19.64485595703125,-1.5848898887634277,2.958725929260254,-0.035124752670526505
1747978059650124000,19.6631240234375,-2.1371121406555176,3.0691397190093994,-0.11071932315826416
1747978059668387300,19.68138720703125,-2.099543809890747,0.4060726761817932,-0.6272059082984924
1747978059686651400,19.6996513671875,0.718224823474884,-10.655628204345703,-3.2145256996154785
1747978059704916700,19.717916748046875,3.6299140453338623,-3.6618316173553467,-0.3911064863204956
1747978059723182300,19.736182373046876,3.5521814823150635,3.428023099899292,-0.1941024363040924
1747978059741442000,19.754442138671877,3.0025553703308105,4.973206520080566,0.19104810059070587
1747978059759706600,19.77270654296875,2.5747969150543213,4.918992519378662,1.1719449758529663
1747978059777975000,19.79097509765625,2.638174295425415,3.7646098136901855,3.9089267253875732
1747978059796243500,19.809243408203123,2.031737804412842,1.884366512298584,5.7910027503967285
1747978059814506200,19.82750634765625,1.8429805040359497,-0.379652738571167,5.744729518890381
1747978059832770800,19.845770751953125,3.0741794109344482,3.4991888999938965,7.584502696990967
1747978059851036000,19.864035888671875,2.7007880210876465,5.404935836791992,4.882951259613037
1747978059869301800,19.8823017578125,1.7227927446365356,-1.8135062456130981,-0.394618958234787
1747978059887565800,19.90056591796875,0.5085453391075134,-2.520888090133667,0.26145032048225403
1747978059905831700,19.918831787109376,0.1569923609495163,-1.7806721925735474,1.0545061826705933
1747978059924093700,19.93709375,-0.18448130786418915,-0.9279043078422546,1.3820825815200806
1747978059942363100,19.955363037109375,-0.43508878350257874,0.12034045159816742,1.5884023904800415
1747978059960625400,19.97362548828125,-0.46013423800468445,-0.5713117122650146,0.5699372887611389
1747978059978891800,19.991891845703126,-0.588263213634491,-2.149940252304077,-0.6528622508049011
1747978059997154000,20.010154052734375,-0.6360634565353394,-2.638174295425415,-1.0054842233657837
1747978060015416600,20.02841650390625,-0.8240572214126587,-1.3231340646743774,-1.3524556159973145
1747978060033684000,20.04668408203125,-1.4656184911727905,-1.136056661605835,-1.9990564584732056
1747978060051951400,20.064951416015624,-2.041053533554077,-1.6273449659347534,-2.4947736263275146
1747978060070215200,20.083215087890625,-2.172084093093872,-1.8112154006958008,-2.8800768852233887
1747978060088481000,20.10148095703125,-2.2059872150421143,-2.0555615425109863,-3.0579915046691895
1747978060106740000,20.119739990234375,-2.467284679412842,-2.7287349700927734,-3.3841934204101562
1747978060125008400,20.13800830078125,-3.165656328201294,-1.790598750114441,-5.345834255218506
1747978060143275800,20.15627587890625,-2.375807762145996,4.147469520568848,-6.253885746002197
1747978060161540600,20.17454052734375,-1.8797850608825684,6.37941837310791,-2.4524712562561035
1747978060179804400,20.192804443359375,-2.0422751903533936,3.1474831104278564,-0.4612032473087311
1747978060198069200,20.2110693359375,-2.3125832080841064,-0.047189339995384216,-0.36942076683044434
1747978060216334300,20.229334228515626,-3.1954360008239746,-1.518610954284668,-0.8319984674453735
1747978060234600200,20.24760009765625,-2.810896396636963,-2.1029036045074463,-1.0543533563613892
1747978060252863000,20.265863037109376,-1.084285855293274,-3.2009339332580566,-0.4957171380519867
1747978060271127000,20.284126953125,0.3462078869342804,-4.168086051940918,0.14614951610565186
1747978060289383000,20.3023828125,1.2470813989639282,-4.871497631072998,0.7032586336135864
1747978060307662800,20.320662841796874,1.9281961917877197,-4.612032413482666,0.9799805879592896
1747978060325923600,20.338923583984375,2.291355609893799,-3.6633589267730713,1.1568260192871094
1747978060344191700,20.357191650390625,2.2230913639068604,-2.598468065261841,1.212720274925232
1747978060362445600,20.375445556640624,1.930334210395813,-1.4610369205474854,1.122464895248413
1747978060380719600,20.3937197265625,1.5175420045852661,-0.20143280923366547,0.9135489463806152
1747978060398983200,20.411983154296873,0.9896016716957092,1.2276864051818848,1.1099421977996826
1747978060417248300,20.430248291015626,0.522595226764679,2.001499891281128,1.6375770568847656
1747978060435513000,20.44851318359375,-0.1492038369178772,3.260798692703247,1.5364787578582764
1747978060453779200,20.466779296875,-1.0299187898635864,4.804302215576172,0.6026185750961304
1747978060472040400,20.48504052734375,-1.7522670030593872,5.438685894012451,0.3295617997646332
1747978060490310100,20.50331005859375,-2.208583354949951,5.530774116516113,0.42302417755126953
1747978060508573200,20.5215732421875,-1.4208725690841675,-5.7074666023254395,-2.554638385772705
1747978060526837500,20.53983740234375,0.026114489883184433,-11.702803611755371,-3.598912477493286
1747978060545103600,20.558103515625,2.2927300930023193,-8.257676124572754,-0.49266281723976135
1747978060563367400,20.576367431640627,3.7371208667755127,0.48838675022125244,1.056491494178772
1747978060581632300,20.59463232421875,2.7853927612304688,4.247498989105225,1.860695481300354
1747978060599898600,20.612898681640626,1.9721784591674805,5.748547554016113,2.9601001739501953
1747978060618157000,20.631156982421874,1.4836390018463135,6.430273056030273,4.206570625305176
1747978060636421400,20.64942138671875,0.7250970602035522,6.334519863128662,5.541311264038086
1747978060654693000,20.667693115234375,0.8381071090698242,4.991685390472412,5.245347023010254
1747978060672958000,20.6859580078125,2.0919079780578613,5.369963645935059,5.05857515335083
1747978060691221500,20.704221435546874,2.5589144229888916,4.527275085449219,3.6199874877929688
1747978060709486600,20.722486572265623,1.9393444061279297,-0.9083566069602966,0.26969701051712036
1747978060727754500,20.74075439453125,0.7110471725463867,-1.5925257205963135,0.7678576111793518
1747978060750582800,20.763582763671874,0.30711251497268677,-1.7637206315994263,1.6395623683929443
1747978060768845600,20.781845458984375,0.14187344908714294,-1.1423180103302002,2.0480785369873047
1747978060787112400,20.800112548828125,0.11499538272619247,-1.0308351516723633,1.6087136268615723
1747978060805389000,20.81838916015625,0.15500704944133759,-1.5725198984146118,0.33399057388305664
1747978060823640800,20.836640869140624,-0.23548854887485504,-1.8808541297912598,-0.831234872341156
1747978060841906400,20.854906494140625,-0.6052147150039673,-1.1207849979400635,-1.2928962707519531
1747978060860170500,20.87317041015625,-1.0280861854553223,-0.5187773108482361,-1.8057177066802979
1747978060878431200,20.89143115234375,-1.677894115447998,-1.1129964590072632,-2.325105905532837
1747978060896695800,20.90969580078125,-1.8558086156845093,-1.510058879852295,-2.66642689704895
1747978060914964700,20.92796484375,-1.850616216659546,-1.6843081712722778,-2.950631856918335
1747978060933231600,20.946231689453125,-1.9048305749893188,-2.032654047012329,-3.0100386142730713
1747978060951496000,20.964495849609374,-2.5445592403411865,-2.987589120864868,-3.179095506668091
1747978060969760300,20.98276025390625,-3.7278051376342773,-2.593275785446167,-5.106680870056152
1747978060988025300,21.001025390625,-2.5273022651672363,3.9620718955993652,-5.6152262687683105
1747978061006290000,21.0192900390625,-2.476600408554077,7.238447666168213,-2.9297096729278564
1747978061024555500,21.037555419921876,-3.0028607845306396,3.7818667888641357,-0.6950119137763977
1747978061042819800,21.05581982421875,-3.559817314147949,-1.3897184133529663,-0.5028948187828064
1747978061061085200,21.074085205078124,-3.8950295448303223,-3.7789652347564697,-0.6603453159332275
1747978061079349200,21.092349365234377,-2.3692407608032227,-3.4961345195770264,-0.030085112899541855
1747978061097615000,21.110614990234374,-0.5322163701057434,-3.2056679725646973,0.5778785347938538
1747978061115878100,21.128878173828124,0.8600982427597046,-3.705203056335449,0.6401867866516113
1747978061134145000,21.14714501953125,1.740660548210144,-4.38967752456665,0.5609270334243774
1747978061152405000,21.165405029296874,2.392453670501709,-3.9012908935546875,0.6105598211288452
1747978061170673400,21.18367333984375,2.687807083129883,-2.4587326049804688,0.71318519115448
1747978061188940300,21.201940185546874,2.3579399585723877,-0.6026185750961304,0.8628471493721008
1747978061207204400,21.220204345703124,1.6481144428253174,0.6488916277885437,0.9543242454528809
1747978061225470000,21.238469970703125,1.0277807712554932,1.0047205686569214,0.9899071455001831
1747978061243733000,21.25673291015625,0.717613935470581,1.4506522417068481,1.6129896640777588
1747978061261995500,21.27499560546875,0.7521278262138367,2.1563544273376465,2.3988678455352783
1747978061280267000,21.29326708984375,0.2275473028421402,4.132045269012451,2.238668441772461
1747978061298525400,21.311525390625,-1.284038782119751,4.997946739196777,1.2628111839294434
1747978061316796700,21.329796630859374,-2.1168007850646973,4.305225372314453,1.0004445314407349
1747978061335058000,21.348057861328126,-2.8933632373809814,-6.7321929931640625,-3.3371567726135254
1747978061353323500,21.366323486328124,-2.1510093212127686,-9.301645278930664,-3.0894510746002197
1747978061371587800,21.384587890625,0.4599815309047699,-6.134767055511475,1.3379476070404053
1747978061389852200,21.40285205078125,3.302643060684204,3.5529448986053467,0.48945578932762146
1747978061408114000,21.421114013671875,4.0042219161987305,6.907206058502197,-0.4573853611946106
1747978061426382600,21.439382568359374,3.877467155456543,7.287011623382568,-0.5881105065345764
1747978061444648700,21.457648681640624,4.307210922241211,6.586196422576904,0.6356052756309509
1747978061462912800,21.475912841796877,4.612185478210449,3.2530100345611572,4.307363510131836
1747978061481177600,21.494177490234375,2.2062926292419434,0.05115996301174164,5.18364953994751
1747978061499438300,21.512438232421875,1.0616837739944458,-3.548058032989502,4.617682933807373
1747978061517707800,21.530707763671874,2.917645215988159,2.2676844596862793,8.388401985168457
1747978061535972600,21.54897265625,3.096017837524414,8.45971965789795,6.00847053527832
1747978061554223400,21.567223388671874,1.4178181886672974,0.9219483733177185,-2.227978229522705
1747978061572500700,21.585500732421874,0.23518311977386475,-1.8614591360092163,-0.664315938949585
1747978061590766300,21.603766357421875,0.35155296325683594,-2.3402247428894043,1.2481504678726196
1747978061609032000,21.622031982421873,0.01466076634824276,-2.7447702884674072,1.724930763244629
1747978061627296300,21.640296142578126,-0.21044307947158813,-2.8958067893981934,1.444696307182312
1747978061645561900,21.658561767578124,-0.27947086095809937,-2.8069257736206055,0.9034696817398071
1747978061663826700,21.67682666015625,-0.5418374538421631,-1.3365731239318848,-0.47678032517433167
1747978061682089000,21.6950888671875,-0.8098546266555786,0.6032294034957886,-2.320371627807617
1747978061700357000,21.713357177734373,-1.1997393369674683,0.30146199464797974,-2.691624879837036
1747978061718616800,21.731616943359374,-1.5331190824508667,-1.0983357429504395,-2.5170702934265137
1747978061736884700,21.749884765625,-1.6152803897857666,-1.8437440395355225,-2.472935199737549
1747978061759707100,21.77270703125,-1.6954565048217773,-2.1810944080352783,-2.814561605453491
1747978061777972000,21.790971923828124,-1.7505871057510376,-2.1907155513763428,-3.0947959423065186
1747978061796249900,21.809249755859376,-2.1679606437683105,-2.272571325302124,-3.754377841949463
1747978061814513200,21.82751318359375,-3.994753360748291,-1.105513334274292,-6.528011322021484
1747978061832777700,21.84577783203125,-3.425732374191284,5.415931224822998,-6.1599650382995605
1747978061851042800,21.864042724609376,-2.258521556854248,5.798943996429443,-0.8544477820396423
1747978061869307600,21.8823076171875,-3.190091133117676,2.23286509513855,-0.5262604355812073
1747978061887572500,21.900572509765624,-3.3403639793395996,-0.5571091175079346,-0.8266534209251404
1747978061905836300,21.918836181640625,-3.04852294921875,-2.2653937339782715,-0.6239988207817078
1747978061924102100,21.93710205078125,-1.8959729671478271,-2.8993191719055176,-0.2142609804868698
1747978061942363400,21.95536328125,-0.054825156927108765,-3.272252321243286,0.2422080636024475
1747978061960631000,21.973631103515626,1.3868168592453003,-3.54866886138916,0.6172793507575989
1747978061978898000,21.99189794921875,2.322204113006592,-3.3009631633758545,0.8286387324333191
1747978061997162000,22.010161865234377,2.7992899417877197,-2.401158571243286,0.9491318464279175
1747978062015422200,22.028422119140625,2.5729644298553467,-1.2231049537658691,1.068861484527588
1747978062033686800,22.046686767578127,2.0117318630218506,-0.16432274878025055,1.1505646705627441
1747978062051956500,22.06495654296875,1.4517213106155396,0.5699372887611389,1.1438452005386353
1747978062070221800,22.083221923828123,0.9040805697441101,1.144914150238037,1.0893254280090332
1747978062088483800,22.10148388671875,0.4990769028663635,1.426675796508789,1.3632985353469849
1747978062106753800,22.11975390625,0.04505131021142006,1.8553504943847656,1.4715744256973267
1747978062125016000,22.13801611328125,-0.8426886200904846,3.0193541049957275,0.6858489513397217
1747978062143281200,22.15628125,-1.8322902917861938,3.523012638092041,-0.04245513305068016
1747978062161546000,22.1745458984375,-2.4274258613586426,3.489567756652832,-0.07360926270484924
1747978062179810800,22.192810791015624,-2.682461977005005,3.5683693885803223,0.15806138515472412
1747978062198075400,22.211075439453126,-2.054034471511841,-6.146984100341797,-1.9566013813018799
1747978062216340700,22.2293408203125,-1.0968085527420044,-11.687990188598633,-3.922213077545166
1747978062234605300,22.247605224609377,0.45524731278419495,-5.067890644073486,-1.8133535385131836
1747978062252869400,22.265869384765626,3.796985626220703,5.153870105743408,1.9643899202346802
1747978062271136300,22.28413623046875,3.3757941722869873,7.637953758239746,2.450791358947754
1747978062289398500,22.3023984375,1.6442965269088745,5.525276184082031,2.1897990703582764
1747978062307664400,22.320664306640627,1.235169529914856,2.8996245861053467,2.1959078311920166
1747978062325930000,22.338929931640624,2.651613235473633,6.1430134773254395,4.974428176879883
1747978062344202000,22.357201904296875,3.5392005443573,5.348125457763672,5.475185394287109
1747978062362461000,22.3754609375,2.9214630126953125,-0.3055853247642517,2.6477954387664795
1747978062380724000,22.393723876953125,2.0696115493774414,-2.436894178390503,2.7423267364501953
1747978062398989600,22.411989501953126,1.1968377828598022,-2.447736978530884,2.637563467025757
1747978062417254100,22.430254150390624,0.4593706727027893,-2.258826971054077,1.710117220878601
1747978062435519200,22.448519287109374,0.050854530185461044,-0.9810495972633362,1.5193746089935303
1747978062453784000,22.4667841796875,0.08200865983963013,-0.10903944820165634,1.644449234008789
1747978062472047400,22.48504736328125,0.44745880365371704,-0.9582948684692383,1.0595457553863525
1747978062490315500,22.5033154296875,0.6111706495285034,-2.1569652557373047,0.35582900047302246
1747978062508580000,22.521580078125,0.20143280923366547,-2.338697671890259,-0.561079740524292
1747978062526842400,22.53984228515625,-0.6650795340538025,-0.8090910315513611,-1.6281086206436157
1747978062545105000,22.55810498046875,-1.4969252347946167,-0.8249735236167908,-2.1178698539733887
1747978062563373000,22.576373046875,-1.7035504579544067,-1.9126191139221191,-2.246609687805176
1747978062581638400,22.594638427734374,-1.5236506462097168,-2.6535985469818115,-2.715906858444214
1747978062599903000,22.612903076171875,-1.3457361459732056,-3.184898614883423,-3.280193567276001
1747978062618168000,22.63116796875,-1.6285667419433594,-3.428786516189575,-3.5970799922943115
1747978062636428500,22.649428466796873,-3.218190908432007,-3.6505308151245117,-4.009108543395996
1747978062654698000,22.667697998046876,-4.595692157745361,-0.15332718193531036,-5.4417405128479
1747978062672960000,22.6859599609375,-1.6174184083938599,5.396688938140869,-4.999779224395752
1747978062691230500,22.70423046875,-2.3542747497558594,4.997183322906494,-3.4602460861206055
1747978062709492500,22.722492431640624,-2.0337231159210205,0.6939429044723511,-1.078940749168396
1747978062727757300,22.74075732421875,-1.677894115447998,-1.8816176652908325,-0.4554000496864319
1747978062746022400,22.7590224609375,-2.3437371253967285,-2.0057759284973145,0.04963280260562897
1747978062764287200,22.777287353515625,-1.7565430402755737,-1.8936822414398193,0.5844452977180481
1747978062782538500,22.79553857421875,0.20555615425109863,-3.4849863052368164,0.9618073105812073
1747978062800805000,22.81380517578125,1.4190399646759033,-4.689764976501465,1.181107997894287
1747978062819070500,22.832070556640623,2.1365013122558594,-4.428467750549316,1.2374602556228638
1747978062837349600,22.850349609375,2.4828617572784424,-3.054173469543457,1.0702359676361084
1747978062855611600,22.868611572265625,2.3376286029815674,-1.6374242305755615,0.8045095205307007
1747978062873875500,22.88687548828125,1.7131716012954712,-0.46853363513946533,0.6288857460021973
1747978062892142300,22.905142333984376,0.9775370955467224,0.32559117674827576,0.8151996731758118
1747978062910401300,22.9234013671875,0.49266281723976135,1.252121090888977,1.3448197841644287
1747978062928666000,22.941666015625,0.4011857509613037,2.1902573108673096,2.2006421089172363
1747978062946936300,22.959936279296876,0.14874568581581116,3.6949710845947266,2.109928607940674
1747978062965201000,22.978200927734374,-0.5965099334716797,5.4312028884887695,1.424843192100525
1747978062983465200,22.99646533203125,-1.4285084009170532,5.537646293640137,1.306182622909546
1747978063001730600,23.01473046875,-1.863139033317566,5.006346225738525,1.3984233140945435
1747978063019995600,23.03299560546875,-2.284025192260742,-9.42824649810791,-2.0508272647857666
1747978063038248200,23.051248291015625,-1.6688838005065918,-11.282681465148926,-3.6412150859832764
1747978063056520700,23.069520751953124,1.0343475341796875,-4.567286491394043,0.3214678466320038
