time,seconds_elapsed,z,y,x
1751214622312446200,0.1474462890625,9.634941101074219,1.1515843868255615,1.4185011386871338
1751214622322251300,0.157251220703125,9.627296447753906,1.0522584915161133,1.542176365852356
1751214622332059400,0.167059326171875,9.617188453674316,0.9700614213943481,1.655009150505066
1751214622341877800,0.176877685546875,9.605501174926758,0.9038786292076111,1.757201075553894
1751214622351712800,0.186712646484375,9.59061336517334,0.8510634899139404,1.8617745637893677
1751214622361570300,0.1965703125,9.571788787841797,0.8065021634101868,1.975046992301941
1751214622371455000,0.206455078125,9.551021575927734,0.7661906480789185,2.0883829593658447
1751214622381369900,0.216369873046875,9.530027389526367,0.725033700466156,2.1961984634399414
1751214622391317200,0.226317138671875,9.508652687072754,0.6827567219734192,2.2999472618103027
1751214622401297400,0.23629736328125,9.483488082885742,0.6422926187515259,2.412738084793091
1751214622411309600,0.2463095703125,9.449398040771484,0.6025504469871521,2.552682399749756
1751214622421351700,0.2563515625,9.404346466064453,0.5709633231163025,2.720780849456787
1751214622431421000,0.2664208984375,9.347912788391113,0.556496798992157,2.9115679264068604
1751214622441513000,0.276512939453125,9.278840065002441,0.556638777256012,3.124688148498535
1751214622451623000,0.286622802734375,9.197347640991211,0.5588586330413818,3.356611967086792
1751214622461745700,0.29674560546875,9.106718063354492,0.5577667355537415,3.5954082012176514
1751214622471875300,0.306875244140625,9.00843620300293,0.5476056933403015,3.8364808559417725
1751214622482006300,0.31700634765625,8.898452758789062,0.5169258713722229,4.089097499847412
1751214622492031500,0.327031494140625,8.774943351745605,0.45648518204689026,4.354581356048584
1751214622502025200,0.337025146484375,8.642804145812988,0.36601492762565613,4.619345664978027
1751214622512019200,0.347019287109375,8.497909545898438,0.2563329339027405,4.887762069702148
1751214622522013200,0.35701318359375,8.341565132141113,0.13296449184417725,5.1547064781188965
1751214622532007000,0.3670068359375,8.1745023727417,-0.003619716502726078,5.417369842529297
1751214622542001000,0.3770009765625,7.993277549743652,-0.15840090811252594,5.679155349731445
1751214622551994600,0.38699462890625,7.78724479675293,-0.3468370735645294,5.950538635253906
1751214622561988600,0.396988525390625,7.538486480712891,-0.5840151309967041,6.245040416717529
1751214622571982300,0.406982421875,7.239134788513184,-0.8723353743553162,6.557769298553467
1751214622581976300,0.416976318359375,6.902419567108154,-1.2001487016677856,6.8619704246521
1751214622591970000,0.426969970703125,6.549137592315674,-1.556671380996704,7.131336212158203
1751214622601964000,0.436964111328125,6.183784008026123,-1.942224383354187,7.359278202056885
1751214622611957800,0.446957763671875,5.809481143951416,-2.3392374515533447,7.5464091300964355
1751214622621951700,0.45695166015625,5.441568374633789,-2.7255823612213135,7.689662933349609
1751214622631945500,0.466945556640625,5.094968318939209,-3.0813920497894287,7.792092800140381
1751214622641939500,0.476939453125,4.775685787200928,-3.404061794281006,7.859743118286133
1751214622651933200,0.48693310546875,4.481999397277832,-3.7027173042297363,7.8975911140441895
1751214622661927200,0.49692724609375,4.206798076629639,-3.993267297744751,7.907405853271484
1751214622671921000,0.5069208984375,3.94136118888855,-4.2804083824157715,7.893932342529297
1751214622681915000,0.516914794921875,3.6974985599517822,-4.557424545288086,7.8567657470703125
1751214622691908600,0.52690869140625,3.485480785369873,-4.820953369140625,7.796166896820068
1751214622701902600,0.536902587890625,3.309252977371216,-5.068717956542969,7.715396404266357
1751214622711896300,0.546896240234375,3.1641812324523926,-5.301302433013916,7.619352340698242
1751214622721890300,0.556890380859375,3.045973300933838,-5.519710540771484,7.511672496795654
1751214622731884000,0.566884033203125,2.948420524597168,-5.727048397064209,7.394466400146484
1751214622741877800,0.576877685546875,2.86625075340271,-5.928004264831543,7.267307281494141
1751214622751871700,0.586871826171875,2.802422046661377,-6.125680923461914,7.12691068649292
1751214622761865500,0.596865478515625,2.7594714164733887,-6.318342685699463,6.973825454711914
1751214622771859500,0.606859375,2.738417148590088,-6.502256393432617,6.81117582321167
1751214622781853200,0.616853271484375,2.736740827560425,-6.66652774810791,6.651169300079346
1751214622791847200,0.62684716796875,2.7498650550842285,-6.801413059234619,6.507643222808838
1751214622801841000,0.6368408203125,2.765047550201416,-6.90703821182251,6.388875484466553
1751214622811835000,0.6468349609375,2.777768611907959,-6.997498035430908,6.284059047698975
1751214622821828600,0.65682861328125,2.7726054191589355,-7.078606128692627,6.19486665725708
1751214622831822600,0.666822509765625,2.7413079738616943,-7.153393745422363,6.122466087341309
1751214622841816600,0.676816650390625,2.6165711879730225,-7.2352471351623535,6.080719470977783
1751214622851810600,0.686810546875,2.47452974319458,-7.3163743019104,6.042992115020752
1751214622861804300,0.69680419921875,2.3619346618652344,-7.393904685974121,5.993481159210205
1751214622871798300,0.70679833984375,2.2787747383117676,-7.456197261810303,5.948334217071533
1751214622881792300,0.716792236328125,2.2574210166931152,-7.483465671539307,5.922176361083984
1751214622891786000,0.726785888671875,2.2746365070343018,-7.470673561096191,5.931732654571533
1751214622901780000,0.736780029296875,2.3232154846191406,-7.424561500549316,5.97067403793335
1751214622911774000,0.74677392578125,2.3941078186035156,-7.351948261260986,6.032205104827881
1751214622921767700,0.756767578125,2.412904977798462,-7.2845048904418945,6.10608434677124
1751214622931761700,0.76676171875,2.3682620525360107,-7.247424125671387,6.167378902435303
1751214622941755600,0.776755615234375,2.294398069381714,-7.231655120849609,6.213637828826904
1751214622951749400,0.786749267578125,2.2221896648406982,-7.222273826599121,6.2506818771362305
1751214622961743400,0.796743408203125,2.1580774784088135,-7.207992076873779,6.289509296417236
1751214622971737300,0.8067373046875,2.0944254398345947,-7.183840751647949,6.338470458984375
1751214622981731300,0.8167314453125,2.024610996246338,-7.152804374694824,6.395992755889893
1751214622991725000,0.82672509765625,1.9413570165634155,-7.118661880493164,6.459580421447754
1751214623001719000,0.836718994140625,1.8411773443222046,-7.081473350524902,6.5294084548950195
1751214623011713000,0.846713134765625,1.7227389812469482,-7.039294242858887,6.606882095336914
1751214623021706800,0.856706787109375,1.5923351049423218,-6.99114990234375,6.690192699432373
1751214623031700700,0.86670068359375,1.4582676887512207,-6.935626983642578,6.777973175048828
1751214623051688400,0.8866884765625,1.239189863204956,-6.779760360717773,6.976363658905029
1751214623061682400,0.896682373046875,1.1789171695709229,-6.6719794273376465,7.0897979736328125
1751214623071676400,0.906676513671875,1.143316388130188,-6.548154354095459,7.21005392074585
1751214623081670400,0.91667041015625,1.126328706741333,-6.419525623321533,7.3274455070495605
1751214623091664100,0.9266640625,1.129773497581482,-6.287850379943848,7.440223693847656
1751214623101658000,0.936658203125,1.1509811878204346,-6.163246154785156,7.540558338165283
1751214623111652000,0.946652099609375,1.1817998886108398,-6.054633140563965,7.623329162597656
1751214623121645800,0.956645751953125,1.2104556560516357,-5.97085428237915,7.684665679931641
1751214623131639800,0.966639892578125,1.2295669317245483,-5.920663833618164,7.720381259918213
1751214623141633800,0.9766337890625,1.235708475112915,-5.892852306365967,7.740652084350586
1751214623151627500,0.98662744140625,1.2435365915298462,-5.879389762878418,7.749631881713867
1751214623161621500,0.99662158203125,1.2481166124343872,-5.884095191955566,7.745322227478027
1751214623171615500,1.006615478515625,1.237930178642273,-5.907814025878906,7.728884220123291
1751214623181609500,1.016609375,1.2119747400283813,-5.947963714599609,7.702157974243164
1751214623191603200,1.026603271484375,1.1850248575210571,-5.997926712036133,7.667527198791504
1751214623201597200,1.03659716796875,1.1734039783477783,-6.051301002502441,7.62727165222168
1751214623211591200,1.046591064453125,1.1765340566635132,-6.108737945556641,7.580862998962402
1751214623221585000,1.0565849609375,1.1884552240371704,-6.173110008239746,7.5266642570495605
1751214623231579000,1.066578857421875,1.2057422399520874,-6.2481536865234375,7.461711883544922
1751214623241572900,1.07657275390625,1.2235047817230225,-6.337099075317383,7.383399486541748
1751214623251566600,1.086566650390625,1.237382411956787,-6.445607662200928,7.286522388458252
1751214623261560600,1.096560546875,1.2366338968276978,-6.574210166931152,7.170835018157959
1751214623271554600,1.106554443359375,1.2121191024780273,-6.716521739959717,7.0419793128967285
1751214623281548300,1.11654833984375,1.1640243530273438,-6.864418029785156,6.906170845031738
1751214623291542300,1.126542236328125,1.104316234588623,-7.013199806213379,6.765049457550049
1751214623301536300,1.136536376953125,1.0322129726409912,-7.182516574859619,6.596693515777588
1751214623311530200,1.1465302734375,0.9505625367164612,-7.38618278503418,6.380527496337891
1751214623321524000,1.15652392578125,0.8645417094230652,-7.624764919281006,6.106220245361328
1751214623331518000,1.16651806640625,0.770071804523468,-7.888774394989014,5.774478912353516
1751214623341512000,1.176511962890625,0.6643129587173462,-8.163455963134766,5.3932414054870605
1751214623351505700,1.186505615234375,0.5527176856994629,-8.436923027038574,4.968221664428711
1751214623361499600,1.196499755859375,0.44058483839035034,-8.689884185791016,4.523514270782471
1751214623371493600,1.20649365234375,0.3415123224258423,-8.907210350036621,4.088442802429199
1751214623381487400,1.2164873046875,0.25445565581321716,-9.06335163116455,3.7364819049835205
1751214623391481300,1.2264814453125,0.18732289969921112,-9.151755332946777,3.518617630004883
1751214623401475300,1.236475341796875,0.15727610886096954,-9.19252872467041,3.4121923446655273
1751214623411469300,1.24646923828125,0.1723269373178482,-9.210062026977539,3.363847255706787
1751214623421463000,1.256463134765625,0.23876158893108368,-9.214587211608887,3.347350597381592
1751214623431457000,1.26645703125,0.3433161675930023,-9.209927558898926,3.351083517074585
1751214623441451000,1.276450927734375,0.4646345376968384,-9.199532508850098,3.364980936050415
1751214623451444700,1.28644482421875,0.5908881425857544,-9.189491271972656,3.3726093769073486
1751214623461438700,1.296438720703125,0.7241817712783813,-9.18642807006836,3.3549206256866455
1751214623471432700,1.3064326171875,0.8656488656997681,-9.19049072265625,3.3099751472473145
1751214623481426400,1.316426513671875,1.0007637739181519,-9.199087142944336,3.2474074363708496
1751214623491420400,1.32642041015625,1.1157810688018799,-9.211614608764648,3.1735758781433105
1751214623501414400,1.336414306640625,1.201003909111023,-9.22712516784668,3.0964739322662354
1751214623511408000,1.346408203125,1.2532074451446533,-9.245180130004883,3.0210113525390625
1751214623521402000,1.356402099609375,1.2759050130844116,-9.266620635986328,2.9448583126068115
1751214623531396000,1.36639599609375,1.2804259061813354,-9.29170036315918,2.8627254962921143
1751214623541390000,1.37639013671875,1.2756325006484985,-9.320284843444824,2.7704551219940186
1751214623551383800,1.3863837890625,1.2600513696670532,-9.353093147277832,2.6650142669677734
1751214623561377800,1.396377685546875,1.229718565940857,-9.390427589416504,2.545201063156128
1751214623571371800,1.406371826171875,1.192277431488037,-9.431121826171875,2.408900499343872
1751214623581365500,1.416365478515625,1.1694529056549072,-9.470849990844727,2.2595982551574707
1751214623591359500,1.426359375,1.1732020378112793,-9.504781723022461,2.1102399826049805
1751214623601353500,1.436353515625,1.1933062076568604,-9.532037734985352,1.971461534500122
1751214623611347200,1.44634716796875,1.220078706741333,-9.554238319396973,1.8434571027755737
1751214623621341200,1.456341064453125,1.243131399154663,-9.574220657348633,1.7202659845352173
1751214623631335200,1.466335205078125,1.2524597644805908,-9.594465255737305,1.5962369441986084
1751214623641329200,1.4763291015625,1.2423747777938843,-9.616141319274902,1.4685760736465454
1751214623651323000,1.486322998046875,1.2118332386016846,-9.63888931274414,1.3392748832702637
1751214623661316900,1.49631689453125,1.1620484590530396,-9.662185668945312,1.2092140913009644
1751214623671310800,1.506310791015625,1.0920182466506958,-9.685613632202148,1.080169677734375
1751214623681304600,1.5163046875,1.0013262033462524,-9.708736419677734,0.9529696702957153
1751214623691298600,1.526298583984375,0.8889154195785522,-9.730854034423828,0.8310851454734802
1751214623701292500,1.53629248046875,0.7534047961235046,-9.751019477844238,0.7213674783706665
1751214623711286300,1.546286376953125,0.5849632620811462,-9.768216133117676,0.6404306888580322
1751214623721280300,1.5562802734375,0.39995700120925903,-9.780335426330566,0.5961965918540955
1751214623731274200,1.566274169921875,0.24081066250801086,-9.785375595092773,0.5990208387374878
1751214623741268000,1.57626806640625,0.13541065156459808,-9.784241676330566,0.6485777497291565
1751214623751262000,1.586261962890625,0.07770366966724396,-9.780516624450684,0.7112278342247009
1751214623761256000,1.596255859375,0.0460459366440773,-9.777173042297363,0.7583827376365662
1751214623771250000,1.60625,0.024732183665037155,-9.774078369140625,0.7982246279716492
1751214623781243600,1.61624365234375,0.013557754456996918,-9.770360946655273,0.8427667617797852
1751214623791237600,1.626237548828125,0.015761848539114,-9.76746940612793,0.875602126121521
1751214623801231600,1.636231689453125,0.03539775311946869,-9.765496253967285,0.8967866897583008
1751214623811225300,1.646225341796875,0.07366251945495605,-9.763843536376953,0.9123168587684631
1751214623821219300,1.65621923828125,0.13048160076141357,-9.7633056640625,0.9117138385772705
1751214623831213300,1.66621337890625,0.2001114785671234,-9.76403522491455,0.8910385370254517
1751214623841207000,1.67620703125,0.2767866551876068,-9.765185356140137,0.8572918772697449
1751214623851201000,1.686200927734375,0.3563520908355713,-9.76597785949707,0.8179763555526733
1751214623861195000,1.696195068359375,0.43531084060668945,-9.766098022460938,0.7773160338401794
1751214623871189000,1.70618896484375,0.5140019655227661,-9.765387535095215,0.7371562123298645
1751214623881182700,1.7161826171875,0.5999571084976196,-9.763250350952148,0.6995548009872437
1751214623891176700,1.7261767578125,0.6864000558853149,-9.759818077087402,0.6672265529632568
1751214623901170700,1.736170654296875,0.7752447128295898,-9.754860877990723,0.641924262046814
1751214623911164400,1.746164306640625,0.8670724034309387,-9.748363494873047,0.6228716969490051
1751214623921158400,1.756158447265625,0.9525356292724609,-9.741263389587402,0.6089622974395752
1751214623931152400,1.76615234375,1.0236338376998901,-9.734707832336426,0.5983567237854004
1751214623941146000,1.77614599609375,1.0761042833328247,-9.729559898376465,0.5899603366851807
1751214623951140000,1.78614013671875,1.1093236207962036,-9.72622013092041,0.5834417939186096
1751214623961134000,1.796134033203125,1.1245611906051636,-9.724787712097168,0.5781443119049072
1751214623971128000,1.806128173828125,1.1244455575942993,-9.725050926208496,0.5739336609840393
1751214623981121800,1.816121826171875,1.1129812002182007,-9.72654914855957,0.5708739757537842
1751214623991115800,1.82611572265625,1.0972652435302734,-9.72844409942627,0.5690063834190369
1751214624001109800,1.83610986328125,1.0872950553894043,-9.729802131652832,0.5649183392524719
1751214624011103500,1.846103515625,1.089309811592102,-9.729971885681152,0.5580704212188721
1751214624021097500,1.856097412109375,1.105310082435608,-9.72887897491455,0.5455116629600525
1751214624031091500,1.866091552734375,1.1338101625442505,-9.72674560546875,0.5246726870536804
1751214624041085200,1.876085205078125,1.170624017715454,-9.723713874816895,0.49940580129623413
1751214624051079200,1.8860791015625,1.2117842435836792,-9.719869613647461,0.47550535202026367
1751214624061073200,1.8960732421875,1.2527679204940796,-9.7155179977417,0.4578858017921448
1751214624071067000,1.90606689453125,1.286887764930725,-9.711545944213867,0.4474090337753296
1751214624081060900,1.916060791015625,1.3072142601013184,-9.709153175354004,0.4403686821460724
1751214624091054800,1.926054931640625,1.3045333623886108,-9.709765434265137,0.4347846210002899
1751214624101048800,1.936048828125,1.2829338312149048,-9.712701797485352,0.43347394466400146
1751214624111042600,1.94604248046875,1.2495050430297852,-9.716856002807617,0.437999427318573
1751214624121036500,1.95603662109375,1.2112555503845215,-9.72131633758545,0.4463721513748169
1751214624131030500,1.966030517578125,1.1775728464126587,-9.725149154663086,0.4529702663421631
1751214624141024300,1.976024169921875,1.154742956161499,-9.727763175964355,0.45560547709465027
1751214624151018200,1.986018310546875,1.1435275077819824,-9.729085922241211,0.4556596279144287
1751214624161012200,1.99601220703125,1.1427481174468994,-9.72925853729248,0.45391398668289185
1751214624171006000,2.006005859375,1.1509251594543457,-9.728446006774902,0.45067715644836426
1751214624181000000,2.016,1.1667065620422363,-9.726837158203125,0.4447712004184723
1751214624190994000,2.025993896484375,1.1886506080627441,-9.724596977233887,0.4355788826942444
1751214624200988000,2.03598779296875,1.2126319408416748,-9.722108840942383,0.4248625636100769
1751214624210981600,2.045981689453125,1.2334036827087402,-9.71995735168457,0.41417020559310913
1751214624220975600,2.0559755859375,1.246386170387268,-9.718721389770508,0.4041837751865387
1751214624230969600,2.065969482421875,1.250308871269226,-9.718608856201172,0.3946705758571625
1751214624240963300,2.07596337890625,1.2466797828674316,-9.719399452209473,0.3866119086742401
1751214624250957300,2.085957275390625,1.238020420074463,-9.720741271972656,0.38062623143196106
1751214624260951300,2.095951416015625,1.2269363403320312,-9.722265243530273,0.37760502099990845
1751214624270945000,2.105945068359375,1.2155393362045288,-9.723687171936035,0.37781962752342224
1751214624280939000,2.11593896484375,1.2037488222122192,-9.725022315979004,0.38119086623191833
1751214624290933000,2.12593310546875,1.1910630464553833,-9.72635555267334,0.3869921863079071
1751214624300926700,2.1359267578125,1.1770766973495483,-9.72777271270752,0.39411452412605286
1751214624310920700,2.145920654296875,1.1620450019836426,-9.729254722595215,0.4020548164844513
1751214624320914700,2.155914794921875,1.1464614868164062,-9.730764389038086,0.41015625
1751214624330908700,2.16590869140625,1.1307176351547241,-9.732274055480957,0.41799333691596985
1751214624340902400,2.17590234375,1.1152863502502441,-9.733724594116211,0.4255986213684082
1751214624350896400,2.185896484375,1.1004431247711182,-9.735087394714355,0.4330083429813385
1751214624360890400,2.195890380859375,1.0866241455078125,-9.736309051513672,0.4403817355632782
1751214624370884000,2.205884033203125,1.0746217966079712,-9.73730754852295,0.44767457246780396
1751214624380878000,2.215878173828125,1.065752387046814,-9.73793888092041,0.4550894796848297
1751214624390872000,2.2258720703125,1.0605486631393433,-9.738134384155273,0.4630044996738434
1751214624400865800,2.23586572265625,1.0581669807434082,-9.738037109375,0.47042661905288696
1751214624410859800,2.24585986328125,1.0572048425674438,-9.737855911254883,0.4763038158416748
1751214624420853800,2.255853759765625,1.056106448173523,-9.737754821777344,0.4807760715484619
1751214624430847700,2.26584765625,1.0540025234222412,-9.737862586975098,0.48321571946144104
1751214624440841500,2.275841552734375,1.05107581615448,-9.738174438476562,0.4832965135574341
1751214624450835500,2.28583544921875,1.048075795173645,-9.738615036010742,0.4809367060661316
1751214624460829400,2.295829345703125,1.0456303358078003,-9.739041328430176,0.47762009501457214
1751214624470823200,2.3058232421875,1.0447406768798828,-9.739310264587402,0.4740668833255768
1751214624480817200,2.315817138671875,1.0460320711135864,-9.739343643188477,0.47053292393684387
1751214624490811000,2.325810791015625,1.0496582984924316,-9.739142417907715,0.4665919542312622
1751214624500804900,2.335804931640625,1.0557756423950195,-9.738675117492676,0.4625283181667328
1751214624510798600,2.345798583984375,1.0640190839767456,-9.737982749938965,0.4582115113735199
1751214624520792600,2.35579248046875,1.0764480829238892,-9.736897468566895,0.45219627022743225
1751214624530786300,2.365786376953125,1.0891025066375732,-9.735754013061523,0.4464728534221649
1751214624540780300,2.3757802734375,1.101118564605713,-9.734649658203125,0.44104933738708496
1751214624550774000,2.38577392578125,1.1119940280914307,-9.733626365661621,0.436306357383728
1751214624560768000,2.39576806640625,1.1224340200424194,-9.732600212097168,0.4324589669704437
1751214624570761700,2.40576171875,1.1326054334640503,-9.731596946716309,0.428484171628952
1751214624580755700,2.415755615234375,1.142371654510498,-9.730671882629395,0.42354655265808105
1751214624590749400,2.42574951171875,1.1516746282577515,-9.729818344116211,0.41792091727256775
1751214624600743400,2.435743408203125,1.1610815525054932,-9.728946685791016,0.4121618866920471
1751214624610737200,2.445737060546875,1.1702625751495361,-9.728116989135742,0.405728816986084
1751214624620731100,2.455731201171875,1.178422451019287,-9.727438926696777,0.39829814434051514
1751214624630724900,2.465724853515625,1.1859409809112549,-9.726844787597656,0.39040476083755493
1751214624640718800,2.47571875,1.193312168121338,-9.726215362548828,0.3835613429546356
1751214624650712600,2.485712646484375,1.2014557123184204,-9.725439071655273,0.37778860330581665
1751214624660706300,2.495706298828125,1.2094918489456177,-9.724658012390137,0.37222012877464294
1751214624670700300,2.5057001953125,1.2171647548675537,-9.723877906799316,0.3675598204135895
1751214624680694000,2.515694091796875,1.224371075630188,-9.723074913024902,0.36486053466796875
1751214624690688000,2.52568798828125,1.231191635131836,-9.722278594970703,0.36310335993766785
1751214624700681700,2.535681640625,1.2381105422973633,-9.721461296081543,0.3614709675312042
1751214624710675700,2.54567578125,1.2460432052612305,-9.720498085021973,0.360120564699173
1751214624720669400,2.55566943359375,1.2552947998046875,-9.719334602355957,0.3593706786632538
1751214624730663400,2.565663330078125,1.265694260597229,-9.718006134033203,0.3588455617427826
1751214624740657400,2.575657470703125,1.2760756015777588,-9.71666145324707,0.3584911823272705
1751214624750651100,2.585651123046875,1.28500497341156,-9.715462684631348,0.3590972125530243
1751214624760645000,2.59564501953125,1.2927618026733398,-9.714357376098633,0.36111730337142944
1751214624770639000,2.60563916015625,1.2990061044692993,-9.713406562805176,0.3642817735671997
1751214624780632800,2.6156328125,1.3034557104110718,-9.712685585021973,0.36761754751205444
1751214624790626800,2.625626708984375,1.3067835569381714,-9.712117195129395,0.37076303362846375
1751214624800620800,2.635620849609375,1.3091617822647095,-9.711690902709961,0.373551607131958
1751214624810614800,2.64561474609375,1.3096293210983276,-9.711503982543945,0.37674811482429504
1751214624820608500,2.6556083984375,1.3074928522109985,-9.711653709411621,0.38031503558158875
1751214624830602500,2.6656025390625,1.304787516593933,-9.7118501663208,0.3845386207103729
1751214624840596500,2.675596435546875,1.3031065464019775,-9.711891174316406,0.3892008364200592
1751214624850590200,2.685590087890625,1.303575038909912,-9.711652755737305,0.3935314118862152
1751214624860584200,2.695584228515625,1.30655038356781,-9.71116828918457,0.3956208825111389
1751214624870578200,2.705578125,1.3133273124694824,-9.710341453552246,0.39348867535591125
1751214624880572000,2.715572021484375,1.3212043046951294,-9.70936107635498,0.3912995159626007
1751214624890566000,2.72556591796875,1.329264760017395,-9.708385467529297,0.3882000148296356
1751214624900560000,2.735559814453125,1.3361380100250244,-9.707612991333008,0.3839012086391449
1751214624910553600,2.7455537109375,1.3412280082702637,-9.707091331481934,0.37932369112968445
1751214624920547600,2.755547607421875,1.3458679914474487,-9.706595420837402,0.37557005882263184
1751214624930541600,2.76554150390625,1.3504639863967896,-9.706037521362305,0.37346282601356506
1751214624940535600,2.77553564453125,1.3549745082855225,-9.70543098449707,0.37288761138916016
1751214624950529300,2.785529296875,1.3591326475143433,-9.704812049865723,0.3738609850406647
1751214624960523300,2.795523193359375,1.3631006479263306,-9.704145431518555,0.3766915798187256
1751214624970517200,2.805517333984375,1.3674737215042114,-9.703350067138672,0.3813380300998688
1751214624980511000,2.815510986328125,1.3727493286132812,-9.70236587524414,0.3873511254787445
1751214624990505000,2.8255048828125,1.3793052434921265,-9.701172828674316,0.3938997983932495
1751214625000499000,2.8354990234375,1.3863823413848877,-9.699860572814941,0.4013007581233978
1751214625010492700,2.84549267578125,1.392189621925354,-9.698675155639648,0.40974825620651245
1751214625020486700,2.855486572265625,1.3960952758789062,-9.697742462158203,0.4184668958187103
1751214625030480600,2.865480712890625,1.3967161178588867,-9.697278022766113,0.42703598737716675
1751214625040474600,2.875474609375,1.3932826519012451,-9.697359085083008,0.4363340139389038
1751214625050468400,2.88546826171875,1.3858609199523926,-9.697893142700195,0.4479316174983978
1751214625060462300,2.89546240234375,1.3765946626663208,-9.698516845703125,0.4627445936203003
1751214625070456300,2.905456298828125,1.369942545890808,-9.698575973510742,0.48089516162872314
1751214625080450000,2.915449951171875,1.3680697679519653,-9.697752952575684,0.5023741126060486
1751214625090444000,2.925444091796875,1.3719388246536255,-9.695952415466309,0.5260013937950134
1751214625100438000,2.93543798828125,1.3800088167190552,-9.693432807922363,0.5507386922836304
1751214625110431700,2.945431640625,1.3893651962280273,-9.690634727478027,0.5758945941925049
1751214625120425700,2.95542578125,1.3953831195831299,-9.688321113586426,0.5997808575630188
1751214625130419700,2.965419677734375,1.394102692604065,-9.687247276306152,0.6197587847709656
1751214625140413400,2.975413330078125,1.3868216276168823,-9.687294960021973,0.6351616978645325
1751214625150407400,2.985407470703125,1.3797430992126465,-9.687565803527832,0.6463382840156555
1751214625160401400,2.9954013671875,1.3771047592163086,-9.687448501586914,0.6536955237388611
1751214625170395400,3.0053955078125,1.3787972927093506,-9.686967849731445,0.6572457551956177
1751214625180389000,3.01538916015625,1.3806284666061401,-9.686697959899902,0.6573518514633179
1751214625190383000,3.025383056640625,1.3782801628112793,-9.687256813049316,0.6540510654449463
1751214625200377000,3.035377197265625,1.3715765476226807,-9.6885404586792,0.6491110920906067
1751214625210370800,3.045370849609375,1.3651626110076904,-9.689812660217285,0.6436218023300171
1751214625220364800,3.05536474609375,1.3659058809280396,-9.690108299255371,0.63755863904953
1751214625230358800,3.06535888671875,1.3780287504196167,-9.688972473144531,0.6286782026290894
1751214625240352500,3.0753525390625,1.401354193687439,-9.686478614807129,0.6153849363327026
1751214625250346500,3.085346435546875,1.4314111471176147,-9.683023452758789,0.6004263162612915
1751214625260340500,3.095340576171875,1.4635714292526245,-9.67908000946045,0.5862889289855957
1751214625270334500,3.10533447265625,1.4938795566558838,-9.675086975097656,0.5756797194480896
1751214625280328200,3.115328125,1.5202717781066895,-9.671298027038574,0.5702118277549744
1751214625290322200,3.125322265625,1.5454803705215454,-9.667875289916992,0.5604104399681091
1751214625300316200,3.135316162109375,1.569787859916687,-9.664398193359375,0.5527749061584473
1751214625310310000,3.145309814453125,1.5922824144363403,-9.661032676696777,0.547237753868103
1751214625320303900,3.155303955078125,1.6122403144836426,-9.657988548278809,0.54252690076828
1751214625330297900,3.1652978515625,1.627899169921875,-9.655594825744629,0.538329541683197
1751214625340291600,3.17529150390625,1.6389405727386475,-9.653926849365234,0.5347461700439453
1751214625350285600,3.18528564453125,1.6463431119918823,-9.652850151062012,0.531441330909729
1751214625360279600,3.195279541015625,1.6507734060287476,-9.652239799499512,0.5287815928459167
1751214625370273300,3.205273193359375,1.6520782709121704,-9.65211009979248,0.5270617008209229
1751214625380267300,3.215267333984375,1.6495436429977417,-9.652536392211914,0.5271981954574585
1751214625390261200,3.22526123046875,1.6423262357711792,-9.653589248657227,0.5304305553436279
1751214625400255200,3.235255126953125,1.6301894187927246,-9.655295372009277,0.5367848873138428
1751214625410249000,3.2452490234375,1.6136367321014404,-9.65749454498291,0.5471230745315552
1751214625420243000,3.255242919921875,1.5926331281661987,-9.66014575958252,0.5616803765296936
1751214625430237000,3.26523681640625,1.5667147636413574,-9.663299560546875,0.5800349712371826
1751214625440230700,3.275230712890625,1.534900426864624,-9.667092323303223,0.6014872789382935
1751214625450224600,3.285224609375,1.4965561628341675,-9.671549797058105,0.6259702444076538
1751214625460218600,3.295218505859375,1.4521785974502563,-9.676592826843262,0.6520081162452698
1751214625470212400,3.30521240234375,1.4022409915924072,-9.682106971740723,0.678907036781311
1751214625480206300,3.315206298828125,1.3471771478652954,-9.688032150268555,0.7053759098052979
1751214625490200300,3.325200439453125,1.2883652448654175,-9.69418716430664,0.7302238941192627
1751214625500194300,3.3351943359375,1.2270138263702393,-9.700419425964355,0.7527843713760376
1751214625510188000,3.34518798828125,1.1659421920776367,-9.706311225891113,0.773615300655365
1751214625520182000,3.35518212890625,1.105758786201477,-9.711628913879395,0.7949548363685608
1751214625530176000,3.365176025390625,1.0472016334533691,-9.71638298034668,0.8158844709396362
1751214625540169700,3.375169677734375,0.9933121204376221,-9.720610618591309,0.8327311873435974
1751214625550163700,3.385163818359375,0.9438310265541077,-9.7244291305542,0.8456132411956787
1751214625560157700,3.39515771484375,0.8939136862754822,-9.727981567382812,0.8588830828666687
1751214625570151400,3.4051513671875,0.8387582302093506,-9.731499671936035,0.8745089173316956
1751214625580145400,3.4151455078125,0.7792737483978271,-9.734808921813965,0.8925269842147827
1751214625590139400,3.425139404296875,0.7219658493995667,-9.737468719482422,0.9115169048309326
1751214625600133400,3.43513330078125,0.6757051944732666,-9.738983154296875,0.9305911660194397
1751214625610127000,3.445127197265625,0.6425750851631165,-9.739151954650879,0.9520491361618042
1751214625620121000,3.45512109375,0.6226060390472412,-9.737931251525879,0.9774655699729919
1751214625630115000,3.465114990234375,0.6139810085296631,-9.735125541687012,1.0103241205215454
1751214625640108800,3.47510888671875,0.6112143993377686,-9.730907440185547,1.051782250404358
1751214625650102800,3.485102783203125,0.6041221618652344,-9.725926399230957,1.1008166074752808
1751214625660096800,3.4950966796875,0.5885935425758362,-9.720550537109375,1.155351996421814
1751214625670090500,3.505090576171875,0.5680651068687439,-9.71456241607666,1.2144781351089478
1751214625680084500,3.51508447265625,0.5502934455871582,-9.707804679870605,1.2751835584640503
1751214625690078500,3.525078369140625,0.5371204614639282,-9.70095157623291,1.3317006826400757
1751214625700072200,3.535072265625,0.5277940630912781,-9.694337844848633,1.3826143741607666
1751214625710066200,3.545066162109375,0.5168189406394958,-9.687766075134277,1.4319453239440918
1751214625720060200,3.55506005859375,0.49398723244667053,-9.680599212646484,1.4874041080474854
1751214625730054100,3.56505419921875,0.44505560398101807,-9.672503471374512,1.5540217161178589
1751214625740048000,3.5750478515625,0.36205777525901794,-9.662149429321289,1.6377347707748413
1751214625750041900,3.585041748046875,0.2467605620622635,-9.64757251739502,1.7417881488800049
1751214625760035800,3.595035888671875,0.11346730589866638,-9.626812934875488,1.8660086393356323
1751214625770029600,3.605029541015625,-0.020595356822013855,-9.597564697265625,2.014129877090454
1751214625780023600,3.6150234375,-0.14293383061885834,-9.559823989868164,2.18167781829834
1751214625790017500,3.625017578125,-0.25238141417503357,-9.515315055847168,2.3591246604919434
1751214625800011300,3.63501123046875,-0.3513277471065521,-9.466649055480957,2.53564715385437
1751214625810005200,3.645005126953125,-0.4379178583621979,-9.417922973632812,2.698394775390625
1751214625819999200,3.654999267578125,-0.5026188492774963,-9.372822761535645,2.840414524078369
1751214625829993200,3.6649931640625,-0.5400368571281433,-9.331787109375,2.9658901691436768
1751214625839987000,3.674987060546875,-0.5551651120185852,-9.293340682983398,3.0815587043762207
1751214625849981000,3.68498095703125,-0.5534296631813049,-9.256438255310059,3.190995931625366
1751214625859975000,3.694974853515625,-0.5381467342376709,-9.219612121582031,3.298414945602417
1751214625869968600,3.70496875,-0.5118453502655029,-9.181002616882324,3.4084577560424805
1751214625879962600,3.714962646484375,-0.47601234912872314,-9.141058921813965,3.519209623336792
1751214625889956600,3.72495654296875,-0.43465712666511536,-9.102272033691406,3.6235485076904297
1751214625899950300,3.734950439453125,-0.39268195629119873,-9.066874504089355,3.715909481048584
1751214625909944300,3.7449443359375,-0.3476170003414154,-9.035604476928711,3.7957077026367188
1751214625919938300,3.754938232421875,-0.2959620952606201,-9.00752067565918,3.866179943084717
1751214625929932000,3.76493212890625,-0.24314893782138824,-8.982620239257812,3.9273133277893066
1751214625939926000,3.774926025390625,-0.2031165510416031,-8.962821960449219,3.974536418914795
1751214625949920000,3.784919921875,-0.1849241405725479,-8.948665618896484,4.007190227508545
1751214625959914000,3.7949140625,-0.19091704487800598,-8.939356803894043,4.027634143829346
1751214625969907700,3.80490771484375,-0.21752110123634338,-8.935059547424316,4.035813331604004
1751214625979901700,3.814901611328125,-0.2568225860595703,-8.937910079956055,4.027181625366211
1751214625989895700,3.824895751953125,-0.29799485206604004,-8.948129653930664,4.001572132110596
1751214625999889400,3.834889404296875,-0.3346507251262665,-8.964428901672363,3.9619953632354736
1751214626009883400,3.84488330078125,-0.3621928095817566,-8.985595703125,3.9113011360168457
1751214626019877400,3.85487744140625,-0.37959352135658264,-9.011048316955566,3.850623846054077
1751214626029871000,3.86487109375,-0.39313754439353943,-9.041372299194336,3.7774879932403564
1751214626039865000,3.874864990234375,-0.4096665382385254,-9.075639724731445,3.6926045417785645
1751214626049859000,3.884859130859375,-0.4291161894798279,-9.112835884094238,3.5975632667541504
1751214626059853000,3.89485302734375,-0.45074212551116943,-9.15247631072998,3.492764949798584
1751214626069846800,3.9048466796875,-0.47546514868736267,-9.193824768066406,3.379037857055664
1751214626079840800,3.9148408203125,-0.5022216439247131,-9.236464500427246,3.256669044494629
1751214626089834800,3.924834716796875,-0.5280436277389526,-9.279762268066406,3.126913547515869
1751214626099828500,3.934828369140625,-0.5505970120429993,-9.323522567749023,2.9898414611816406
1751214626109822500,3.944822509765625,-0.5688665509223938,-9.367619514465332,2.845080614089966
1751214626119816400,3.95481640625,-0.5808722972869873,-9.412766456604004,2.6893906593322754
1751214626129810200,3.96481005859375,-0.5822409391403198,-9.459396362304688,2.52016019821167
1751214626139804200,3.97480419921875,-0.5717574954032898,-9.506511688232422,2.3387391567230225
1751214626149798100,3.984798095703125,-0.5496829748153687,-9.552919387817383,2.147082805633545
1751214626159792000,3.994792236328125,-0.5139521360397339,-9.598400115966797,1.9434385299682617
1751214626169785900,4.004785888671875,-0.4691307544708252,-9.641751289367676,1.7282745838165283
1751214626179779800,4.01477978515625,-0.4195309281349182,-9.680723190307617,1.5092970132827759
1751214626189773800,4.02477392578125,-0.36377009749412537,-9.713635444641113,1.297441005706787
1751214626199767600,4.034767578125,-0.2991774082183838,-9.740230560302734,1.0994521379470825
1751214626209761500,4.044761474609375,-0.2267533242702484,-9.761417388916016,0.9130752086639404
1751214626219755500,4.054755615234375,-0.14847365021705627,-9.777914047241211,0.735349714756012
1751214626229749200,4.064749267578125,-0.06281150877475739,-9.789779663085938,0.5715444684028625
1751214626239743200,4.0747431640625,0.028498774394392967,-9.797107696533203,0.4315802752971649
1751214626249737200,4.0847373046875,0.124256931245327,-9.800573348999023,0.32203635573387146
1751214626259731000,4.09473095703125,0.22242777049541473,-9.801095008850098,0.24382713437080383
1751214626269725000,4.104724853515625,0.31075483560562134,-9.79971694946289,0.19839423894882202
1751214626279719000,4.114718994140625,0.3742179274559021,-9.797783851623535,0.18377824127674103
1751214626289713000,4.124712890625,0.4047096073627472,-9.796392440795898,0.19311970472335815
1751214626299706600,4.13470654296875,0.41087639331817627,-9.7955904006958,0.21901024878025055
1751214626309700600,4.14470068359375,0.40692055225372314,-9.794881820678711,0.25513312220573425
1751214626319694600,4.154694580078125,0.3928900361061096,-9.793862342834473,0.31027132272720337
1751214626329688300,4.164688232421875,0.3845362067222595,-9.791358947753906,0.3896278738975525
1751214626339682300,4.174682373046875,0.3900241255760193,-9.786794662475586,0.48672422766685486
1751214626349676300,4.18467626953125,0.39539700746536255,-9.780384063720703,0.5984542965888977
1751214626359670000,4.194669921875,0.4074857234954834,-9.771712303161621,0.7196948528289795
1751214626369664000,4.2046640625,0.44724878668785095,-9.75999641418457,0.8442898988723755
1751214626379658000,4.214657958984375,0.5227556228637695,-9.746936798095703,0.9457031488418579
1751214626389652000,4.22465185546875,0.6249110102653503,-9.73597240447998,0.9953508377075195
1751214626399645700,4.234645751953125,0.737041175365448,-9.729621887207031,0.9806291460990906
1751214626409639700,4.2446396484375,0.8408781290054321,-9.726873397827148,0.9226213693618774
1751214626419633700,4.254633544921875,0.9215443730354309,-9.726123809814453,0.8506755232810974
1751214626429627400,4.26462744140625,0.968961238861084,-9.727287292480469,0.781917929649353
1751214626439621400,4.274621337890625,0.9646148085594177,-9.732409477233887,0.7211892008781433
1751214626449615400,4.284615478515625,0.913458526134491,-9.740898132324219,0.6714707016944885
1751214626459609000,4.294609130859375,0.8644253015518188,-9.748042106628418,0.631529688835144
1751214626469603000,4.30460302734375,0.8620827198028564,-9.75015926361084,0.6013339757919312
1751214626479597000,4.31459716796875,0.9058242440223694,-9.747354507446289,0.5822009444236755
1751214626489590800,4.3245908203125,0.9862311482429504,-9.740222930908203,0.5707865357398987
1751214626499584800,4.334584716796875,1.0985099077224731,-9.728550910949707,0.5647587776184082
1751214626509578800,4.344578857421875,1.2280025482177734,-9.712958335876465,0.5664291381835938
1751214626519572700,4.35457275390625,1.3429431915283203,-9.697773933410645,0.5657486319541931
1751214626529566700,4.364566650390625,1.4142491817474365,-9.688064575195312,0.5583012700080872
1751214626539560700,4.374560791015625,1.4305554628372192,-9.6864013671875,0.5454443097114563
1751214626549554700,4.3845546875,1.3987483978271484,-9.692020416259766,0.5278660655021667
1751214626559548700,4.394548583984375,1.336929440498352,-9.701868057250977,0.5067187547683716
1751214626569542700,4.404542724609375,1.265451192855835,-9.712772369384766,0.48071154952049255
1751214626579536600,4.41453662109375,1.199047565460205,-9.722784996032715,0.44735437631607056
1751214626589530400,4.4245302734375,1.1462880373001099,-9.731040954589844,0.4040353298187256
1751214626599524400,4.4345244140625,1.1137006282806396,-9.736838340759277,0.35219892859458923
1751214626609518300,4.444518310546875,1.104642391204834,-9.739727020263672,0.2964223325252533
1751214626619512300,4.45451220703125,1.1185914278030396,-9.739616394042969,0.24291665852069855
1751214626629506300,4.46450634765625,1.153560757637024,-9.736635208129883,0.1939714401960373
1751214626639500300,4.474500244140625,1.20542573928833,-9.731173515319824,0.14700628817081451
1751214626649494300,4.484494384765625,1.2683312892913818,-9.723780632019043,0.09912016242742538
1751214626659488300,4.49448828125,1.3362489938735962,-9.715051651000977,0.050955966114997864
1751214626669482200,4.504482177734375,1.4018340110778809,-9.70593547821045,0.0077259293757379055
1751214626679476200,4.514476318359375,1.4562934637069702,-9.697882652282715,-0.02586207538843155
1751214626689470000,4.524469970703125,1.491621971130371,-9.692419052124023,-0.049510762095451355
1751214626699464000,4.5344638671875,1.5040497779846191,-9.690404891967773,-0.06531539559364319
1751214626709458000,4.5444580078125,1.4957785606384277,-9.691609382629395,-0.07583396881818771
1751214626719452000,4.554451904296875,1.4742599725723267,-9.694851875305176,-0.08235475420951843
1751214626729446000,4.56444580078125,1.4476606845855713,-9.698843955993652,-0.08421573042869568
1751214626739439900,4.57443994140625,1.4223459959030151,-9.702622413635254,-0.08011109381914139
1751214626749433900,4.584433837890625,1.4016013145446777,-9.705717086791992,-0.07043080031871796
1751214626759427800,4.594427734375,1.3856703042984009,-9.708100318908691,-0.05562747269868851
1751214626769421800,4.604421875,1.3745958805084229,-9.709769248962402,-0.03525339439511299
1751214626779415600,4.61441552734375,1.3691761493682861,-9.71059513092041,-0.009309415705502033
1751214626789409500,4.624409423828125,1.3706539869308472,-9.710366249084473,0.022237226366996765
1751214626799403500,4.634403564453125,1.3793067932128906,-9.708986282348633,0.05892148241400719
1751214626809397200,4.644397216796875,1.392196774482727,-9.706823348999023,0.09880131483078003
1751214626819391200,4.65439111328125,1.4055876731872559,-9.704384803771973,0.14011172950267792
1751214626829385200,4.66438525390625,1.4154706001281738,-9.702242851257324,0.18252238631248474
1751214626839379200,4.674379150390625,1.4170668125152588,-9.701010704040527,0.22950983047485352
1751214626849373000,4.684373046875,1.4089672565460205,-9.700811386108398,0.2819035053253174
1751214626859367000,4.694366943359375,1.3941620588302612,-9.701203346252441,0.33667343854904175
1751214626869361000,4.70436083984375,1.3732355833053589,-9.702204704284668,0.38965415954589844
1751214626879354600,4.714354736328125,1.3490339517593384,-9.703438758850098,0.44020289182662964
1751214626889348600,4.7243486328125,1.3263846635818481,-9.704204559326172,0.48939797282218933
1751214626899342600,4.734342529296875,1.3060548305511475,-9.70435619354248,0.5386032462120056
1751214626909336300,4.74433642578125,1.2870208024978638,-9.704025268554688,0.5880958437919617
1751214626919330300,4.754330322265625,1.2668498754501343,-9.703492164611816,0.638535737991333
1751214626929324300,4.76432421875,1.2408801317214966,-9.703198432922363,0.6917709112167358
1751214626939318300,4.774318359375,1.2061424255371094,-9.703368186950684,0.748496949672699
1751214626949312000,4.78431201171875,1.1588168144226074,-9.704071044921875,0.8115010261535645
1751214626959306000,4.794305908203125,1.0941659212112427,-9.705391883850098,0.8823587894439697
1751214626969300000,4.804300048828125,1.0121352672576904,-9.707298278808594,0.956202507019043
1751214626979293700,4.814293701171875,0.9154483675956726,-9.709909439086914,1.0246893167495728
1751214626989287700,4.82428759765625,0.8135911822319031,-9.712448120117188,1.0848082304000854
1751214626999281700,4.83428173828125,0.718533456325531,-9.713990211486816,1.1368709802627563
1751214627009275400,4.844275390625,0.6424936652183533,-9.71412467956543,1.1804068088531494
1751214627019269400,4.854269287109375,0.5939954519271851,-9.712762832641602,1.2164665460586548
1751214627029263400,4.864263427734375,0.5734562873840332,-9.710302352905273,1.2456189393997192
1751214627039257000,4.874257080078125,0.577954888343811,-9.70683479309082,1.2703250646591187
1751214627049251000,4.8842509765625,0.6041263937950134,-9.701982498168945,1.2949689626693726
1751214627059245000,4.8942451171875,0.6377981305122375,-9.695720672607422,1.3253703117370605
1751214627069239000,4.904239013671875,0.6603725552558899,-9.68863296508789,1.3655363321304321
1751214627079232800,4.914232666015625,0.6618900895118713,-9.681760787963867,1.412727952003479
1751214627089226800,4.924226806640625,0.6424624919891357,-9.67609977722168,1.4597018957138062
1751214627099220700,4.934220703125,0.6078840494155884,-9.672080993652344,1.5005704164505005
1751214627109214500,4.94421435546875,0.5631795525550842,-9.670034408569336,1.5308953523635864
1751214627119208400,4.95420849609375,0.5140929222106934,-9.669598579406738,1.5507941246032715
1751214627129202400,4.964202392578125,0.4678489565849304,-9.669614791870117,1.5652706623077393
1751214627139196200,4.974196044921875,0.4291819930076599,-9.668535232543945,1.5829139947891235
1751214627149190100,4.984190185546875,0.39075541496276855,-9.664921760559082,1.6146167516708374
1751214627159184100,4.99418408203125,0.3447536528110504,-9.656750679016113,1.6729259490966797
1751214627169178000,5.00417822265625,0.28690552711486816,-9.641636848449707,1.768306016921997
1751214627179171800,5.014171875,0.21825478971004486,-9.616766929626465,1.9080240726470947
1751214627189165800,5.024165771484375,0.14026902616024017,-9.580242156982422,2.0903737545013428
1751214627199159800,5.034159912109375,0.05312729626893997,-9.533258438110352,2.2988147735595703
1751214627209153500,5.044153564453125,-0.03702494874596596,-9.479350090026855,2.5121567249298096
1751214627219147500,5.0541474609375,-0.12135448306798935,-9.422130584716797,2.7164506912231445
1751214627229141500,5.0641416015625,-0.19370433688163757,-9.363663673400879,2.9076926708221436
1751214627239135200,5.07413525390625,-0.25141826272010803,-9.30567455291748,3.0840861797332764
1751214627249129200,5.084129150390625,-0.3006536662578583,-9.248736381530762,3.2466704845428467
1751214627259123200,5.094123291015625,-0.349924772977829,-9.192353248596191,3.398322105407715
1751214627269117000,5.104116943359375,-0.40882405638694763,-9.13770580291748,3.536324977874756
1751214627279111000,5.11411083984375,-0.47775188088417053,-9.089825630187988,3.649275541305542
1751214627289105000,5.12410498046875,-0.540503203868866,-9.05205249786377,3.7334415912628174
1751214627299099000,5.134098876953125,-0.5786957144737244,-9.023478507995605,3.796358108520508
1751214627309092600,5.144092529296875,-0.5872184038162231,-9.001189231872559,3.8476147651672363
1751214627319086600,5.154086669921875,-0.5716254115104675,-8.982769966125488,3.8927478790283203
1751214627329080600,5.16408056640625,-0.5441970229148865,-8.964587211608887,3.938324213027954
1751214627339074300,5.17407421875,-0.5156176686286926,-8.94773006439209,3.980283737182617
1751214627349068300,5.184068359375,-0.49354228377342224,-8.936443328857422,4.008338451385498
1751214627359062300,5.194062255859375,-0.4817814826965332,-8.932602882385254,4.018318176269531
1751214627369056000,5.204055908203125,-0.4814245104789734,-8.936938285827637,4.008709907531738
1751214627379050000,5.214050048828125,-0.491354763507843,-8.948676109313965,3.9812252521514893
1751214627389044000,5.2240439453125,-0.5084925889968872,-8.965102195739746,3.941924571990967
1751214627399038000,5.234037841796875,-0.5283002257347107,-8.983448028564453,3.8972995281219482
1751214627409031700,5.24403173828125,-0.5482461452484131,-9.002771377563477,3.8496646881103516
1751214627419025700,5.254025634765625,-0.5675769448280334,-9.023612976074219,3.797715663909912
1751214627429019600,5.26401953125,-0.5828074216842651,-9.046747207641602,3.7399325370788574
1751214627439013400,5.274013427734375,-0.5905798673629761,-9.073301315307617,3.673800230026245
1751214627449007400,5.28400732421875,-0.5890755653381348,-9.103218078613281,3.599275588989258
1751214627459001300,5.29400146484375,-0.579016387462616,-9.13609790802002,3.5166518688201904
1751214627468995000,5.3039951171875,-0.5638008117675781,-9.171110153198242,3.4268453121185303
1751214627478989000,5.313989013671875,-0.5485427379608154,-9.207637786865234,3.33000111579895
1751214627488983000,5.323983154296875,-0.5354946255683899,-9.244256019592285,3.2291431427001953
1751214627498977000,5.33397705078125,-0.5248546004295349,-9.27966594696045,3.1277334690093994
1751214627508970800,5.343970703125,-0.516222357749939,-9.313794136047363,3.0260794162750244
1751214627518964700,5.35396484375,-0.5095946192741394,-9.347171783447266,2.922513484954834
1751214627528958700,5.363958740234375,-0.5019881725311279,-9.37999439239502,2.8167507648468018
1751214627538952400,5.373952392578125,-0.4895482063293457,-9.413060188293457,2.706480026245117
1751214627548946400,5.383946533203125,-0.46930384635925293,-9.447366714477539,2.5879335403442383
1751214627558940400,5.3939404296875,-0.44296887516975403,-9.483070373535156,2.458770513534546
1751214627568934100,5.40393408203125,-0.41501355171203613,-9.518638610839844,2.322427988052368
1751214627578928000,5.41392822265625,-0.3862219750881195,-9.552189826965332,2.1856114864349365
1751214627588922000,5.423922119140625,-0.35355401039123535,-9.582563400268555,2.0542314052581787
1751214627598915800,5.433915771484375,-0.314326673746109,-9.609702110290527,1.9300826787948608
1751214627608909800,5.443909912109375,-0.2681140899658203,-9.633830070495605,1.8132368326187134
1751214627618903800,5.45390380859375,-0.21576853096485138,-9.65518569946289,1.7032939195632935
1751214627628897800,5.463897705078125,-0.15942677855491638,-9.674211502075195,1.5983139276504517
1751214627638891500,5.4738916015625,-0.10162579268217087,-9.69121265411377,1.4968098402023315
1751214627648885500,5.483885498046875,-0.04394477233290672,-9.706436157226562,1.3976917266845703
1751214627658879500,5.49387939453125,0.01376313902437687,-9.719962120056152,1.3009690046310425
1751214627668873200,5.503873291015625,0.07211289554834366,-9.73166275024414,1.208269715309143
1751214627678867200,5.5138671875,0.13110999763011932,-9.741406440734863,1.1216940879821777
1751214627688861200,5.523861083984375,0.1904776692390442,-9.749069213867188,1.0439131259918213
1751214627698855000,5.53385498046875,0.2506744861602783,-9.754612922668457,0.9772844910621643
1751214627708849000,5.543848876953125,0.31340497732162476,-9.758153915405273,0.9222829937934875
1751214627718843000,5.5538427734375,0.3787175416946411,-9.76010513305664,0.8759617209434509
1751214627728836900,5.5638369140625,0.44514283537864685,-9.760897636413574,0.834940493106842
1751214627738830600,5.57383056640625,0.5099703073501587,-9.76088809967041,0.7971095442771912
1751214627748824600,5.583824462890625,0.5698906183242798,-9.760371208190918,0.7620794773101807
1751214627758818600,5.593818603515625,0.6206822991371155,-9.759710311889648,0.7302106618881226
1751214627768812300,5.603812255859375,0.658126175403595,-9.759234428405762,0.7032865285873413
1751214627778806300,5.61380615234375,0.6785666346549988,-9.759172439575195,0.6844590306282043
1751214627788800300,5.62380029296875,0.6823118925094604,-9.759443283081055,0.6768226623535156
1751214627798794000,5.6337939453125,0.6739200353622437,-9.759778022766113,0.6804086565971375
1751214627808788000,5.6437880859375,0.6596454381942749,-9.759980201721191,0.6914056539535522
1751214627818782000,5.653781982421875,0.6429398655891418,-9.760119438171387,0.7050336599349976
1751214627828775700,5.663775634765625,0.6252261400222778,-9.760453224182129,0.7162653803825378
1751214627838769700,5.673769775390625,0.608291745185852,-9.761098861694336,0.7220166325569153
1751214627848763600,5.683763671875,0.5933905839920044,-9.762104034423828,0.7208250761032104
1751214627858757600,5.693757568359375,0.5810379981994629,-9.763386726379395,0.7134822010993958
1751214627868751400,5.70375146484375,0.571308970451355,-9.764751434326172,0.702569842338562
1751214627878745300,5.713745361328125,0.5660187005996704,-9.765975952148438,0.6897212266921997
1751214627888739300,5.7237392578125,0.570928156375885,-9.766725540161133,0.6749160885810852
1751214627898733000,5.733733154296875,0.58851557970047,-9.766571998596191,0.6618990302085876
1751214627908727000,5.74372705078125,0.6155847907066345,-9.76550579071045,0.65296471118927
1751214627918721000,5.753720947265625,0.6478179097175598,-9.763739585876465,0.6481608152389526
1751214627928714800,5.76371484375,0.6860053539276123,-9.76089096069336,0.6517600417137146
1751214627938708700,5.773708740234375,0.7385940551757812,-9.756172180175781,0.6648032665252686
1751214627948702700,5.78370263671875,0.8134250640869141,-9.74876880645752,0.6857399344444275
1751214627958696700,5.79369677734375,0.9040470719337463,-9.738995552062988,0.7106698155403137
1751214627968690400,5.8036904296875,0.9969663619995117,-9.728358268737793,0.7317684888839722
1751214627978684400,5.813684326171875,1.079598307609558,-9.718998908996582,0.738856315612793
1751214627988678400,5.823678466796875,1.1418763399124146,-9.712356567382812,0.7325478792190552
1751214627998672100,5.833672119140625,1.1753690242767334,-9.70945930480957,0.7178428769111633
1751214628008666000,5.843666015625,1.1801402568817139,-9.709970474243164,0.7029529213905334
1751214628018660000,5.85366015625,1.1589550971984863,-9.71288776397705,0.6978667378425598
1751214628028653800,5.86365380859375,1.1160261631011963,-9.717113494873047,0.7089205384254456
1751214628038647800,5.873647705078125,1.0605604648590088,-9.721190452575684,0.7376077175140381
1751214628048641800,5.883641845703125,1.0001314878463745,-9.72437858581543,0.7788402438163757
1751214628058635500,5.893635498046875,0.9394126534461975,-9.72678279876709,0.823150634765625
1751214628068629500,5.90362939453125,0.883027970790863,-9.72859001159668,0.8632354736328125
1751214628078623500,5.91362353515625,0.8368862867355347,-9.729827880859375,0.8946903347969055
1751214628088617500,5.923617431640625,0.8045171499252319,-9.730684280395508,0.9148319363594055
1751214628098611200,5.933611083984375,0.7866849899291992,-9.731632232666016,0.9202380180358887
1751214628108605200,5.943605224609375,0.7822235226631165,-9.733112335205078,0.9083095192909241
1751214628118599200,5.95359912109375,0.7892506122589111,-9.734986305236816,0.8817727565765381
1751214628128593000,5.963593017578125,0.8056504726409912,-9.736417770385742,0.850577175617218
1751214628138587000,5.9735869140625,0.8294654488563538,-9.736821174621582,0.8225922584533691
1751214628148580900,5.983580810546875,0.8601511716842651,-9.736028671264648,0.8001710772514343
1751214628158574600,5.99357470703125,0.8960846066474915,-9.734297752380371,0.781581461429596
1751214628168568600,6.003568603515625,0.9353654384613037,-9.731985092163086,0.7641583681106567
1751214628178562600,6.0135625,0.9765034317970276,-9.729206085205078,0.7479227781295776
1751214628188556500,6.023556640625,1.019677758216858,-9.72590160369873,0.7331312894821167
1751214628198550300,6.03355029296875,1.0672762393951416,-9.721707344055176,0.7209062576293945
1751214628208544300,6.043544189453125,1.1216535568237305,-9.716490745544434,0.7085883021354675
1751214628218538200,6.053538330078125,1.1803977489471436,-9.710672378540039,0.692744255065918
1751214628228532000,6.063531982421875,1.235994815826416,-9.705214500427246,0.6719300150871277
1751214628238526000,6.07352587890625,1.2806299924850464,-9.701101303100586,0.6473138332366943
1751214628248520000,6.08352001953125,1.309441089630127,-9.698811531066895,0.6235322952270508
1751214628258513700,6.093513671875,1.3221062421798706,-9.698345184326172,0.6037628650665283
1751214628268507600,6.103507568359375,1.3214465379714966,-9.699519157409668,0.5860643982887268
1751214628278501600,6.113501708984375,1.3122423887252808,-9.701858520507812,0.5677562952041626
1751214628288495600,6.12349560546875,1.2989702224731445,-9.704802513122559,0.5476129651069641
1751214628298489600,6.133489501953125,1.2859278917312622,-9.707749366760254,0.5257137417793274
1751214628308483600,6.143483642578125,1.2749677896499634,-9.710453033447266,0.5019347071647644
1751214628318477300,6.153477294921875,1.2652698755264282,-9.71302318572998,0.47609007358551025
1751214628328471300,6.16347119140625,1.2551991939544678,-9.715633392333984,0.44868919253349304
1751214628338465300,6.17346533203125,1.2454715967178345,-9.718097686767578,0.4216352701187134
1751214628348459300,6.183459228515625,1.238545536994934,-9.72002124786377,0.3969673216342926
1751214628358453200,6.193453369140625,1.2363284826278687,-9.721134185791016,0.37606266140937805
1751214628368447200,6.203447265625,1.240138292312622,-9.721227645874023,0.3608059883117676
1751214628398429200,6.23342919921875,1.2657939195632935,-9.717883110046387,0.36178767681121826
1751214628408423200,6.243423095703125,1.2787954807281494,-9.715530395507812,0.37886008620262146
1751214628418417000,6.2534169921875,1.2977712154388428,-9.711965560913086,0.40485042333602905
1751214628428411000,6.263410888671875,1.3199816942214966,-9.707444190979004,0.4399409592151642
1751214628438404900,6.27340478515625,1.339134693145752,-9.702679634094238,0.4848957657814026
1751214628448398800,6.28339892578125,1.3498896360397339,-9.698408126831055,0.5376550555229187
1751214628458392800,6.293392822265625,1.3506863117218018,-9.69499683380127,0.5941938757896423
1751214628468386800,6.30338671875,1.3450888395309448,-9.692002296447754,0.6528527736663818
1751214628478380800,6.313380859375,1.3354052305221558,-9.689104080200195,0.7129864692687988
1751214628488374800,6.323374755859375,1.3188695907592773,-9.686574935913086,0.7753992080688477
1751214628498368800,6.33336865234375,1.2911659479141235,-9.685168266296387,0.8371321558952332
1751214628508362800,6.34336279296875,1.252018928527832,-9.685335159301758,0.8928087949752808
1751214628518356500,6.3533564453125,1.2052571773529053,-9.686833381652832,0.9396804571151733
1751214628528350500,6.3633505859375,1.1597075462341309,-9.688597679138184,0.9780248403549194
1751214628538344400,6.373344482421875,1.12601900100708,-9.689484596252441,1.008150339126587
1751214628548338400,6.38333837890625,1.1103578805923462,-9.688770294189453,1.0321052074432373
1751214628558332400,6.39333251953125,1.1120551824569702,-9.685629844665527,1.0593830347061157
1751214628568326400,6.403326416015625,1.1219526529312134,-9.68010425567627,1.0987260341644287
1751214628578320400,6.4133203125,1.1248568296432495,-9.673818588256836,1.1499247550964355
1751214628588314400,6.423314453125,1.1057831048965454,-9.668901443481445,1.2082934379577637
1751214628598308000,6.43330810546875,1.0620266199111938,-9.666409492492676,1.2660977840423584
1751214628608302000,6.443302001953125,1.0012441873550415,-9.665617942810059,1.3205029964447021
1751214628618296000,6.453296142578125,0.9330893754959106,-9.665071487426758,1.3733656406402588
1751214628628289800,6.463289794921875,0.8662471175193787,-9.663819313049316,1.4249845743179321
1751214628638283800,6.47328369140625,0.8049787282943726,-9.661646842956543,1.4747816324234009
1751214628648277800,6.48327783203125,0.7490962147712708,-9.658610343933105,1.5233128070831299
1751214628658271500,6.493271484375,0.6948421001434326,-9.654682159423828,1.573116660118103
1751214628668265500,6.503265380859375,0.6364051103591919,-9.649845123291016,1.6266100406646729
1751214628678259500,6.513259521484375,0.5743656158447266,-9.642926216125488,1.689516305923462
1751214628688253200,6.523253173828125,0.5112713575363159,-9.631669998168945,1.7719807624816895
1751214628698247200,6.5332470703125,0.45144590735435486,-9.613329887390137,1.8842723369598389
1751214628708241200,6.5432412109375,0.3950086236000061,-9.586153030395508,2.0297861099243164
1751214628718235100,6.553235107421875,0.3370325267314911,-9.550272941589355,2.2020657062530518
1751214628728228900,6.563228759765625,0.27662086486816406,-9.507859230041504,2.3863110542297363
1751214628738222800,6.573222900390625,0.22114582359790802,-9.46185302734375,2.56803822517395
1751214628748216800,6.583216796875,0.1778314858675003,-9.414141654968262,2.7409300804138184
1751214628758210600,6.59321044921875,0.14593009650707245,-9.365538597106934,2.9044392108917236
1751214628768204500,6.60320458984375,0.12378544360399246,-9.317407608032227,3.0563013553619385
1751214628778198500,6.613198486328125,0.10822243988513947,-9.270607948303223,3.1960132122039795
1751214628788192300,6.623192138671875,0.08963806182146072,-9.224252700805664,3.3279871940612793
1751214628798186200,6.633186279296875,0.0559639036655426,-9.18175220489502,3.444225788116455
1751214628808180200,6.64318017578125,0.007859104312956333,-9.144306182861328,3.5428762435913086
1751214628818174200,6.65317431640625,-0.04211572930216789,-9.112476348876953,3.6237263679504395
1751214628828168000,6.66316796875,-0.0832553505897522,-9.087409973144531,3.6854329109191895
1751214628838162000,6.673161865234375,-0.10998523980379105,-9.069231033325195,3.729252576828003
1751214628848156000,6.683156005859375,-0.12297575920820236,-9.05757999420166,3.757061719894409
1751214628858149600,6.693149658203125,-0.12637798488140106,-9.051419258117676,3.7717673778533936
1751214628868143600,6.7031435546875,-0.12385384738445282,-9.049243927001953,3.7770650386810303
1751214628878137600,6.7131376953125,-0.11938147991895676,-9.049713134765625,3.7760863304138184
1751214628888131300,6.72313134765625,-0.11819974333047867,-9.05210018157959,3.770397424697876
1751214628898125300,6.733125244140625,-0.12451561540365219,-9.05610466003418,3.760566234588623
1751214628908119300,6.743119384765625,-0.13776253163814545,-9.061213493347168,3.7477729320526123
1751214628918113000,6.753113037109375,-0.15395131707191467,-9.067737579345703,3.7313292026519775
1751214628928107000,6.76310693359375,-0.16977564990520477,-9.076776504516602,3.70859956741333
1751214628938101000,6.77310107421875,-0.18270474672317505,-9.089258193969727,3.677279233932495
1751214628948095000,6.783094970703125,-0.19157221913337708,-9.105679512023926,3.6359713077545166
1751214628958088700,6.793088623046875,-0.19514009356498718,-9.126079559326172,3.5842671394348145
1751214628968082700,6.803082763671875,-0.19198700785636902,-9.149900436401367,3.5231871604919434
1751214628978076700,6.81307666015625,-0.1818595677614212,-9.176067352294922,3.455012559890747
1751214628988070400,6.8230703125,-0.16605974733829498,-9.203422546386719,3.38228178024292
1751214628998064400,6.833064453125,-0.14660601317882538,-9.231505393981934,3.3057823181152344
1751214629008058400,6.843058349609375,-0.1247425228357315,-9.2603759765625,3.224945545196533
1751214629018052000,6.853052001953125,-0.10198430716991425,-9.290454864501953,3.1380631923675537
1751214629028046000,6.863046142578125,-0.08056079596281052,-9.32181453704834,3.044285774230957
1751214629038040000,6.8730400390625,-0.05990969389677048,-9.354260444641113,2.9435718059539795
1751214629048034000,6.883033935546875,-0.04156011343002319,-9.38762378692627,2.835700273513794
1751214629058027800,6.89302783203125,-0.030158720910549164,-9.420955657958984,2.7230613231658936
1751214629068021800,6.903021728515625,-0.024336740374565125,-9.453042030334473,2.6095590591430664
1751214629078015700,6.913015625,-0.02268274314701557,-9.483027458190918,2.498413562774658
1751214629088009500,6.923009521484375,-0.022955963388085365,-9.51059341430664,2.39133358001709
1751214629098003500,6.93300341796875,-0.02214246802031994,-9.535776138305664,2.288855791091919
1751214629107997400,6.94299755859375,-0.018419794738292694,-9.55920124053955,2.1889994144439697
1751214629117991200,6.9529912109375,-0.012301178649067879,-9.581635475158691,2.088660478591919
1751214629127985200,6.962985107421875,-0.003977559041231871,-9.60329818725586,1.9867147207260132
1751214629137979100,6.972979248046875,0.005251532420516014,-9.624113082885742,1.8832932710647583
1751214629147972900,6.982972900390625,0.012593653053045273,-9.644022941589355,1.7784932851791382
1751214629157966800,6.992966796875,0.014915792271494865,-9.663031578063965,1.672115683555603
1751214629167960800,7.0029609375,0.009212648496031761,-9.680840492248535,1.5657670497894287
1751214629177954800,7.012954833984375,-0.006255274172872305,-9.697198867797852,1.4610559940338135
1751214629187948500,7.022948486328125,-0.031152812764048576,-9.71192741394043,1.3593685626983643
1751214629197942500,7.032942626953125,-0.06335151940584183,-9.724775314331055,1.2629761695861816
1751214629207936500,7.0429365234375,-0.09708088636398315,-9.735685348510742,1.173625111579895
1751214629217930200,7.05293017578125,-0.12465178966522217,-9.744898796081543,1.0916967391967773
1751214629227924200,7.06292431640625,-0.1390821635723114,-9.752717018127441,1.0176228284835815
1751214629237918200,7.072918212890625,-0.13535107672214508,-9.759498596191406,0.9509244561195374
1751214629247912000,7.082911865234375,-0.11132194846868515,-9.765423774719238,0.8913402557373047
1751214629257906000,7.092906005859375,-0.06633616983890533,-9.770622253417969,0.8372173309326172
1751214629267900000,7.10289990234375,-0.002802357543259859,-9.775076866149902,0.7862859964370728
1751214629277894000,7.112893798828125,0.07626351714134216,-9.778495788574219,0.7386453747749329
1751214629287887600,7.1228876953125,0.17130941152572632,-9.780496597290039,0.694931149482727
1751214629297881600,7.132881591796875,0.28510627150535583,-9.780588150024414,0.6551252603530884
1751214629307875600,7.14287548828125,0.41375401616096497,-9.778501510620117,0.6165135502815247
1751214629317869300,7.152869384765625,0.5413239002227783,-9.774757385253906,0.5757479071617126
1751214629327863300,7.16286328125,0.6530565023422241,-9.770030975341797,0.5388835072517395
1751214629337857300,7.172857177734375,0.7432020902633667,-9.764815330505371,0.5161594152450562
1751214629347851000,7.18285107421875,0.8163641691207886,-9.759167671203613,0.512418806552887
1751214629357845000,7.192844970703125,0.8796157836914062,-9.753013610839844,0.5247533321380615
1751214629367839000,7.2028388671875,0.9327195882797241,-9.746548652648926,0.5524699687957764
1751214629377833000,7.2128330078125,0.9683982729911804,-9.741025924682617,0.5873755812644958
1751214629387826700,7.22282666015625,0.9685976505279541,-9.739011764526367,0.6195632815361023
1751214629397820700,7.232820556640625,0.9381275177001953,-9.73985481262207,0.6523429155349731
1751214629407814700,7.242814697265625,0.8893391489982605,-9.742267608642578,0.6838828325271606
1751214629417808400,7.252808349609375,0.8277139067649841,-9.7456693649292,0.7121859788894653
1751214629427802400,7.26280224609375,0.7657766938209534,-9.748384475708008,0.7436271905899048
1751214629437796400,7.27279638671875,0.7197065353393555,-9.748774528503418,0.7834545969963074
1751214629447790000,7.2827900390625,0.699415922164917,-9.746495246887207,0.8288811445236206
1751214629457784000,7.2927841796875,0.7049488425254822,-9.742637634277344,0.868575930595398
1751214629467778000,7.302778076171875,0.7285912036895752,-9.738470077514648,0.8954050540924072
1751214629477771800,7.312771728515625,0.7594934105873108,-9.734448432922363,0.9132769107818604
1751214629487765800,7.322765869140625,0.7893236875534058,-9.73063850402832,0.9284601211547852
1751214629497759700,7.332759765625,0.8193922638893127,-9.726290702819824,0.9477671980857849
1751214629507753700,7.342753662109375,0.8604341149330139,-9.720098495483398,0.9745339155197144
1751214629517747500,7.35274755859375,0.9249298572540283,-9.711150169372559,1.0042203664779663
1751214629527741400,7.362741455078125,1.010770320892334,-9.6995849609375,1.032853364944458
1751214629537735400,7.3727353515625,1.0983511209487915,-9.686949729919434,1.0616134405136108
1751214629547729200,7.382729248046875,1.1710186004638672,-9.675469398498535,1.0882937908172607
1751214629557723100,7.39272314453125,1.2289179563522339,-9.665945053100586,1.1088976860046387
1751214629567717000,7.402717041015625,1.2802133560180664,-9.658315658569336,1.1173127889633179
1751214629577710800,7.4127109375,1.3296852111816406,-9.65279483795166,1.1071929931640625
1751214629587704800,7.422704833984375,1.3791005611419678,-9.64892578125,1.0801447629928589
1751214629597698800,7.43269873046875,1.4261237382888794,-9.646244049072266,1.0423673391342163
1751214629607692800,7.44269287109375,1.4646633863449097,-9.644861221313477,1.0008939504623413
1751214629617686500,7.4526865234375,1.4906150102615356,-9.644986152648926,0.9605790972709656
1751214629627680500,7.462680419921875,1.502264380455017,-9.646734237670898,0.9241781234741211
1751214629637674500,7.472674560546875,1.5002472400665283,-9.649895668029785,0.8939577341079712
1751214629647668200,7.482668212890625,1.4873708486557007,-9.654151916503906,0.8691775798797607
1751214629657662200,7.492662109375,1.468266248703003,-9.65916919708252,0.8455973267555237
1751214629667656200,7.50265625,1.4475221633911133,-9.664470672607422,0.8204244375228882
1751214629677650000,7.51264990234375,1.4280714988708496,-9.66963005065918,0.7932490706443787
1751214629687644000,7.522643798828125,1.410743236541748,-9.67444133758545,0.7651023268699646
1751214629697638000,7.532637939453125,1.3968355655670166,-9.678650856018066,0.7368561029434204
1751214629707631600,7.542631591796875,1.3879061937332153,-9.68190860748291,0.7104671001434326
1751214629717625600,7.55262548828125,1.3842235803604126,-9.684030532836914,0.6883754730224609
1751214629727619600,7.56261962890625,1.3849389553070068,-9.685089111328125,0.6718626022338867
1751214629737613600,7.572613525390625,1.387949824333191,-9.685417175292969,0.6608150601387024
1751214629747607300,7.582607177734375,1.3898686170578003,-9.68563175201416,0.6536045670509338
1751214629757601300,7.592601318359375,1.3872249126434326,-9.686349868774414,0.6485599279403687
1751214629767595300,7.60259521484375,1.3792030811309814,-9.687849044799805,0.6432386636734009
1751214629777589000,7.612589111328125,1.3680568933486938,-9.689842224121094,0.6369937658309937
1751214629787583000,7.6225830078125,1.3581974506378174,-9.69156265258789,0.6319000124931335
1751214629797577000,7.632576904296875,1.3534208536148071,-9.692459106445312,0.6283870935440063
1751214629807570700,7.64257080078125,1.3556758165359497,-9.692357063293457,0.6251073479652405
1751214629817564700,7.652564697265625,1.3662163019180298,-9.691011428833008,0.6230136752128601
1751214629827558700,7.66255859375,1.385047435760498,-9.688261032104492,0.6242117881774902
1751214629837552600,7.672552734375,1.4132119417190552,-9.683798789978027,0.6302801370620728
1751214629847546600,7.682546630859375,1.4526259899139404,-9.677192687988281,0.6420250535011292
1751214629857540600,7.69254052734375,1.5016969442367554,-9.668437004089355,0.6607683897018433
1751214629867534600,7.70253466796875,1.5506671667099,-9.658841133117676,0.6874603033065796
1751214629877528600,7.712528564453125,1.5844650268554688,-9.650848388671875,0.721795380115509
1751214629887522300,7.722522216796875,1.5900038480758667,-9.646866798400879,0.7617360353469849
1751214629897516300,7.732516357421875,1.56098210811615,-9.648042678833008,0.8056103587150574
1751214629907510300,7.74251025390625,1.4992578029632568,-9.65385913848877,0.8518341779708862
1751214629917504300,7.752504150390625,1.413495659828186,-9.662521362304688,0.8989417552947998
1751214629927498200,7.762498291015625,1.3150252103805542,-9.671952247619629,0.9457497000694275
1751214629937492200,7.7724921875,1.2156490087509155,-9.68057632446289,0.989454984664917
1751214629947486200,7.782486328125,1.1271536350250244,-9.687317848205566,1.0275135040283203
1751214629957480200,7.792480224609375,1.057986855506897,-9.691410064697266,1.0619012117385864
1751214629967474200,7.80247412109375,1.0138945579528809,-9.692219734191895,1.09693443775177
1751214629977468200,7.81246826171875,0.9981316924095154,-9.689250946044922,1.136897087097168
1751214629987462000,7.8224619140625,0.9995602965354919,-9.683313369750977,1.1851955652236938
1751214629997456000,7.832455810546875,1.0018218755722046,-9.675932884216309,1.242201566696167
1751214630007449900,7.842449951171875,0.9877923727035522,-9.668941497802734,1.3062225580215454
1751214630017443800,7.85244384765625,0.9472341537475586,-9.663912773132324,1.371834635734558
1751214630027437800,7.862437744140625,0.8817645907402039,-9.661168098449707,1.4334287643432617
1751214630037431800,7.872431884765625,0.8029810190200806,-9.659773826599121,1.4880799055099487
1751214630047425800,7.88242578125,0.7243493795394897,-9.659085273742676,1.532250165939331
1751214630057419800,7.892419677734375,0.655446469783783,-9.658956527709961,1.5637620687484741
1751214630067413800,7.902413818359375,0.5989906191825867,-9.659587860107422,1.5823942422866821
1751214630077407700,7.91240771484375,0.5559194087982178,-9.660178184509277,1.594462513923645
1751214630087401500,7.9224013671875,0.5286974906921387,-9.659579277038574,1.6072916984558105
1751214630097395500,7.9323955078125,0.5153281092643738,-9.657452583312988,1.6243215799331665
1751214630107389400,7.942389404296875,0.5061608552932739,-9.653409004211426,1.6510268449783325
1751214630117383400,7.952383544921875,0.4865690767765045,-9.646642684936523,1.6958529949188232
1751214630127377400,7.96237744140625,0.4442427456378937,-9.63627815246582,1.764986276626587
1751214630137371100,7.97237109375,0.37550339102745056,-9.620699882507324,1.8632036447525024
1751214630147365000,7.982365234375,0.286883682012558,-9.597796440124512,1.9925838708877563
1751214630157359000,7.992359130859375,0.18426814675331116,-9.565248489379883,2.154632329940796
1751214630167352800,8.002352783203126,0.07646634429693222,-9.52169418334961,2.345607280731201
1751214630177346800,8.012346923828124,-0.028412966057658195,-9.469547271728516,2.548969030380249
1751214630187340800,8.0223408203125,-0.12541137635707855,-9.415731430053711,2.7383689880371094
1751214630197334800,8.032334716796875,-0.2125369757413864,-9.364356994628906,2.9041426181793213
1751214630207328500,8.04232861328125,-0.2908702492713928,-9.315093994140625,3.052016258239746
1751214630217322500,8.052322509765625,-0.3642818331718445,-9.26854419708252,3.1830453872680664
1751214630227316500,8.06231640625,-0.43133488297462463,-9.225555419921875,3.297492742538452
1751214630237310200,8.072310302734374,-0.48870453238487244,-9.186199188232422,3.397834062576294
1751214630247304200,8.08230419921875,-0.5356152653694153,-9.151719093322754,3.4827489852905273
1751214630257298200,8.092298095703125,-0.5698378682136536,-9.123318672180176,3.5511581897735596
1751214630267292000,8.1022919921875,-0.58731609582901,-9.101059913635254,3.6050190925598145
1751214630277286000,8.112285888671876,-0.5857190489768982,-9.082398414611816,3.6520376205444336
1751214630287279900,8.12227978515625,-0.5657323598861694,-9.064536094665527,3.699259042739868
1751214630297273600,8.132273681640624,-0.5343499779701233,-9.047945976257324,3.744266986846924
1751214630307267600,8.142267578125,-0.5006903409957886,-9.034728050231934,3.780661106109619
1751214630317261600,8.152261474609375,-0.4710850417613983,-9.02562141418457,3.80612850189209
1751214630327255600,8.162255615234375,-0.4473845660686493,-9.020968437194824,3.8199963569641113
1751214630337249300,8.172249267578126,-0.42799291014671326,-9.020540237426758,3.8232293128967285
1751214630347243300,8.1822431640625,-0.410731703042984,-9.02380084991455,3.8174221515655518
1751214630357237200,8.1922373046875,-0.3946301341056824,-9.03009033203125,3.8042240142822266
1751214630367231000,8.20223095703125,-0.38139528036117554,-9.038687705993652,3.7851078510284424
1751214630387219000,8.222218994140626,-0.36412209272384644,-9.063508033752441,3.7270121574401855
1751214630397212700,8.232212646484374,-0.3539915084838867,-9.080475807189941,3.6864655017852783
1751214630407206700,8.24220654296875,-0.3381615877151489,-9.100379943847656,3.6385605335235596
1751214630417200600,8.25220068359375,-0.3177495002746582,-9.122269630432129,3.5851938724517822
1751214630427194600,8.262194580078125,-0.29526984691619873,-9.145137786865234,3.5284085273742676
1751214630437188400,8.272188232421875,-0.27137061953544617,-9.168061256408691,3.4703614711761475
1751214630447182300,8.282182373046876,-0.2480490356683731,-9.19100284576416,3.41091251373291
1751214630457176300,8.29217626953125,-0.22712676227092743,-9.214132308959961,3.349412679672241
1751214630467170000,8.302170166015625,-0.20902128517627716,-9.23769474029541,3.28507399559021
1751214630477164000,8.3121640625,-0.19344855844974518,-9.261951446533203,3.217019557952881
1751214630487158000,8.322157958984375,-0.17910762131214142,-9.286900520324707,3.145120859146118
1751214630497151700,8.33215185546875,-0.16212041676044464,-9.311800956726074,3.0715572834014893
1751214630507145700,8.342145751953124,-0.1390375941991806,-9.335471153259277,3.0000054836273193
1751214630517139700,8.3521396484375,-0.10791108757257462,-9.357242584228516,2.9327025413513184
1751214630527133400,8.362133544921875,-0.06906186789274216,-9.377226829528809,2.869359254837036
1751214630537127400,8.37212744140625,-0.023768790066242218,-9.3958101272583,2.808661460876465
1751214630547121400,8.382121337890625,0.02753119356930256,-9.413476943969727,2.7488322257995605
1751214630557115400,8.392115478515626,0.08385465294122696,-9.43050765991211,2.6886582374572754
1751214630567109000,8.402109130859374,0.14270968735218048,-9.446864128112793,2.6280722618103027
1751214630577103000,8.41210302734375,0.19905653595924377,-9.462235450744629,2.5684401988983154
1751214630587097000,8.42209716796875,0.24840041995048523,-9.476505279541016,2.5108842849731445
1751214630597090800,8.4320908203125,0.2872011959552765,-9.489815711975098,2.455869197845459
1751214630607084800,8.442084716796876,0.31201672554016113,-9.502246856689453,2.404236316680908
1751214630617078800,8.452078857421874,0.3214983642101288,-9.514288902282715,2.354851484298706
1751214630627072500,8.462072509765624,0.31630975008010864,-9.526639938354492,2.3050966262817383
1751214630637066500,8.47206640625,0.2983643114566803,-9.539517402648926,2.2536563873291016
1751214630647060500,8.482060546875,0.2714522182941437,-9.552770614624023,2.200294256210327
1751214630657054500,8.492054443359375,0.23960348963737488,-9.566381454467773,2.144139528274536
1751214630667048200,8.502048095703126,0.2046530693769455,-9.580842018127441,2.0823001861572266
1751214630677042200,8.512042236328124,0.16998298466205597,-9.59640884399414,2.0125720500946045
1751214630687036200,8.5220361328125,0.13935555517673492,-9.612951278686523,1.9344615936279297
1751214630697030000,8.53202978515625,0.11614334583282471,-9.630084991455078,1.8488785028457642
1751214630707024000,8.54202392578125,0.10202247649431229,-9.647416114807129,1.7570804357528687
1751214630717017900,8.552017822265626,0.09785596281290054,-9.66450023651123,1.6607942581176758
1751214630727011600,8.562011474609376,0.10348847508430481,-9.680891990661621,1.5620514154434204
1751214630737005600,8.572005615234374,0.11961645632982254,-9.696038246154785,1.4638780355453491
1751214630746999600,8.58199951171875,0.14568442106246948,-9.709579467773438,1.3686624765396118
1751214630756993300,8.5919931640625,0.1802467554807663,-9.721403121948242,1.2775861024856567
1751214630766987300,8.6019873046875,0.22037774324417114,-9.73207950592041,1.1867796182632446
1751214630776981200,8.611981201171876,0.2619093358516693,-9.742037773132324,1.092924952507019
1751214630786975200,8.621975341796874,0.30091720819473267,-9.751020431518555,0.9987075924873352
1751214630796969000,8.631968994140625,0.33652645349502563,-9.758713722229004,0.9081045985221863
1751214630806963000,8.641962890625,0.36918336153030396,-9.76490306854248,0.8250827789306641
1751214630816957000,8.65195703125,0.39947524666786194,-9.769660949707031,0.7513535618782043
1751214630826950700,8.66195068359375,0.42664700746536255,-9.773309707641602,0.6861292123794556
1751214630836944600,8.671944580078126,0.4508306086063385,-9.77593994140625,0.6309857368469238
1751214630846938600,8.681938720703124,0.4760558605194092,-9.777457237243652,0.5874482989311218
1751214630856932400,8.691932373046875,0.5095955729484558,-9.777706146240234,0.5542250275611877
1751214630866926300,8.70192626953125,0.5664621591567993,-9.775890350341797,0.530548632144928
1751214630876920300,8.71192041015625,0.6654611825942993,-9.770465850830078,0.515306830406189
1751214630886914300,8.721914306640626,0.7946326732635498,-9.760478019714355,0.521559476852417
1751214630896908000,8.731907958984374,0.9198542833328247,-9.747326850891113,0.5602413415908813
1751214630906902000,8.741902099609375,1.0199989080429077,-9.733261108398438,0.6273960471153259
1751214630916896000,8.75189599609375,1.0961374044418335,-9.71882438659668,0.7164724469184875
1751214630926889700,8.7618896484375,1.1585336923599243,-9.703874588012695,0.8142606019973755
1751214630936883700,8.7718837890625,1.2111613750457764,-9.689563751220703,0.9032255411148071
1751214630946877700,8.781877685546876,1.2518616914749146,-9.677582740783691,0.9734577536582947
1751214630956871400,8.791871337890624,1.2738001346588135,-9.6690034866333,1.0286846160888672
1751214630966865400,8.801865478515625,1.271698236465454,-9.664185523986816,1.0754936933517456
1751214630976859400,8.811859375,1.2459827661514282,-9.662557601928711,1.1193231344223022
1751214630986853400,8.821853271484375,1.2051870822906494,-9.66276741027832,1.1614012718200684
1751214630996847000,8.83184716796875,1.1588401794433594,-9.663455963134766,1.202117919921875
1751214631006841000,8.841841064453124,1.1161422729492188,-9.663609504699707,1.2406747341156006
1751214631016835000,8.8518349609375,1.0847007036209106,-9.662328720092773,1.277971863746643
1751214631026828800,8.861828857421875,1.069119930267334,-9.659409523010254,1.3126977682113647
1751214631036822800,8.87182275390625,1.0702950954437256,-9.655179023742676,1.3425273895263672
1751214631046816800,8.881816650390626,1.0858670473098755,-9.650350570678711,1.3645633459091187
1751214631056810500,8.891810546875,1.1138222217559814,-9.64547348022461,1.3764549493789673
1751214631066804500,8.901804443359374,1.1537116765975952,-9.640608787536621,1.377684235572815
1751214631076798500,8.911798583984375,1.2033112049102783,-9.635819435119629,1.3687193393707275
1751214631086792200,8.921792236328125,1.2569615840911865,-9.631482124328613,1.350921869277954
1751214631096786200,8.9317861328125,1.3098984956741333,-9.627758979797363,1.3269509077072144
1751214631106780200,8.9417802734375,1.3562082052230835,-9.625167846679688,1.298932433128357
1751214631116774100,8.951774169921874,1.3891595602035522,-9.624642372131348,1.2676290273666382
1751214631126767900,8.961767822265625,1.4052213430404663,-9.627030372619629,1.2312698364257812
1751214631136761900,8.971761962890625,1.406043291091919,-9.632196426391602,1.1892095804214478
1751214631146755800,8.981755859375,1.3977482318878174,-9.638960838317871,1.1432950496673584
1751214631156749600,8.99174951171875,1.3872532844543457,-9.646047592163086,1.0952987670898438
1751214631166743600,9.00174365234375,1.379897117614746,-9.652568817138672,1.0460350513458252
1751214631176737500,9.011737548828124,1.3793915510177612,-9.657851219177246,0.9967910051345825
1751214631186731300,9.021731201171875,1.386584758758545,-9.661664009094238,0.9486846923828125
1751214631196725200,9.031725341796875,1.4014337062835693,-9.663933753967285,0.9026331901550293
1751214631206719200,9.04171923828125,1.4223917722702026,-9.66469669342041,0.8607106804847717
1751214631216713200,9.051713134765626,1.4482958316802979,-9.663947105407715,0.8252047300338745
1751214631226707000,9.06170703125,1.4783433675765991,-9.661823272705078,0.7962801456451416
1751214631236701000,9.071700927734375,1.5121705532073975,-9.658489227294922,0.7728469371795654
1751214631246695000,9.08169482421875,1.550307035446167,-9.654034614562988,0.7526990175247192
1751214631256688600,9.091688720703125,1.5914628505706787,-9.64872932434082,0.7346246838569641
1751214631266682600,9.1016826171875,1.630733847618103,-9.643505096435547,0.7168709635734558
1751214631276676600,9.111676513671876,1.6602063179016113,-9.639604568481445,0.7015224695205688
1751214631286670300,9.12167041015625,1.6750301122665405,-9.63798713684082,0.6883710622787476
1751214631296664300,9.131664306640625,1.673317790031433,-9.639110565185547,0.6767113208770752
1751214631306658300,9.141658203125,1.6547272205352783,-9.642979621887207,0.6672377586364746
1751214631316652000,9.151652099609375,1.6220331192016602,-9.64893627166748,0.6613820791244507
1751214631326646000,9.16164599609375,1.5782921314239502,-9.656309127807617,0.659604549407959
1751214631336640000,9.171639892578124,1.5270586013793945,-9.66439151763916,0.6618368625640869
1751214631346634000,9.181634033203125,1.4726790189743042,-9.672341346740723,0.6688915491104126
1751214631356627700,9.191627685546875,1.4208366870880127,-9.67913818359375,0.6825670599937439
1751214631366621700,9.20162158203125,1.3729407787322998,-9.684490203857422,0.7043094038963318
1751214631376615700,9.21161572265625,1.3293765783309937,-9.688371658325195,0.733906090259552
1751214631386609400,9.221609375,1.2879925966262817,-9.691231727600098,0.7690778970718384
1751214631396603400,9.231603271484374,1.2456610202789307,-9.69372844696045,0.806439220905304
1751214631406597400,9.241597412109375,1.200916051864624,-9.696292877197266,0.8426756858825684
1751214631416591000,9.251591064453125,1.1534924507141113,-9.699061393737793,0.8763882517814636
1751214631426585000,9.261585205078125,1.1070200204849243,-9.701430320739746,0.9094794392585754
1751214631436579000,9.2715791015625,1.0672497749328613,-9.702640533447266,0.9434710741043091
1751214631446573000,9.281572998046874,1.0389916896820068,-9.702195167541504,0.9789266586303711
1751214631456566800,9.29156689453125,1.0314960479736328,-9.699145317077637,1.0163567066192627
1751214631466560800,9.301560791015625,1.05537748336792,-9.692264556884766,1.0566825866699219
1751214631476554800,9.3115546875,1.111513614654541,-9.68114185333252,1.1001917123794556
1751214631486548500,9.321548583984375,1.1789053678512573,-9.667640686035156,1.14773428440094
1751214631496542500,9.33154248046875,1.2214640378952026,-9.655733108520508,1.2021838426589966
1751214631506536400,9.341536376953124,1.2118474245071411,-9.648802757263184,1.2658714056015015
1751214631516530200,9.3515302734375,1.1529648303985596,-9.646660804748535,1.33528733253479
1751214631526524200,9.361524169921875,1.0695065259933472,-9.646735191345215,1.4025110006332397
1751214631536518100,9.37151806640625,0.9858723878860474,-9.647316932678223,1.4586721658706665
1751214631546512100,9.38151220703125,0.9133609533309937,-9.648303031921387,1.498801827430725
1751214631556505900,9.391505859375,0.8501558899879456,-9.649545669555664,1.527703046798706
1751214631566499800,9.401499755859374,0.7909378409385681,-9.65079402923584,1.5514405965805054
1751214631576493800,9.411493896484375,0.7276122570037842,-9.651559829711914,1.5774517059326172
1751214631586487600,9.421487548828125,0.6556717157363892,-9.650491714477539,1.6150809526443481
1751214631596481500,9.4314814453125,0.575774610042572,-9.645628929138184,1.673531174659729
1751214631606475500,9.4414755859375,0.49061551690101624,-9.634821891784668,1.7606546878814697
1751214631616469200,9.45146923828125,0.4078404903411865,-9.617403030395508,1.8733981847763062
1751214631626463200,9.461463134765625,0.33106160163879395,-9.594728469848633,2.000495672225952
1751214631636457200,9.471457275390625,0.2636186182498932,-9.56661605834961,2.140267848968506
1751214631646451000,9.481450927734375,0.20750240981578827,-9.533241271972656,2.290116310119629
1751214631656445000,9.49144482421875,0.17056627571582794,-9.492513656616211,2.4563138484954834
1751214631666439000,9.50143896484375,0.14676892757415771,-9.444366455078125,2.6368136405944824
1751214631676433000,9.511432861328124,0.12333259731531143,-9.394495964050293,2.8104472160339355
1751214631686426600,9.521426513671875,0.09575291723012924,-9.346756935119629,2.966367483139038
1751214631696420600,9.531420654296875,0.06415078043937683,-9.303122520446777,3.101318120956421
1751214631706414600,9.54141455078125,0.028520960360765457,-9.26471996307373,3.2147376537323
1751214631716408300,9.551408203125,-0.011813757009804249,-9.23246955871582,3.3063175678253174
1751214631726402300,9.56140234375,-0.05433240532875061,-9.207853317260742,3.3738489151000977
1751214631736396300,9.571396240234375,-0.0930037871003151,-9.191117286682129,3.4183473587036133
1751214631746390000,9.58139013671875,-0.12128958851099014,-9.181053161621094,3.4444074630737305
1751214631756384000,9.591384033203125,-0.13575516641139984,-9.175699234008789,3.458106279373169
1751214631766378000,9.6013779296875,-0.13876889646053314,-9.173422813415527,3.464019536972046
1751214631776372000,9.6113720703125,-0.13769416511058807,-9.173534393310547,3.46376633644104
1751214631786365700,9.62136572265625,-0.1401047259569168,-9.176261901855469,3.4564425945281982
1751214631796359700,9.631359619140625,-0.15199099481105804,-9.182197570800781,3.4401376247406006
1751214631806353700,9.641353759765625,-0.17402887344360352,-9.192148208618164,3.412405252456665
1751214631816347400,9.651347412109375,-0.2025517374277115,-9.206136703491211,3.372893810272217
1751214631826341400,9.66134130859375,-0.23256540298461914,-9.22378158569336,3.322371482849121
1751214631836335400,9.67133544921875,-0.2595338821411133,-9.244564056396484,3.2620656490325928
1751214631846329000,9.6813291015625,-0.2811695635318756,-9.267754554748535,3.193753957748413
1751214631856323000,9.691322998046875,-0.2964164614677429,-9.292522430419922,3.1195437908172607
1751214631866317000,9.701317138671875,-0.3037989139556885,-9.31800651550293,3.041848659515381
1751214631876310800,9.711310791015626,-0.3023659884929657,-9.343618392944336,2.962390661239624
1751214631886304800,9.7213046875,-0.29310643672943115,-9.36941909790039,2.8807055950164795
1751214631896298800,9.731298828125,-0.2783346474170685,-9.395430564880371,2.7962148189544678
1751214631906292700,9.741292724609375,-0.26068317890167236,-9.421469688415527,2.7089383602142334
1751214631916286500,9.751286376953125,-0.24202851951122284,-9.447257995605469,2.619375705718994
1751214631926280400,9.761280517578125,-0.22394879162311554,-9.472423553466797,2.5285210609436035
1751214631936274400,9.7712744140625,-0.20908059179782867,-9.496291160583496,2.4386775493621826
1751214631946268200,9.78126806640625,-0.19861097633838654,-9.518248558044434,2.352421522140503
1751214631956262100,9.79126220703125,-0.19119501113891602,-9.538302421569824,2.2703800201416016
1751214631966256000,9.801256103515625,-0.18484319746494293,-9.556802749633789,2.191741943359375
1751214631976249900,9.811249755859375,-0.17940378189086914,-9.573736190795898,2.1170241832733154
1751214631986243800,9.821243896484376,-0.174909770488739,-9.58874225616455,2.0483689308166504
1751214631996237800,9.83123779296875,-0.17014019191265106,-9.602032661437988,1.9855482578277588
1751214632006231800,9.841231689453124,-0.1630135029554367,-9.614151000976562,1.9266334772109985
1751214632016225500,9.8512255859375,-0.15128421783447266,-9.625871658325195,1.8681800365447998
1751214632026219500,9.861219482421875,-0.13374915719032288,-9.63730525970459,1.8096539974212646
1751214632036213500,9.871213623046875,-0.11067596822977066,-9.64852523803711,1.750457525253296
1751214632046207200,9.881207275390626,-0.08310560882091522,-9.659581184387207,1.6899582147598267
1751214632056201200,9.891201171875,-0.053150907158851624,-9.670382499694824,1.6282687187194824
1751214632066195200,9.9011953125,-0.02278084307909012,-9.680667877197266,1.5666968822479248
1751214632076189000,9.91118896484375,0.006855304352939129,-9.690255165100098,1.5064195394515991
1751214632086183000,9.921182861328125,0.033961765468120575,-9.699036598205566,1.4484227895736694
1751214632096177000,9.931177001953126,0.05717325955629349,-9.706950187683105,1.3936433792114258
1751214632106170600,9.941170654296876,0.07647741585969925,-9.714154243469238,1.3415511846542358
1751214632116164600,9.95116455078125,0.09292058646678925,-9.720929145812988,1.2904585599899292
1751214632126158600,9.96115869140625,0.1080244854092598,-9.72737979888916,1.2396786212921143
1751214632136152600,9.971152587890625,0.12387995421886444,-9.733341217041016,1.1904327869415283
1751214632146146300,9.981146240234375,0.14074121415615082,-9.738682746887207,1.1439532041549683
1751214632156140300,9.991140380859376,0.1564803272485733,-9.743589401245117,1.0992553234100342
1751214632166134300,10.00113427734375,0.16921991109848022,-9.748223304748535,1.0554062128067017
1751214632196116000,10.031115966796875,0.1893799901008606,-9.761919021606445,0.9162241220474243
1751214632206109700,10.041109619140625,0.18953120708465576,-9.766374588012695,0.8674159049987793
1751214632216103700,10.051103759765626,0.18522344529628754,-9.770339012145996,0.8225218653678894
1751214632226097700,10.06109765625,0.17713038623332977,-9.773665428161621,0.783879816532135
1751214632236091600,10.071091552734375,0.16840873658657074,-9.776448249816895,0.7503883838653564
1751214632246085400,10.08108544921875,0.1619943380355835,-9.778911590576172,0.7190500497817993
1751214632256079400,10.091079345703125,0.16039225459098816,-9.781234741210938,0.687099277973175
1751214632266073300,10.1010732421875,0.16397790610790253,-9.783559799194336,0.6522822976112366
1751214632276067000,10.111067138671874,0.17309005558490753,-9.785881996154785,0.6139526963233948
1751214632286061000,10.12106103515625,0.18783409893512726,-9.788209915161133,0.5710164904594421
1751214632296055000,10.131054931640625,0.20552584528923035,-9.79065227508545,0.520839273929596
1751214632306048800,10.141048828125,0.22312113642692566,-9.79316234588623,0.4632115960121155
1751214632316042800,10.151042724609376,0.23839479684829712,-9.795575141906738,0.4003200829029083
1751214632326036700,10.16103662109375,0.2508259117603302,-9.79770278930664,0.33540621399879456
1751214632336030700,10.17103076171875,0.2595854103565216,-9.799506187438965,0.2696188986301422
1751214632346024400,10.1810244140625,0.2653760015964508,-9.800930976867676,0.20426425337791443
1751214632356018400,10.191018310546875,0.2716989815235138,-9.801881790161133,0.14034102857112885
1751214632366012400,10.201012451171875,0.2812831699848175,-9.802289962768555,0.07980137318372726
1751214632395994000,10.230994140625,0.37095943093299866,-9.799250602722168,-0.08636106550693512
1751214632405987800,10.24098779296875,0.4226545989513397,-9.796502113342285,-0.14245684444904327
1751214632415981800,10.25098193359375,0.4747827649116516,-9.79316234588623,-0.1973324418067932
1751214632425975800,10.260975830078126,0.5202008485794067,-9.78972053527832,-0.2472829669713974
1751214632435969500,10.270969482421876,0.5580844283103943,-9.786446571350098,-0.29052281379699707
1751214632445963500,10.280963623046874,0.5897319316864014,-9.783502578735352,-0.32508283853530884
1751214632455957500,10.29095751953125,0.6191571354866028,-9.780929565429688,-0.34703561663627625
1751214632465951500,10.300951416015625,0.647427499294281,-9.778830528259277,-0.3545393943786621
1751214632475945200,10.3109453125,0.6756719946861267,-9.777307510375977,-0.3436477780342102
1751214632485939200,10.320939208984376,0.7109699249267578,-9.775908470153809,-0.31064677238464355
1751214632495933200,10.33093310546875,0.7603108882904053,-9.77372932434082,-0.25796568393707275
1751214632505927000,10.340927001953125,0.8251634240150452,-9.769947052001953,-0.19399620592594147
1751214632515921000,10.3509208984375,0.9003919959068298,-9.764370918273926,-0.12935569882392883
1751214632525915000,10.360914794921875,0.9759938716888428,-9.757669448852539,-0.07573700696229935
1751214632535908600,10.37090869140625,1.039015769958496,-9.751378059387207,-0.03817484900355339
1751214632545902600,10.380902587890626,1.077351450920105,-9.747286796569824,-0.010411223396658897
1751214632555896600,10.390896484375,1.0863423347473145,-9.746286392211914,0.01258778478950262
1751214632565890600,10.400890625,1.069616436958313,-9.748079299926758,0.03532161936163902
1751214632575884300,10.41088427734375,1.0359338521957397,-9.751581192016602,0.06245343014597893
1751214632585878300,10.420878173828125,0.9973930716514587,-9.7553071975708,0.09786797314882278
1751214632595872300,10.430872314453126,0.9631152749061584,-9.758231163024902,0.1404266208410263
1751214632605866000,10.440865966796874,0.9366764426231384,-9.759994506835938,0.18847456574440002
1751214632615860000,10.45085986328125,0.9218559265136719,-9.760300636291504,0.23893100023269653
1751214632625854000,10.46085400390625,0.9196853041648865,-9.759259223937988,0.2853351831436157
1751214632635847700,10.47084765625,0.9306427240371704,-9.757068634033203,0.3223176896572113
1751214632655835600,10.490835693359376,0.982855498790741,-9.750661849975586,0.35911914706230164
1751214632665829400,10.500829345703124,1.0223042964935303,-9.746603012084961,0.3591744899749756
1751214632675823400,10.5108232421875,1.0677714347839355,-9.74209976196289,0.34892016649246216
1751214632685817300,10.5208173828125,1.1148097515106201,-9.737388610839844,0.33291515707969666
1751214632695811300,10.530811279296875,1.1603139638900757,-9.732638359069824,0.31596821546554565
1751214632705805000,10.54080517578125,1.2024798393249512,-9.727983474731445,0.30128955841064453
1751214632715799000,10.550799072265624,1.2407435178756714,-9.723616600036621,0.2867680490016937
1751214632735786800,10.570786865234375,1.3077701330184937,-9.715971946716309,0.2449561357498169
1751214632745780700,10.58078076171875,1.3379108905792236,-9.712615013122559,0.21329070627689362
1751214632755774700,10.590774658203125,1.362107276916504,-9.709982872009277,0.17685966193675995
1751214632765768400,10.6007685546875,1.378281593322754,-9.708313941955566,0.1391909420490265
1751214632775762400,10.610762451171874,1.3868459463119507,-9.707534790039062,0.10402542352676392
1751214632785756400,10.62075634765625,1.388958215713501,-9.707505226135254,0.07430560886859894
1751214632795750400,10.63075048828125,1.3852248191833496,-9.708183288574219,0.05217376723885536
1751214632805744000,10.640744140625,1.3759998083114624,-9.709561347961426,0.037748198956251144
1751214632815738000,10.650738037109376,1.362166404724121,-9.711539268493652,0.029852142557501793
1751214632825732000,10.660732177734374,1.3446205854415894,-9.713993072509766,0.026844369247555733
1751214632835725800,10.670725830078124,1.3237661123275757,-9.716856956481934,0.027193935588002205
1751214632845719800,10.6807197265625,1.3006654977798462,-9.719968795776367,0.029482219368219376
1751214632855713800,10.6907138671875,1.2777233123779297,-9.723001480102539,0.032463330775499344
1751214632865707500,10.70070751953125,1.2582933902740479,-9.725523948669434,0.03543716296553612
1751214632875701500,10.710701416015626,1.2448283433914185,-9.72724723815918,0.037933044135570526
1751214632885695500,10.720695556640624,1.2374109029769897,-9.72818374633789,0.040452741086483
1751214632895689500,10.730689453125,1.2337538003921509,-9.728635787963867,0.04337224364280701
1751214632905683200,10.74068310546875,1.2315244674682617,-9.728902816772461,0.04665743559598923
1751214632915677200,10.75067724609375,1.2293914556503296,-9.72915267944336,0.05058111995458603
1751214632925671200,10.760671142578126,1.2275046110153198,-9.729362487792969,0.05592871829867363
1751214632935665000,10.770664794921874,1.225887417793274,-9.729521751403809,0.06318648159503937
1751214632945659000,10.780658935546874,1.2243709564208984,-9.729650497436523,0.07209412008523941
1751214632955652900,10.79065283203125,1.2218574285507202,-9.72989273071289,0.0814814567565918
1751214632965646600,10.800646484375,1.2167459726333618,-9.730457305908203,0.09004047513008118
1751214632975640600,10.810640625,1.208437442779541,-9.731424331665039,0.0971972793340683
1751214632985634600,10.820634521484376,1.1976302862167358,-9.732704162597656,0.10260645300149918
1751214632995628300,10.830628173828124,1.185534119606018,-9.734159469604492,0.10512547194957733
1751214633005622300,10.840622314453125,1.1746097803115845,-9.735411643981934,0.11157762259244919
1751214633015616300,10.8506162109375,1.1644803285598755,-9.736513137817383,0.12115754187107086
1751214633025610200,10.8606103515625,1.1526535749435425,-9.737762451171875,0.133249431848526
1751214633035604000,10.87060400390625,1.1371694803237915,-9.739364624023438,0.14836670458316803
1751214633045598000,10.880597900390624,1.1185377836227417,-9.741203308105469,0.16793714463710785
1751214633055592000,10.890592041015625,1.0993024110794067,-9.742965698242188,0.19115698337554932
1751214633065585700,10.900585693359375,1.080210566520691,-9.744565963745117,0.21672871708869934
1751214633075579600,10.91057958984375,1.0589070320129395,-9.74625015258789,0.2443263977766037
1751214633085573600,10.92057373046875,1.0316654443740845,-9.74833869934082,0.2755889892578125
1751214633095567400,10.9305673828125,1.000357747077942,-9.750510215759277,0.31179144978523254
1751214633105561300,10.940561279296874,0.9674569368362427,-9.752344131469727,0.355237752199173
1751214633115555300,10.950555419921875,0.9322981834411621,-9.75376033782959,0.40664055943489075
1751214633125549300,10.96054931640625,0.8931876420974731,-9.754864692687988,0.4639127552509308
1751214633135543000,10.97054296875,0.8519529104232788,-9.755518913269043,0.5238359570503235
1751214633145537000,10.980537109375,0.8132045865058899,-9.755378723144531,0.5845227837562561
1751214633155531000,10.990531005859374,0.783403754234314,-9.753997802734375,0.6451268792152405
1751214633165524700,11.000524658203124,0.7717804312705994,-9.750764846801758,0.705219566822052
1751214633175518700,11.010518798828125,0.7801370620727539,-9.745329856872559,0.7683224678039551
1751214633185512700,11.0205126953125,0.800033688545227,-9.737910270690918,0.8387192487716675
1751214633195506400,11.03050634765625,0.8122743368148804,-9.729513168334961,0.9204272627830505
1751214633205500400,11.04050048828125,0.799461305141449,-9.721200942993164,1.014642596244812
1751214633215494400,11.050494384765624,0.7610629200935364,-9.713088035583496,1.1167314052581787
1751214633225488100,11.060488037109375,0.7005675435066223,-9.706268310546875,1.211590051651001
1751214633235482000,11.070482177734375,0.6160348653793335,-9.702393531799316,1.2862547636032104
1751214633245476000,11.08047607421875,0.5158510208129883,-9.70119857788086,1.3383002281188965
1751214633255470000,11.090469970703126,0.40976929664611816,-9.701702117919922,1.3709317445755005
1751214633265463800,11.1004638671875,0.307481586933136,-9.702866554260254,1.389323353767395
1751214633275457800,11.110457763671874,0.22034232318401337,-9.703815460205078,1.3992120027542114
1751214633285451800,11.12045166015625,0.1562308371067047,-9.704256057739258,1.4047698974609375
1751214633295445500,11.130445556640625,0.11320971697568893,-9.704551696777344,1.4068533182144165
1751214633305439500,11.140439453125,0.0829571932554245,-9.704100608825684,1.412074327468872
1751214633315433500,11.15043359375,0.054758064448833466,-9.701400756835938,1.4318594932556152
1751214633325427200,11.16042724609375,0.022348372265696526,-9.694717407226562,1.4772785902023315
1751214633335421200,11.170421142578125,-0.01737235300242901,-9.682012557983398,1.5584321022033691
1751214633345415200,11.180415283203125,-0.06511484831571579,-9.661782264709473,1.678124189376831
1751214633355409200,11.1904091796875,-0.1166483610868454,-9.633793830871582,1.8294228315353394
1751214633365403000,11.20040283203125,-0.17387272417545319,-9.59835147857666,2.0029513835906982
1751214633375396900,11.21039697265625,-0.23992817103862762,-9.556386947631836,2.188217878341675
1751214633385390800,11.220390869140624,-0.3191884458065033,-9.51107406616211,2.3681182861328125
1751214633395384600,11.230384521484375,-0.41141802072525024,-9.464045524597168,2.536332368850708
1751214633405378600,11.240378662109375,-0.5092753171920776,-9.416682243347168,2.6901912689208984
1751214633415372500,11.25037255859375,-0.6069962382316589,-9.370296478271484,2.828333616256714
1751214633425366300,11.2603662109375,-0.702436625957489,-9.326000213623047,2.950031042098999
1751214633435360300,11.2703603515625,-0.7959963083267212,-9.286678314208984,3.048671245574951
1751214633445354200,11.280354248046875,-0.8772528767585754,-9.254401206970215,3.123600721359253
1751214633455348000,11.290347900390625,-0.9307268857955933,-9.230151176452637,3.1793785095214844
1751214633465342000,11.300342041015625,-0.9453073143959045,-9.213698387145996,3.2225046157836914
1751214633475336000,11.3103359375,-0.9219830632209778,-9.203200340270996,3.2590537071228027
1751214633485330000,11.320329833984376,-0.8738934993743896,-9.195674896240234,3.2933640480041504
1751214633495323600,11.33032373046875,-0.821139395236969,-9.188788414001465,3.326000928878784
1751214633505317600,11.340317626953125,-0.784503161907196,-9.181685447692871,3.3543384075164795
1751214633515311600,11.3503115234375,-0.777549684047699,-9.175498008728027,3.3728396892547607
1751214633525305300,11.360305419921875,-0.7993761301040649,-9.17180347442627,3.377781629562378
1751214633535299300,11.37029931640625,-0.8370088338851929,-9.171486854553223,3.3695156574249268
1751214633545293300,11.380293212890624,-0.8749142289161682,-9.174958229064941,3.3503830432891846
1751214633555287000,11.390287109375,-0.9033800363540649,-9.182218551635742,3.3228232860565186
1751214633565281000,11.400281005859375,-0.9188269376754761,-9.19201374053955,3.2913568019866943
1751214633575275000,11.41027490234375,-0.921395480632782,-9.20304012298584,3.2596731185913086
1751214633585269000,11.42026904296875,-0.9137735366821289,-9.21449089050293,3.2293312549591064
1751214633595262700,11.4302626953125,-0.8999369740486145,-9.225430488586426,3.201862335205078
1751214633605256700,11.440256591796874,-0.8838337659835815,-9.2352933883667,3.177825450897217
1751214633615250700,11.450250732421875,-0.8674939274787903,-9.244009017944336,3.156918525695801
1751214633625244400,11.460244384765625,-0.851396918296814,-9.252418518066406,3.136599540710449
1751214633635238400,11.47023828125,-0.8358194231987,-9.261360168457031,3.114321708679199
1751214633645232400,11.480232421875,-0.8209799528121948,-9.271635055541992,3.087583303451538
1751214633655226000,11.49022607421875,-0.8064962029457092,-9.283997535705566,3.0540714263916016
1751214633675214000,11.510214111328125,-0.7722705006599426,-9.31606388092041,2.9639382362365723
1751214633685208000,11.5202080078125,-0.7459211349487305,-9.335655212402344,2.908526659011841
1751214633695201800,11.530201904296876,-0.7108424305915833,-9.35751724243164,2.8463921546936035
1751214633705195800,11.54019580078125,-0.6661548614501953,-9.381144523620605,2.778623104095459
1751214633715189800,11.550189697265624,-0.6124004125595093,-9.405603408813477,2.7073910236358643
1751214633725183500,11.56018359375,-0.5504965782165527,-9.43014144897461,2.6343464851379395
1751214633735177500,11.570177490234375,-0.4809825122356415,-9.454141616821289,2.5609071254730225
1751214633745171500,11.58017138671875,-0.404739111661911,-9.476975440979004,2.488675117492676
1751214633755165200,11.590165283203126,-0.3242409825325012,-9.498294830322266,2.4181911945343018
1751214633765159200,11.6001591796875,-0.24372895061969757,-9.51774787902832,2.3502023220062256
1751214633775153200,11.610153076171875,-0.1693132370710373,-9.535042762756348,2.2857563495635986
1751214633785147000,11.62014697265625,-0.10613524913787842,-9.550010681152344,2.226304054260254
1751214633795140900,11.630140869140625,-0.05624702572822571,-9.562780380249023,2.1726644039154053
1751214633805134800,11.640134765625,-0.020096389576792717,-9.573765754699707,2.1243784427642822
1751214633815128800,11.65012890625,0.0028749466873705387,-9.583415985107422,2.0805084705352783
1751214633825122600,11.66012255859375,0.014403951354324818,-9.591967582702637,2.0406715869903564
1751214633835116500,11.670116455078125,0.0171199981123209,-9.599693298339844,2.0039896965026855
1751214633845110500,11.680110595703125,0.014654732309281826,-9.606892585754395,1.9692084789276123
1751214633855104300,11.690104248046875,0.01080755889415741,-9.613733291625977,1.9355623722076416
1751214633865098200,11.70009814453125,0.008955947123467922,-9.62027645111084,1.9027855396270752
1751214633875092200,11.71009228515625,0.01088276319205761,-9.626564025878906,1.8706992864608765
1751214633885086000,11.7200859375,0.016807135194540024,-9.632575035095215,1.8394564390182495
1751214633895080000,11.730079833984375,0.026293214410543442,-9.638374328613281,1.8087146282196045
1751214633905074000,11.740073974609375,0.03870781511068344,-9.644085884094238,1.7777749300003052
1751214633915068000,11.75006787109375,0.052676375955343246,-9.649881362915039,1.7456800937652588
1751214633925061600,11.7600615234375,0.06654511392116547,-9.655808448791504,1.7121086120605469
1751214633935055600,11.7700556640625,0.08021257817745209,-9.661930084228516,1.676619291305542
1751214633945049600,11.780049560546875,0.0938449427485466,-9.668170928955078,1.6395279169082642
1751214633955043300,11.790043212890625,0.10787330567836761,-9.674616813659668,1.6001691818237305
1751214633965037300,11.800037353515625,0.12139441072940826,-9.681313514709473,1.5581440925598145
1751214633975031300,11.81003125,0.13238109648227692,-9.688409805297852,1.5124764442443848
1751214633985025000,11.82002490234375,0.13918671011924744,-9.69594955444336,1.4627273082733154
1751214633995019000,11.83001904296875,0.14045386016368866,-9.703794479370117,1.4096211194992065
1751214634005013000,11.840012939453125,0.1362227499485016,-9.711785316467285,1.3538976907730103
1751214634015006700,11.8500068359375,0.127486914396286,-9.719585418701172,1.2976088523864746
1751214634025000700,11.860000732421875,0.11561758071184158,-9.726911544799805,1.2426648139953613
1751214634034994700,11.86999462890625,0.10123954713344574,-9.733686447143555,1.1897478103637695
1751214634044988700,11.87998876953125,0.08599158376455307,-9.739792823791504,1.1399307250976562
1751214634054982400,11.889982421875,0.07105480134487152,-9.745261192321777,1.0932612419128418
1751214634064976400,11.899976318359375,0.05701705068349838,-9.75022029876709,1.0489741563796997
1751214634074970400,11.909970458984375,0.043781690299510956,-9.754703521728516,1.007088303565979
1751214634084964000,11.919964111328126,0.03226896747946739,-9.758772850036621,0.9673157334327698
1751214634094958000,11.9299580078125,0.022854916751384735,-9.762534141540527,0.9288662672042847
1751214634104952000,11.9399521484375,0.016078049317002296,-9.765935897827148,0.8925347924232483
1751214634114945800,11.94994580078125,0.014243951998651028,-9.768857955932617,0.8600056171417236
1751214634124939800,11.959939697265625,0.02154393494129181,-9.77122688293457,0.8324958086013794
1751214634134933800,11.969933837890625,0.04488630220293999,-9.77308464050293,0.8094330430030823
1751214634144927700,11.979927734375,0.08946215361356735,-9.774528503417969,0.7880098819732666
1751214634154921500,11.98992138671875,0.15604232251644135,-9.775432586669922,0.7661350965499878
1751214634164915500,11.99991552734375,0.24240033328533173,-9.77543830871582,0.7432609796524048
1751214634174909400,12.009909423828125,0.34644055366516113,-9.77404499053955,0.7200023531913757
1751214634184903200,12.019903076171875,0.4618847966194153,-9.77093505859375,0.6970454454421997
1751214634194897200,12.029897216796876,0.577264130115509,-9.76649284362793,0.6728784441947937
1751214634204891100,12.03989111328125,0.6790052056312561,-9.761750221252441,0.646192729473114
1751214634214884900,12.049884765625,0.7533928751945496,-9.758235931396484,0.6161430478096008
1751214634224878800,12.05987890625,0.7923274636268616,-9.757248878479004,0.5819911360740662
1751214634234872800,12.069872802734375,0.796130359172821,-9.759142875671387,0.5437621474266052
1751214634244866600,12.079866455078125,0.7755276560783386,-9.763011932373047,0.5025286674499512
1751214634254860500,12.089860595703126,0.7455237507820129,-9.767080307006836,0.46766600012779236
1751214634264854500,12.0998544921875,0.7099778652191162,-9.770684242248535,0.4472667872905731
1751214634274848500,12.1098486328125,0.6632668972015381,-9.774230003356934,0.4414556920528412
1751214634284842200,12.11984228515625,0.6168166995048523,-9.776510238647461,0.4580089747905731
1751214634294836200,12.129836181640625,0.5947737693786621,-9.775492668151855,0.5063460469245911
1751214634304830200,12.139830322265626,0.610420823097229,-9.770580291748047,0.5775341987609863
1751214634314824000,12.149823974609374,0.6528279781341553,-9.763352394104004,0.6489700078964233
1751214634324818000,12.15981787109375,0.7007413506507874,-9.756126403808594,0.7052302360534668
1751214634334812000,12.16981201171875,0.7420039176940918,-9.75014591217041,0.7446250915527344
1751214634344805600,12.1798056640625,0.7713057398796082,-9.745783805847168,0.77147376537323
1751214634354799600,12.189799560546875,0.7880702018737793,-9.743013381958008,0.7893253564834595
1751214634364793600,12.199793701171876,0.7999311685562134,-9.741154670715332,0.8002505302429199
1751214634404769300,12.239769287109375,0.9859410524368286,-9.724935531616211,0.7898908257484436
1751214634414763000,12.249762939453126,1.0795273780822754,-9.716761589050293,0.7678179144859314
1751214634424757000,12.259757080078124,1.1857757568359375,-9.706148147583008,0.7449925541877747
1751214634434751000,12.2697509765625,1.296600341796875,-9.693056106567383,0.7306751608848572
1751214634444744700,12.27974462890625,1.4000283479690552,-9.678686141967773,0.7302958369255066
1751214634454738700,12.28973876953125,1.4779467582702637,-9.666179656982422,0.7423176765441895
1751214634464732700,12.299732666015625,1.5135443210601807,-9.659073829650879,0.7628119587898254
1751214634474726700,12.3097265625,1.4977567195892334,-9.659904479980469,0.7831622362136841
1751214634484720400,12.319720458984374,1.4323328733444214,-9.669082641601562,0.7922451496124268
1751214634494714400,12.32971435546875,1.3319876194000244,-9.684001922607422,0.7850457429885864
1751214634504708400,12.339708251953125,1.2166374921798706,-9.70100212097168,0.7620518207550049
1751214634514702000,12.3497021484375,1.1058212518692017,-9.716958045959473,0.726830244064331
1751214634524696000,12.359696044921876,1.0162353515625,-9.729795455932617,0.6846500039100647
1751214634534690000,12.36968994140625,0.9571242928504944,-9.739045143127441,0.6366297602653503
1751214634544683800,12.379683837890624,0.9279770255088806,-9.745302200317383,0.5816697478294373
1751214634554677800,12.389677734375,0.9252345561981201,-9.74902629852295,0.5204002261161804
1751214634564671700,12.399671630859375,0.9437451362609863,-9.750434875488281,0.45689600706100464
1751214634574665500,12.40966552734375,0.978434145450592,-9.749699592590332,0.3954842686653137
1751214634584659500,12.419659423828126,1.025536298751831,-9.74698257446289,0.33912622928619385
1751214634594653400,12.4296533203125,1.078495740890503,-9.742877960205078,0.2890757620334625
1751214634604647400,12.4396474609375,1.1309256553649902,-9.738171577453613,0.24376587569713593
1751214634614641200,12.44964111328125,1.179092526435852,-9.733376502990723,0.2037738859653473
1751214634624635100,12.45963525390625,1.2231793403625488,-9.72860336303711,0.1688200831413269
1751214634634629000,12.469629150390626,1.2670120000839233,-9.72350788116455,0.13587702810764313
1751214634644622800,12.479622802734376,1.3156518936157227,-9.71746826171875,0.1012941375374794
1751214634664610800,12.49961083984375,1.4358017444610596,-9.700939178466797,0.02554924227297306
1751214634674604500,12.5096044921875,1.499644160270691,-9.691306114196777,-0.0069177644327282906
1751214634684598500,12.5195986328125,1.5583223104476929,-9.681998252868652,-0.03027111105620861
1751214634694592500,12.529592529296876,1.6055517196655273,-9.674237251281738,-0.04141288250684738
1751214634704586500,12.53958642578125,1.6355198621749878,-9.669220924377441,-0.04031992331147194
1751214634714580200,12.549580322265625,1.6449271440505981,-9.66766357421875,-0.029916316270828247
1751214634724574200,12.55957421875,1.6323899030685425,-9.669827461242676,-0.012002651579678059
1751214634734568200,12.569568115234375,1.6007367372512817,-9.675116539001465,0.012395125813782215
1751214634744562000,12.57956201171875,1.5555894374847412,-9.682392120361328,0.04265015944838524
1751214634754556000,12.589555908203126,1.5022000074386597,-9.690606117248535,0.0770820900797844
1751214634764550000,12.5995498046875,1.4462318420410156,-9.698745727539062,0.11456190794706345
1751214634774543600,12.609543701171875,1.3933651447296143,-9.705926895141602,0.15457619726657867
1751214634784537600,12.61953759765625,1.3461406230926514,-9.711825370788574,0.19683605432510376
1751214634794531600,12.629531494140625,1.3056210279464722,-9.716347694396973,0.241519957780838
1751214634804525300,12.639525390625,1.2730745077133179,-9.71938705444336,0.2884299159049988
1751214634814519300,12.649519287109374,1.244993805885315,-9.721428871154785,0.33794835209846497
1751214634824513300,12.65951318359375,1.2146353721618652,-9.723333358764648,0.3896542489528656
1751214634834507300,12.66950732421875,1.1758151054382324,-9.725807189941406,0.44330427050590515
1751214634844501000,12.6795009765625,1.125363826751709,-9.729072570800781,0.49909737706184387
1751214634854495000,12.689494873046876,1.063915491104126,-9.73280143737793,0.5577037334442139
1751214634864489000,12.699489013671876,0.9918807148933411,-9.736835479736328,0.6169241666793823
1751214634874482700,12.709482666015624,0.9118257761001587,-9.740825653076172,0.6747274398803711
1751214634884476700,12.7194765625,0.8272451758384705,-9.74440860748291,0.729761004447937
1751214634894470700,12.729470703125,0.7394179701805115,-9.747428894042969,0.7818297743797302
1751214634904464400,12.73946435546875,0.6515164971351624,-9.749603271484375,0.831362783908844
1751214634914458400,12.749458251953126,0.5678038001060486,-9.750646591186523,0.8791335821151733
1751214634924452400,12.759452392578124,0.49119988083839417,-9.750460624694824,0.9260748624801636
1751214634934446300,12.7694462890625,0.4259851276874542,-9.749088287353516,0.9716919660568237
1751214634944440000,12.779440185546875,0.37225237488746643,-9.746766090393066,1.0160530805587769
1751214634954434000,12.78943408203125,0.3277681767940521,-9.743748664855957,1.0593894720077515
1751214634964428000,12.799427978515626,0.2900222837924957,-9.740335464477539,1.1009739637374878
1751214634974421800,12.809421875,0.25818875432014465,-9.737398147583008,1.1343700885772705
1751214634984415700,12.819415771484374,0.22733035683631897,-9.735285758972168,1.1588413715362549
1751214634994409700,12.82940966796875,0.19282172620296478,-9.73365592956543,1.1786214113235474
1751214635004403500,12.839403564453125,0.15161654353141785,-9.731937408447266,1.1986631155014038
1751214635014397400,12.8493974609375,0.1013256311416626,-9.729717254638672,1.2217680215835571
1751214635024391400,12.859391357421876,0.04346241056919098,-9.72681999206543,1.247982144355774
1751214635034385400,12.869385498046874,-0.01664799079298973,-9.723129272460938,1.2770557403564453
1751214635044379100,12.879379150390625,-0.07452280819416046,-9.71845531463623,1.3101340532302856
1751214635054373000,12.889373046875,-0.12790748476982117,-9.712270736694336,1.3512321710586548
1751214635064367000,12.8993671875,-0.18115930259227753,-9.703545570373535,1.4066872596740723
1751214635074360800,12.90936083984375,-0.2488187551498413,-9.691366195678711,1.4784797430038452
1751214635084354800,12.919354736328126,-0.34432393312454224,-9.674449920654297,1.5674362182617188
1751214635094348800,12.929348876953124,-0.4637080729007721,-9.650683403015137,1.6791861057281494
1751214635104342500,12.939342529296875,-0.5946369767189026,-9.618874549865723,1.8149501085281372
1751214635114336500,12.94933642578125,-0.7254911661148071,-9.57990550994873,1.967090129852295
1751214635124330500,12.95933056640625,-0.8413940072059631,-9.536674499511719,2.124682664871216
1751214635134324200,12.96932421875,-0.9343809485435486,-9.491520881652832,2.282180070877075
1751214635144318200,12.979318115234374,-0.9962554574012756,-9.445180892944336,2.4426229000091553
1751214635154312200,12.989312255859375,-1.032663345336914,-9.3973388671875,2.6065337657928467
1751214635164306200,12.99930615234375,-1.05275297164917,-9.350241661071777,2.7631657123565674
1751214635174300000,13.0092998046875,-1.0612187385559082,-9.307284355163574,2.901489019393921
