time,seconds_elapsed,z,y,x
1751214622312446200,0.1474462890625,0.19481009244918823,-0.15606112778186798,0.026098959147930145
1751214622322251300,0.157251220703125,0.2150501012802124,-0.2444780021905899,0.05699160322546959
1751214622332059400,0.167059326171875,0.23529011011123657,-0.3531349003314972,0.08894951641559601
1751214622341877800,0.176877685546875,0.2800311744213104,-0.46392232179641724,0.11877689510583878
1751214622351712800,0.186712646484375,0.3418164849281311,-0.5715139508247375,0.1411474347114563
1751214622361570300,0.1965703125,0.39081859588623047,-0.699345588684082,0.13901691138744354
1751214622371455000,0.206455078125,0.43342915177345276,-0.8559393286705017,0.12090742588043213
1751214622381369900,0.216369873046875,0.49414917826652527,-1.0317078828811646,0.12197268754243851
1751214622391317200,0.226317138671875,0.5910881757736206,-1.2138679027557373,0.17097482085227966
1751214622401297400,0.23629736328125,0.7146587371826172,-1.4503564834594727,0.26578328013420105
1751214622411309600,0.2463095703125,0.8222503662109375,-1.7251944541931152,0.3946801722049713
1751214622421351700,0.2563515625,0.9053409099578857,-1.9829882383346558,0.5587307810783386
1751214622431421000,0.2664208984375,0.987366259098053,-2.1853883266448975,0.729172945022583
1751214622441513000,0.276512939453125,1.0693914890289307,-2.331329584121704,0.863396167755127
1751214622451623000,0.286622802734375,1.1535474061965942,-2.4272031784057617,0.9273120164871216
1751214622461745700,0.29674560546875,1.2526168823242188,-2.4921844005584717,0.9294425249099731
1751214622471875300,0.306875244140625,1.3879053592681885,-2.5529043674468994,0.8900277614593506
1751214622482006300,0.31700634765625,1.544499158859253,-2.6423864364624023,0.833568811416626
1751214622492031500,0.327031494140625,1.6872444152832031,-2.7915234565734863,0.7856319546699524
1751214622502025200,0.337025146484375,1.8491644859313965,-2.9651613235473633,0.7760445475578308
1751214622512019200,0.347019287109375,2.044107675552368,-3.1387994289398193,0.8175898194313049
1751214622522013200,0.35701318359375,2.2795310020446777,-3.3166983127593994,0.9070720076560974
1751214622532007000,0.3670068359375,2.585261583328247,-3.5308163166046143,1.014663577079773
1751214622542001000,0.3770009765625,2.993257761001587,-3.8685050010681152,1.1318426132202148
1751214622551994600,0.38699462890625,3.449190616607666,-4.25306510925293,1.2564784288406372
1751214622561988600,0.396988525390625,3.835881233215332,-4.5715789794921875,1.369396448135376
1751214622571982300,0.406982421875,4.057456016540527,-4.735629558563232,1.4226596355438232
1751214622581976300,0.416976318359375,4.179961204528809,-4.756934642791748,1.3832448720932007
1751214622591970000,0.426969970703125,4.336555004119873,-4.736694812774658,1.3044153451919556
1751214622601964000,0.436964111328125,4.444146633148193,-4.686627388000488,1.2543479204177856
1751214622611957800,0.446957763671875,4.410058498382568,-4.570513725280762,1.2564784288406372
1751214622621951700,0.45695166015625,4.266247749328613,-4.3531999588012695,1.294827938079834
1751214622631945500,0.466945556640625,4.069173812866211,-4.027229309082031,1.3630048036575317
1751214622641939500,0.476939453125,3.8784916400909424,-3.706584930419922,1.399223804473877
1751214622651933200,0.48693310546875,3.7495949268341064,-3.477553129196167,1.378983736038208
1751214622661927200,0.49692724609375,3.717637062072754,-3.294327735900879,1.3001543283462524
1751214622671921000,0.5069208984375,3.7080495357513428,-3.090862512588501,1.1691268682479858
1751214622681915000,0.516914794921875,3.6537210941314697,-2.8245465755462646,1.0327731370925903
1751214622691908600,0.52690869140625,3.573826313018799,-2.534794807434082,0.9315730333328247
1751214622701902600,0.536902587890625,3.493931531906128,-2.2556958198547363,0.8740488290786743
1751214622711896300,0.546896240234375,3.419363021850586,-1.986184000968933,0.8388951420783997
1751214622721890300,0.556890380859375,3.349055767059326,-1.721998691558838,0.8111982345581055
1751214622731884000,0.566884033203125,3.284074544906616,-1.4855101108551025,0.7685877084732056
1751214622741877800,0.576877685546875,3.2329421043395996,-1.2863059043884277,0.7110635042190552
1751214622751871700,0.586871826171875,3.22548508644104,-1.1084067821502686,0.6492781639099121
1751214622761865500,0.596865478515625,3.2393336296081543,-0.9656614661216736,0.6141244769096375
1751214622771859500,0.606859375,3.2585082054138184,-0.8484824895858765,0.6386255621910095
1751214622781853200,0.616853271484375,3.211636781692505,-0.7930887937545776,0.729172945022583
1751214622791847200,0.62684716796875,3.0742177963256836,-0.8559393286705017,0.887897253036499
1751214622801841000,0.6368408203125,2.8771438598632812,-1.0231857299804688,1.0785794258117676
1751214622811835000,0.6468349609375,2.720550298690796,-1.1510173082351685,1.2564784288406372
1751214622821828600,0.65682861328125,2.590588092803955,-1.1691268682479858,1.326785922050476
1751214622831822600,0.666822509765625,2.4648869037628174,-1.1595394611358643,1.252217411994934
1751214622841816600,0.676816650390625,2.3093583583831787,-0.757935106754303,0.812263548374176
1751214622851810600,0.686810546875,2.1719393730163574,-0.12303794920444489,0.08042740821838379
1751214622861804300,0.69680419921875,2.1421120166778564,0.2966759204864502,-0.40213701128959656
1751214622871798300,0.70679833984375,1.955690860748291,0.7217161059379578,-0.6641919016838074
1751214622881792300,0.716792236328125,1.5924359560012817,0.8783098459243774,-0.6098634600639343
1751214622891786000,0.726785888671875,1.1024147272109985,0.8548740744590759,-0.3488738536834717
1751214622901780000,0.736780029296875,0.6134586930274963,0.6961497664451599,0.03994738683104515
1751214622911774000,0.74677392578125,0.17457008361816406,0.4095938801765442,0.4745749533176422
1751214622921767700,0.756767578125,-0.09281109273433685,0.23169484734535217,0.5928192138671875
1751214622931761700,0.76676171875,-0.11624689400196075,0.14327795803546906,0.22210747003555298
1751214622941755600,0.776755615234375,-0.06191844865679741,0.062317922711372375,-0.20399798452854156
1751214622951749400,0.786749267578125,-0.023568958044052124,-0.06657897680997849,-0.4223770201206207
1751214622961743400,0.796743408203125,-0.043808966875076294,-0.3190464675426483,-0.43089914321899414
1751214622971737300,0.8067373046875,-0.11624689400196075,-0.7025413513183594,-0.3158506751060486
1751214622981731300,0.8167314453125,-0.1940111368894577,-1.0796446800231934,-0.12623374164104462
1751214622991725000,0.82672509765625,-0.2589922249317169,-1.369396448135376,0.04314317926764488
1751214623001719000,0.836718994140625,-0.3154512047767639,-1.5494259595870972,0.12410321086645126
1751214623011713000,0.846713134765625,-0.3878891170024872,-1.582449197769165,0.08042740821838379
1751214623021706800,0.856706787109375,-0.491219699382782,-1.4546175003051758,-0.06977476924657822
1751214623031700700,0.86670068359375,-0.6307692527770996,-1.20321524143219,-0.2721748650074005
1751214623041694700,0.87669482421875,-0.7990809082984924,-0.9081372618675232,-0.4937497079372406
1751214623061682400,0.896682373046875,-1.2677968740463257,-0.502271831035614,-0.48629283905029297
1751214623071676400,0.906676513671875,-1.472327470779419,-0.3105243444442749,-0.3850927948951721
1751214623081670400,0.91667041015625,-1.595898151397705,-0.04846949502825737,-0.3424822688102722
1751214623091664100,0.9266640625,-1.6470307111740112,0.21038956940174103,-0.3531349003314972
1751214623101658000,0.936658203125,-1.6214643716812134,0.3627222776412964,-0.38402754068374634
1751214623111652000,0.946652099609375,-1.5202643871307373,0.3669833242893219,-0.3808317482471466
1751214623121645800,0.956645751953125,-1.3636705875396729,0.26578328013420105,-0.36378753185272217
1751214623131639800,0.966639892578125,-1.136769413948059,0.06977476924657822,-0.3392864763736725
1751214623141633800,0.9766337890625,-0.9343693852424622,-0.13369058072566986,-0.2860232889652252
1751214623151627500,0.98662744140625,-0.7756450772285461,-0.16564849019050598,-0.13369058072566986
1751214623161621500,0.99662158203125,-0.5562008023262024,-0.04846949502825737,-0.058056868612766266
1751214623171615500,1.006615478515625,-0.3165164589881897,-0.013315795920789242,-0.12836426496505737
1751214623181609500,1.016609375,-0.13116058707237244,0.03249054029583931,-0.27963170409202576
1751214623191603200,1.026603271484375,0.010519478470087051,0.20506325364112854,-0.4234423041343689
1751214623201597200,1.03659716796875,0.12450268864631653,0.4554001986980438,-0.4990760087966919
1751214623211591200,1.046591064453125,0.19481009244918823,0.6503434777259827,-0.5395560264587402
1751214623221585000,1.0565849609375,0.27363958954811096,0.7856319546699524,-0.5874928832054138
1751214623231579000,1.066578857421875,0.4121238589286804,0.8665919899940491,-0.6471476554870605
1751214623241572900,1.07657275390625,0.6294376254081726,0.9592698812484741,-0.7238466143608093
1751214623251566600,1.086566650390625,0.9426251649856567,1.072187900543213,-0.8410256505012512
1751214623261560600,1.096560546875,1.234507441520691,1.1659311056137085,-1.0274467468261719
1751214623271554600,1.106554443359375,1.4251896142959595,1.2138679027557373,-1.3012195825576782
1751214623281548300,1.11654833984375,1.531715989112854,1.1574089527130127,-1.6016238927841187
1751214623291542300,1.126542236328125,1.6542212963104248,1.0082720518112183,-1.7965670824050903
1751214623301536300,1.136536376953125,2.0824573040008545,0.863396167755127,-1.902028203010559
1751214623311530200,1.1465302734375,2.720550298690796,0.8346340656280518,-1.9670093059539795
1751214623321524000,1.15652392578125,3.4225590229034424,0.8442214131355286,-1.9893798828125
1751214623331518000,1.16651806640625,4.058521270751953,0.7653919458389282,-1.9808577299118042
1751214623341512000,1.176511962890625,4.576239585876465,0.6972150802612305,-1.9552913904190063
1751214623351505700,1.186505615234375,5.016193389892578,0.7068024277687073,-1.9212030172348022
1751214623361499600,1.196499755859375,5.223919868469238,0.5874928832054138,-1.8221334218978882
1751214623371493600,1.20649365234375,5.047085762023926,0.4426170289516449,-1.5899059772491455
1751214623381487400,1.2164873046875,4.231093883514404,0.050600022077560425,-1.2788490056991577
1751214623391481300,1.2264814453125,2.834533452987671,-0.30839383602142334,-0.9038761854171753
1751214623401475300,1.236475341796875,1.5285202264785767,-0.5033370852470398,-0.4415517747402191
1751214623411469300,1.24646923828125,0.7689871788024902,-0.343547523021698,0.029294749721884727
1751214623421463000,1.256463134765625,0.327968031167984,-0.14008216559886932,0.4841623306274414
1751214623431457000,1.26645703125,0.032890014350414276,-0.061252661049366,0.871918261051178
1751214623441451000,1.276450927734375,-0.13435637950897217,-0.12410321086645126,1.1286468505859375
1751214623451444700,1.28644482421875,-0.11198583990335464,-0.26152223348617554,1.2980237007141113
1751214623461438700,1.296438720703125,0.11704584211111069,-0.26152223348617554,1.4546175003051758
1751214623471432700,1.3064326171875,0.3854922652244568,-0.16564849019050598,1.5590133666992188
1751214623481426400,1.316426513671875,0.5783050060272217,-0.1688442826271057,1.5164028406143188
1751214623491420400,1.32642041015625,0.7199850678443909,-0.2487390637397766,1.3512868881225586
1751214623501414400,1.336414306640625,0.7934882640838623,-0.3808317482471466,1.0988194942474365
1751214623511408000,1.346408203125,0.8169240355491638,-0.5352949500083923,0.8101329803466797
1751214623521402000,1.356402099609375,0.8467514514923096,-0.6396908164024353,0.5427518486976624
1751214623531396000,1.36639599609375,0.9138630628585815,-0.6418213248252869,0.3531349003314972
1751214623541390000,1.37639013671875,1.0108020305633545,-0.5352949500083923,0.23702116310596466
1751214623551383800,1.3863837890625,1.1460905075073242,-0.42024651169776917,0.10599373281002045
1751214623561377800,1.396377685546875,1.300553798675537,-0.297741174697876,-0.06444845348596573
1751214623571371800,1.406371826171875,1.4560822248458862,-0.09534109383821487,-0.17310534417629242
1751214623581365500,1.416365478515625,1.5668696165084839,0.1507348120212555,-0.08894951641559601
1751214623591359500,1.426359375,1.5721960067749023,0.2775011658668518,0.14221268892288208
1751214623601353500,1.436353515625,1.4923012256622314,0.3051980435848236,0.31798118352890015
1751214623611347200,1.44634716796875,1.4017537832260132,0.2018674612045288,0.3818970024585724
1751214623621341200,1.456341064453125,1.365534782409668,-0.038882121443748474,0.3573959469795227
1751214623631335200,1.466335205078125,1.3868401050567627,-0.3488738536834717,0.2402169555425644
1751214623641329200,1.4763291015625,1.434777021408081,-0.6759097576141357,0.06870950758457184
1751214623651323000,1.486322998046875,1.469930648803711,-0.9273120164871216,-0.11345057934522629
1751214623661316900,1.49631689453125,1.489105463027954,-1.071122646331787,-0.29454538226127625
1751214623671310800,1.506310791015625,1.4784528017044067,-1.119059443473816,-0.49588021636009216
1751214623681304600,1.5163046875,1.4496906995773315,-1.1030805110931396,-0.7163897752761841
1751214623691298600,1.526298583984375,1.3836443424224854,-1.0061415433883667,-0.9496825337409973
1751214623701292500,1.53629248046875,1.2504863739013672,-0.8186551332473755,-1.2085416316986084
1751214623711286300,1.546286376953125,0.9735178351402283,-0.7728487849235535,-1.592036485671997
1751214623721280300,1.5562802734375,0.594283938407898,-0.8080024719238281,-1.8391777276992798
1751214623731274200,1.566274169921875,0.09893636405467987,-0.7675224542617798,-1.6804534196853638
1751214623741268000,1.57626806640625,-0.434760719537735,-0.8538088202476501,-1.2117373943328857
1751214623751262000,1.586261962890625,-0.6787061095237732,-1.1030805110931396,-0.7227813601493835
1751214623761256000,1.596255859375,-0.5934849977493286,-1.3427648544311523,-0.40213701128959656
1751214623771250000,1.60625,-0.48269757628440857,-1.3289164304733276,-0.23915168642997742
1751214623781243600,1.61624365234375,-0.4954807460308075,-0.9230509400367737,-0.12942953407764435
1751214623791237600,1.626237548828125,-0.44115230441093445,-0.5938844680786133,-0.021837905049324036
1751214623801231600,1.636231689453125,-0.33782172203063965,-0.297741174697876,0.12303794920444489
1751214623811225300,1.646225341796875,-0.2824280261993408,0.11984215676784515,0.27963170409202576
1751214623821219300,1.65621923828125,-0.16737954318523407,0.37444016337394714,0.4287686049938202
1751214623831213300,1.66621337890625,0.012650005519390106,0.2828274965286255,0.5534044504165649
1751214623841207000,1.67620703125,0.17670060694217682,-0.05592634156346321,0.6578003168106079
1751214623851201000,1.686200927734375,0.2896185517311096,-0.4511391520500183,0.7462171912193298
1751214623861195000,1.696195068359375,0.3577954173088074,-0.7707182168960571,0.8016108870506287
1751214623871189000,1.70618896484375,0.4046670198440552,-0.9976193904876709,0.8229161500930786
1751214623881182700,1.7161826171875,0.43875545263290405,-1.2245205640792847,0.879375159740448
1751214623891176700,1.7261767578125,0.4366249442100525,-1.2831100225448608,0.955008864402771
1751214623901170700,1.736170654296875,0.3929491341114044,-1.0913625955581665,1.0359688997268677
1751214623911164400,1.746164306640625,0.3322291076183319,-0.7717835307121277,1.0839056968688965
1751214623921158400,1.756158447265625,0.2661827504634857,-0.4660528302192688,1.0317078828811646
1751214623931152400,1.76615234375,0.2054627239704132,-0.19973693788051605,0.8985498547554016
1751214623941146000,1.77614599609375,0.14367742836475372,0.021837905049324036,0.7099981904029846
1751214623951140000,1.78614013671875,0.08508793264627457,0.18482324481010437,0.5044023394584656
1751214623961134000,1.796134033203125,0.04354264959692955,0.2625874876976013,0.3020022511482239
1751214623971128000,1.806128173828125,0.016911059617996216,0.2444780021905899,0.11451584100723267
1751214623981121800,1.816121826171875,-0.00013315795513335615,0.15606112778186798,-0.038882121443748474
1751214623991115800,1.82611572265625,-0.020373167470097542,0.0846884623169899,-0.12197268754243851
1751214624001109800,1.83610986328125,-0.020373167470097542,0.1272990107536316,-0.10705899447202682
1751214624011103500,1.846103515625,-0.02463422156870365,0.2775011658668518,-0.025033695623278618
1751214624021097500,1.856097412109375,0.0019973693415522575,0.4522044062614441,0.08894951641559601
1751214624031091500,1.866091552734375,0.06697845458984375,0.6173202991485596,0.20612850785255432
1751214624041085200,1.876085205078125,0.12024163454771042,0.7163897752761841,0.29348012804985046
1751214624051079200,1.8860791015625,0.13195952773094177,0.7174550890922546,0.34993910789489746
1751214624061073200,1.8960732421875,0.10319741815328598,0.6183855533599854,0.3669833242893219
1751214624071067000,1.90606689453125,0.0691089779138565,0.4287686049938202,0.3254380524158478
1751214624081060900,1.916060791015625,0.0691089779138565,0.16564849019050598,0.21038956940174103
1751214624091054800,1.926054931640625,0.11385004967451096,-0.2966759204864502,-0.005858949851244688
1751214624111042600,1.94604248046875,0.07976161688566208,-0.8378298282623291,-0.27537065744400024
1751214624121036500,1.95603662109375,0.020106852054595947,-0.8143940567970276,-0.32330751419067383
1751214624131030500,1.966030517578125,-0.009720530360937119,-0.5853623747825623,-0.29348012804985046
1751214624141024300,1.976024169921875,-0.022503694519400597,-0.2785664498806,-0.20932430028915405
1751214624151018200,1.986018310546875,-0.0342215932905674,-0.027164222672581673,-0.1177116334438324
1751214624161012200,1.99601220703125,-0.03315633162856102,0.11132004857063293,-0.03568633273243904
1751214624171006000,2.006005859375,-0.023568958044052124,0.1603221744298935,0.046338967978954315
1751214624181000000,2.016,-0.0033289489801973104,0.19121482968330383,0.1315600574016571
1751214624190994000,2.025993896484375,0.021172115579247475,0.2636527419090271,0.21038956940174103
1751214624200988000,2.03598779296875,0.03502054139971733,0.32756856083869934,0.2487390637397766
1751214624210981600,2.045981689453125,0.03821633383631706,0.3627222776412964,0.23276010155677795
1751214624220975600,2.0559755859375,0.032890014350414276,0.38296228647232056,0.16671375930309296
1751214624230969600,2.065969482421875,0.03075948730111122,0.400006502866745,0.07829687744379044
1751214624240963300,2.07596337890625,0.022237379103899002,0.41598546504974365,-0.006924213841557503
1751214624250957300,2.085957275390625,0.012650005519390106,0.4032022953033447,-0.0751010850071907
1751214624260951300,2.095951416015625,-0.0033289489801973104,0.3478085696697235,-0.11558110266923904
1751214624270945000,2.105945068359375,-0.02143843099474907,0.27537065744400024,-0.1272990107536316
1751214624280939000,2.11593896484375,-0.04167843982577324,0.21038956940174103,-0.13049480319023132
1751214624290933000,2.12593310546875,-0.06298371404409409,0.19014956057071686,-0.1315600574016571
1751214624300926700,2.1359267578125,-0.0810931921005249,0.23276010155677795,-0.1368863731622696
1751214624310920700,2.145920654296875,-0.09920267760753632,0.3147853910923004,-0.14753901958465576
1751214624320914700,2.155914794921875,-0.11198583990335464,0.4032022953033447,-0.1603221744298935
1751214624330908700,2.16590869140625,-0.11837742477655411,0.4607265293598175,-0.17630113661289215
1751214624340902400,2.17590234375,-0.11944268643856049,0.4660528302192688,-0.1880190372467041
1751214624350896400,2.185896484375,-0.11624689400196075,0.43089914321899414,-0.1933453530073166
1751214624360890400,2.195890380859375,-0.11198583990335464,0.3712443709373474,-0.19121482968330383
1751214624370884000,2.205884033203125,-0.10559425503015518,0.30413275957107544,-0.17630113661289215
1751214624380878000,2.215878173828125,-0.1002679392695427,0.23382537066936493,-0.14327795803546906
1751214624390872000,2.2258720703125,-0.1002679392695427,0.14966954290866852,-0.10066741704940796
1751214624400865800,2.23586572265625,-0.0949416235089302,0.07723161578178406,-0.059122130274772644
1751214624410859800,2.24585986328125,-0.0810931921005249,0.03568633273243904,-0.029294749721884727
1751214624420853800,2.255853759765625,-0.06937529146671295,0.021837905049324036,-0.015446322970092297
1751214624430847700,2.26584765625,-0.055526867508888245,0.038882121443748474,-0.017576850950717926
1751214624440841500,2.275841552734375,-0.039547912776470184,0.0846884623169899,-0.025033695623278618
1751214624450835500,2.28583544921875,-0.019307903945446014,0.12942953407764435,-0.03142527863383293
1751214624460829400,2.295829345703125,-0.006524739786982536,0.14434322714805603,-0.034621067345142365
1751214624470823200,2.3058232421875,0.0019973693415522575,0.12942953407764435,-0.027164222672581673
1751214624480817200,2.315817138671875,0.007323687430471182,0.10279794037342072,-0.010120004415512085
1751214624490811000,2.325810791015625,0.014780532568693161,0.08681898564100266,0.01225053146481514
1751214624500804900,2.335804931640625,0.01904158666729927,0.08362319320440292,0.038882121443748474
1751214624510798600,2.345798583984375,0.02330264262855053,0.08362319320440292,0.062317922711372375
1751214624520792600,2.35579248046875,0.02649843320250511,0.0846884623169899,0.07829687744379044
1751214624530786300,2.365786376953125,0.028628960251808167,0.0846884623169899,0.09108003973960876
1751214624540780300,2.3757802734375,0.0318247526884079,0.08042740821838379,0.09534109383821487
1751214624550774000,2.38577392578125,0.03395527973771095,0.0708400309085846,0.09321057051420212
1751214624560768000,2.39576806640625,0.029694223776459694,0.046338967978954315,0.08788424730300903
1751214624570761700,2.40576171875,0.028628960251808167,0.00798947736620903,0.07936213910579681
1751214624580755700,2.415755615234375,0.03608580678701401,-0.026098959147930145,0.07616634666919708
1751214624590749400,2.42574951171875,0.0456731803715229,-0.053795814514160156,0.07616634666919708
1751214624600743400,2.435743408203125,0.05419528856873512,-0.08042740821838379,0.07616634666919708
1751214624610737200,2.445737060546875,0.06271740049123764,-0.11984215676784515,0.0751010850071907
1751214624620731100,2.455731201171875,0.074435293674469,-0.17204007506370544,0.06444845348596573
1751214624630724900,2.465724853515625,0.08934898674488068,-0.23276010155677795,0.05273054912686348
1751214624640718800,2.47571875,0.09893636405467987,-0.3051980435848236,0.046338967978954315
1751214624650712600,2.485712646484375,0.10426267981529236,-0.37870121002197266,0.04846949502825737
1751214624660706300,2.495706298828125,0.10852373391389847,-0.4511391520500183,0.053795814514160156
1751214624670700300,2.5057001953125,0.11278478801250458,-0.49588021636009216,0.062317922711372375
1751214624680694000,2.515694091796875,0.10852373391389847,-0.5150549411773682,0.0708400309085846
1751214624690688000,2.52568798828125,0.10000162571668625,-0.5129244327545166,0.07403582334518433
1751214624700681700,2.535681640625,0.09361004084348679,-0.5086634159088135,0.0751010850071907
1751214624710675700,2.54567578125,0.08721846342086792,-0.5044023394584656,0.07829687744379044
1751214624720669400,2.55566943359375,0.07763108611106873,-0.4990760087966919,0.08894951641559601
1751214624730663400,2.565663330078125,0.0691089779138565,-0.49588021636009216,0.10066741704940796
1751214624740657400,2.575657470703125,0.061652131378650665,-0.5054675936698914,0.10705899447202682
1751214624750651100,2.585651123046875,0.057391077280044556,-0.502271831035614,0.11025478690862656
1751214624760645000,2.59564501953125,0.04460791498422623,-0.47244441509246826,0.11345057934522629
1751214624770639000,2.60563916015625,0.028628960251808167,-0.4234423041343689,0.11132004857063293
1751214624780632800,2.6156328125,0.010519478470087051,-0.35952648520469666,0.10279794037342072
1751214624790626800,2.625626708984375,-0.0043942127376794815,-0.29880645871162415,0.09534109383821487
1751214624800620800,2.635620849609375,-0.01504684891551733,-0.2625874876976013,0.08255793154239655
1751214624810614800,2.64561474609375,-0.02463422156870365,-0.27004432678222656,0.05592634156346321
1751214624820608500,2.6556083984375,-0.02889527566730976,-0.2966759204864502,0.025033695623278618
1751214624830602500,2.6656025390625,-0.0342215932905674,-0.29348012804985046,0.00798947736620903
1751214624840596500,2.675596435546875,-0.042743705213069916,-0.2689790725708008,-0.0015978955198079348
1751214624850590200,2.685590087890625,-0.051265813410282135,-0.24128220975399017,-0.004793686326593161
1751214624860584200,2.695584228515625,-0.051265813410282135,-0.21252009272575378,0.0037284228019416332
1751214624870578200,2.705578125,-0.03848264738917351,-0.19228008389472961,0.025033695623278618
1751214624880572000,2.715572021484375,-0.03635212033987045,-0.18908429145812988,0.04101264849305153
1751214624890566000,2.72556591796875,-0.035286858677864075,-0.18588849902153015,0.0516652874648571
1751214624900560000,2.735559814453125,-0.02463422156870365,-0.19014956057071686,0.05699160322546959
1751214624910553600,2.7455537109375,-0.01504684891551733,-0.1880190372467041,0.06018739566206932
1751214624920547600,2.755547607421875,-0.007590003311634064,-0.18056218326091766,0.061252661049366
1751214624930541600,2.76554150390625,-0.0043942127376794815,-0.1699095517396927,0.062317922711372375
1751214624940535600,2.77553564453125,-0.0022636852227151394,-0.15286533534526825,0.06444845348596573
1751214624950529300,2.785529296875,-0.0033289489801973104,-0.1358211189508438,0.0655137151479721
1751214624960523300,2.795523193359375,-0.007590003311634064,-0.12090742588043213,0.06657897680997849
1751214624970517200,2.805517333984375,-0.01504684891551733,-0.10599373281002045,0.06870950758457184
1751214624980511000,2.815510986328125,-0.023568958044052124,-0.09214530140161514,0.07616634666919708
1751214624990505000,2.8255048828125,-0.026764748618006706,-0.07936213910579681,0.08681898564100266
1751214625000499000,2.8354990234375,-0.03315633162856102,-0.0708400309085846,0.09960214793682098
1751214625010492700,2.84549267578125,-0.04167843982577324,-0.0655137151479721,0.10599373281002045
1751214625020486700,2.855486572265625,-0.048070020973682404,-0.05592634156346321,0.10918952524662018
1751214625030480600,2.865480712890625,-0.051265813410282135,-0.03568633273243904,0.10066741704940796
1751214625040474600,2.875474609375,-0.05339634045958519,-0.010120004415512085,0.08255793154239655
1751214625050468400,2.88546826171875,-0.06298371404409409,0.020772641524672508,0.05273054912686348
1751214625060462300,2.89546240234375,-0.0810931921005249,0.05592634156346321,0.02396843209862709
1751214625070456300,2.905456298828125,-0.10239847004413605,0.09214530140161514,0.020772641524672508
1751214625080450000,2.915449951171875,-0.12903006374835968,0.11345057934522629,0.03675159439444542
1751214625090444000,2.925444091796875,-0.15779218077659607,0.11451584100723267,0.058056868612766266
1751214625100438000,2.93543798828125,-0.19081534445285797,0.1081242561340332,0.08894951641559601
1751214625110431700,2.945431640625,-0.22916483879089355,0.10492847114801407,0.1177116334438324
1751214625120425700,2.95542578125,-0.2707101106643677,0.1081242561340332,0.11984215676784515
1751214625130419700,2.965419677734375,-0.28988486528396606,0.1081242561340332,0.07403582334518433
1751214625140413400,2.975413330078125,-0.2824280261993408,0.10279794037342072,-0.0037284228019416332
1751214625150407400,2.985407470703125,-0.2557964324951172,0.07403582334518433,-0.06018739566206932
1751214625160401400,2.9954013671875,-0.21851220726966858,0.009054740890860558,-0.06870950758457184
1751214625170395400,3.0053955078125,-0.16951008141040802,-0.06764423847198486,-0.04101264849305153
1751214625180389000,3.01538916015625,-0.11944268643856049,-0.13369058072566986,-0.01438105944544077
1751214625190383000,3.025383056640625,-0.06404897570610046,-0.1741705983877182,-0.01438105944544077
1751214625200377000,3.035377197265625,-0.018242640420794487,-0.19654114544391632,-0.03994738683104515
1751214625210370800,3.045370849609375,0.013715269044041634,-0.21465063095092773,-0.06977476924657822
1751214625220364800,3.05536474609375,0.028628960251808167,-0.24341274797916412,-0.07616634666919708
1751214625230358800,3.06535888671875,0.04673844203352928,-0.28921908140182495,-0.03249054029583931
1751214625240352500,3.0753525390625,0.08721846342086792,-0.3392864763736725,0.04953476041555405
1751214625250346500,3.085346435546875,0.12663321197032928,-0.36378753185272217,0.13901691138744354
1751214625260340500,3.095340576171875,0.16072164475917816,-0.3659180700778961,0.20932430028915405
1751214625270334500,3.10533447265625,0.17989639937877655,-0.36059173941612244,0.2498043179512024
1751214625280328200,3.115328125,0.18096165359020233,-0.3520696461200714,0.27004432678222656
1751214625290322200,3.125322265625,0.17457008361816406,-0.3446127772331238,0.28389275074005127
1751214625300316200,3.135316162109375,0.15752586722373962,-0.3296990990638733,0.2860232889652252
1751214625310310000,3.145309814453125,0.13302479684352875,-0.27537065744400024,0.276435911655426
1751214625320303900,3.155303955078125,0.10958899557590485,-0.1699095517396927,0.2540653645992279
1751214625330297900,3.1652978515625,0.08295740932226181,-0.03142527863383293,0.20932430028915405
1751214625340291600,3.17529150390625,0.053130023181438446,0.10279794037342072,0.154995858669281
1751214625350285600,3.18528564453125,0.029694223776459694,0.20399798452854156,0.10705899447202682
1751214625360279600,3.195279541015625,0.009454214945435524,0.2625874876976013,0.06657897680997849
1751214625370273300,3.205273193359375,-0.006524739786982536,0.2732401192188263,0.0282294861972332
1751214625380267300,3.215267333984375,-0.022503694519400597,0.23595589399337769,-0.01438105944544077
1751214625390261200,3.22526123046875,-0.04061317816376686,0.14966954290866852,-0.062317922711372375
1751214625400255200,3.235255126953125,-0.05446160212159157,0.03568633273243904,-0.10918952524662018
1751214625410249000,3.2452490234375,-0.07363634556531906,-0.08788424730300903,-0.1464737504720688
1751214625420243000,3.255242919921875,-0.10133320093154907,-0.1741705983877182,-0.18162745237350464
1751214625430237000,3.26523681640625,-0.13542163372039795,-0.20932430028915405,-0.22423799335956573
1751214625440230700,3.275230712890625,-0.16951008141040802,-0.2018674612045288,-0.27963170409202576
1751214625450224600,3.285224609375,-0.20892482995986938,-0.17949692904949188,-0.3446127772331238
1751214625460218600,3.295218505859375,-0.23768694698810577,-0.12516847252845764,-0.40746334195137024
1751214625470212400,3.30521240234375,-0.26644906401634216,-0.027164222672581673,-0.4713791608810425
1751214625480206300,3.315206298828125,-0.28562381863594055,0.10066741704940796,-0.5352949500083923
1751214625490200300,3.325200439453125,-0.2888196110725403,0.23276010155677795,-0.5885581374168396
1751214625500194300,3.3351943359375,-0.28029748797416687,0.3392864763736725,-0.6332992315292358
1751214625510188000,3.34518798828125,-0.2707101106643677,0.42557281255722046,-0.6492781639099121
1751214625520182000,3.35518212890625,-0.2792322337627411,0.4788359999656677,-0.6578003168106079
1751214625530176000,3.365176025390625,-0.28029748797416687,0.5075981020927429,-0.6567350625991821
1751214625540169700,3.375169677734375,-0.23981747031211853,0.5470128655433655,-0.6162550449371338
1751214625550163700,3.385163818359375,-0.19507640600204468,0.6034718751907349,-0.5725792050361633
1751214625560157700,3.39515771484375,-0.18655429780483246,0.6045371294021606,-0.5768402814865112
1751214625570151400,3.4051513671875,-0.19188061356544495,0.4660528302192688,-0.6354297399520874
1751214625580145400,3.4151455078125,-0.1897500902414322,0.1688442826271057,-0.683366596698761
1751214625590139400,3.425139404296875,-0.1748363971710205,-0.14327795803546906,-0.6503434777259827
1751214625600133400,3.43513330078125,-0.15246586501598358,-0.3904191255569458,-0.5299686789512634
1751214625610127000,3.445127197265625,-0.1567269116640091,-0.5150549411773682,-0.3765707015991211
1751214625620121000,3.45512109375,-0.18335850536823273,-0.4468781054019928,-0.22317273914813995
1751214625630115000,3.465114990234375,-0.25366589426994324,-0.26684853434562683,-0.10705899447202682
1751214625640108800,3.47510888671875,-0.34634384512901306,0.0037284228019416332,-0.046338967978954315
1751214625650102800,3.485102783203125,-0.44115230441093445,0.37870121002197266,-0.09214530140161514
1751214625660096800,3.4950966796875,-0.5316997170448303,0.7920235395431519,-0.2071937769651413
1751214625670090500,3.505090576171875,-0.6169208288192749,1.0849710702896118,-0.31372013688087463
1751214625680084500,3.51508447265625,-0.6669881939888,1.2181289196014404,-0.32650330662727356
1751214625690078500,3.525078369140625,-0.6531397700309753,1.3374384641647339,-0.29348012804985046
1751214625700072200,3.535072265625,-0.6083986759185791,1.4428995847702026,-0.26578328013420105
1751214625710066200,3.545066162109375,-0.582832396030426,1.4812490940093994,-0.2775011658668518
1751214625720060200,3.55506005859375,-0.6190513372421265,1.5089459419250488,-0.37337490916252136
1751214625730054100,3.56505419921875,-0.7032071352005005,1.5164028406143188,-0.6215813159942627
1751214625740048000,3.5750478515625,-0.8331693410873413,1.386440634727478,-0.9656614661216736
1751214625750041900,3.585041748046875,-0.9993504285812378,1.1872363090515137,-1.302284836769104
1751214625760035800,3.595035888671875,-1.1836410760879517,0.963530957698822,-1.5068154335021973
1751214625770029600,3.605029541015625,-1.4318474531173706,0.7334340214729309,-1.5430344343185425
1751214625780023600,3.6150234375,-1.6662055253982544,0.49055391550064087,-1.4322469234466553
1751214625790017500,3.625017578125,-1.819603443145752,0.2998717129230499,-1.289501667022705
1751214625800011300,3.63501123046875,-1.8707361221313477,0.21571588516235352,-1.185105800628662
1751214625810005200,3.645005126953125,-1.7780581712722778,0.21465063095092773,-1.0796446800231934
1751214625819999200,3.654999267578125,-1.5873759984970093,0.19867166876792908,-0.8804404139518738
1751214625829993200,3.6649931640625,-1.4222601652145386,0.0516652874648571,-0.5811012983322144
1751214625839987000,3.674987060546875,-1.3231905698776245,-0.17736639082431793,-0.2785664498806
1751214625849981000,3.68498095703125,-1.2550137042999268,-0.30732855200767517,-0.03675159439444542
1751214625859975000,3.694974853515625,-1.2251863479614258,-0.2860232889652252,0.12942953407764435
1751214625869968600,3.70496875,-1.2550137042999268,-0.19867166876792908,0.24341274797916412
1751214625879962600,3.714962646484375,-1.2880369424819946,-0.17310534417629242,0.34674331545829773
1751214625889956600,3.72495654296875,-1.2528831958770752,-0.22210747003555298,0.4330296814441681
1751214625899950300,3.734950439453125,-1.1452915668487549,-0.26578328013420105,0.47670549154281616
1751214625909944300,3.7449443359375,-1.0089378356933594,-0.24128220975399017,0.5342296957969666
1751214625919938300,3.754938232421875,-0.8949546217918396,-0.12623374164104462,0.6098634600639343
1751214625929932000,3.76493212890625,-0.7894935011863708,-0.006924213841557503,0.6301034688949585
1751214625939926000,3.774926025390625,-0.642487108707428,-0.0037284228019416332,0.5310339331626892
1751214625949920000,3.784919921875,-0.4773712754249573,-0.11664637178182602,0.36059173941612244
1751214625959914000,3.7949140625,-0.33675646781921387,-0.3158506751060486,0.18482324481010437
1751214625969907700,3.80490771484375,-0.20999009907245636,-0.5331644415855408,0.0516652874648571
1751214625979901700,3.814901611328125,-0.048070020973682404,-0.6119939684867859,-0.04846949502825737
1751214625989895700,3.824895751953125,0.1351553201675415,-0.5661876201629639,-0.10918952524662018
1751214625999889400,3.834889404296875,0.3002711832523346,-0.47670549154281616,-0.12516847252845764
1751214626009883400,3.84488330078125,0.4398207366466522,-0.2998717129230499,-0.11345057934522629
1751214626019877400,3.85487744140625,0.5655218362808228,-0.06657897680997849,-0.10492847114801407
1751214626029871000,3.86487109375,0.7093324065208435,0.1038632020354271,-0.13795164227485657
1751214626039865000,3.874864990234375,0.8435556292533875,0.16138744354248047,-0.20932430028915405
1751214626049859000,3.884859130859375,0.9575388431549072,0.18162745237350464,-0.27110961079597473
1751214626059853000,3.89485302734375,1.0640652179718018,0.17310534417629242,-0.3094590902328491
1751214626069846800,3.9048466796875,1.159938931465149,0.13795164227485657,-0.34141698479652405
1751214626079840800,3.9148408203125,1.2547473907470703,0.1464737504720688,-0.36911386251449585
1751214626089834800,3.924834716796875,1.3420990705490112,0.23808641731739044,-0.38935387134552
1751214626099828500,3.934828369140625,1.4294506311416626,0.3659180700778961,-0.39361491799354553
1751214626109822500,3.944822509765625,1.5231938362121582,0.5075981020927429,-0.38722333312034607
1751214626119816400,3.95481640625,1.6510255336761475,0.6652571558952332,-0.3584612011909485
1751214626129810200,3.96481005859375,1.8108149766921997,0.8847014307975769,-0.29454538226127625
1751214626139804200,3.97480419921875,1.955690860748291,1.0881668329238892,-0.20825904607772827
1751214626149798100,3.984798095703125,2.0739352703094482,1.2394342422485352,-0.1081242561340332
1751214626159792000,3.994792236328125,2.20389723777771,1.3097416162490845,0.030360013246536255
1751214626169785900,4.004785888671875,2.322141647338867,1.1755183935165405,0.15819165110588074
1751214626179779800,4.01477978515625,2.3594257831573486,0.8868319988250732,0.27110961079597473
1751214626189773800,4.02477392578125,2.288053035736084,0.5086634159088135,0.40213701128959656
1751214626199767600,4.034767578125,2.149568796157837,0.10918952524662018,0.5576655268669128
1751214626209761500,4.044761474609375,2.034520387649536,-0.22210747003555298,0.6950845122337341
1751214626219755500,4.054755615234375,1.9482340812683105,-0.44474756717681885,0.7856319546699524
1751214626229749200,4.064749267578125,1.809749722480774,-0.5310339331626892,0.8708530068397522
1751214626239743200,4.0747431640625,1.5796527862548828,-0.5001412630081177,0.9422256946563721
1751214626249737200,4.0847373046875,1.2803137302398682,-0.40746334195137024,1.009337306022644
1751214626259731000,4.09473095703125,0.9649956822395325,-0.3392864763736725,1.0647310018539429
1751214626269725000,4.104724853515625,0.631568193435669,-0.343547523021698,1.009337306022644
1751214626279719000,4.114718994140625,0.3141196072101593,-0.42983388900756836,0.796284556388855
1751214626289713000,4.124712890625,0.06591318547725677,-0.6482129096984863,0.475640207529068
1751214626299706600,4.13470654296875,-0.10133320093154907,-1.056208848953247,0.21784640848636627
1751214626309700600,4.14470068359375,-0.19294588267803192,-1.7539565563201904,0.08255793154239655
1751214626319694600,4.154694580078125,-0.37510594725608826,-2.4591610431671143,-0.03994738683104515
1751214626329688300,4.164688232421875,-0.6478134393692017,-3.086601495742798,-0.022903168573975563
1751214626339682300,4.174682373046875,-0.8576703667640686,-3.4839446544647217,0.1038632020354271
1751214626349676300,4.18467626953125,-1.030243158340454,-3.358243703842163,0.13369058072566986
1751214626359670000,4.194669921875,-1.1793800592422485,-2.6871275901794434,0.21252009272575378
1751214626369664000,4.2046640625,-1.3018853664398193,-1.4844448566436768,0.45326969027519226
1751214626379658000,4.214657958984375,-1.1953589916229248,0.034621067345142365,0.7344992756843567
1751214626389652000,4.22465185546875,-0.8193209171295166,1.6325165033340454,0.89641934633255
1751214626399645700,4.234645751953125,-0.28562381863594055,2.8192203044891357,0.8953540921211243
1751214626409639700,4.2446396484375,0.1394163817167282,3.1377339363098145,0.787762463092804
1751214626419633700,4.254633544921875,0.3886880576610565,2.529468536376953,0.6343644857406616
1751214626429627400,4.26462744140625,0.497344970703125,1.3715269565582275,0.45007389783859253
1751214626439621400,4.274621337890625,0.5005407333374023,0.4617917835712433,0.04314317926764488
1751214626449615400,4.284615478515625,0.42490702867507935,0.5033370852470398,-0.4607265293598175
1751214626459609000,4.294609130859375,0.3428817391395569,0.8527435660362244,-0.6173202991485596
1751214626469603000,4.30460302734375,0.2853575050830841,0.7984151244163513,-0.2625874876976013
1751214626479597000,4.31459716796875,0.20972378551959991,0.5896234512329102,0.1880190372467041
1751214626489590800,4.3245908203125,0.1447426974773407,0.3946801722049713,0.5885581374168396
1751214626499584800,4.334584716796875,0.074435293674469,0.38828858733177185,0.9582046270370483
1751214626509578800,4.344578857421875,-0.055526867508888245,0.5821665525436401,1.2096068859100342
1751214626519572700,4.35457275390625,-0.09174583107233047,0.6471476554870605,1.1542131900787354
1751214626529566700,4.364566650390625,-0.03209106624126434,0.3850927948951721,0.7824361324310303
1751214626539560700,4.374560791015625,0.05952160432934761,-0.08362319320440292,0.2583264410495758
1751214626549554700,4.3845546875,0.17137429118156433,-0.6141244769096375,-0.23169484734535217
1751214626559548700,4.394548583984375,0.27044379711151123,-1.0828404426574707,-0.5576655268669128
1751214626569542700,4.404542724609375,0.36418700218200684,-1.4088112115859985,-0.6791055798530579
1751214626579536600,4.41453662109375,0.4611259996891022,-1.5409038066864014,-0.645017147064209
1751214626599524400,4.4345244140625,0.6496776342391968,-1.299088954925537,-0.34141698479652405
1751214626609518300,4.444518310546875,0.685896635055542,-1.072187900543213,-0.12090742588043213
1751214626619512300,4.45451220703125,0.6581997871398926,-0.8442214131355286,0.10173267871141434
1751214626629506300,4.46450634765625,0.6006755232810974,-0.6301034688949585,0.3147853910923004
1751214626639500300,4.474500244140625,0.5601955056190491,-0.3904191255569458,0.5001412630081177
1751214626649494300,4.484494384765625,0.5495429039001465,-0.09640636295080185,0.6375603079795837
1751214626659488300,4.49448828125,0.5335639119148254,0.20612850785255432,0.7185203433036804
1751214626669482200,4.504482177734375,0.4557996690273285,0.510793924331665,0.7302381992340088
1751214626679476200,4.514476318359375,0.31731539964675903,0.8037413954734802,0.6503434777259827
1751214626689470000,4.524469970703125,0.1735048145055771,1.014663577079773,0.47350969910621643
1751214626699464000,4.5344638671875,0.06271740049123764,1.119059443473816,0.23808641731739044
1751214626709458000,4.5444580078125,-0.005459476262331009,1.1403647661209106,0.005858949851244688
1751214626719452000,4.554451904296875,-0.04487423226237297,1.113733172416687,-0.1592569202184677
1751214626729446000,4.56444580078125,-0.0810931921005249,1.0679267644882202,-0.23915168642997742
1751214626739439900,4.57443994140625,-0.12689952552318573,1.009337306022644,-0.25086960196495056
1751214626749433900,4.584433837890625,-0.16844481229782104,0.9358341097831726,-0.22423799335956573
1751214626759427800,4.594427734375,-0.20572903752326965,0.8367645740509033,-0.19228008389472961
1751214626769421800,4.604421875,-0.24407853186130524,0.6982803344726562,-0.15606112778186798
1751214626779415600,4.61441552734375,-0.2834932804107666,0.5555350184440613,-0.10279794037342072
1751214626789409500,4.624409423828125,-0.32397329807281494,0.41172438859939575,-0.030360013246536255
1751214626799403500,4.634403564453125,-0.36125752329826355,0.2732401192188263,0.050600022077560425
1751214626809397200,4.644397216796875,-0.3761712312698364,0.12303794920444489,0.10492847114801407
1751214626819391200,4.65439111328125,-0.3719101548194885,-0.038882121443748474,0.12516847252845764
1751214626829385200,4.66438525390625,-0.3633880615234375,-0.18162745237350464,0.1081242561340332
1751214626839379200,4.674379150390625,-0.39321544766426086,-0.3243727684020996,0.033555805683135986
1751214626849373000,4.684373046875,-0.4390217661857605,-0.4479433596134186,-0.06444845348596573
1751214626859367000,4.694366943359375,-0.4667186439037323,-0.5278381109237671,-0.13262532651424408
1751214626869361000,4.70436083984375,-0.4571312665939331,-0.5768402814865112,-0.1933453530073166
1751214626879354600,4.714354736328125,-0.4326302111148834,-0.65353924036026,-0.22956430912017822
1751214626889348600,4.7243486328125,-0.41239017248153687,-0.766457200050354,-0.21252009272575378
1751214626899342600,4.734342529296875,-0.40386807918548584,-0.850612998008728,-0.1784316599369049
1751214626909336300,4.74433642578125,-0.4049333333969116,-0.8197203874588013,-0.15286533534526825
1751214626919330300,4.754330322265625,-0.4198470413684845,-0.7462171912193298,-0.1603221744298935
1751214626929324300,4.76432421875,-0.4432828426361084,-0.7930887937545776,-0.21571588516235352
1751214626939318300,4.774318359375,-0.45606598258018494,-0.9976193904876709,-0.28921908140182495
1751214626949312000,4.78431201171875,-0.4944154918193817,-1.2660658359527588,-0.38828858733177185
1751214626959306000,4.794305908203125,-0.5657881498336792,-1.5025544166564941,-0.5310339331626892
1751214626969300000,4.804300048828125,-0.6179860830307007,-1.574992299079895,-0.6823013424873352
1751214626979293700,4.814293701171875,-0.6115944981575012,-1.433312177658081,-0.8346340656280518
1751214626989287700,4.82428759765625,-0.5732449889183044,-1.1701921224594116,-0.9219856858253479
1751214626999281700,4.83428173828125,-0.5306344628334045,-0.879375159740448,-0.9038761854171753
1751214627009275400,4.844275390625,-0.47311022877693176,-0.5555350184440613,-0.7590003609657288
1751214627019269400,4.854269287109375,-0.4209122955799103,-0.1081242561340332,-0.5310339331626892
1751214627029263400,4.864263427734375,-0.37084490060806274,0.41705071926116943,-0.30732855200767517
1751214627039257000,4.874257080078125,-0.3356912136077881,0.9326383471488953,-0.11238531768321991
1751214627049251000,4.8842509765625,-0.3292996287345886,1.3278511762619019,0.061252661049366
1751214627059245000,4.8942451171875,-0.3761712312698364,1.5185333490371704,0.12942953407764435
1751214627069239000,4.904239013671875,-0.4752407371997833,1.5366427898406982,0.03675159439444542
1751214627079232800,4.914232666015625,-0.5615270733833313,1.4759228229522705,-0.15393058955669403
1751214627089226800,4.924226806640625,-0.5743102431297302,1.3757879734039307,-0.3659180700778961
1751214627099220700,4.934220703125,-0.5114597082138062,1.21067214012146,-0.5214465260505676
1751214627109214500,4.94421435546875,-0.3953459560871124,1.0924278497695923,-0.6247771382331848
1751214627119208400,4.95420849609375,-0.27603644132614136,1.126516342163086,-0.6801708340644836
1751214627129202400,4.964202392578125,-0.20146799087524414,1.3054805994033813,-0.6854971647262573
1751214627139196200,4.974196044921875,-0.20040272176265717,1.4492912292480469,-0.6354297399520874
1751214627149190100,4.984190185546875,-0.29947224259376526,1.4801838397979736,-0.6311687231063843
1751214627159184100,4.99418408203125,-0.5221123695373535,1.478053331375122,-0.699345588684082
1751214627169178000,5.00417822265625,-0.8629966974258423,1.4993585348129272,-0.8186551332473755
1751214627179171800,5.014171875,-1.291232705116272,1.4929670095443726,-0.9400951862335205
1751214627189165800,5.024165771484375,-1.7418391704559326,1.4247901439666748,-1.051947832107544
1751214627199159800,5.034159912109375,-2.0646140575408936,1.2628700733184814,-1.1648657321929932
1751214627209153500,5.044153564453125,-2.1945762634277344,0.9699225425720215,-1.21067214012146
1751214627219147500,5.0541474609375,-2.1796624660491943,0.6673876643180847,-1.1414300203323364
1751214627229141500,5.0641416015625,-2.0997676849365234,0.43409493565559387,-1.001880407333374
1751214627239135200,5.07413525390625,-1.9751319885253906,0.17204007506370544,-0.8048067092895508
1751214627249129200,5.084129150390625,-1.8515613079071045,-0.1699095517396927,-0.6045371294021606
1751214627259123200,5.094123291015625,-1.7620792388916016,-0.5171855092048645,-0.4607265293598175
1751214627269117000,5.104116943359375,-1.6704665422439575,-0.8985498547554016,-0.4010717570781708
1751214627279111000,5.11411083984375,-1.45954430103302,-1.2245205640792847,-0.3659180700778961
1751214627289105000,5.12410498046875,-1.1825758218765259,-1.2841752767562866,-0.2593916952610016
1751214627299099000,5.134098876953125,-0.943956732749939,-1.1222552061080933,-0.050600022077560425
1751214627309092600,5.144092529296875,-0.7852324843406677,-0.917724609375,0.19973693788051605
1751214627319086600,5.154086669921875,-0.6787061095237732,-0.8048067092895508,0.4319643974304199
1751214627329080600,5.16408056640625,-0.6467481851577759,-0.7131940126419067,0.561926543712616
1751214627339074300,5.17407421875,-0.5988113284111023,-0.5480781197547913,0.5597960352897644
1751214627349068300,5.184068359375,-0.45073968172073364,-0.4245075583457947,0.46285703778266907
1751214627359062300,5.194062255859375,-0.2557964324951172,-0.5448823571205139,0.38935387134552
1751214627369056000,5.204055908203125,-0.047004759311676025,-0.850612998008728,0.38296228647232056
1751214627379050000,5.214050048828125,0.14580796658992767,-1.1478215456008911,0.4042675495147705
1751214627389044000,5.2240439453125,0.2800311744213104,-1.2980237007141113,0.40639808773994446
1751214627399038000,5.234037841796875,0.3460775315761566,-1.3129373788833618,0.3904191255569458
1751214627409031700,5.24403173828125,0.38229650259017944,-1.265000581741333,0.36378753185272217
1751214627419025700,5.254025634765625,0.430233359336853,-1.1829752922058105,0.3296990990638733
1751214627429019600,5.26401953125,0.49627968668937683,-1.0572742223739624,0.31158962845802307
1751214627439013400,5.274013427734375,0.5921534299850464,-0.8889625072479248,0.3147853910923004
1751214627449007400,5.28400732421875,0.6933534741401672,-0.7057371735572815,0.3307643532752991
1751214627459001300,5.29400146484375,0.7924230098724365,-0.5566002726554871,0.354200154542923
1751214627468995000,5.3039951171875,0.8776440620422363,-0.4575307369232178,0.36378753185272217
1751214627478989000,5.313989013671875,0.9575388431549072,-0.4042675495147705,0.3392864763736725
1751214627488983000,5.323983154296875,1.0076062679290771,-0.3478085696697235,0.2913496196269989
1751214627498977000,5.33397705078125,1.0214546918869019,-0.23276010155677795,0.22423799335956573
1751214627508970800,5.343970703125,1.0278462171554565,-0.10066741704940796,0.15180006623268127
1751214627518964700,5.35396484375,1.0523473024368286,0.034621067345142365,0.08042740821838379
1751214627528958700,5.363958740234375,1.0789788961410522,0.19867166876792908,0.030360013246536255
1751214627538952400,5.373952392578125,1.1258505582809448,0.3094590902328491,0.03675159439444542
1751214627548946400,5.383946533203125,1.2132021188735962,0.4095938801765442,0.08788424730300903
1751214627558940400,5.3939404296875,1.3293159008026123,0.4468781054019928,0.14753901958465576
1751214627568934100,5.40393408203125,1.4209285974502563,0.4617917835712433,0.17310534417629242
1751214627578928000,5.41392822265625,1.4507559537887573,0.532099187374115,0.17630113661289215
1751214627588922000,5.423922119140625,1.4177327156066895,0.690823495388031,0.18695376813411713
1751214627598915800,5.433915771484375,1.3580780029296875,0.8687224984169006,0.21997694671154022
1751214627608909800,5.443909912109375,1.2899011373519897,1.009337306022644,0.26684853434562683
1751214627618903800,5.45390380859375,1.218528389930725,1.0988194942474365,0.31691592931747437
1751214627628897800,5.463897705078125,1.159938931465149,1.1339731216430664,0.3584612011909485
1751214627638891500,5.4738916015625,1.1151978969573975,1.1243857145309448,0.38296228647232056
1751214627648885500,5.483885498046875,1.0821746587753296,1.0508825778961182,0.3989412188529968
1751214627658879500,5.49387939453125,1.0523473024368286,0.9038761854171753,0.42131176590919495
1751214627668873200,5.503873291015625,1.0097367763519287,0.6865624189376831,0.4575307369232178
1751214627678867200,5.5138671875,0.9490167498588562,0.4330296814441681,0.4990760087966919
1751214627688861200,5.523861083984375,0.8648608922958374,0.1645832359790802,0.5384907722473145
1751214627698855000,5.53385498046875,0.7583345770835876,-0.050600022077560425,0.5789707899093628
1751214627708849000,5.543848876953125,0.6411555409431458,-0.1784316599369049,0.6311687231063843
1751214627718843000,5.5538427734375,0.5442165732383728,-0.1603221744298935,0.6780403256416321
1751214627728836900,5.5638369140625,0.4749744236469269,0.01651158556342125,0.7004108428955078
1751214627738830600,5.57383056640625,0.42384177446365356,0.28815382719039917,0.6865624189376831
1751214627758818600,5.593818603515625,0.32051119208335876,0.8729835748672485,0.5363602638244629
1751214627768812300,5.603812255859375,0.2565953731536865,1.0082720518112183,0.3957454562187195
1751214627778806300,5.61380615234375,0.1724395453929901,0.9645962119102478,0.21997694671154022
1751214627788800300,5.62380029296875,0.06378266215324402,0.8026761412620544,0.04740423336625099
1751214627798794000,5.6337939453125,-0.048070020973682404,0.5917539596557617,-0.08149266988039017
1751214627808788000,5.6437880859375,-0.12583427131175995,0.41172438859939575,-0.1454084813594818
1751214627818782000,5.653781982421875,-0.15992270410060883,0.32224225997924805,-0.17204007506370544
1751214627828775700,5.663775634765625,-0.14607428014278412,0.32330751419067383,-0.18908429145812988
1751214627838769700,5.673769775390625,-0.09920267760753632,0.37444016337394714,-0.1933453530073166
1751214627848763600,5.683763671875,-0.02996053919196129,0.4319643974304199,-0.1826927214860916
1751214627858757600,5.693757568359375,0.03928159549832344,0.4884233772754669,-0.16138744354248047
1751214627868751400,5.70375146484375,0.08615319430828094,0.5512739419937134,-0.13901691138744354
1751214627878745300,5.713745361328125,0.11598058044910431,0.5842971205711365,-0.10066741704940796
1751214627888739300,5.7237392578125,0.14367742836475372,0.569383442401886,-0.005858949851244688
1751214627898733000,5.733733154296875,0.13728585839271545,0.46924862265586853,0.11984215676784515
1751214627908727000,5.74372705078125,0.10958899557590485,0.2743053734302521,0.21465063095092773
1751214627918721000,5.753720947265625,0.07976161688566208,0.061252661049366,0.2636527419090271
1751214627928714800,5.76371484375,0.003062632866203785,-0.13901691138744354,0.31691592931747437
1751214627938708700,5.773708740234375,-0.08748477697372437,-0.3808317482471466,0.4660528302192688
1751214627948702700,5.78370263671875,-0.15885743498802185,-0.6599308252334595,0.7185203433036804
1751214627958696700,5.79369677734375,-0.19507640600204468,-0.9123983383178711,0.9294425249099731
1751214627968690400,5.8036904296875,-0.16737954318523407,-0.9731183648109436,1.0125330686569214
1751214627978684400,5.813684326171875,-0.0576573945581913,-0.7025413513183594,0.955008864402771
1751214627988678400,5.823678466796875,0.0318247526884079,-0.22423799335956573,0.766457200050354
1751214627998672100,5.833672119140625,0.08402267098426819,0.19121482968330383,0.4660528302192688
1751214628008666000,5.843666015625,0.08508793264627457,0.408528596162796,0.14860427379608154
1751214628018660000,5.85366015625,0.010519478470087051,0.42024651169776917,-0.1464737504720688
1751214628028653800,5.86365380859375,-0.11837742477655411,0.2348906397819519,-0.4053328037261963
1751214628038647800,5.873647705078125,-0.2728406488895416,-0.0282294861972332,-0.5640571117401123
1751214628048641800,5.883641845703125,-0.39428070187568665,-0.23915168642997742,-0.6311687231063843
1751214628058635500,5.893635498046875,-0.4294344186782837,-0.3808317482471466,-0.6428865790367126
1751214628068629500,5.90362939453125,-0.3964112401008606,-0.4415517747402191,-0.6056023836135864
1751214628078623500,5.91362353515625,-0.3250385820865631,-0.4032022953033447,-0.5086634159088135
1751214628088617500,5.923617431640625,-0.2270343154668808,-0.2956106662750244,-0.3776359558105469
1751214628098611200,5.933611083984375,-0.09281109273433685,-0.15286533534526825,-0.23915168642997742
1751214628108605200,5.943605224609375,0.074435293674469,-0.006924213841557503,-0.11345057934522629
1751214628118599200,5.95359912109375,0.23102904856204987,0.07403582334518433,-0.004793686326593161
1751214628128593000,5.963593017578125,0.3034669756889343,0.04740423336625099,0.09108003973960876
1751214628138587000,5.9735869140625,0.29707539081573486,-0.06657897680997849,0.1784316599369049
1751214628148580900,5.983580810546875,0.2576606571674347,-0.21358536183834076,0.267913818359375
1751214628158574600,5.99357470703125,0.22144168615341187,-0.3254380524158478,0.343547523021698
1751214628168568600,6.003568603515625,0.20759324729442596,-0.39254966378211975,0.3946801722049713
1751214628178562600,6.0135625,0.19800588488578796,-0.47670549154281616,0.4277033507823944
1751214628188556500,6.023556640625,0.18841850757598877,-0.586427628993988,0.4617917835712433
1751214628198550300,6.03355029296875,0.16711322963237762,-0.6929540038108826,0.5203812718391418
1751214628208544300,6.043544189453125,0.16711322963237762,-0.7547392845153809,0.6024065613746643
1751214628218538200,6.053538330078125,0.20333220064640045,-0.7824361324310303,0.662061333656311
1751214628228532000,6.063531982421875,0.26085641980171204,-0.7930887937545776,0.645017147064209
1751214628238526000,6.07352587890625,0.31198909878730774,-0.7707182168960571,0.5438171029090881
1751214628248520000,6.08352001953125,0.31625014543533325,-0.7227813601493835,0.38402754068374634
1751214628258513700,6.093513671875,0.2800311744213104,-0.6705834865570068,0.211454838514328
1751214628268507600,6.103507568359375,0.25446486473083496,-0.6215813159942627,0.061252661049366
1751214628278501600,6.113501708984375,0.2533995807170868,-0.5747097134590149,-0.042077913880348206
1751214628288495600,6.12349560546875,0.26405221223831177,-0.5086634159088135,-0.09534109383821487
1751214628298489600,6.133489501953125,0.27363958954811096,-0.4053328037261963,-0.10173267871141434
1751214628308483600,6.143483642578125,0.28322696685791016,-0.2743053734302521,-0.08788424730300903
1751214628318477300,6.153477294921875,0.2949448823928833,-0.12516847252845764,-0.08149266988039017
1751214628328471300,6.16347119140625,0.3002711832523346,0.05592634156346321,-0.09214530140161514
1751214628338465300,6.17346533203125,0.2821617126464844,0.26471802592277527,-0.09960214793682098
1751214628348459300,6.183459228515625,0.24168169498443604,0.4617917835712433,-0.08362319320440292
1751214628358453200,6.193453369140625,0.18948377668857574,0.6205160617828369,-0.04527370631694794
1751214628368447200,6.203447265625,0.1213068962097168,0.7398256063461304,0.011185267940163612
1751214628398429200,6.23342919921875,-0.12583427131175995,0.7536740303039551,0.04846949502825737
1751214628408423200,6.243423095703125,-0.19188061356544495,0.586427628993988,0.08681898564100266
1751214628418417000,6.2534169921875,-0.25260064005851746,0.3094590902328491,0.14966954290866852
1751214628428411000,6.263410888671875,-0.3079943358898163,-0.006924213841557503,0.19867166876792908
1751214628438404900,6.27340478515625,-0.37510594725608826,-0.2828274965286255,0.19441060721874237
1751214628448398800,6.28339892578125,-0.43689125776290894,-0.4596612751483917,0.1358211189508438
1751214628458392800,6.293392822265625,-0.47417548298835754,-0.5416865348815918,0.04953476041555405
1751214628468386800,6.30338671875,-0.4965460002422333,-0.6226465702056885,-0.01225053146481514
1751214628478380800,6.313380859375,-0.5103944540023804,-0.7089329361915588,-0.04420844092965126
1751214628488374800,6.323374755859375,-0.5444828867912292,-0.7366297841072083,-0.0985368862748146
1751214628498368800,6.33336865234375,-0.566853404045105,-0.6716487407684326,-0.20932430028915405
1751214628508362800,6.34336279296875,-0.5423523783683777,-0.5384907722473145,-0.3382211923599243
1751214628518356500,6.3533564453125,-0.48908916115760803,-0.34993910789489746,-0.4415517747402191
1751214628528350500,6.3633505859375,-0.43156492710113525,-0.15393058955669403,-0.46285703778266907
1751214628538344400,6.373344482421875,-0.36551859974861145,0.006924213841557503,-0.37337490916252136
1751214628548338400,6.38333837890625,-0.30373328924179077,0.11025478690862656,-0.211454838514328
1751214628558332400,6.39333251953125,-0.3207775056362152,0.18908429145812988,-0.03675159439444542
1751214628568326400,6.403326416015625,-0.4304996728897095,0.2998717129230499,0.062317922711372375
1751214628578320400,6.4133203125,-0.5625923871994019,0.5661876201629639,0.01225053146481514
1751214628588314400,6.423314453125,-0.6755102872848511,0.9614004492759705,-0.21784640848636627
1751214628598308000,6.43330810546875,-0.7074682116508484,1.2373037338256836,-0.5182507634162903
1751214628608302000,6.443302001953125,-0.6733797788619995,1.2255858182907104,-0.7430213689804077
1751214628618296000,6.453296142578125,-0.6403566002845764,1.0966888666152954,-0.8442214131355286
1751214628628289800,6.463289794921875,-0.6137250065803528,1.0317078828811646,-0.8474172353744507
1751214628638283800,6.47328369140625,-0.5849629044532776,1.0114678144454956,-0.8037413954734802
1751214628648277800,6.48327783203125,-0.5593965649604797,1.0476868152618408,-0.7536740303039551
1751214628658271500,6.493271484375,-0.558331310749054,1.156343698501587,-0.7430213689804077
1751214628668265500,6.503265380859375,-0.582832396030426,1.302284836769104,-0.8058719635009766
1751214628678259500,6.513259521484375,-0.6520745158195496,1.386440634727478,-0.8708530068397522
1751214628688253200,6.523253173828125,-0.8118640780448914,1.3576785326004028,-0.8974846005439758
1751214628698247200,6.5332470703125,-1.0835062265396118,1.2213248014450073,-0.8591351509094238
1751214628708241200,6.5432412109375,-1.4190642833709717,1.0295772552490234,-0.7984151244163513
1751214628718235100,6.553235107421875,-1.7247949838638306,0.7824361324310303,-0.7909582257270813
1751214628728228900,6.563228759765625,-1.9048244953155518,0.49588021636009216,-0.8058719635009766
1751214628738222800,6.573222900390625,-1.9250645637512207,0.34567806124687195,-0.750478208065033
1751214628748216800,6.583216796875,-1.8632792234420776,0.25086960196495056,-0.6162550449371338
1751214628758210600,6.59321044921875,-1.7919065952301025,0.13262532651424408,-0.46392232179641724
1751214628768204500,6.60320458984375,-1.6949676275253296,0.030360013246536255,-0.33182963728904724
1751214628778198500,6.613198486328125,-1.5863107442855835,-0.15712638199329376,-0.1933453530073166
1751214628788192300,6.623192138671875,-1.5255906581878662,-0.3616569936275482,-0.13475584983825684
1751214628798186200,6.633186279296875,-1.3785842657089233,-0.6024065613746643,-0.19547587633132935
1751214628808180200,6.64318017578125,-1.1974895000457764,-0.8197203874588013,-0.2732401192188263
1751214628818174200,6.65317431640625,-1.015329360961914,-0.9954888820648193,-0.2402169555425644
1751214628828168000,6.66316796875,-0.8214514255523682,-1.1041457653045654,-0.10492847114801407
1751214628838162000,6.673161865234375,-0.6360955238342285,-1.130777359008789,0.07403582334518433
1751214628848156000,6.683156005859375,-0.45926177501678467,-1.093493103981018,0.23276010155677795
1751214628858149600,6.693149658203125,-0.2984069883823395,-1.0157288312911987,0.33609068393707275
1751214628868143600,6.7031435546875,-0.17377112805843353,-0.93902987241745,0.39681071043014526
1751214628878137600,6.7131376953125,-0.08961530029773712,-0.9028109312057495,0.4234423041343689
1751214628888131300,6.72313134765625,-0.026764748618006706,-0.9326383471488953,0.4138549268245697
1751214628898125300,6.733125244140625,0.02756369672715664,-0.9944236278533936,0.37017911672592163
1751214628908119300,6.743119384765625,0.06804371625185013,-1.0327731370925903,0.31798118352890015
1751214628918113000,6.753113037109375,0.10639320313930511,-1.009337306022644,0.2785664498806
1751214628928107000,6.76310693359375,0.16711322963237762,-0.9198551774024963,0.24767379462718964
1751214628938101000,6.77310107421875,0.2533995807170868,-0.7568697929382324,0.211454838514328
1751214628948095000,6.783094970703125,0.35886070132255554,-0.5512739419937134,0.16564849019050598
1751214628958088700,6.793088623046875,0.47603967785835266,-0.3286338448524475,0.12623374164104462
1751214628968082700,6.803082763671875,0.5878923535346985,-0.10492847114801407,0.1038632020354271
1751214628978076700,6.81307666015625,0.677374541759491,0.09640636295080185,0.09640636295080185
1751214628988070400,6.8230703125,0.7370292544364929,0.25193485617637634,0.09534109383821487
1751214628998064400,6.833064453125,0.7817703485488892,0.354200154542923,0.09534109383821487
1751214629008058400,6.843058349609375,0.8254461884498596,0.408528596162796,0.10173267871141434
1751214629018052000,6.853052001953125,0.88297039270401,0.43516018986701965,0.10705899447202682
1751214629028046000,6.863046142578125,0.9511472582817078,0.44900861382484436,0.0942758321762085
1751214629038040000,6.8730400390625,1.0225199460983276,0.47244441509246826,0.07829687744379044
1751214629048034000,6.883033935546875,1.0992189645767212,0.4799012839794159,0.0516652874648571
1751214629058027800,6.89302783203125,1.1578084230422974,0.4245075583457947,-0.004793686326593161
1751214629068021800,6.903021728515625,1.179113745689392,0.36911386251449585,-0.0516652874648571
1751214629078015700,6.913015625,1.1663305759429932,0.287088543176651,-0.07723161578178406
1751214629088009500,6.923009521484375,1.1333073377609253,0.19228008389472961,-0.07616634666919708
1751214629098003500,6.93300341796875,1.0906968116760254,0.10705899447202682,-0.04420844092965126
1751214629107997400,6.94299755859375,1.062999963760376,0.06977476924657822,0.0015978955198079348
1751214629117991200,6.9529912109375,1.062999963760376,0.04420844092965126,0.03994738683104515
1751214629127985200,6.962985107421875,1.0768483877182007,0.0015978955198079348,0.07723161578178406
1751214629137979100,6.972979248046875,1.0917620658874512,-0.0655137151479721,0.10599373281002045
1751214629147972900,6.982972900390625,1.1034799814224243,-0.13795164227485657,0.10705899447202682
1751214629157966800,6.992966796875,1.1151978969573975,-0.21038956940174103,0.07297056168317795
1751214629167960800,7.0029609375,1.1120021343231201,-0.30839383602142334,0.004793686326593161
1751214629177954800,7.012954833984375,1.092827320098877,-0.45859599113464355,-0.08042740821838379
1751214629187948500,7.022948486328125,1.0619347095489502,-0.6375603079795837,-0.1645832359790802
1751214629197942500,7.032942626953125,1.0097367763519287,-0.825046718120575,-0.23276010155677795
1751214629207936500,7.0429365234375,0.9383640885353088,-0.9688572883605957,-0.2498043179512024
1751214629217930200,7.05293017578125,0.8627303838729858,-1.0199899673461914,-0.19654114544391632
1751214629227924200,7.06292431640625,0.7849661707878113,-0.9741836190223694,-0.08042740821838379
1751214629237918200,7.072918212890625,0.7146587371826172,-0.8538088202476501,0.08362319320440292
1751214629247912000,7.082911865234375,0.648612380027771,-0.6641919016838074,0.27004432678222656
1751214629257906000,7.092906005859375,0.5974797606468201,-0.42557281255722046,0.464987576007843
1751214629267900000,7.10289990234375,0.5655218362808228,-0.1507348120212555,0.6375603079795837
1751214629277894000,7.112893798828125,0.5303681492805481,0.0985368862748146,0.7813708782196045
1751214629287887600,7.1228876953125,0.4824312627315521,0.31265488266944885,0.9347688555717468
1751214629297881600,7.132881591796875,0.42916807532310486,0.5054675936698914,1.123320460319519
1751214629307875600,7.14287548828125,0.40147122740745544,0.7185203433036804,1.289501667022705
1751214629317869300,7.152869384765625,0.41531965136528015,1.0104025602340698,1.3044153451919556
1751214629327863300,7.16286328125,0.37697017192840576,1.3480911254882812,1.1574089527130127
1751214629337857300,7.172857177734375,0.23635536432266235,1.5164028406143188,0.9305077791213989
1751214629347851000,7.18285107421875,0.05419528856873512,1.3033500909805298,0.7419561147689819
1751214629357845000,7.192844970703125,-0.07896266877651215,0.6716487407684326,0.6514087319374084
1751214629367839000,7.2028388671875,-0.18868482112884521,-0.15606112778186798,0.6151897311210632
1751214629377833000,7.2128330078125,-0.2227732539176941,-0.9187898635864258,0.5374255180358887
1751214629387826700,7.22282666015625,-0.1748363971710205,-1.3800489902496338,0.2348906397819519
1751214629397820700,7.232820556640625,-0.18548902869224548,-1.391766905784607,-0.12303794920444489
1751214629407814700,7.242814697265625,-0.20253324508666992,-1.136103630065918,-0.4053328037261963
1751214629417808400,7.252808349609375,-0.2035985141992569,-0.7898929715156555,-0.6056023836135864
1751214629427802400,7.26280224609375,-0.2696448564529419,-0.4522044062614441,-0.6567350625991821
1751214629437796400,7.27279638671875,-0.39321544766426086,-0.20080219209194183,-0.5342296957969666
1751214629447790000,7.2827900390625,-0.4965460002422333,-0.002663159044459462,-0.2966759204864502
1751214629457784000,7.2927841796875,-0.48695865273475647,0.20932430028915405,-0.04527370631694794
1751214629467778000,7.302778076171875,-0.38895440101623535,0.4053328037261963,0.13262532651424408
1751214629477771800,7.312771728515625,-0.2962764501571655,0.44048652052879333,0.20399798452854156
1751214629487765800,7.322765869140625,-0.24194800853729248,0.27110961079597473,0.20399798452854156
1751214629497759700,7.332759765625,-0.24407853186130524,-0.030360013246536255,0.22743378579616547
1751214629507753700,7.342753662109375,-0.28136277198791504,-0.36485278606414795,0.36378753185272217
1751214629517747500,7.35274755859375,-0.28136277198791504,-0.6631265878677368,0.636495053768158
1751214629527741400,7.362741455078125,-0.2504701018333435,-0.8058719635009766,0.8996151685714722
1751214629537735400,7.3727353515625,-0.25260064005851746,-0.7238466143608093,0.9539436101913452
1751214629547729200,7.382729248046875,-0.26112276315689087,-0.4596612751483917,0.8090677261352539
1751214629557723100,7.39272314453125,-0.2547311782836914,-0.08255793154239655,0.6301034688949585
1751214629567717000,7.402717041015625,-0.20146799087524414,0.29454538226127625,0.5150549411773682
1751214629577710800,7.4127109375,-0.06937529146671295,0.5587307810783386,0.45326969027519226
1751214629587704800,7.422704833984375,0.08721846342086792,0.6418213248252869,0.4287686049938202
1751214629597698800,7.43269873046875,0.2203764170408249,0.5438171029090881,0.41065913438796997
1751214629607692800,7.44269287109375,0.31198909878730774,0.30839383602142334,0.3520696461200714
1751214629617686500,7.4526865234375,0.36738279461860657,0.0037284228019416332,0.26045694947242737
1751214629627680500,7.462680419921875,0.39081859588623047,-0.2743053734302521,0.15180006623268127
1751214629637674500,7.472674560546875,0.37803542613983154,-0.48309704661369324,0.038882121443748474
1751214629647668200,7.482668212890625,0.3460775315761566,-0.5832318663597107,-0.059122130274772644
1751214629657662200,7.492662109375,0.3290333151817322,-0.5470128655433655,-0.12516847252845764
1751214629667656200,7.50265625,0.32157647609710693,-0.37337490916252136,-0.15819165110588074
1751214629677650000,7.51264990234375,0.3098585605621338,-0.12516847252845764,-0.1699095517396927
1751214629687644000,7.522643798828125,0.2896185517311096,0.11025478690862656,-0.17523586750030518
1751214629697638000,7.532637939453125,0.26937854290008545,0.2775011658668518,-0.16245271265506744
1751214629707631600,7.542631591796875,0.24274694919586182,0.35100436210632324,-0.12623374164104462
1751214629717625600,7.55262548828125,0.20439745485782623,0.3286338448524475,-0.07829687744379044
1751214629727619600,7.56261962890625,0.1628521829843521,0.21465063095092773,-0.030360013246536255
1751214629737613600,7.572613525390625,0.12769848108291626,0.04740423336625099,0.0037284228019416332
1751214629747607300,7.582607177734375,0.11065425723791122,-0.1315600574016571,0.009054740890860558
1751214629757601300,7.592601318359375,0.10639320313930511,-0.2817622423171997,-0.020772641524672508
1751214629767595300,7.60259521484375,0.1213068962097168,-0.38722333312034607,-0.062317922711372375
1751214629777589000,7.612589111328125,0.13835111260414124,-0.42557281255722046,-0.08681898564100266
1751214629787583000,7.6225830078125,0.12237215787172318,-0.3520696461200714,-0.07403582334518433
1751214629797577000,7.632576904296875,0.08508793264627457,-0.1603221744298935,-0.033555805683135986
1751214629807570700,7.64257080078125,0.05206476151943207,0.0846884623169899,0.018642114475369453
1751214629817564700,7.652564697265625,0.011584741994738579,0.3147853910923004,0.08362319320440292
1751214629827558700,7.66255859375,-0.04061317816376686,0.47244441509246826,0.15180006623268127
1751214629837552600,7.672552734375,-0.09600688517093658,0.5182507634162903,0.23702116310596466
1751214629847546600,7.682546630859375,-0.14500901103019714,0.4522044062614441,0.35526543855667114
1751214629857540600,7.69254052734375,-0.20040272176265717,0.3584612011909485,0.47670549154281616
1751214629867534600,7.70253466796875,-0.2739059031009674,0.3254380524158478,0.5161202549934387
1751214629877528600,7.712528564453125,-0.3633880615234375,0.36378753185272217,0.400006502866745
1751214629887522300,7.722522216796875,-0.4379565119743347,0.36911386251449585,0.13369058072566986
1751214629897516300,7.732516357421875,-0.4816323220729828,0.2689790725708008,-0.21465063095092773
1751214629907510300,7.74251025390625,-0.4848281145095825,0.042077913880348206,-0.5597960352897644
1751214629917504300,7.752504150390625,-0.46352285146713257,-0.211454838514328,-0.820785641670227
1751214629927498200,7.762498291015625,-0.4432828426361084,-0.3712443709373474,-0.9699225425720215
1751214629937492200,7.7724921875,-0.40812912583351135,-0.4596612751483917,-1.001880407333374
1751214629947486200,7.782486328125,-0.3452785909175873,-0.5672528743743896,-0.9113330245018005
1751214629957480200,7.792480224609375,-0.28455856442451477,-0.7760445475578308,-0.720650851726532
1751214629967474200,7.80247412109375,-0.2547311782836914,-1.039164662361145,-0.45326969027519226
1751214629977468200,7.81246826171875,-0.2728406488895416,-1.1574089527130127,-0.12516847252845764
1751214629987462000,7.8224619140625,-0.3687143921852112,-0.766457200050354,0.09640636295080185
1751214629997456000,7.832455810546875,-0.5412870645523071,0.21038956940174103,0.09747162461280823
1751214630007449900,7.842449951171875,-0.7372955679893494,1.2159984111785889,-0.15180006623268127
1751214630017443800,7.85244384765625,-0.8321040868759155,1.599493384361267,-0.5246423482894897
1751214630027437800,7.862437744140625,-0.7937545776367188,1.349156379699707,-0.8314382433891296
1751214630037431800,7.872431884765625,-0.6872282028198242,0.8602004051208496,-0.9699225425720215
1751214630047425800,7.88242578125,-0.5498092174530029,0.49268442392349243,-0.9539436101913452
1751214630057419800,7.892419677734375,-0.39428070187568665,0.25619590282440186,-0.842090904712677
1751214630067413800,7.902413818359375,-0.23768694698810577,0.15286533534526825,-0.6961497664451599
1751214630077407700,7.91240771484375,-0.14500901103019714,0.2593916952610016,-0.5587307810783386
1751214630087401500,7.9224013671875,-0.1332911103963852,0.5278381109237671,-0.42024651169776917
1751214630097395500,7.9323955078125,-0.15992270410060883,0.8356993198394775,-0.3009369671344757
1751214630107389400,7.942389404296875,-0.23981747031211853,1.1552784442901611,-0.26471802592277527
1751214630117383400,7.952383544921875,-0.4049333333969116,1.4194637537002563,-0.3755054473876953
1751214630127377400,7.96237744140625,-0.633965015411377,1.5217291116714478,-0.6119939684867859
1751214630137371100,7.97237109375,-0.9077377915382385,1.3853753805160522,-0.8932235836982727
1751214630147365000,7.982365234375,-1.2028157711029053,0.9912278056144714,-1.0871015787124634
1751214630157359000,7.992359130859375,-1.5351780652999878,0.5448823571205139,-1.1819100379943848
1751214630167352800,8.002352783203126,-1.8675403594970703,0.2530001103878021,-1.1957584619522095
1751214630177346800,8.012346923828124,-2.0688750743865967,0.13262532651424408,-1.1638004779815674
1751214630187340800,8.0223408203125,-2.016677141189575,0.058056868612766266,-1.1020152568817139
1751214630197334800,8.032334716796875,-1.8345171213150024,-0.05592634156346321,-1.0072067975997925
1751214630207328500,8.04232861328125,-1.6821844577789307,-0.29880645871162415,-0.8687224984169006
1751214630217322500,8.052322509765625,-1.5362433195114136,-0.5928192138671875,-0.7259771823883057
1751214630227316500,8.06231640625,-1.388171672821045,-0.8602004051208496,-0.5683181285858154
1751214630237310200,8.072310302734374,-1.2603400945663452,-1.1169289350509644,-0.37444016337394714
1751214630247304200,8.08230419921875,-1.1175947189331055,-1.3097416162490845,-0.17523586750030518
1751214630257298200,8.092298095703125,-0.9567399024963379,-1.3534173965454102,0.004793686326593161
1751214630267292000,8.1022919921875,-0.7905587553977966,-1.2490216493606567,0.17736639082431793
1751214630277286000,8.112285888671876,-0.6787061095237732,-0.963530957698822,0.3158506751060486
1751214630287279900,8.12227978515625,-0.6382260918617249,-0.5747097134590149,0.4010717570781708
1751214630297273600,8.132273681640624,-0.5988113284111023,-0.29028433561325073,0.43409493565559387
1751214630307267600,8.142267578125,-0.5125249624252319,-0.20293273031711578,0.4319643974304199
1751214630317261600,8.152261474609375,-0.40706387162208557,-0.31372013688087463,0.42983388900756836
1751214630327255600,8.162255615234375,-0.2930806577205658,-0.5374255180358887,0.4554001986980438
1751214630337249300,8.172249267578126,-0.18335850536823273,-0.7494129538536072,0.5065328478813171
1751214630347243300,8.1822431640625,-0.08215846121311188,-0.8655267357826233,0.5566002726554871
1751214630357237200,8.1922373046875,0.008388951420783997,-0.8815056681632996,0.5768402814865112
1751214630367231000,8.20223095703125,0.08615319430828094,-0.8442214131355286,0.5502086877822876
1751214630387219000,8.222218994140626,0.2576606571674347,-0.6183855533599854,0.41172438859939575
1751214630397212700,8.232212646484374,0.3577954173088074,-0.41065913438796997,0.34674331545829773
1751214630407206700,8.24220654296875,0.4557996690273285,-0.19973693788051605,0.30732855200767517
1751214630417200600,8.25220068359375,0.5314334034919739,-0.03142527863383293,0.27537065744400024
1751214630427194600,8.262194580078125,0.5793702602386475,0.09534109383821487,0.23808641731739044
1751214630437188400,8.272188232421875,0.5974797606468201,0.2018674612045288,0.20612850785255432
1751214630447182300,8.282182373046876,0.6113281846046448,0.2860232889652252,0.16671375930309296
1751214630457176300,8.29217626953125,0.627307116985321,0.35100436210632324,0.11664637178182602
1751214630467170000,8.302170166015625,0.6507429480552673,0.40213701128959656,0.06657897680997849
1751214630477164000,8.3121640625,0.6848313808441162,0.4362254738807678,0.022903168573975563
1751214630487158000,8.322157958984375,0.7274419069290161,0.42983388900756836,-0.0005326318205334246
1751214630497151700,8.33215185546875,0.7562040090560913,0.37870121002197266,0.025033695623278618
1751214630507145700,8.342145751953124,0.7487471699714661,0.3009369671344757,0.10066741704940796
1751214630517139700,8.3521396484375,0.7135934829711914,0.22423799335956573,0.2071937769651413
1751214630527133400,8.362133544921875,0.6763092279434204,0.18588849902153015,0.3094590902328491
1751214630537127400,8.37212744140625,0.6507429480552673,0.20293273031711578,0.38722333312034607
1751214630547121400,8.382121337890625,0.6422207951545715,0.28069695830345154,0.44474756717681885
1751214630557115400,8.392115478515626,0.6464818716049194,0.4032022953033447,0.47777074575424194
1751214630567109000,8.402109130859374,0.6507429480552673,0.5267728567123413,0.48203179240226746
1751214630577103000,8.41210302734375,0.6411555409431458,0.5896234512329102,0.4468781054019928
1751214630587097000,8.42209716796875,0.61878502368927,0.5757750272750854,0.38296228647232056
1751214630597090800,8.4320908203125,0.5900229215621948,0.475640207529068,0.30413275957107544
1751214630607084800,8.442084716796876,0.5527386665344238,0.29028433561325073,0.20932430028915405
1751214630617078800,8.452078857421874,0.527172327041626,0.061252661049366,0.1081242561340332
1751214630627072500,8.462072509765624,0.527172327041626,-0.15286533534526825,0.00798947736620903
1751214630637066500,8.47206640625,0.5410207509994507,-0.3201117217540741,-0.08681898564100266
1751214630647060500,8.482060546875,0.5580649971961975,-0.41705071926116943,-0.16351796686649323
1751214630657054500,8.492054443359375,0.5804355144500732,-0.44474756717681885,-0.21571588516235352
1751214630667048200,8.502048095703126,0.6305029392242432,-0.45326969027519226,-0.2540653645992279
1751214630677042200,8.512042236328124,0.7050713896751404,-0.41172438859939575,-0.267913818359375
1751214630687036200,8.5220361328125,0.7881619334220886,-0.33715593814849854,-0.25193485617637634
1751214630697030000,8.53202978515625,0.8669914603233337,-0.24341274797916412,-0.20293273031711578
1751214630707024000,8.54202392578125,0.9351683259010315,-0.13475584983825684,-0.1358211189508438
1751214630717017900,8.552017822265626,0.9884315133094788,-0.020772641524672508,-0.05699160322546959
1751214630727011600,8.562011474609376,1.0235852003097534,0.08149266988039017,0.026098959147930145
1751214630737005600,8.572005615234374,1.025715708732605,0.20506325364112854,0.11558110266923904
1751214630746999600,8.58199951171875,1.0001493692398071,0.2966759204864502,0.20825904607772827
1751214630756993300,8.5919931640625,0.9564735889434814,0.3584612011909485,0.2966759204864502
1751214630766987300,8.6019873046875,0.9468862414360046,0.39681071043014526,0.3627222776412964
1751214630776981200,8.611981201171876,0.9756483435630798,0.4522044062614441,0.3861580789089203
1751214630786975200,8.621975341796874,0.9863009452819824,0.5225118398666382,0.3659180700778961
1751214630796969000,8.631968994140625,0.9639304280281067,0.586427628993988,0.32650330662727356
1751214630806963000,8.641962890625,0.90427565574646,0.6002760529518127,0.2860232889652252
1751214630816957000,8.65195703125,0.8243808746337891,0.5491434335708618,0.2530001103878021
1751214630826950700,8.66195068359375,0.7487471699714661,0.46285703778266907,0.2167811542749405
1751214630836944600,8.671944580078126,0.6550039649009705,0.3797664940357208,0.18588849902153015
1751214630846938600,8.681938720703124,0.5399554967880249,0.31372013688087463,0.19867166876792908
1751214630856932400,8.691932373046875,0.4323638677597046,0.2743053734302521,0.28495803475379944
1751214630866926300,8.70192626953125,0.3322291076183319,0.2785664498806,0.5225118398666382
1751214630876920300,8.71192041015625,0.24061642587184906,0.34141698479652405,0.9624657034873962
1751214630886914300,8.721914306640626,0.02649843320250511,0.32224225997924805,1.3054805994033813
1751214630896908000,8.731907958984374,-0.30053749680519104,0.12836426496505737,1.2863059043884277
1751214630906902000,8.741902099609375,-0.5817670822143555,-0.2253032624721527,1.0508825778961182
1751214630916896000,8.75189599609375,-0.8107987642288208,-0.4596612751483917,0.8410256505012512
1751214630926889700,8.7618896484375,-0.9610009789466858,-0.38935387134552,0.7281076908111572
1751214630936883700,8.7718837890625,-0.9727188348770142,0.03142527863383293,0.623711884021759
1751214630946877700,8.781877685546876,-0.8725841045379639,0.5906887054443359,0.4511391520500183
1751214630956871400,8.791871337890624,-0.7617966532707214,0.9145288467407227,0.19441060721874237
1751214630966865400,8.801865478515625,-0.6755102872848511,0.9145288467407227,-0.09214530140161514
1751214630976859400,8.811859375,-0.6222470998764038,0.745151937007904,-0.3446127772331238
1751214630986853400,8.821853271484375,-0.5636576414108276,0.49268442392349243,-0.5054675936698914
1751214630996847000,8.83184716796875,-0.5008070468902588,0.20399798452854156,-0.5629918575286865
1751214631006841000,8.841841064453124,-0.434760719537735,-0.06657897680997849,-0.5171855092048645
1751214631016835000,8.8518349609375,-0.38895440101623535,-0.2956106662750244,-0.3861580789089203
1751214631026828800,8.861828857421875,-0.348474383354187,-0.4319643974304199,-0.20612850785255432
1751214631036822800,8.87182275390625,-0.30479857325553894,-0.4575307369232178,-0.020772641524672508
1751214631046816800,8.881816650390626,-0.2451438009738922,-0.3850927948951721,0.13475584983825684
1751214631056810500,8.891810546875,-0.1652490198612213,-0.2540653645992279,0.2583264410495758
1751214631066804500,8.901804443359374,-0.07044056057929993,-0.1411474347114563,0.3723096549510956
1751214631076798500,8.911798583984375,0.03075948730111122,-0.1177116334438324,0.47670549154281616
1751214631086792200,8.921792236328125,0.1351553201675415,-0.19014956057071686,0.5427518486976624
1751214631096786200,8.9317861328125,0.22996379435062408,-0.34674331545829773,0.5747097134590149
1751214631106780200,8.9417802734375,0.31198909878730774,-0.5459476113319397,0.5534044504165649
1751214631116774100,8.951774169921874,0.3801659643650055,-0.7036066055297852,0.45433494448661804
1751214631126767900,8.961767822265625,0.44940808415412903,-0.7621961236000061,0.29880645871162415
1751214631136761900,8.971761962890625,0.5079975724220276,-0.7046719193458557,0.13369058072566986
1751214631146755800,8.981755859375,0.5378249883651733,-0.5672528743743896,0.011185267940163612
1751214631156749600,8.99174951171875,0.5388902425765991,-0.3627222776412964,-0.050600022077560425
1751214631166743600,9.00174365234375,0.5250418186187744,-0.13262532651424408,-0.059122130274772644
1751214631176737500,9.011737548828124,0.5037365555763245,0.03994738683104515,-0.022903168573975563
1751214631186731300,9.021731201171875,0.4866923391819,0.08788424730300903,0.037816859781742096
1751214631196725200,9.031725341796875,0.4792354702949524,0.002663159044459462,0.11664637178182602
1751214631206719200,9.04171923828125,0.46751758456230164,-0.17097482085227966,0.19441060721874237
1751214631216713200,9.051713134765626,0.43875545263290405,-0.3776359558105469,0.267913818359375
1751214631226707000,9.06170703125,0.4036017656326294,-0.5395560264587402,0.335025429725647
1751214631236701000,9.071700927734375,0.3652522563934326,-0.6098634600639343,0.39254966378211975
1751214631246695000,9.08169482421875,0.3332943618297577,-0.569383442401886,0.4511391520500183
1751214631256688600,9.091688720703125,0.2949448823928833,-0.44581282138824463,0.4884233772754669
1751214631266682600,9.1016826171875,0.26937854290008545,-0.2966759204864502,0.475640207529068
1751214631276676600,9.111676513671876,0.22357220947742462,-0.16564849019050598,0.3797664940357208
1751214631286670300,9.12167041015625,0.18415744602680206,-0.07297056168317795,0.23169484734535217
1751214631296664300,9.131664306640625,0.15539532899856567,0.004793686326593161,0.061252661049366
1751214631306658300,9.141658203125,0.1255679577589035,0.04527370631694794,-0.12090742588043213
1751214631316652000,9.151652099609375,0.09254477918148041,0.018642114475369453,-0.2785664498806
1751214631326646000,9.16164599609375,0.05419528856873512,-0.0037284228019416332,-0.4042675495147705
1751214631336640000,9.171639892578124,0.01584579609334469,-0.018642114475369453,-0.5001412630081177
1751214631346634000,9.181634033203125,-0.022503694519400597,-0.08575372397899628,-0.5512739419937134
1751214631356627700,9.191627685546875,-0.07363634556531906,-0.1933453530073166,-0.5363602638244629
1751214631366621700,9.20162158203125,-0.13861742615699768,-0.3339601457118988,-0.4948149621486664
1751214631376615700,9.21161572265625,-0.20572903752326965,-0.475640207529068,-0.4415517747402191
1751214631386609400,9.221609375,-0.26112276315689087,-0.586427628993988,-0.4042675495147705
1751214631396603400,9.231603271484374,-0.2941459119319916,-0.6311687231063843,-0.3989412188529968
1751214631406597400,9.241597412109375,-0.3016027808189392,-0.6024065613746643,-0.4181159734725952
1751214631416591000,9.251591064453125,-0.29201540350914,-0.5395560264587402,-0.45326969027519226
1751214631426585000,9.261585205078125,-0.2941459119319916,-0.48203179240226746,-0.4607265293598175
1751214631436579000,9.2715791015625,-0.30905961990356445,-0.408528596162796,-0.41172438859939575
1751214631446573000,9.281572998046874,-0.33249542117118835,-0.2966759204864502,-0.31691592931747437
1751214631456566800,9.29156689453125,-0.3633880615234375,-0.15606112778186798,-0.13262532651424408
1751214631466560800,9.301560791015625,-0.40386807918548584,0.015446322970092297,0.16671375930309296
1751214631476554800,9.3115546875,-0.45073968172073364,0.28921908140182495,0.5065328478813171
1751214631486548500,9.321548583984375,-0.5434176325798035,0.887897253036499,0.6641919016838074
1751214631496542500,9.33154248046875,-0.7000113725662231,1.6357122659683228,0.43409493565559387
1751214631506536400,9.341536376953124,-0.847017765045166,1.8935061693191528,-0.14327795803546906
1751214631516530200,9.3515302734375,-0.8747146129608154,1.3981585502624512,-0.7036066055297852
1751214631526524200,9.361524169921875,-0.8076030015945435,0.8293077349662781,-0.9699225425720215
1751214631536518100,9.37151806640625,-0.68829345703125,0.6471476554870605,-0.9795098900794983
1751214631546512100,9.38151220703125,-0.5423523783683777,0.8282424807548523,-0.8910930156707764
1751214631556505900,9.391505859375,-0.4294344186782837,1.0743184089660645,-0.8282424807548523
1751214631566499800,9.401499755859374,-0.37084490060806274,1.315068006515503,-0.820785641670227
1751214631576493800,9.411493896484375,-0.36658385396003723,1.4183984994888306,-0.8836361765861511
1751214631586487600,9.421487548828125,-0.4443480968475342,1.4120069742202759,-0.9805752038955688
1751214631596481500,9.4314814453125,-0.6147902607917786,1.3374384641647339,-1.0572742223739624
1751214631606475500,9.4414755859375,-0.8747146129608154,1.2159984111785889,-1.093493103981018
1751214631616469200,9.45146923828125,-1.127182126045227,1.039164662361145,-1.0743184089660645
1751214631626463200,9.461463134765625,-1.2795147895812988,0.7174550890922546,-1.0157288312911987
1751214631636457200,9.471457275390625,-1.4084117412567139,0.5789707899093628,-0.9198551774024963
1751214631646451000,9.481450927734375,-1.513872742652893,0.699345588684082,-0.8111982345581055
1751214631656445000,9.49144482421875,-1.6811192035675049,0.7526087760925293,-0.6418213248252869
1751214631666439000,9.50143896484375,-1.868605613708496,0.5768402814865112,-0.4799012839794159
1751214631676433000,9.511432861328124,-1.8771276473999023,0.29454538226127625,-0.400006502866745
1751214631686426600,9.521426513671875,-1.7514265775680542,-0.053795814514160156,-0.35100436210632324
1751214631696420600,9.531420654296875,-1.558613896369934,-0.4234423041343689,-0.28389275074005127
1751214631706414600,9.54141455078125,-1.3444958925247192,-0.7398256063461304,-0.21465063095092773
1751214631716408300,9.551408203125,-1.127182126045227,-0.9432909488677979,-0.17523586750030518
1751214631726402300,9.56140234375,-0.892824113368988,-1.0327731370925903,-0.1454084813594818
1751214631736396300,9.571396240234375,-0.6574008464813232,-1.034903645515442,-0.0942758321762085
1751214631746390000,9.58139013671875,-0.45073968172073364,-1.001880407333374,0.005858949851244688
1751214631756384000,9.591384033203125,-0.29521119594573975,-0.9645962119102478,0.14860427379608154
1751214631766378000,9.6013779296875,-0.18655429780483246,-0.8548740744590759,0.2593916952610016
1751214631776372000,9.6113720703125,-0.10346373170614243,-0.6812360882759094,0.2721748650074005
1751214631786365700,9.62136572265625,-0.02143843099474907,-0.5885581374168396,0.21358536183834076
1751214631796359700,9.631359619140625,0.07337003201246262,-0.6258423924446106,0.12410321086645126
1751214631806353700,9.641353759765625,0.19267955422401428,-0.7281076908111572,0.04420844092965126
1751214631816347400,9.651347412109375,0.31731539964675903,-0.8367645740509033,0.0015978955198079348
1751214631826341400,9.66134130859375,0.4355596601963043,-0.8900277614593506,-0.002663159044459462
1751214631836335400,9.67133544921875,0.5442165732383728,-0.8474172353744507,0.01438105944544077
1751214631846329000,9.6813291015625,0.6368945240974426,-0.7142592668533325,0.026098959147930145
1751214631856323000,9.691322998046875,0.7114629745483398,-0.5214465260505676,0.027164222672581673
1751214631866317000,9.701317138671875,0.7625955939292908,-0.30839383602142334,0.034621067345142365
1751214631876310800,9.711310791015626,0.7924230098724365,-0.12303794920444489,0.06338318437337875
1751214631886304800,9.7213046875,0.8222503662109375,0.018642114475369453,0.10173267871141434
1751214631896298800,9.731298828125,0.8552735447883606,0.11664637178182602,0.13262532651424408
1751214631906292700,9.741292724609375,0.8872314691543579,0.17949692904949188,0.14966954290866852
1751214631916286500,9.751286376953125,0.9138630628585815,0.21038956940174103,0.15286533534526825
1751214631926280400,9.761280517578125,0.9298419952392578,0.17204007506370544,0.15180006623268127
1751214631936274400,9.7712744140625,0.9223851561546326,0.06870950758457184,0.14008216559886932
1751214631946268200,9.78126806640625,0.8882967233657837,-0.022903168573975563,0.11664637178182602
1751214631956262100,9.79126220703125,0.8467514514923096,-0.05592634156346321,0.09534109383821487
1751214631966256000,9.801256103515625,0.8126630187034607,-0.010120004415512085,0.07616634666919708
1751214631976249900,9.811249755859375,0.7785745859146118,0.06444845348596573,0.04740423336625099
1751214631986243800,9.821243896484376,0.7253113985061646,0.12623374164104462,0.018642114475369453
1751214631996237800,9.83123779296875,0.6709829568862915,0.16564849019050598,0.006924213841557503
1751214632006231800,9.841231689453124,0.631568193435669,0.19547587633132935,0.021837905049324036
1751214632016225500,9.8512255859375,0.6251766085624695,0.21571588516235352,0.0655137151479721
1751214632026219500,9.861219482421875,0.6283723711967468,0.24554327130317688,0.12410321086645126
1751214632036213500,9.871213623046875,0.6368945240974426,0.3009369671344757,0.17736639082431793
1751214632046207200,9.881207275390626,0.648612380027771,0.3723096549510956,0.21571588516235352
1751214632056201200,9.891201171875,0.6592650413513184,0.44048652052879333,0.23276010155677795
1751214632066195200,9.9011953125,0.6571345329284668,0.48203179240226746,0.23169484734535217
1751214632076189000,9.91118896484375,0.6422207951545715,0.4607265293598175,0.2253032624721527
1751214632086183000,9.921182861328125,0.6177197694778442,0.3616569936275482,0.21252009272575378
1751214632096177000,9.931177001953126,0.5846965909004211,0.2018674612045288,0.19441060721874237
1751214632106170600,9.941170654296876,0.5569997429847717,0.022903168573975563,0.1784316599369049
1751214632116164600,9.95116455078125,0.5463470816612244,-0.154995858669281,0.17310534417629242
1751214632126158600,9.96115869140625,0.5463470816612244,-0.31691592931747437,0.17949692904949188
1751214632136152600,9.971152587890625,0.5378249883651733,-0.44474756717681885,0.2018674612045288
1751214632146146300,9.981146240234375,0.5154544711112976,-0.5384907722473145,0.2253032624721527
1751214632156140300,9.991140380859376,0.497344970703125,-0.5981455445289612,0.2253032624721527
1751214632166134300,10.00113427734375,0.48562705516815186,-0.6205160617828369,0.20293273031711578
1751214632176128000,10.0111279296875,0.4834965467453003,-0.6024065613746643,0.1741705983877182
1751214632186122000,10.0211220703125,0.49627968668937683,-0.5566002726554871,0.14327795803546906
1751214632196116000,10.031115966796875,0.5218459963798523,-0.502271831035614,0.10705899447202682
1751214632206109700,10.041109619140625,0.5218459963798523,-0.4511391520500183,0.062317922711372375
1751214632216103700,10.051103759765626,0.4845618009567261,-0.408528596162796,0.00798947736620903
1751214632226097700,10.06109765625,0.41958072781562805,-0.34567806124687195,-0.04314317926764488
1751214632236091600,10.071091552734375,0.3577954173088074,-0.2775011658668518,-0.0655137151479721
1751214632246085400,10.08108544921875,0.3226417303085327,-0.2530001103878021,-0.05273054912686348
1751214632256079400,10.091079345703125,0.31518489122390747,-0.25193485617637634,-0.00798947736620903
1751214632266073300,10.1010732421875,0.33435961604118347,-0.2402169555425644,0.04846949502825737
1751214632276067000,10.111067138671874,0.3620564937591553,-0.18056218326091766,0.11238531768321991
1751214632286061000,10.12106103515625,0.40147122740745544,-0.06338318437337875,0.1784316599369049
1751214632296055000,10.131054931640625,0.46751758456230164,0.09747162461280823,0.21358536183834076
1751214632306048800,10.141048828125,0.5399554967880249,0.2551306486129761,0.21038956940174103
1751214632316042800,10.151042724609376,0.594283938407898,0.38402754068374634,0.17949692904949188
1751214632326036700,10.16103662109375,0.6198502779006958,0.4234423041343689,0.13795164227485657
1751214632336030700,10.17103076171875,0.6368945240974426,0.30732855200767517,0.08575372397899628
1751214632346024400,10.1810244140625,0.6454166173934937,0.09108003973960876,0.042077913880348206
1751214632356018400,10.191018310546875,0.6454166173934937,-0.09640636295080185,0.03994738683104515
1751214632366012400,10.201012451171875,0.627307116985321,-0.15712638199329376,0.0708400309085846
1751214632395994000,10.230994140625,0.5772397518157959,0.21784640848636627,0.42557281255722046
1751214632405987800,10.24098779296875,0.5825660824775696,0.3755054473876953,0.5374255180358887
1751214632415981800,10.25098193359375,0.5793702602386475,0.5193160176277161,0.5640571117401123
1751214632425975800,10.260975830078126,0.5410207509994507,0.645017147064209,0.5150549411773682
1751214632435969500,10.270969482421876,0.4739091694355011,0.7131940126419067,0.4468781054019928
1751214632445963500,10.280963623046874,0.3854922652244568,0.6439518928527832,0.3797664940357208
1751214632455957500,10.29095751953125,0.26085641980171204,0.48629283905029297,0.343547523021698
1751214632465951500,10.300951416015625,0.1255679577589035,0.31798118352890015,0.30732855200767517
1751214632475945200,10.3109453125,-0.035286858677864075,0.11877689510583878,0.26684853434562683
1751214632485939200,10.320939208984376,-0.23875221610069275,-0.1784316599369049,0.2913496196269989
1751214632495933200,10.33093310546875,-0.4304996728897095,-0.5075981020927429,0.41065913438796997
1751214632505927000,10.340927001953125,-0.5551354885101318,-0.7366297841072083,0.577905535697937
1751214632515921000,10.3509208984375,-0.5870934128761292,-0.7824361324310303,0.7217161059379578
1751214632525915000,10.360914794921875,-0.5125249624252319,-0.6162550449371338,0.7739140391349792
1751214632535908600,10.37090869140625,-0.3857586085796356,-0.29454538226127625,0.6876276731491089
1751214632545902600,10.380902587890626,-0.30905961990356445,-0.0005326318205334246,0.4554001986980438
1751214632555896600,10.390896484375,-0.2739059031009674,0.19441060721874237,0.15819165110588074
1751214632565890600,10.400890625,-0.27710169553756714,0.31158962845802307,-0.11984215676784515
1751214632575884300,10.41088427734375,-0.31332066655158997,0.30306750535964966,-0.3254380524158478
1751214632585878300,10.420878173828125,-0.3814975321292877,0.16351796686649323,-0.4138549268245697
1751214632595872300,10.430872314453126,-0.44115230441093445,-0.0015978955198079348,-0.39681071043014526
1751214632605866000,10.440865966796874,-0.4944154918193817,-0.062317922711372375,-0.32756856083869934
1751214632615860000,10.45085986328125,-0.5306344628334045,-0.017576850950717926,-0.21358536183834076
1751214632625854000,10.46085400390625,-0.515720784664154,0.09321057051420212,-0.0846884623169899
1751214632635847700,10.47084765625,-0.44967442750930786,0.24554327130317688,0.050600022077560425
1751214632645841700,10.480841552734375,-0.35167014598846436,0.400006502866745,0.15712638199329376
1751214632655835600,10.490835693359376,-0.2408827394247055,0.5193160176277161,0.24660852551460266
1751214632665829400,10.500829345703124,-0.12903006374835968,0.5534044504165649,0.3296990990638733
1751214632675823400,10.5108232421875,-0.01504684891551733,0.43409493565559387,0.38935387134552
1751214632685817300,10.5208173828125,0.08082687854766846,0.10492847114801407,0.4138549268245697
1751214632695811300,10.530811279296875,0.15113428235054016,-0.37337490916252136,0.4191812574863434
1751214632705805000,10.54080517578125,0.1916143000125885,-0.8356993198394775,0.4127896726131439
1751214632715799000,10.550799072265624,0.2342248409986496,-1.138234257698059,0.4010717570781708
1751214632735786800,10.570786865234375,0.3460775315761566,-1.081775188446045,0.37870121002197266
1751214632745780700,10.58078076171875,0.40573230385780334,-0.8516782522201538,0.36378753185272217
1751214632755774700,10.590774658203125,0.4366249442100525,-0.5683181285858154,0.3094590902328491
1751214632765768400,10.6007685546875,0.430233359336853,-0.276435911655426,0.22743378579616547
1751214632775762400,10.610762451171874,0.3854922652244568,-0.01970737800002098,0.14327795803546906
1751214632785756400,10.62075634765625,0.31518489122390747,0.17204007506370544,0.06764423847198486
1751214632795750400,10.63075048828125,0.22996379435062408,0.28069695830345154,-0.002663159044459462
1751214632805744000,10.640744140625,0.14580796658992767,0.3254380524158478,-0.06977476924657822
1751214632815738000,10.650738037109376,0.07656582444906235,0.3190464675426483,-0.12836426496505737
1751214632825732000,10.660732177734374,0.025433169677853584,0.28921908140182495,-0.17630113661289215
1751214632835725800,10.670725830078124,-0.006524739786982536,0.22956430912017822,-0.21891167759895325
1751214632845719800,10.6807197265625,-0.020373167470097542,0.14860427379608154,-0.2487390637397766
1751214632855713800,10.6907138671875,-0.022503694519400597,0.08894951641559601,-0.25193485617637634
1751214632865707500,10.70070751953125,-0.02143843099474907,0.07297056168317795,-0.21997694671154022
1751214632875701500,10.710701416015626,-0.019307903945446014,0.08575372397899628,-0.16138744354248047
1751214632885695500,10.720695556640624,-0.022503694519400597,0.09001477807760239,-0.09960214793682098
1751214632895689500,10.730689453125,-0.02569948509335518,0.062317922711372375,-0.058056868612766266
1751214632905683200,10.74068310546875,-0.02569948509335518,0.0282294861972332,-0.037816859781742096
1751214632915677200,10.75067724609375,-0.026764748618006706,-0.0005326318205334246,-0.03249054029583931
1751214632925671200,10.760671142578126,-0.035286858677864075,-0.033555805683135986,-0.0282294861972332
1751214632935665000,10.770664794921874,-0.048070020973682404,-0.08255793154239655,-0.025033695623278618
1751214632945659000,10.780658935546874,-0.06085318699479103,-0.1272990107536316,-0.021837905049324036
1751214632955652900,10.79065283203125,-0.06617950648069382,-0.14753901958465576,-0.0282294861972332
1751214632965646600,10.800646484375,-0.06298371404409409,-0.12942953407764435,-0.050600022077560425
1751214632975640600,10.810640625,-0.05659212917089462,-0.08149266988039017,-0.08149266988039017
1751214632985634600,10.820634521484376,-0.04487423226237297,-0.053795814514160156,-0.11025478690862656
1751214632995628300,10.830628173828124,-0.008655266836285591,-0.09534109383821487,-0.12836426496505737
1751214633005622300,10.840622314453125,-0.03635212033987045,-0.13901691138744354,-0.1177116334438324
1751214633015616300,10.8506162109375,-0.06085318699479103,-0.18908429145812988,-0.10599373281002045
1751214633025610200,10.8606103515625,-0.08428898453712463,-0.18908429145812988,-0.11664637178182602
1751214633035604000,10.87060400390625,-0.11518163233995438,-0.1603221744298935,-0.14966954290866852
1751214633045598000,10.880597900390624,-0.1609879732131958,-0.14753901958465576,-0.1826927214860916
1751214633055592000,10.890592041015625,-0.1993374526500702,-0.15712638199329376,-0.18908429145812988
1751214633065585700,10.900585693359375,-0.22916483879089355,-0.12197268754243851,-0.1826927214860916
1751214633075579600,10.91057958984375,-0.25792697072029114,-0.05273054912686348,-0.19973693788051605
1751214633085573600,10.92057373046875,-0.3016027808189392,0.0015978955198079348,-0.26045694947242737
1751214633095567400,10.9305673828125,-0.3527354300022125,-0.02396843209862709,-0.31158962845802307
1751214633105561300,10.940561279296874,-0.41771650314331055,-0.1507348120212555,-0.335025429725647
1751214633115555300,10.950555419921875,-0.48695865273475647,-0.32330751419067383,-0.3563306927680969
1751214633125549300,10.96054931640625,-0.5423523783683777,-0.46818336844444275,-0.3914843797683716
1751214633135543000,10.97054296875,-0.5700492262840271,-0.5906887054443359,-0.41598546504974365
1751214633145537000,10.980537109375,-0.5721797347068787,-0.7632613778114319,-0.4010717570781708
1751214633155531000,10.990531005859374,-0.5604618191719055,-0.9251814484596252,-0.3105243444442749
1751214633165524700,11.000524658203124,-0.5434176325798035,-0.9379646182060242,-0.11664637178182602
1751214633175518700,11.010518798828125,-0.5721797347068787,-0.5928192138671875,0.11132004857063293
1751214633185512700,11.0205126953125,-0.6744450330734253,0.2253032624721527,0.2530001103878021
1751214633195506400,11.03050634765625,-0.855539858341217,1.326785922050476,0.15393058955669403
1751214633205500400,11.04050048828125,-1.0558093786239624,2.1246683597564697,-0.18588849902153015
1751214633215494400,11.050494384765624,-1.1687273979187012,2.1161463260650635,-0.5459476113319397
1751214633225488100,11.060488037109375,-1.089897871017456,1.4801838397979736,-0.783501386642456
1751214633235482000,11.070482177734375,-0.8704535365104675,0.7856319546699524,-0.9741836190223694
1751214633245476000,11.08047607421875,-0.6201165914535522,0.33182963728904724,-1.0913625955581665
1751214633255470000,11.090469970703126,-0.4006722867488861,0.09001477807760239,-1.136103630065918
1751214633265463800,11.1004638671875,-0.23662169277668,0.037816859781742096,-1.1041457653045654
1751214633275457800,11.110457763671874,-0.13116058707237244,0.12942953407764435,-0.976314127445221
1751214633285451800,11.12045166015625,-0.06511423736810684,0.24128220975399017,-0.7685877084732056
1751214633295445500,11.130445556640625,-0.005459476262331009,0.3382211923599243,-0.5597960352897644
1751214633305439500,11.140439453125,-0.0011984215816482902,0.5118591785430908,-0.4245075583457947
1751214633315433500,11.15043359375,-0.10879004746675491,0.8154593110084534,-0.408528596162796
1751214633325427200,11.16042724609375,-0.33249542117118835,1.1339731216430664,-0.47777074575424194
1751214633335421200,11.170421142578125,-0.6733797788619995,1.3214595317840576,-0.5821665525436401
1751214633345415200,11.180415283203125,-1.0685925483703613,1.315068006515503,-0.6791055798530579
1751214633355409200,11.1904091796875,-1.4158685207366943,1.1339731216430664,-0.7302381992340088
1751214633365403000,11.20040283203125,-1.6843149662017822,0.8442214131355286,-0.7739140391349792
1751214633375396900,11.21039697265625,-1.8696708679199219,0.586427628993988,-0.8282424807548523
1751214633385390800,11.220390869140624,-1.8877803087234497,0.33609068393707275,-0.9166593551635742
1751214633395384600,11.230384521484375,-1.8281255960464478,0.005858949851244688,-1.0040110349655151
1751214633405378600,11.240378662109375,-1.735447645187378,-0.38828858733177185,-0.9997498989105225
1751214633415372500,11.25037255859375,-1.6203991174697876,-0.7227813601493835,-0.9230509400367737
1751214633425366300,11.2603662109375,-1.4904370307922363,-0.9560741186141968,-0.8314382433891296
1751214633435360300,11.2703603515625,-1.291232705116272,-1.1456910371780396,-0.7536740303039551
1751214633445354200,11.280354248046875,-1.0664620399475098,-1.2884364128112793,-0.5906887054443359
1751214633455348000,11.290347900390625,-0.8725841045379639,-1.373657464981079,-0.2817622423171997
1751214633465342000,11.300342041015625,-0.7309040427207947,-1.3896363973617554,0.1411474347114563
1751214633475336000,11.3103359375,-0.6371608376502991,-1.3225247859954834,0.5651223659515381
1751214633485330000,11.320329833984376,-0.5775060653686523,-1.106276273727417,0.8484824895858765
1751214633495323600,11.33032373046875,-0.5231776237487793,-0.7558045387268066,0.8815056681632996
1751214633505317600,11.340317626953125,-0.45500072836875916,-0.49268442392349243,0.6791055798530579
1751214633515311600,11.3503115234375,-0.3506048917770386,-0.4884233772754669,0.3573959469795227
1751214633525305300,11.360305419921875,-0.21957746148109436,-0.7259771823883057,0.08681898564100266
1751214633535299300,11.37029931640625,-0.09174583107233047,-0.9784446358680725,-0.037816859781742096
1751214633545293300,11.380293212890624,0.022237379103899002,-1.0615352392196655,-0.03249054029583931
1751214633555287000,11.390287109375,0.12876373529434204,-0.9741836190223694,0.03142527863383293
1751214633565281000,11.400281005859375,0.19907113909721375,-0.8016108870506287,0.11132004857063293
1751214633575275000,11.41027490234375,0.23209431767463684,-0.5928192138671875,0.1837579756975174
1751214633585269000,11.42026904296875,0.24487747251987457,-0.3861580789089203,0.23169484734535217
1751214633595262700,11.4302626953125,0.23635536432266235,-0.21784640848636627,0.24767379462718964
1751214633605256700,11.440256591796874,0.2150501012802124,-0.11132004857063293,0.23702116310596466
1751214633615250700,11.450250732421875,0.1873532384634018,-0.0516652874648571,0.2167811542749405
1751214633625244400,11.460244384765625,0.17989639937877655,0.0005326318205334246,0.19547587633132935
1751214633635238400,11.47023828125,0.196940615773201,0.062317922711372375,0.1688442826271057
1751214633645232400,11.480232421875,0.24061642587184906,0.12942953407764435,0.1368863731622696
1751214633655226000,11.49022607421875,0.31092381477355957,0.19867166876792908,0.10492847114801407
1751214633675214000,11.510214111328125,0.49095338582992554,0.3861580789089203,0.0751010850071907
1751214633685208000,11.5202080078125,0.5772397518157959,0.5331644415855408,0.10173267871141434
1751214633695201800,11.530201904296876,0.6656566262245178,0.6801708340644836,0.1464737504720688
1751214633705195800,11.54019580078125,0.7423555850982666,0.8367645740509033,0.20399798452854156
1751214633715189800,11.550189697265624,0.7966840267181396,1.0008151531219482,0.2583264410495758
1751214633725183500,11.56018359375,0.8307724595069885,1.1574089527130127,0.30732855200767517
1751214633735177500,11.570177490234375,0.8456861972808838,1.2852405309677124,0.36059173941612244
1751214633745171500,11.58017138671875,0.8382292985916138,1.3630048036575317,0.42024651169776917
1751214633755165200,11.590165283203126,0.8179892897605896,1.3630048036575317,0.47777074575424194
1751214633765159200,11.6001591796875,0.7839008569717407,1.2724573612213135,0.5150549411773682
1751214633775153200,11.610153076171875,0.7359640002250671,1.081775188446045,0.5118591785430908
1751214633785147000,11.62014697265625,0.6741787195205688,0.8154593110084534,0.46711811423301697
1751214633795140900,11.630140869140625,0.6070671081542969,0.5342296957969666,0.400006502866745
1751214633805134800,11.640134765625,0.5463470816612244,0.27963170409202576,0.32224225997924805
1751214633815128800,11.65012890625,0.49627968668937683,0.07936213910579681,0.23702116310596466
1751214633825122600,11.66012255859375,0.451538622379303,-0.04420844092965126,0.14860427379608154
1751214633835116500,11.670116455078125,0.4163849353790283,-0.11132004857063293,0.06764423847198486
1751214633845110500,11.680110595703125,0.3929491341114044,-0.1464737504720688,0.013315795920789242
1751214633855104300,11.690104248046875,0.37697017192840576,-0.14753901958465576,-0.009054740890860558
1751214633865098200,11.70009814453125,0.36312174797058105,-0.12410321086645126,0.0005326318205334246
1751214633875092200,11.71009228515625,0.35033857822418213,-0.09534109383821487,0.0282294861972332
1751214633885086000,11.7200859375,0.3364901542663574,-0.07723161578178406,0.061252661049366
1751214633895080000,11.730079833984375,0.32583752274513245,-0.09321057051420212,0.09747162461280823
1751214633905074000,11.740073974609375,0.3226417303085327,-0.15819165110588074,0.1368863731622696
1751214633915068000,11.75006787109375,0.33116382360458374,-0.26578328013420105,0.17310534417629242
1751214633925061600,11.7600615234375,0.34501224756240845,-0.39361491799354553,0.1976063996553421
1751214633935055600,11.7700556640625,0.3652522563934326,-0.5214465260505676,0.221042200922966
1751214633945049600,11.780049560546875,0.3833617568016052,-0.6205160617828369,0.24341274797916412
1751214633955043300,11.790043212890625,0.4078628122806549,-0.6823013424873352,0.26471802592277527
1751214633965037300,11.800037353515625,0.43449440598487854,-0.7089329361915588,0.27110961079597473
1751214633975031300,11.81003125,0.47071337699890137,-0.7163897752761841,0.25086960196495056
1751214633985025000,11.82002490234375,0.5122586488723755,-0.7163897752761841,0.20932430028915405
1751214633995019000,11.83001904296875,0.5474123358726501,-0.7281076908111572,0.1507348120212555
1751214634005013000,11.840012939453125,0.5761744976043701,-0.7462171912193298,0.08894951641559601
1751214634015006700,11.8500068359375,0.5868270993232727,-0.766457200050354,0.03568633273243904
1751214634025000700,11.860000732421875,0.5772397518157959,-0.766457200050354,-0.004793686326593161
1751214634034994700,11.86999462890625,0.5591302514076233,-0.7227813601493835,-0.04420844092965126
1751214634044988700,11.87998876953125,0.5293028950691223,-0.645017147064209,-0.0708400309085846
1751214634054982400,11.889982421875,0.497344970703125,-0.561926543712616,-0.08681898564100266
1751214634064976400,11.899976318359375,0.47177863121032715,-0.49268442392349243,-0.0942758321762085
1751214634074970400,11.909970458984375,0.4462123215198517,-0.43409493565559387,-0.09960214793682098
1751214634084964000,11.919964111328126,0.42384177446365356,-0.3904191255569458,-0.09321057051420212
1751214634094958000,11.9299580078125,0.4089280664920807,-0.3861580789089203,-0.07829687744379044
1751214634104952000,11.9399521484375,0.38655754923820496,-0.4032022953033447,-0.054861076176166534
1751214634114945800,11.94994580078125,0.3471427857875824,-0.38828858733177185,-0.011185267940163612
1751214634124939800,11.959939697265625,0.29707539081573486,-0.32330751419067383,0.06870950758457184
1751214634134933800,11.969933837890625,0.25126907229423523,-0.21891167759895325,0.21465063095092773
1751214634144927700,11.979927734375,0.2342248409986496,-0.1411474347114563,0.41705071926116943
1751214634154921500,11.98992138671875,0.2384859025478363,-0.13475584983825684,0.6386255621910095
1751214634164915500,11.99991552734375,0.24913853406906128,-0.2167811542749405,0.8495477437973022
1751214634174909400,12.009909423828125,0.2576606571674347,-0.39787596464157104,1.0540783405303955
1751214634184903200,12.019903076171875,0.262986958026886,-0.6013413071632385,1.21067214012146
1751214634194897200,12.029897216796876,0.2864227592945099,-0.7558045387268066,1.257543683052063
1751214634204891100,12.03989111328125,0.31731539964675903,-0.7494129538536072,1.1659311056137085
1751214634214884900,12.049884765625,0.3418164849281311,-0.5427518486976624,0.9198551774024963
1751214634224878800,12.05987890625,0.3556649088859558,-0.17097482085227966,0.569383442401886
1751214634234872800,12.069872802734375,0.36418700218200684,0.23169484734535217,0.1976063996553421
1751214634244866600,12.079866455078125,0.3663175404071808,0.5885581374168396,-0.08255793154239655
1751214634254860500,12.089860595703126,0.3002711832523346,0.9294425249099731,-0.25193485617637634
1751214634264854500,12.0998544921875,0.1777658760547638,1.0743184089660645,-0.400006502866745
1751214634274848500,12.1098486328125,0.05419528856873512,1.0104025602340698,-0.5704486966133118
1751214634284842200,12.11984228515625,-0.15246586501598358,0.812263548374176,-0.6002760529518127
1751214634294836200,12.129836181640625,-0.46991443634033203,0.5044023394584656,-0.37444016337394714
1751214634304830200,12.139830322265626,-0.7309040427207947,0.25619590282440186,0.01438105944544077
1751214634314824000,12.149823974609374,-0.7767103314399719,0.18588849902153015,0.31691592931747437
1751214634324818000,12.15981787109375,-0.6510092616081238,0.20080219209194183,0.4010717570781708
1751214634334812000,12.16981201171875,-0.48269757628440857,0.16777902841567993,0.34993910789489746
1751214634344805600,12.1798056640625,-0.3399522602558136,0.025033695623278618,0.24660852551460266
1751214634354799600,12.189799560546875,-0.2270343154668808,-0.16671375930309296,0.1368863731622696
1751214634364793600,12.199793701171876,-0.13435637950897217,-0.3392864763736725,0.0985368862748146
1751214634404769300,12.239769287109375,0.16604797542095184,-0.5161202549934387,0.787762463092804
1751214634414763000,12.249762939453126,0.24487747251987457,-0.2924148738384247,0.9667267799377441
1751214634424757000,12.259757080078124,0.2533995807170868,-0.04420844092965126,1.0977542400360107
1751214634434751000,12.2697509765625,0.15965639054775238,0.19228008389472961,1.1584742069244385
1751214634444744700,12.27974462890625,-0.012916321866214275,0.43089914321899414,1.1094720363616943
1751214634454738700,12.28973876953125,-0.18122798204421997,0.6130592226982117,0.8740488290786743
1751214634464732700,12.299732666015625,-0.29947224259376526,0.5928192138671875,0.4468781054019928
1751214634474726700,12.3097265625,-0.30479857325553894,0.3584612011909485,-0.08575372397899628
1751214634484720400,12.319720458984374,-0.19081534445285797,0.1784316599369049,-0.6109287142753601
1751214634494714400,12.32971435546875,-0.022503694519400597,0.11451584100723267,-1.0040110349655151
1751214634504708400,12.339708251953125,0.14687322080135345,0.10066741704940796,-1.1989542245864868
1751214634514702000,12.3497021484375,0.2757701277732849,0.2018674612045288,-1.1914973258972168
1751214634524696000,12.359696044921876,0.34394699335098267,0.4095938801765442,-1.0135983228683472
1751214634534690000,12.36968994140625,0.3982754349708557,0.5757750272750854,-0.7323687672615051
1751214634544683800,12.379683837890624,0.4696480929851532,0.6301034688949585,-0.43409493565559387
1751214634554677800,12.389677734375,0.5442165732383728,0.5960150361061096,-0.1603221744298935
1751214634564671700,12.399671630859375,0.5846965909004211,0.5054675936698914,0.06977476924657822
1751214634574665500,12.40966552734375,0.5825660824775696,0.39254966378211975,0.25086960196495056
1751214634584659500,12.419659423828126,0.5527386665344238,0.2444780021905899,0.3946801722049713
1751214634594653400,12.4296533203125,0.5165197253227234,0.033555805683135986,0.47777074575424194
1751214634604647400,12.4396474609375,0.49947547912597656,-0.20612850785255432,0.4980107545852661
1751214634614641200,12.44964111328125,0.47603967785835266,-0.4010717570781708,0.47670549154281616
1751214634624635100,12.45963525390625,0.4419512450695038,-0.46711811423301697,0.44900861382484436
1751214634634629000,12.469629150390626,0.42064598202705383,-0.39787596464157104,0.45326969027519226
1751214634644622800,12.479622802734376,0.41958072781562805,-0.19547587633132935,0.5065328478813171
1751214634664610800,12.49961083984375,0.39614492654800415,0.42024651169776917,0.6663224101066589
1751214634674604500,12.5096044921875,0.31198909878730774,0.690823495388031,0.6844319105148315
1751214634684598500,12.5195986328125,0.19267955422401428,0.8847014307975769,0.6439518928527832
1751214634694592500,12.529592529296876,0.04460791498422623,0.9912278056144714,0.5416865348815918
1751214634704586500,12.53958642578125,-0.09707214683294296,0.9922930598258972,0.3776359558105469
1751214634714580200,12.549580322265625,-0.19720692932605743,0.8996151685714722,0.17310534417629242
1751214634724574200,12.55957421875,-0.2643185555934906,0.7526087760925293,-0.053795814514160156
1751214634734568200,12.569568115234375,-0.31012487411499023,0.5832318663597107,-0.2625874876976013
1751214634744562000,12.57956201171875,-0.3442133069038391,0.41065913438796997,-0.4191812574863434
1751214634754556000,12.589555908203126,-0.36551859974861145,0.27537065744400024,-0.523577094078064
1751214634764550000,12.5995498046875,-0.3814975321292877,0.18482324481010437,-0.5683181285858154
1751214634774543600,12.609543701171875,-0.3953459560871124,0.10918952524662018,-0.5523391962051392
1751214634784537600,12.61953759765625,-0.40706387162208557,0.020772641524672508,-0.5033370852470398
1751214634794531600,12.629531494140625,-0.41878175735473633,-0.10066741704940796,-0.4372907280921936
1751214634804525300,12.639525390625,-0.4283691346645355,-0.23169484734535217,-0.3488738536834717
1751214634814519300,12.649519287109374,-0.4443480968475342,-0.3286338448524475,-0.28389275074005127
1751214634824513300,12.65951318359375,-0.46565335988998413,-0.35526543855667114,-0.2828274965286255
1751214634834507300,12.66950732421875,-0.48802390694618225,-0.34674331545829773,-0.354200154542923
