time,seconds_elapsed,z,y,x
1748138432576562200,0.394562255859375,0.4141378402709961,0.011567309498786926,0.05375546216964722
1748138432586602500,0.4046025390625,0.19181156158447266,-0.02149900794029236,-0.03576076030731201
1748138432596642800,0.414642822265625,-0.04950523376464844,-0.05595862865447998,-0.15306663513183594
1748138432606683100,0.42468310546875,-0.23620891571044922,-0.051260754466056824,-0.1936342716217041
1748138432616723500,0.434723388671875,-0.3337583541870117,0.015711724758148193,-0.14890754222869873
1748138432626794200,0.444794189453125,-0.30142974853515625,0.1094980388879776,-0.022167682647705078
1748138432636834600,0.45483447265625,-0.13731861114501953,0.16678249835968018,0.09821730852127075
1748138432646875000,0.464875,0.03530693054199219,0.15278932452201843,0.1494712233543396
1748138432656915200,0.474915283203125,0.09718608856201172,0.09692919254302979,0.13581478595733643
1748138432666986000,0.484986083984375,0.01775646209716797,0.01873326301574707,0.06235957145690918
1748138432677026000,0.495026123046875,-0.10561847686767578,-0.02431720495223999,-0.05657494068145752
1748138432687066400,0.50506640625,-0.22821617126464844,0.000295788049697876,-0.09753793478012085
1748138432697137200,0.51513720703125,-0.2979888916015625,0.05393630266189575,-0.07188624143600464
1748138432707177500,0.525177490234375,-0.31287574768066406,0.12105771899223328,-0.0034828782081604004
1748138432717248300,0.535248291015625,-0.2841978073120117,0.14249098300933838,0.0727534294128418
1748138432727288600,0.54528857421875,-0.25258922576904297,0.13616502285003662,0.08847928047180176
1748138432737359400,0.555359375,-0.2226390838623047,0.0884365439414978,0.09396535158157349
1748138432747430100,0.56543017578125,-0.15496826171875,0.013382524251937866,0.037936270236968994
1748138432757470500,0.575470458984375,-0.04372215270996094,-0.07086285948753357,-0.05673879384994507
1748138432767541200,0.585541259765625,0.08455181121826172,-0.14887592196464539,-0.167857825756073
1748138432777612000,0.595612060546875,0.22503185272216797,-0.1866333782672882,-0.19924676418304443
1748138432787652400,0.60565234375,0.33370494842529297,-0.20789778232574463,-0.10996776819229126
1748138432797723100,0.61572314453125,0.41415882110595703,-0.17593428492546082,-0.029686152935028076
1748138432807794000,0.6257939453125,0.37921619415283203,-0.13272452354431152,0.003799736499786377
1748138432817864700,0.63586474609375,0.178497314453125,-0.11620444059371948,-0.009373724460601807
1748138432827905000,0.645905029296875,-0.042163848876953125,-0.08817359805107117,-0.06288695335388184
1748138432837975800,0.655975830078125,-0.17335796356201172,-0.03674653172492981,-0.10291975736618042
1748138432848046600,0.666046630859375,-0.18976783752441406,0.017181336879730225,-0.06978768110275269
1748138432858117400,0.676117431640625,-0.09883785247802734,0.06099870800971985,-0.0007432103157043457
1748138432868188200,0.686188232421875,-0.0009489059448242188,0.04711231589317322,0.03870147466659546
1748138432878259200,0.69625927734375,0.022296905517578125,-0.022585153579711914,0.011860132217407227
1748138432888330000,0.706330078125,0.005436897277832031,-0.07982209324836731,-0.035465896129608154
1748138432898400800,0.71640087890625,-0.02266407012939453,-0.08856946229934692,-0.08556044101715088
1748138432908471600,0.726471435546875,-0.03372955322265625,-0.029660046100616455,-0.03838181495666504
1748138432918511900,0.736511962890625,-0.039867401123046875,0.058686673641204834,0.049976229667663574
1748138432928582700,0.746582763671875,-0.0038280487060546875,0.14115062355995178,0.09606069326400757
1748138432938653400,0.7566533203125,0.01965618133544922,0.15952816605567932,0.0844298005104065
1748138432948724200,0.76672412109375,0.012200355529785156,0.11011272668838501,0.04988718032836914
1748138432958795000,0.776794921875,-0.016259193420410156,0.04779696464538574,-0.0030968189239501953
1748138432968865800,0.78686572265625,-0.034832000732421875,0.012307733297348022,-0.048803746700286865
1748138432978936600,0.7969365234375,-0.013238906860351562,0.02647179365158081,-0.02421855926513672
1748138432989007400,0.80700732421875,0.031386375427246094,0.08527925610542297,0.12414157390594482
1748138432999078100,0.817078125,0.08935260772705078,0.14620766043663025,0.19562464952468872
1748138433009149000,0.82714892578125,0.10410022735595703,0.17166748642921448,0.16891396045684814
1748138433019219700,0.8372197265625,0.09283161163330078,0.103125661611557,0.08258146047592163
1748138433029290500,0.84729052734375,0.08172416687011719,-0.013398319482803345,-0.057159602642059326
1748138433039392000,0.85739208984375,0.11535167694091797,-0.10749918222427368,-0.17061948776245117
1748138433049462800,0.867462890625,0.22365474700927734,-0.10274732112884521,-0.1307988166809082
1748138433059533600,0.877533447265625,0.3585081100463867,-0.08098846673965454,-0.02777785062789917
1748138433069604400,0.887604248046875,0.4021148681640625,-0.04017534852027893,0.025004267692565918
1748138433079675100,0.897675048828125,0.3018026351928711,-0.013335973024368286,0.02439284324645996
1748138433089746000,0.907745849609375,0.109222412109375,-0.0234869122505188,-0.028363168239593506
1748138433099816700,0.917816650390625,-0.0802154541015625,-0.024174213409423828,-0.09271496534347534
1748138433109887500,0.927887451171875,-0.22200775146484375,-0.026342391967773438,-0.12790316343307495
1748138433119958300,0.937958251953125,-0.20879840850830078,0.013216763734817505,-0.10471636056900024
1748138433130029000,0.948029052734375,-0.10898494720458984,0.04483795166015625,-0.030254662036895752
1748138433140099800,0.958099853515625,0.012559890747070312,0.03784671425819397,0.014030098915100098
1748138433150170600,0.968170654296875,0.1015176773071289,0.03647547960281372,0.001867055892944336
1748138433160241400,0.978241455078125,0.13498783111572266,0.04185706377029419,0.05947709083557129
1748138433170343000,0.988343017578125,0.13039207458496094,0.0981932282447815,0.14590054750442505
1748138433180413700,0.99841357421875,0.09069252014160156,0.13897433876991272,0.1498091220855713
1748138433190484500,1.008484375,0.02112102508544922,0.11521819233894348,0.06239497661590576
1748138433200555300,1.01855517578125,-0.05207538604736328,0.058930039405822754,0.003890812397003174
1748138433210626000,1.0286259765625,-0.0606689453125,0.013493984937667847,-0.04827636480331421
1748138433220696800,1.03869677734375,-0.010435104370117188,-0.0395529568195343,-0.03280746936798096
1748138433230767600,1.048767578125,0.06483173370361328,-0.06277316808700562,-0.015298724174499512
1748138433240838400,1.05883837890625,0.12485122680664062,-0.022023707628250122,0.06685727834701538
1748138433250939600,1.068939697265625,0.16986656188964844,0.02716064453125,0.11362820863723755
1748138433261010400,1.079010498046875,0.1859579086303711,0.06784400343894958,0.08727037906646729
1748138433271081200,1.089081298828125,0.1383228302001953,0.04727211594581604,0.05471503734588623
1748138433281152300,1.09915234375,0.08206653594970703,0.018219321966171265,0.015067100524902344
1748138433291223000,1.10922314453125,0.038498878479003906,-0.011316001415252686,-0.012843787670135498
1748138433301293800,1.1192939453125,-0.011415481567382812,-0.02602401375770569,-0.02616983652114868
1748138433311364600,1.129364501953125,-0.027547836303710938,-0.02521994709968567,0.005749404430389404
1748138433321465900,1.1394658203125,-0.02690887451171875,0.0008780062198638916,0.02635103464126587
1748138433331536600,1.14953662109375,-0.049765586853027344,0.00939023494720459,0.014951646327972412
1748138433341607400,1.159607421875,-0.06048393249511719,0.002320706844329834,0.008746922016143799
1748138433351678200,1.16967822265625,-0.056921958923339844,-0.0015610456466674805,-0.006852388381958008
1748138433361749000,1.1797490234375,-0.06051445007324219,-0.016849935054779053,-0.029463887214660645
1748138433371819800,1.18981982421875,-0.049938201904296875,-0.0316464900970459,-0.04249316453933716
1748138433381890600,1.199890625,-0.0043315887451171875,-0.013025671243667603,-0.01629316806793213
1748138433391992000,1.209991943359375,0.05220985412597656,-0.0179121196269989,0.0016219615936279297
1748138433402062800,1.220062744140625,0.10542774200439453,-0.039476096630096436,-0.02823925018310547
1748138433412133600,1.230133544921875,0.13183021545410156,-0.0805322527885437,-0.09361660480499268
1748138433422204400,1.240204345703125,0.15068435668945312,-0.1320333480834961,-0.14717859029769897
1748138433432275200,1.250275146484375,0.22338390350341797,-0.15390193462371826,-0.13446474075317383
1748138433442346000,1.260345947265625,0.3067760467529297,-0.13015049695968628,-0.08815377950668335
1748138433452416800,1.270416748046875,0.33022403717041016,-0.11095315217971802,-0.040139079093933105
1748138433462518000,1.28051806640625,0.24997329711914062,-0.07453152537345886,-0.02337956428527832
1748138433472588800,1.2905888671875,0.13117408752441406,-0.0371241569519043,-0.029385685920715332
1748138433482659600,1.30065966796875,0.023691177368164062,0.002292245626449585,-0.0006839632987976074
1748138433492730600,1.310730712890625,-0.020978927612304688,0.016310274600982666,0.03290945291519165
1748138433502801400,1.320801513671875,-0.00150299072265625,0.010447025299072266,0.04602253437042236
1748138433512872200,1.3308720703125,0.0717000961303711,-0.005562484264373779,0.027800023555755615
1748138433522973400,1.340973388671875,0.2142934799194336,-0.03206747770309448,0.012457787990570068
1748138433533044200,1.351044189453125,0.28878116607666016,-0.08644205331802368,0.02750706672668457
1748138433543115000,1.361114990234375,0.2635364532470703,-0.1265282928943634,0.06714373826980591
1748138433553185800,1.371185791015625,0.1471853256225586,-0.10729473829269409,0.09244656562805176
1748138433563256600,1.381256591796875,0.03980541229248047,-0.06523451209068298,0.055658817291259766
1748138433573327400,1.391327392578125,-0.016556739807128906,-0.034004271030426025,0.05002027750015259
1748138433583428900,1.401428955078125,-0.0039520263671875,-0.0348394513130188,0.05332297086715698
1748138433593499600,1.411499755859375,0.04357624053955078,-0.07707512378692627,0.021377265453338623
1748138433603570400,1.4215703125,0.0667715072631836,-0.1350967288017273,-0.050914466381073
1748138433613641200,1.43164111328125,0.04737091064453125,-0.2048998773097992,-0.10033214092254639
1748138433623712000,1.4417119140625,-0.035007476806640625,-0.24909821152687073,-0.08686298131942749
1748138433633782800,1.45178271484375,-0.14167404174804688,-0.263018935918808,-0.030319035053253174
1748138433643884000,1.461884033203125,-0.2087564468383789,-0.22252517938613892,-0.014715135097503662
1748138433653954800,1.471954833984375,-0.1899728775024414,-0.1865861415863037,-0.0356559157371521
1748138433664025600,1.482025634765625,-0.1573944091796875,-0.20732879638671875,-0.08135676383972168
1748138433674096400,1.492096435546875,-0.1253957748413086,-0.27310118079185486,-0.1050233244895935
1748138433684167200,1.502167236328125,-0.13390159606933594,-0.32000842690467834,-0.10193604230880737
1748138433694238200,1.51223828125,-0.1444997787475586,-0.36221033334732056,-0.12122273445129395
1748138433704339500,1.52233935546875,-0.1548013687133789,-0.3944677710533142,-0.14389532804489136
1748138433714410200,1.53241015625,-0.1814136505126953,-0.38059133291244507,-0.12104696035385132
1748138433724481000,1.54248095703125,-0.17936420440673828,-0.3225114345550537,-0.09805583953857422
1748138433734551800,1.5525517578125,-0.2927436828613281,-0.24507272243499756,-0.015026986598968506
1748138433744622600,1.56262255859375,-0.3347282409667969,-0.20228219032287598,0.025501132011413574
1748138433754693400,1.572693359375,-0.1513357162475586,-0.16866332292556763,-0.03518199920654297
1748138433764794600,1.582794677734375,-0.012301445007324219,-0.21298861503601074,-0.12961536645889282
1748138433774865400,1.592865478515625,0.030608177185058594,-0.32907021045684814,-0.24275439977645874
1748138433784936400,1.6029365234375,-0.02425670623779297,-0.47487688064575195,-0.3876396417617798
1748138433795007200,1.61300732421875,-0.15008258819580078,-0.5949922204017639,-0.5020826458930969
1748138433805078000,1.623078125,-0.2941293716430664,-0.6064789891242981,-0.6132083535194397
1748138433815148800,1.633148681640625,-0.4468650817871094,-0.529511034488678,-0.6988600492477417
1748138433825250000,1.64325,-0.5086908340454102,-0.474704384803772,-0.7559378743171692
1748138433835320800,1.65332080078125,-0.4018402099609375,-0.4350585341453552,-0.7913259863853455
1748138433845391600,1.6633916015625,-0.2792520523071289,-0.43004125356674194,-0.7707284092903137
1748138433855462400,1.67346240234375,-0.13149356842041016,-0.39617860317230225,-0.779204785823822
1748138433865533200,1.683533203125,-0.006140708923339844,-0.3296719193458557,-0.7909216284751892
1748138433875604000,1.69360400390625,0.05195903778076172,-0.2565963864326477,-0.8100496530532837
1748138433885705500,1.70370556640625,-0.0065460205078125,-0.16348320245742798,-0.7380871772766113
1748138433895776300,1.7137763671875,-0.07623767852783203,-0.06372511386871338,-0.6131789684295654
1748138433905847000,1.723846923828125,-0.18565940856933594,0.020701289176940918,-0.513821542263031
1748138433915917800,1.733917724609375,-0.20400142669677734,0.08364349603652954,-0.49179762601852417
1748138433925988600,1.743988525390625,-0.3263845443725586,0.033621251583099365,-0.44364237785339355
1748138433936089900,1.75408984375,-0.5711574554443359,-0.05949932336807251,-0.41093015670776367
1748138433946160600,1.76416064453125,-0.6859226226806641,-0.15484130382537842,-0.4707522988319397
1748138433956231400,1.7742314453125,-0.7049884796142578,-0.22307878732681274,-0.5492904782295227
1748138433966302200,1.78430224609375,-0.807093620300293,-0.25021302700042725,-0.6602771878242493
1748138433976373000,1.794373046875,-1.0606679916381836,-0.29530125856399536,-0.7793323993682861
1748138433986443800,1.80444384765625,-1.396082878112793,-0.34719717502593994,-0.8969299793243408
1748138433996545300,1.814545166015625,-1.6683425903320312,-0.3730217218399048,-0.9892145395278931
1748138434006616000,1.824615966796875,-1.7497892379760742,-0.4125158190727234,-1.0309793949127197
1748138434016686800,1.834686767578125,-1.6319313049316406,-0.45534926652908325,-1.0681620836257935
1748138434026757600,1.844757568359375,-1.506058692932129,-0.5221204161643982,-1.1194124221801758
1748138434036828400,1.854828369140625,-1.3672428131103516,-0.6479518413543701,-1.1455557346343994
1748138434046899200,1.864899169921875,-1.2152681350708008,-0.8490148782730103,-1.1687734127044678
1748138434057000400,1.87500048828125,-1.0880451202392578,-1.110124111175537,-1.2241960763931274
1748138434067071200,1.8850712890625,-0.864039421081543,-1.374307632446289,-1.3543920516967773
1748138434077142000,1.89514208984375,-0.517390251159668,-1.585662841796875,-1.5252695083618164
1748138434087213000,1.905213134765625,-0.10319900512695312,-1.7207794189453125,-1.6740550994873047
1748138434097283800,1.915283935546875,0.3831148147583008,-1.7960762977600098,-1.7266578674316406
1748138434107354600,1.925354736328125,0.8819179534912109,-1.8309522867202759,-1.6427007913589478
1748138434117456000,1.935455810546875,1.238637924194336,-1.7962825298309326,-1.4171340465545654
1748138434127526700,1.945526611328125,1.3920249938964844,-1.7004919052124023,-1.0359523296356201
1748138434137597400,1.955597412109375,1.7757081985473633,-1.5941568613052368,-0.5928207039833069
1748138434147668200,1.965668212890625,2.1095008850097656,-1.4223555326461792,-0.3967123031616211
1748138434157739000,1.975739013671875,2.1150341033935547,-1.2182351350784302,-0.37594884634017944
1748138434167809800,1.985809814453125,2.0599937438964844,-1.039059042930603,-0.4300704002380371
1748138434177911300,1.995911376953125,1.949432373046875,-0.8863610625267029,-0.4364278316497803
1748138434187982000,2.005982177734375,1.7007532119750977,-0.8114951848983765,-0.3874891400337219
1748138434198052900,2.016052978515625,1.4625425338745117,-0.8128037452697754,-0.38185685873031616
1748138434208123600,2.02612353515625,1.3753023147583008,-0.842942476272583,-0.39864128828048706
1748138434218194400,2.0361943359375,1.4953069686889648,-0.8286596536636353,-0.31458526849746704
1748138434238366500,2.056366455078125,1.998997688293457,-0.5864815711975098,0.01949632167816162
1748138434248437200,2.066437255859375,2.2751293182373047,-0.5221146941184998,0.09909963607788086
1748138434258508000,2.076508056640625,2.5571584701538086,-0.5805506706237793,0.07703280448913574
1748138434268578800,2.086578857421875,2.7523069381713867,-0.7696857452392578,0.0324549674987793
1748138434278649600,2.096649658203125,2.8350114822387695,-0.9807170033454895,-0.1038406491279602
1748138434288751000,2.106751220703125,2.8464155197143555,-1.1768416166305542,-0.28021949529647827
1748138434298822000,2.11682177734375,2.720381736755371,-1.3422179222106934,-0.4279344081878662
1748138434308892700,2.126892578125,2.4123497009277344,-1.465654730796814,-0.5413119196891785
1748138434318963500,2.13696337890625,2.080404281616211,-1.5280992984771729,-0.5850955247879028
1748138434329034200,2.1470341796875,1.6960430145263672,-1.536438226699829,-0.5922449231147766
1748138434339105000,2.15710498046875,1.3213996887207031,-1.5399669408798218,-0.6131479144096375
1748138434349206300,2.167206298828125,1.0014638900756836,-1.5283828973770142,-0.6247377395629883
1748138434359277000,2.177277099609375,0.8359088897705078,-1.545560598373413,-0.6306742429733276
1748138434369347800,2.187347900390625,0.8002233505249023,-1.5715304613113403,-0.6034996509552002
1748138434379418600,2.197418701171875,0.7057743072509766,-1.6292680501937866,-0.5949894189834595
1748138434389489700,2.20748974609375,0.6385612487792969,-1.7450215816497803,-0.5922003984451294
1748138434399560400,2.217560546875,0.6579780578613281,-1.8643081188201904,-0.5788335800170898
1748138434409661700,2.22766162109375,0.7662448883056641,-1.996922254562378,-0.6091067790985107
1748138434419732500,2.237732421875,0.8630027770996094,-2.108729600906372,-0.6399899125099182
1748138434429803300,2.24780322265625,0.8866777420043945,-2.2052037715911865,-0.6146277785301208
1748138434439874000,2.2578740234375,0.6475620269775391,-2.3138036727905273,-0.5450371503829956
1748138434449944800,2.26794482421875,0.1638469696044922,-2.3786745071411133,-0.4566376805305481
1748138434460046000,2.278046142578125,-0.35621070861816406,-2.347332000732422,-0.3730839490890503
1748138434470116900,2.288116943359375,-0.7774038314819336,-2.237596035003662,-0.3373992443084717
1748138434480188000,2.29818798828125,-1.022181510925293,-2.0726613998413086,-0.2248220443725586
1748138434490258700,2.3082587890625,-1.0848474502563477,-1.8615831136703491,-0.021557271480560303
1748138434500329500,2.31832958984375,-1.1166057586669922,-1.720613718032837,0.17639946937561035
1748138434510400300,2.328400146484375,-1.1321897506713867,-1.6545923948287964,0.40312355756759644
1748138434520501500,2.33850146484375,-1.1748294830322266,-1.6650856733322144,0.551758348941803
1748138434530572300,2.348572265625,-1.2159862518310547,-1.6581428050994873,0.5127373933792114
1748138434540643000,2.35864306640625,-1.1841411590576172,-1.6686975955963135,0.38517969846725464
1748138434550713900,2.3687138671875,-1.1508550643920898,-1.6998519897460938,0.26996737718582153
1748138434560784600,2.37878466796875,-1.1015205383300781,-1.7797073125839233,0.2054440975189209
1748138434570855400,2.38885546875,-1.073866844177246,-1.836260437965393,0.1689484715461731
1748138434580957000,2.39895703125,-1.0219049453735352,-1.7900264263153076,0.20187216997146606
1748138434591027700,2.40902783203125,-0.9501762390136719,-1.657672643661499,0.2893930673599243
1748138434601098500,2.419098388671875,-0.9323034286499023,-1.4891358613967896,0.39683783054351807
1748138434611169300,2.429169189453125,-0.9324474334716797,-1.304955005645752,0.4765104055404663
1748138434621240000,2.439239990234375,-0.9580850601196289,-1.1115094423294067,0.5708087682723999
1748138434631310800,2.449310791015625,-1.0810375213623047,-0.9598690271377563,0.7135314345359802
1748138434641412000,2.459412109375,-1.1535062789916992,-0.8177943229675293,0.8215525150299072
1748138434651483000,2.46948291015625,-1.083256721496582,-0.6719462871551514,0.9128706455230713
1748138434661553700,2.4795537109375,-0.9186677932739258,-0.5243492126464844,1.035866379737854
1748138434671624400,2.48962451171875,-0.6718406677246094,-0.44296765327453613,1.2640479803085327
1748138434681695200,2.4996953125,-0.49753761291503906,-0.4164998531341553,1.5680468082427979
1748138434691766300,2.509766357421875,-0.43526268005371094,-0.4200572967529297,1.8101381063461304
1748138434701867500,2.519867431640625,-0.4482879638671875,-0.4342186450958252,1.901296615600586
1748138434711938300,2.529938232421875,-0.4766359329223633,-0.5047314167022705,1.866932988166809
1748138434732079900,2.550079833984375,-0.329925537109375,-0.658104658126831,1.5595124959945679
1748138434742150700,2.560150634765625,-0.0840768814086914,-0.6923713684082031,1.2865320444107056
1748138434752252000,2.570251953125,0.13436317443847656,-0.7351508140563965,1.0363045930862427
1748138434762322700,2.58032275390625,0.19049930572509766,-0.754951000213623,0.9156417846679688
1748138434772393500,2.5903935546875,0.00653839111328125,-0.7710723876953125,1.0026001930236816
1748138434782464500,2.600464599609375,-0.2875385284423828,-0.7179837226867676,1.3136518001556396
1748138434802606000,2.620606201171875,-0.45141029357910156,-0.3121647834777832,2.3667309284210205
1748138434812707300,2.630707275390625,0.2834434509277344,-0.20639073848724365,2.701413154602051
1748138434822778000,2.640778076171875,1.3332061767578125,-0.3898216485977173,2.8995766639709473
1748138434832849000,2.650848876953125,2.1242847442626953,-0.8766963481903076,2.9021151065826416
1748138434842919700,2.660919677734375,2.5074520111083984,-1.571043848991394,2.622669219970703
1748138434852990500,2.670990478515625,2.818479537963867,-2.2730748653411865,2.107856512069702
1748138434863061200,2.681061279296875,3.1162939071655273,-2.764293670654297,1.7335073947906494
1748138434873162800,2.691162841796875,3.2547855377197266,-3.0063910484313965,1.6917059421539307
1748138434883233500,2.701233642578125,3.1560564041137695,-2.9761009216308594,1.9396753311157227
1748138434893304300,2.71130419921875,2.891233444213867,-2.6805810928344727,2.413323163986206
1748138434903375000,2.721375,2.6018800735473633,-2.143423557281494,3.0570554733276367
1748138434923516700,2.7415166015625,2.4458494186401367,-0.7285072803497314,4.524569511413574
1748138434933618000,2.751617919921875,2.4168100357055664,-0.11825227737426758,5.129417419433594
1748138434943688700,2.761688720703125,2.249420166015625,0.3200448751449585,5.608538627624512
1748138434953759500,2.771759521484375,1.888275146484375,0.5900440812110901,5.949049472808838
1748138434963830300,2.781830322265625,1.3565635681152344,0.7466977834701538,5.912968635559082
1748138434973901000,2.791901123046875,0.7531051635742188,0.9096511602401733,6.019641876220703
1748138434984002600,2.80200244140625,0.10007286071777344,1.0628575086593628,5.763908863067627
1748138434994073300,2.8120732421875,-0.5715456008911133,1.2046475410461426,5.507296562194824
1748138435004144000,2.82214404296875,-1.155181884765625,1.3212281465530396,5.243851661682129
1748138435014215000,2.83221484375,-1.5896215438842773,1.4710718393325806,5.038952827453613
1748138435024285700,2.84228564453125,-1.8730707168579102,1.6601173877716064,4.850574493408203
1748138435034356500,2.8523564453125,-2.0304088592529297,1.805778980255127,4.653156280517578
1748138435044457700,2.862457763671875,-2.096708297729492,1.904215693473816,4.538387298583984
1748138435054528500,2.872528564453125,-2.026315689086914,1.9012271165847778,4.493466854095459
1748138435064599300,2.882599365234375,-1.7017955780029297,1.7371435165405273,4.446874141693115
1748138435074670300,2.89267041015625,-1.0997419357299805,1.4657697677612305,4.304250717163086
1748138435084741000,2.9027412109375,-0.29079627990722656,1.0773224830627441,4.04263973236084
1748138435094812000,2.91281201171875,0.5810012817382812,0.643415093421936,3.6815571784973145
1748138435104913200,2.9229130859375,1.4171819686889648,0.28332340717315674,3.4140124320983887
1748138435114984000,2.93298388671875,2.1264867782592773,0.00024497509002685547,3.2585055828094482
1748138435125054700,2.9430546875,2.715010643005371,-0.20325350761413574,3.172760009765625
1748138435135125500,2.95312548828125,3.18826961517334,-0.3190007209777832,3.110637903213501
1748138435145196300,2.9631962890625,3.4971513748168945,-0.4119911193847656,3.0685527324676514
1748138435155267000,2.97326708984375,3.556955337524414,-0.45557737350463867,3.091240167617798
1748138435165368600,2.98336865234375,3.3589658737182617,-0.5117131471633911,3.1069626808166504
1748138435185510100,3.00351025390625,2.3170299530029297,-0.6233893632888794,2.9645631313323975
1748138435195581000,3.013580810546875,1.711094856262207,-0.643950343132019,2.897904872894287
1748138435205651700,3.023651611328125,1.1778173446655273,-0.6335258483886719,2.8968193531036377
1748138435215753000,3.0337529296875,0.7617979049682617,-0.5926438570022583,2.946052312850952
1748138435225823700,3.04382373046875,0.43379688262939453,-0.5576108694076538,3.0078532695770264
1748138435235894500,3.05389453125,0.150390625,-0.5104186534881592,3.0417895317077637
1748138435245965300,3.06396533203125,-0.017312049865722656,-0.48323535919189453,3.0883216857910156
1748138435256036000,3.0740361328125,-0.0746603012084961,-0.4844242334365845,3.1260769367218018
1748138435266107000,3.08410693359375,-0.08855915069580078,-0.5496448278427124,3.1229238510131836
1748138435276208400,3.09420849609375,-0.17089271545410156,-0.6550157070159912,3.0445451736450195
1748138435286279200,3.104279052734375,-0.2932872772216797,-0.7576287984848022,2.9320383071899414
1748138435296350000,3.114349853515625,-0.4134101867675781,-0.8390147686004639,2.777454376220703
1748138435306420700,3.124420654296875,-0.4771575927734375,-0.9116270542144775,2.6496472358703613
1748138435316491500,3.134491455078125,-0.48046398162841797,-0.999923586845398,2.5895121097564697
1748138435326562300,3.144562255859375,-0.3929405212402344,-1.0471123456954956,2.5475821495056152
1748138435336663600,3.15466357421875,-0.17663192749023438,-1.0754144191741943,2.5263891220092773
1748138435346734300,3.164734375,0.14715576171875,-1.0851753950119019,2.547072649002075
1748138435356805000,3.17480517578125,0.45507144927978516,-1.1122798919677734,2.54407000541687
1748138435366876000,3.1848759765625,0.666987419128418,-1.173529028892517,2.5516676902770996
1748138435376947000,3.194947021484375,0.7691364288330078,-1.278488278388977,2.3151283264160156
1748138435387017700,3.205017822265625,0.7975893020629883,-1.437543511390686,2.094266891479492
1748138435397119000,3.215118896484375,0.7863283157348633,-1.5853817462921143,1.8625741004943848
1748138435407189800,3.225189697265625,0.7190990447998047,-1.6464811563491821,1.6491119861602783
1748138435417260500,3.235260498046875,0.5366287231445312,-1.6329740285873413,1.3971312046051025
1748138435427331300,3.245331298828125,0.2723684310913086,-1.5780918598175049,1.184408187866211
1748138435437402000,3.255402099609375,0.016714096069335938,-1.4669513702392578,1.0165483951568604
1748138435447503400,3.26550341796875,-0.1993389129638672,-1.2660768032073975,0.8815593719482422
1748138435457574100,3.27557421875,-0.3543720245361328,-1.0124399662017822,0.6947319507598877
1748138435467645200,3.285645263671875,-0.5722484588623047,-0.7338771820068359,0.4726102352142334
1748138435477716000,3.295716064453125,-0.9131956100463867,-0.4477508068084717,0.24033641815185547
1748138435487786800,3.305786865234375,-1.3074674606323242,-0.15850567817687988,0.21492314338684082
1748138435497857500,3.315857421875,-1.6796236038208008,0.1435246467590332,0.49392032623291016
1748138435507958800,3.325958740234375,-1.7427568435668945,0.5243234634399414,0.8922061920166016
1748138435518029600,3.336029541015625,-1.3805208206176758,0.9491479396820068,1.21256685256958
1748138435528100400,3.346100341796875,-0.6171150207519531,1.325040578842163,1.3884530067443848
1748138435538171100,3.356171142578125,0.4111747741699219,1.36854887008667,1.4402318000793457
1748138435548242000,3.366241943359375,1.3885231018066406,0.9278817176818848,1.3292622566223145
1748138435558312700,3.376312744140625,1.9949512481689453,0.22525262832641602,0.9875235557556152
1748138435568414200,3.386414306640625,2.1866960525512695,-0.4821070432662964,0.3789072036743164
1748138435578485000,3.396485107421875,1.9473466873168945,-1.0669480562210083,-0.35120701789855957
1748138435588555800,3.4065556640625,1.3899555206298828,-1.4627270698547363,-0.9654140472412109
1748138435598626600,3.41662646484375,0.70965576171875,-1.6712086200714111,-1.3935062885284424
1748138435618768100,3.43676806640625,-0.44913768768310547,-1.361541509628296,-1.5705912113189697
1748138435628869400,3.446869384765625,-0.8537235260009766,-0.9305832386016846,-1.3405957221984863
1748138435638940200,3.456940185546875,-1.1186494827270508,-0.5069513320922852,-1.027574062347412
1748138435649011000,3.467010986328125,-1.2398681640625,-0.22928690910339355,-0.7152771949768066
1748138435659081700,3.477081787109375,-1.2845726013183594,-0.04851865768432617,-0.48383498191833496
1748138435669152500,3.487152587890625,-1.2960491180419922,0.06955862045288086,-0.3446078300476074
1748138435679254000,3.49725390625,-1.3057870864868164,0.12266397476196289,-0.2506885528564453
1748138435689324800,3.50732470703125,-1.2742719650268555,0.1542224884033203,-0.23888015747070312
1748138435699395600,3.5173955078125,-1.1404943466186523,0.17085719108581543,-0.2560081481933594
1748138435709466400,3.52746630859375,-0.8766908645629883,0.11340546607971191,-0.32778000831604004
1748138435719537200,3.537537109375,-0.45711612701416016,-0.04321908950805664,-0.4637322425842285
1748138435729627400,3.54762744140625,0.1611642837524414,-0.3212110996246338,-0.6445184946060181
1748138435739729000,3.55772900390625,0.8977184295654297,-0.6269820928573608,-0.8672056198120117
1748138435749799700,3.567799560546875,1.6156864166259766,-0.9614934921264648,-1.1218324899673462
1748138435759870500,3.577870361328125,2.218738555908203,-1.3509188890457153,-1.320127248764038
1748138435769941200,3.587941162109375,2.686931610107422,-1.7105108499526978,-1.4573554992675781
1748138435780012000,3.598011962890625,3.0192432403564453,-1.9831295013427734,-1.5542818307876587
1748138435790082800,3.608082763671875,3.1262998580932617,-2.184631824493408,-1.666458249092102
1748138435800184000,3.61818408203125,2.930281639099121,-2.2933499813079834,-1.7648450136184692
1748138435810254800,3.6282548828125,2.419759750366211,-2.2878670692443848,-1.8154531717300415
1748138435820325600,3.63832568359375,1.7352066040039062,-2.1765036582946777,-1.8070167303085327
1748138435830396700,3.648396728515625,1.0665702819824219,-1.9651885032653809,-1.7128583192825317
1748138435840467500,3.658467529296875,0.5318498611450195,-1.7016305923461914,-1.558858036994934
1748138435850538200,3.668538330078125,0.1083211898803711,-1.425155520439148,-1.3790284395217896
1748138435860639500,3.678639404296875,-0.21226978302001953,-1.1782406568527222,-1.1717334985733032
1748138435870710300,3.688710205078125,-0.3999347686767578,-0.9629963636398315,-0.933049201965332
1748138435880781000,3.698781005859375,-0.4289112091064453,-0.7895770072937012,-0.7021031379699707
1748138435890851800,3.708851806640625,-0.3470926284790039,-0.6488895416259766,-0.45167267322540283
1748138435900922600,3.718922607421875,-0.20925521850585938,-0.5578131675720215,-0.2275477647781372
1748138435911023900,3.72902392578125,-0.09615325927734375,-0.5330414772033691,-0.07238531112670898
1748138435921095000,3.739094970703125,-0.08362007141113281,-0.5789692401885986,0.021390318870544434
1748138435931165700,3.749165771484375,-0.12112617492675781,-0.6973943710327148,0.016567349433898926
1748138435941236500,3.759236572265625,-0.1703939437866211,-0.8306634426116943,-0.017383098602294922
1748138435951307300,3.769307373046875,-0.21938514709472656,-0.9476373195648193,-0.06563842296600342
1748138435961378000,3.7793779296875,-0.3037538528442383,-1.0219225883483887,-0.13436222076416016
1748138435971479300,3.789479248046875,-0.38306331634521484,-1.0655460357666016,-0.15793132781982422
1748138435981550000,3.799550048828125,-0.42403221130371094,-1.0552513599395752,-0.1923229694366455
1748138435991620900,3.809620849609375,-0.5077009201049805,-1.0439879894256592,-0.23932230472564697
1748138436001691600,3.819691650390625,-0.6462087631225586,-1.0123393535614014,-0.2593510150909424
1748138436011762400,3.829762451171875,-0.7684450149536133,-0.9931252002716064,-0.2452390193939209
1748138436021833200,3.839833251953125,-0.7914581298828125,-0.9400243759155273,-0.18218612670898438
1748138436031934700,3.849934814453125,-0.7420234680175781,-0.8781113624572754,-0.10321187973022461
1748138436042005500,3.860005615234375,-0.6202402114868164,-0.8453066349029541,-0.06979751586914062
1748138436052076300,3.870076171875,-0.41418933868408203,-0.8248333930969238,-0.06914806365966797
1748138436062147000,3.88014697265625,-0.1810464859008789,-0.8531901836395264,-0.10507702827453613
1748138436072217900,3.8902177734375,0.03919219970703125,-0.9215399026870728,-0.16846060752868652
1748138436082319000,3.900319091796875,0.19911861419677734,-1.0090490579605103,-0.2632308006286621
1748138436092390000,3.910389892578125,0.3348846435546875,-1.1094361543655396,-0.3706166744232178
1748138436102460700,3.920460693359375,0.47776031494140625,-1.1354587078094482,-0.4789395332336426
1748138436112531500,3.930531494140625,0.5682621002197266,-1.1114894151687622,-0.5564405918121338
1748138436122602200,3.940602294921875,0.5994844436645508,-1.0903329849243164,-0.6243829727172852
1748138436132673300,3.95067333984375,0.6237831115722656,-1.0286445617675781,-0.6839380264282227
1748138436142774500,3.9607744140625,0.6576137542724609,-0.9477710723876953,-0.7743246555328369
1748138436152845300,3.97084521484375,0.6769485473632812,-0.9195343255996704,-0.8627820014953613
1748138436162916000,3.980916015625,0.7056598663330078,-0.948914647102356,-0.9402403831481934
1748138436172987000,3.99098681640625,0.7318611145019531,-1.005570650100708,-1.0237650871276855
1748138436183057700,4.0010576171875,0.7820301055908203,-1.0424219369888306,-1.0866272449493408
1748138436193128400,4.01112841796875,0.8112154006958008,-1.0594130754470825,-1.1411151885986328
1748138436203229700,4.021229736328125,0.6981353759765625,-1.087304711341858,-1.213627576828003
1748138436213300500,4.031300537109375,0.5120649337768555,-1.108962893486023,-1.3006668090820312
1748138436223371500,4.04137158203125,0.38400840759277344,-1.0523850917816162,-1.3562312126159668
1748138436233442300,4.0514423828125,0.30663394927978516,-0.9610023498535156,-1.3878471851348877
1748138436243513000,4.06151318359375,0.19152355194091797,-0.8715020418167114,-1.3695058822631836
1748138436253584000,4.071583984375,0.07912158966064453,-0.74141526222229,-1.302790641784668
1748138436263685000,4.08168505859375,-0.01894092559814453,-0.5784503221511841,-1.2369117736816406
1748138436273756000,4.091755859375,-0.10981178283691406,-0.44067561626434326,-1.1745409965515137
1748138436283826700,4.10182666015625,-0.1889476776123047,-0.3447922468185425,-1.092531442642212
1748138436293897500,4.1118974609375,-0.2563819885253906,-0.2596006393432617,-1.0243573188781738
1748138436303968300,4.12196826171875,-0.3239936828613281,-0.21070599555969238,-0.9929981231689453
1748138436314069800,4.13206982421875,-0.38204288482666016,-0.18521642684936523,-0.973247766494751
1748138436324140500,4.142140625,-0.4519491195678711,-0.21565651893615723,-0.9806973934173584
1748138436334211300,4.15221142578125,-0.5763273239135742,-0.2373659610748291,-1.0187578201293945
1748138436344282000,4.1622822265625,-0.7242107391357422,-0.24509203433990479,-1.0353171825408936
1748138436354353000,4.172352783203125,-0.8073797225952148,-0.20743775367736816,-1.042900800704956
1748138436364423700,4.182423583984375,-0.8976039886474609,-0.1626375913619995,-0.9840731620788574
1748138436374525000,4.19252490234375,-1.0309572219848633,-0.12993931770324707,-0.941338062286377
1748138436384595700,4.202595703125,-1.1218814849853516,-0.07332718372344971,-0.8929965496063232
1748138436394666500,4.21266650390625,-1.1397275924682617,-0.07878851890563965,-0.871281623840332
1748138436404737300,4.2227373046875,-1.1227798461914062,-0.12055206298828125,-0.88588547706604
1748138436414808000,4.23280810546875,-0.9945259094238281,-0.21200311183929443,-0.9587748050689697
1748138436424878800,4.24287890625,-0.8044986724853516,-0.2905312776565552,-1.0278682708740234
1748138436434980400,4.25298046875,-0.6713991165161133,-0.36186420917510986,-1.087712049484253
1748138436445051100,4.263051025390625,-0.6541357040405273,-0.34925854206085205,-1.0541890859603882
1748138436455122000,4.273121826171875,-0.7764816284179688,-0.25513720512390137,-0.9475327730178833
1748138436465192700,4.283192626953125,-0.9625244140625,-0.10693514347076416,-0.7784757614135742
1748138436475263500,4.293263427734375,-1.0318470001220703,0.04376876354217529,-0.5592200756072998
1748138436485334300,4.303334228515625,-0.9970607757568359,0.17723631858825684,-0.2950354814529419
1748138436495435500,4.313435546875,-0.8301944732666016,0.30136990547180176,-0.02784132957458496
1748138436505506300,4.32350634765625,-0.5220155715942383,0.4162038564682007,0.1538602113723755
1748138436515577000,4.3335771484375,-0.07483863830566406,0.44396114349365234,0.2606775760650635
1748138436525648100,4.343648193359375,0.43541812896728516,0.322540283203125,0.24203073978424072
1748138436535719000,4.353718994140625,0.9048023223876953,0.10359323024749756,0.03480172157287598
1748138436545820200,4.363820068359375,1.193624496459961,-0.1445779800415039,-0.30056262016296387
1748138436555891000,4.373890869140625,1.1905536651611328,-0.4004218578338623,-0.6580276489257812
1748138436565961700,4.383961669921875,0.922393798828125,-0.6041847467422485,-1.014486312866211
1748138436576032500,4.394032470703125,0.42969608306884766,-0.6875220537185669,-1.293485403060913
1748138436586103300,4.404103271484375,-0.13543224334716797,-0.6471199989318848,-1.4629770517349243
1748138436596174000,4.414174072265625,-0.5973997116088867,-0.46495163440704346,-1.5385445356369019
1748138436606275300,4.424275390625,-0.8377532958984375,-0.24591350555419922,-1.5235718488693237
1748138436616346400,4.434346435546875,-0.8902721405029297,-0.06333255767822266,-1.4548519849777222
1748138436626417200,4.444417236328125,-0.8503532409667969,0.08198821544647217,-1.3255507946014404
1748138436636488000,4.454488037109375,-0.8369607925415039,0.17160356044769287,-1.2414220571517944
1748138436646558700,4.464558837890625,-0.8975391387939453,0.20659971237182617,-1.2694474458694458
1748138436656629500,4.47462939453125,-1.0272016525268555,0.19759094715118408,-1.3705154657363892
1748138436666730800,4.484730712890625,-1.194972038269043,0.17248141765594482,-1.5321747064590454
1748138436676801500,4.494801513671875,-1.3724756240844727,0.1401686668395996,-1.6850802898406982
1748138436686872300,4.504872314453125,-1.5051450729370117,0.13690996170043945,-1.799780011177063
1748138436696943000,4.514943115234375,-1.5192489624023438,0.1534208059310913,-1.8198076486587524
1748138436707014000,4.525013916015625,-1.4912242889404297,0.19419264793395996,-1.7944116592407227
1748138436717115400,4.535115478515625,-1.495051383972168,0.25221574306488037,-1.7251580953598022
1748138436727186200,4.545186279296875,-1.513749122619629,0.3270641565322876,-1.5614959001541138
1748138436737257000,4.555257080078125,-1.5614004135131836,0.4214824438095093,-1.3858633041381836
1748138436747327700,4.56532763671875,-1.6400384902954102,0.5696631669998169,-1.2346298694610596
1748138436757398500,4.5753984375,-1.7117938995361328,0.7658164501190186,-1.1424671411514282
1748138436767469300,4.58546923828125,-1.717289924621582,0.8818459510803223,-1.1246845722198486
1748138436777570600,4.595570556640625,-1.678074836730957,0.8665608167648315,-1.2916417121887207
1748138436787641300,4.605641357421875,-1.739415168762207,0.6594530344009399,-1.5661323070526123
1748138436797712100,4.615712158203125,-1.9751348495483398,0.36544346809387207,-1.8643091917037964
1748138436807783000,4.625782958984375,-2.2826719284057617,0.08988010883331299,-2.1743226051330566
1748138436817853700,4.635853759765625,-2.5810794830322266,-0.03560018539428711,-2.400430917739868
1748138436827924700,4.6459248046875,-2.8826427459716797,0.03464442491531372,-2.3013548851013184
1748138436838026000,4.65602587890625,-3.053546905517578,0.26076698303222656,-2.01053524017334
1748138436848096800,4.6660966796875,-2.971220016479492,0.6722778081893921,-1.6987186670303345
1748138436858167600,4.67616748046875,-2.7517213821411133,1.2237366437911987,-1.4500582218170166
1748138436868238300,4.68623828125,-2.403656005859375,1.7524677515029907,-1.3159129619598389
1748138436878309000,4.69630908203125,-1.936208724975586,2.106311798095703,-1.2192192077636719
1748138436888380000,4.7063798828125,-1.5665903091430664,2.2261571884155273,-1.2118828296661377
1748138436898481200,4.716481201171875,-1.4906692504882812,2.1176743507385254,-1.4265378713607788
1748138436908552000,4.726552001953125,-1.7184057235717773,1.8956661224365234,-1.7715352773666382
1748138436918623000,4.736623046875,-2.016489028930664,1.6151009798049927,-2.0549936294555664
1748138436928693800,4.74669384765625,-2.111173629760742,1.3795862197875977,-2.173121690750122
1748138436938764500,4.7567646484375,-2.029740333557129,1.2685625553131104,-2.1347389221191406
1748138436948865800,4.76686572265625,-1.7082414627075195,1.2062716484069824,-2.014500141143799
1748138436958936600,4.7769365234375,-1.1062650680541992,1.2172610759735107,-1.7989192008972168
1748138436969007400,4.78700732421875,-0.4911832809448242,1.2293572425842285,-1.4969216585159302
1748138436979078100,4.797078125,-0.16334915161132812,1.1841500997543335,-1.1525887250900269
1748138436999219700,4.8172197265625,-0.411376953125,0.8335354328155518,-0.8452521562576294
1748138437009321200,4.8273212890625,-0.8044271469116211,0.49128401279449463,-0.760409951210022
1748138437019392000,4.83739208984375,-1.1670780181884766,-0.011252522468566895,-0.695112943649292
1748138437029462800,4.847462890625,-1.2846183776855469,-0.6959437131881714,-0.6603974103927612
1748138437039533600,4.857533447265625,-0.7542133331298828,-1.4225268363952637,-0.840471625328064
1748138437049604400,4.867604248046875,0.5785036087036133,-2.0396676063537598,-1.4082434177398682
1748138437059675100,4.877675048828125,2.288301467895508,-2.2039794921875,-1.9854503870010376
1748138437069776400,4.8877763671875,4.061358451843262,-1.7703028917312622,-2.358896493911743
1748138437079847200,4.89784716796875,4.774649620056152,-1.1066011190414429,-2.47097110748291
1748138437089918000,4.90791796875,3.878230094909668,-0.3931630849838257,-2.0302388668060303
1748138437099988700,4.91798876953125,2.0496530532836914,0.3191796541213989,-0.7095898389816284
1748138437110059500,4.9280595703125,1.2348012924194336,1.0833762884140015,1.2767400741577148
1748138437120130600,4.938130615234375,2.043088912963867,1.6700358390808105,3.3582828044891357
1748138437130231800,4.948231689453125,3.984734535217285,1.9421844482421875,3.297060966491699
1748138437140302600,4.958302490234375,6.304721832275391,1.6205986738204956,4.830545425415039
1748138437150373400,4.968373291015625,8.370351791381836,0.6212989091873169,5.373959541320801
1748138437160444200,4.978444091796875,9.530964851379395,-0.6978127956390381,3.6308047771453857
1748138437170515000,4.988514892578125,9.421921730041504,-2.095669746398926,1.5926097631454468
1748138437180616200,4.9986162109375,8.33220100402832,-3.1100106239318848,-0.5998554825782776
1748138437190687000,5.00868701171875,6.687600135803223,-3.4077141284942627,-2.2103769779205322
1748138437200757800,5.0187578125,4.692148208618164,-2.8900556564331055,-2.868014335632324
1748138437210828800,5.028828857421875,2.4066553115844727,-1.7029303312301636,-2.264188528060913
1748138437220899600,5.038899658203125,0.25431060791015625,-0.24000835418701172,-0.8302969336509705
1748138437230970400,5.048970458984375,-1.1580333709716797,1.3366111516952515,0.9105168581008911
1748138437241071600,5.059071533203125,-1.2414159774780273,2.71533203125,2.5651285648345947
1748138437251142400,5.069142333984375,-0.2993764877319336,3.4254658222198486,2.4909868240356445
1748138437261213200,5.079213134765625,0.8207893371582031,3.2076332569122314,3.8178913593292236
1748138437271284000,5.089283935546875,1.6441011428833008,2.3995189666748047,4.458113193511963
1748138437281354800,5.099354736328125,2.0549468994140625,1.4953954219818115,3.4402098655700684
1748138437291425500,5.109425537109375,1.8514013290405273,0.580184817314148,2.553372621536255
1748138437301527000,5.119527099609375,1.232187271118164,-0.1289975643157959,1.755798578262329
1748138437311597800,5.129597900390625,0.4283313751220703,-0.4608783721923828,1.1347960233688354
1748138437321668600,5.139668701171875,-0.4115142822265625,-0.4488793611526489,0.7667531967163086
1748138437331739400,5.149739501953125,-1.2473220825195312,-0.14494061470031738,0.6904281377792358
1748138437341810200,5.15981005859375,-2.0354461669921875,0.3209190368652344,0.9222049713134766
1748138437351911400,5.169911376953125,-2.6943674087524414,0.8116796016693115,1.270552158355713
1748138437361982200,5.179982177734375,-3.154582977294922,1.232661247253418,1.543326735496521
1748138437372053000,5.190052978515625,-3.501157760620117,1.4435001611709595,1.7648564577102661
1748138437382123800,5.200123779296875,-3.701559066772461,1.4208691120147705,1.872308611869812
1748138437392194600,5.210194580078125,-3.6966590881347656,1.2766448259353638,1.851866364479065
1748138437402265300,5.220265380859375,-3.410006523132324,1.1817405223846436,1.8619482517242432
1748138437412366800,5.230366943359375,-3.053544044494629,1.192399024963379,1.9805506467819214
1748138437422437600,5.240437744140625,-2.8606815338134766,1.284313440322876,2.1563873291015625
1748138437432508400,5.25050830078125,-2.805109977722168,1.455657720565796,2.2629809379577637
1748138437442579200,5.2605791015625,-2.6913089752197266,1.677687168121338,2.280470371246338
1748138437452650000,5.27064990234375,-2.464919090270996,1.9024276733398438,2.2089500427246094
1748138437462720800,5.280720703125,-2.1766185760498047,2.0829687118530273,2.124173402786255
1748138437472822000,5.290822021484375,-1.7691774368286133,2.2020959854125977,2.1264772415161133
1748138437482892800,5.300892822265625,-1.6052618026733398,2.1888296604156494,2.2488391399383545
1748138437492963600,5.310963623046875,-1.6198863983154297,2.0892207622528076,2.3855934143066406
1748138437503034400,5.321034423828125,-1.351515769958496,1.8551082611083984,2.482665538787842
1748138437513105400,5.33110546875,-0.8879032135009766,1.4471120834350586,2.465477466583252
1748138437523176200,5.34117626953125,-0.02515888214111328,1.0390279293060303,1.914335012435913
1748138437533277400,5.35127734375,0.9525909423828125,0.6778062582015991,1.0724871158599854
1748138437543348200,5.36134814453125,1.3769216537475586,0.22967922687530518,0.39935052394866943
1748138437553419000,5.3714189453125,1.2890262603759766,-0.35998785495758057,0.3720594644546509
1748138437563489800,5.38148974609375,1.4090938568115234,-0.6050950288772583,0.5728974342346191
1748138437573560600,5.391560546875,1.9283666610717773,-0.3356863260269165,0.567323625087738
1748138437583661800,5.401661865234375,2.862459182739258,0.16674047708511353,0.32395875453948975
1748138437603803600,5.4218037109375,3.9029788970947266,0.16152966022491455,-0.041929274797439575
1748138437613874400,5.43187451171875,3.912027359008789,-0.2906401753425598,-0.33863791823387146
1748138437623945200,5.4419453125,3.9377098083496094,-0.7329115867614746,-0.8715327382087708
1748138437634016000,5.45201611328125,3.879652976989746,-1.1010369062423706,-1.3023947477340698
1748138437644117200,5.4621171875,3.5332937240600586,-1.33968186378479,-1.5385712385177612
1748138437654188000,5.47218798828125,3.101077079772949,-1.4474027156829834,-1.7012906074523926
1748138437664258800,5.4822587890625,3.3272972106933594,-1.5906192064285278,-2.00982403755188
1748138437674329600,5.49232958984375,3.813107490539551,-1.9562195539474487,-3.0788400173187256
1748138437684400400,5.502400390625,3.6235551834106445,-2.591240644454956,-4.642022132873535
1748138437694471200,5.51247119140625,2.6857223510742188,-3.241260051727295,-5.636929035186768
1748138437704572700,5.52257275390625,-0.4172353744506836,-3.195857286453247,-5.73649263381958
1748138437714643500,5.5326435546875,-3.748183250427246,-2.338094472885132,-4.789907455444336
1748138437724714200,5.54271435546875,-4.474575042724609,-1.3681914806365967,-2.312814235687256
1748138437734785000,5.552784912109375,-1.7478113174438477,-0.7382462024688721,0.3141632080078125
1748138437744855800,5.562855712890625,2.2525062561035156,-0.6091511845588684,1.6465485095977783
1748138437754926600,5.572926513671875,5.389680862426758,-1.2304198741912842,1.68849778175354
1748138437765027800,5.58302783203125,7.643378257751465,-2.3266351222991943,0.7289431095123291
1748138437775098600,5.5930986328125,8.522721290588379,-3.583847999572754,-0.6149084568023682
1748138437785169400,5.60316943359375,7.62034797668457,-4.7280449867248535,-1.3344764709472656
1748138437795240200,5.613240234375,5.4418134689331055,-5.084873199462891,-1.1370983123779297
1748138437805311000,5.62331103515625,2.8838233947753906,-4.172277450561523,-0.3156249523162842
1748138437815412500,5.63341259765625,0.012701034545898438,-2.769608497619629,0.6253767013549805
1748138437825483300,5.643483154296875,-2.0813655853271484,-1.7475073337554932,0.7836544513702393
1748138437835554000,5.653553955078125,-2.8327274322509766,0.1697845458984375,1.0395665168762207
1748138437845624800,5.663624755859375,-3.065164566040039,1.1851812601089478,1.1157207489013672
1748138437855695600,5.673695556640625,-2.6562986373901367,0.9677780866622925,1.1709496974945068
1748138437865766400,5.683766357421875,-1.6377744674682617,0.34618985652923584,1.6995577812194824
1748138437875867600,5.69386767578125,-0.09461498260498047,-0.08764290809631348,2.5229125022888184
1748138437885938400,5.7039384765625,0.9551420211791992,-0.16825902462005615,3.0642218589782715
1748138437896009200,5.71400927734375,0.3409757614135742,0.17469000816345215,3.366856813430786
1748138437906080300,5.724080322265625,-1.761077880859375,0.6507580280303955,3.4763998985290527
1748138437916151000,5.734151123046875,-4.380831718444824,0.8634769916534424,3.6442394256591797
1748138437926221800,5.744221923828125,-5.645974159240723,0.6329367160797119,3.648287057876587
1748138437946393900,5.764393798828125,-6.082006454467773,0.030291080474853516,2.9433186054229736
1748138437956464600,5.774464599609375,-5.791167259216309,-0.5121326446533203,1.9170277118682861
1748138437966535400,5.784535400390625,-5.367816925048828,-1.0443096160888672,0.8350551128387451
1748138437976606200,5.794606201171875,-4.413851737976074,-1.3422091007232666,-0.18697619438171387
1748138437986707500,5.80470751953125,-3.2363014221191406,-1.3762686252593994,-0.9484586715698242
1748138437996778500,5.814778564453125,-2.806706428527832,-1.2412574291229248,-1.2569618225097656
1748138438006849300,5.824849365234375,-2.9962453842163086,-1.0307033061981201,-1.177262783050537
1748138438016920000,5.834920166015625,-3.8291215896606445,-0.7638370990753174,-0.8204528093338013
1748138438026990800,5.844990966796875,-5.059779167175293,-0.48924779891967773,-0.4030442237854004
1748138438037061600,5.8550615234375,-6.171930313110352,-0.22968816757202148,-0.10239124298095703
1748138438047163000,5.865162841796875,-6.669909477233887,-0.17958927154541016,-0.10590136051177979
1748138438057233700,5.875233642578125,-4.311687469482422,-0.4840362071990967,-0.383972704410553
1748138438067304400,5.885304443359375,0.6190004348754883,-0.7396795749664307,-0.7738480567932129
1748138438077375200,5.895375244140625,1.9280223846435547,-0.7034533023834229,-1.2792057991027832
1748138438087446000,5.905446044921875,2.3279075622558594,-0.10881519317626953,-1.0210634469985962
1748138438097516800,5.915516845703125,1.823812484741211,0.24497556686401367,-0.7902363538742065
1748138438107618300,5.925618408203125,2.367664337158203,-0.004817008972167969,-0.8087748289108276
1748138438117689000,5.935689208984375,2.3581647872924805,-0.24122047424316406,-0.44137459993362427
1748138438127760000,5.945759765625,1.2124671936035156,0.18230819702148438,-0.0590130090713501
1748138438137830700,5.95583056640625,0.655364990234375,1.0864731073379517,0.05344989895820618
1748138438147901400,5.9659013671875,0.8127765655517578,1.88253653049469,-0.6224825382232666
1748138438158002700,5.976002685546875,1.1537094116210938,1.993444800376892,-1.820593237876892
1748138438168073500,5.986073486328125,1.2083663940429688,1.5758960247039795,-2.248871088027954
1748138438178144300,5.996144287109375,0.846064567565918,1.1622673273086548,-1.4669190645217896
1748138438188215000,6.006215087890625,0.9601154327392578,1.0627331733703613,-1.0494563579559326
1748138438198285800,6.016285888671875,0.8774528503417969,1.267283320426941,-1.1333955526351929
1748138438208356900,6.02635693359375,1.0420360565185547,1.3871995210647583,-1.1943604946136475
1748138438218458000,6.0364580078125,1.1525373458862305,1.3495808839797974,-0.9593356847763062
1748138438228529000,6.04652880859375,0.7298526763916016,1.2903399467468262,-0.856325626373291
1748138438238599700,6.056599609375,0.6333713531494141,1.1785366535186768,-1.3729166984558105
1748138438248670500,6.06667041015625,0.8862838745117188,1.1988286972045898,-1.5416053533554077
1748138438258741200,6.0767412109375,0.43933868408203125,1.585428237915039,-0.5630201101303101
1748138438268812000,6.08681201171875,-0.5215892791748047,2.273707866668701,1.1565074920654297
1748138438278913300,6.096913330078125,-0.9806299209594727,2.4950413703918457,0.8502775430679321
1748138438288984000,6.106984130859375,-0.8076744079589844,2.0320322513580322,1.666599988937378
1748138438299055000,6.11705517578125,-0.024499893188476562,1.0413575172424316,1.7570650577545166
1748138438309126000,6.1271259765625,1.3597841262817383,0.06204652786254883,1.501654863357544
1748138438319196700,6.13719677734375,2.9095773696899414,-0.21006989479064941,1.3681201934814453
1748138438329267500,6.147267333984375,4.072613716125488,-0.45827484130859375,1.6451671123504639
1748138438339368700,6.15736865234375,4.308855056762695,-0.3582735061645508,0.7546570301055908
1748138438349439500,6.167439453125,3.393183708190918,0.005712032318115234,-0.032880544662475586
1748138438359510300,6.17751025390625,1.5923242568969727,0.2681601047515869,0.11127233505249023
1748138438369581000,6.1875810546875,-0.47731590270996094,0.5515351295471191,0.6839199066162109
1748138438379651800,6.19765185546875,-1.8354740142822266,0.8600630760192871,1.607069492340088
1748138438389753300,6.20775341796875,-1.7165780067443848,0.4301278591156006,2.238318920135498
1748138438399824100,6.21782421875,-0.02896404266357422,-0.5917422771453857,2.3023390769958496
1748138438409895000,6.22789501953125,2.754584789276123,-1.676194667816162,2.6045641899108887
1748138438419965700,6.237965576171875,4.782922744750977,-2.382772445678711,2.8490686416625977
1748138438430036500,6.248036376953125,5.650651454925537,-2.821584701538086,2.6890740394592285
1748138438440107300,6.258107177734375,5.017480850219727,-2.8374125957489014,2.374396324157715
1748138438450208500,6.26820849609375,3.2925782203674316,-2.578456401824951,2.1631741523742676
1748138438460279300,6.278279296875,1.0877752304077148,-2.2266993522644043,2.2433505058288574
1748138438470350000,6.28835009765625,-0.9944472312927246,-2.2153499126434326,2.2075295448303223
1748138438480420900,6.2984208984375,-2.5993080139160156,-2.6045196056365967,2.056694984436035
1748138438490491600,6.30849169921875,-3.445589542388916,-3.2095749378204346,1.932840347290039
1748138438500562700,6.318562744140625,-3.7261433601379395,-3.7577195167541504,1.733476161956787
1748138438510664000,6.328663818359375,-3.6542367935180664,-3.927417755126953,1.5696029663085938
1748138438520734700,6.338734619140625,-3.380688190460205,-3.7010841369628906,1.3307785987854004
1748138438540876300,6.358876220703125,-3.5305285453796387,-3.0654678344726562,1.2994980812072754
1748138438550947000,6.368947021484375,-4.0862956047058105,-2.60150146484375,1.0251078605651855
1748138438561048300,6.37904833984375,-4.241142749786377,-2.1929430961608887,0.7396574020385742
1748138438571119000,6.389119140625,-4.3842315673828125,-1.8402128219604492,0.543449878692627
1748138438581190000,6.39918994140625,-4.615633487701416,-1.6598105430603027,0.3940005302429199
1748138438591261000,6.409260986328125,-5.488287925720215,-1.57670259475708,0.2866196632385254
1748138438601331700,6.419331787109375,-6.387689113616943,-1.7233667373657227,-0.5970158576965332
1748138438611402500,6.429402587890625,-4.610540866851807,-2.1345314979553223,-2.044991970062256
1748138438621503700,6.439503662109375,1.041581630706787,-1.9555878639221191,-3.4623961448669434
1748138438631574500,6.449574462890625,1.1833720207214355,-1.5488412380218506,-4.2066850662231445
1748138438651716000,6.469716064453125,2.741647243499756,-1.4799351692199707,-6.021886348724365
1748138438661787000,6.479786865234375,4.546326160430908,-1.1918210983276367,-6.173008441925049
1748138438671857700,6.489857666015625,1.552844524383545,-1.452404260635376,-4.622724533081055
1748138438681959200,6.499959228515625,-0.8530230522155762,-1.536163091659546,-3.061828136444092
1748138438692030000,6.510030029296875,-1.4783191680908203,-1.0798068046569824,-1.6438970565795898
1748138438702100700,6.520100830078125,-1.6155328750610352,-0.6762740612030029,-0.1171722412109375
1748138438712171500,6.530171630859375,-1.4698705673217773,-0.1232600212097168,-0.22260379791259766
1748138438722242300,6.5402421875,-1.4182136058807373,0.351269006729126,0.9382963180541992
1748138438732313000,6.55031298828125,-0.944934606552124,0.7261233329772949,1.4479169845581055
1748138438742414300,6.560414306640625,-0.13885927200317383,1.2246122360229492,1.7363653182983398
1748138438752485000,6.570485107421875,1.0438556671142578,1.7856831550598145,2.577425956726074
1748138438762556000,6.580555908203125,2.58536696434021,2.276420831680298,3.509230613708496
1748138438772626700,6.590626708984375,3.188282012939453,2.297288179397583,4.736701965332031
1748138438782697500,6.600697509765625,3.4762496948242188,2.260377883911133,4.894186019897461
1748138438792799000,6.610799072265625,3.0544495582580566,2.1725027561187744,4.771258354187012
1748138438802869800,6.620869873046875,2.9966375827789307,2.2529795169830322,4.100813865661621
1748138438812940500,6.6309404296875,2.4788267612457275,2.5846047401428223,3.437504768371582
1748138438823011300,6.64101123046875,2.1454293727874756,3.0033721923828125,3.086310386657715
1748138438833082000,6.65108203125,1.5519237518310547,3.374910831451416,2.806765556335449
1748138438843153000,6.66115283203125,1.1633350849151611,3.4204962253570557,2.7341747283935547
1748138438853254100,6.671254150390625,1.096815586090088,3.3148553371429443,2.612431526184082
1748138438863325000,6.681324951171875,1.332094430923462,3.1637141704559326,2.288768768310547
1748138438873395700,6.691395751953125,1.594355821609497,3.060349464416504,1.7135038375854492
1748138438883466500,6.701466552734375,2.223158121109009,2.9094114303588867,1.2601823806762695
1748138438903608300,6.7216083984375,2.752392292022705,2.5088915824890137,0.8533096313476562
1748138438913709600,6.73170947265625,2.86202073097229,2.4410974979400635,0.5665454864501953
1748138438933851100,6.75185107421875,2.9310898780822754,2.600095272064209,-0.32047462463378906
1748138438943922000,6.761921875,2.888110399246216,2.8388078212738037,-0.5333642959594727
1748138438953992700,6.77199267578125,2.628631353378296,2.985903263092041,-1.0740785598754883
1748138438964063500,6.7820634765625,2.3781135082244873,2.765118360519409,-1.6275358200073242
1748138438974164700,6.792164794921875,2.3692209720611572,2.2213988304138184,-1.9027910232543945
1748138438984235800,6.80223583984375,2.667370080947876,1.5617103576660156,-1.9245643615722656
1748138438994306600,6.812306640625,3.3275763988494873,1.0178961753845215,-1.480377197265625
1748138439004377300,6.82237744140625,4.198873996734619,0.8092823028564453,-0.7181911468505859
1748138439014448000,6.8324482421875,4.878118515014648,0.8243858814239502,0.3818531036376953
1748138439024549400,6.84254931640625,5.1683549880981445,0.7091226577758789,1.76519775390625
1748138439034620200,6.8526201171875,5.148800849914551,0.5020301342010498,2.6935911178588867
1748138439044691000,6.86269091796875,4.755526065826416,0.35970020294189453,3.2058944702148438
1748138439054761700,6.87276171875,4.020815849304199,0.14240264892578125,2.7531118392944336
1748138439064832500,6.88283251953125,3.243272542953491,-0.28151893615722656,2.082794189453125
1748138439074903300,6.8929033203125,2.497066020965576,-0.7803130149841309,1.4107093811035156
1748138439085004800,6.9030048828125,1.430002212524414,-1.3859858512878418,0.4835166931152344
1748138439095075600,6.91307568359375,0.6735775470733643,-1.5380187034606934,-0.0494232177734375
1748138439105146400,6.923146484375,0.32636451721191406,-1.5767803192138672,0.19403362274169922
1748138439115217200,6.933217041015625,0.43462085723876953,-1.6417102813720703,0.766510009765625
1748138439125288000,6.943287841796875,0.9292981624603271,-1.602083683013916,1.3706750869750977
1748138439135358700,6.953358642578125,1.3875094652175903,-1.5163311958312988,1.7296667098999023
1748138439145460000,6.9634599609375,1.4754180908203125,-1.5445146560668945,1.581747055053711
1748138439155530800,6.97353076171875,1.2252732515335083,-1.599510669708252,1.1325950622558594
1748138439165601500,6.9836015625,0.9513930082321167,-1.7673630714416504,0.26132678985595703
1748138439175672300,6.99367236328125,0.822681188583374,-2.3138012886047363,-0.8674049377441406
1748138439185743000,7.0037431640625,0.39398229122161865,-3.0034947395324707,-2.662750244140625
1748138439195814100,7.013814208984375,0.010488152503967285,-3.828207015991211,-4.157299995422363
1748138439205915400,7.023915283203125,-0.28558480739593506,-4.301240921020508,-4.964191913604736
1748138439215986200,7.033986083984375,-0.6527894735336304,-4.249456882476807,-5.148835182189941
1748138439226057000,7.044056884765625,-1.0931860208511353,-4.040719985961914,-5.149528503417969
1748138439236127700,7.054127685546875,-1.3106708526611328,-4.001615047454834,-5.065720081329346
1748138439246198500,7.064198486328125,-1.4622507095336914,-3.9605913162231445,-4.955256462097168
1748138439256299800,7.0742998046875,-1.891923189163208,-3.7444915771484375,-4.954911231994629
1748138439266370600,7.08437060546875,-2.2022321224212646,-3.5201759338378906,-4.627510070800781
1748138439276441300,7.09444140625,-2.120177745819092,-3.509726047515869,-4.318408489227295
1748138439286512400,7.104512451171875,-1.9475826025009155,-3.7019529342651367,-4.295530319213867
1748138439316755200,7.134755126953125,-1.5425875186920166,-4.205049514770508,-4.713659763336182
1748138439326826000,7.144825927734375,-1.6624317169189453,-4.213119983673096,-4.703738689422607
1748138439336896800,7.154896728515625,-2.0006980895996094,-4.008811950683594,-4.473012447357178
1748138439346967600,7.164967529296875,-2.2413244247436523,-3.612797737121582,-3.9765143394470215
1748138439357038300,7.175038330078125,-2.312119960784912,-3.209178924560547,-3.3119988441467285
1748138439367109000,7.185109130859375,-2.626271963119507,-2.9584174156188965,-2.461348056793213
1748138439377210600,7.195210693359375,-3.232025623321533,-2.6172423362731934,-1.880009651184082
1748138439397352200,7.215352294921875,-2.914752244949341,-2.7302184104919434,-1.915135383605957
1748138439407423000,7.225423095703125,-2.508004903793335,-3.420866012573242,-2.2291574478149414
1748138439417493800,7.23549365234375,-1.806294560432434,-3.9748735427856445,-2.4492006301879883
1748138439427595000,7.245594970703125,-0.9162000417709351,-4.292562961578369,-2.524477958679199
1748138439437665800,7.255665771484375,-0.4655574560165405,-4.429166316986084,-2.4074182510375977
1748138439447736600,7.265736572265625,-0.43152743577957153,-4.301145076751709,-1.827427864074707
1748138439457807400,7.275807373046875,-0.817749559879303,-4.0259552001953125,-0.8367185592651367
1748138439477949000,7.295948974609375,-1.4327666759490967,-3.9809439182281494,0.9072780609130859
1748138439488050400,7.306050537109375,-1.8694498538970947,-4.277739524841309,0.9905071258544922
1748138439498121200,7.316121337890625,-2.268808364868164,-4.810097694396973,0.6432085037231445
1748138439508192000,7.32619189453125,-2.5842843055725098,-5.4549665451049805,0.13662147521972656
1748138439528333600,7.34633349609375,-2.6712374687194824,-5.97182559967041,-0.7404670715332031
1748138439538404400,7.356404296875,-2.402942180633545,-6.027462959289551,-0.5943460464477539
1748138439548505600,7.366505615234375,-1.8720921277999878,-6.125120639801025,-0.10936737060546875
1748138439558576400,7.376576416015625,-1.489302635192871,-6.322452545166016,0.4132108688354492
1748138439568647200,7.386647216796875,-1.461830735206604,-6.472928047180176,0.6639022827148438
1748138439578718000,7.396718017578125,-1.735335350036621,-6.597626686096191,0.5960044860839844
1748138439588789000,7.4067890625,-2.332294464111328,-6.706367015838623,0.5458278656005859
1748138439598890200,7.41689013671875,-2.951246738433838,-6.784052848815918,0.6689596176147461
1748138439608961000,7.4269609375,-3.445829391479492,-7.051652431488037,0.8417749404907227
1748138439619031800,7.43703173828125,-3.490600109100342,-7.59591817855835,0.9170312881469727
1748138439629102600,7.4471025390625,-2.9203338623046875,-7.919044494628906,1.4913911819458008
1748138439639173400,7.45717333984375,-2.5964596271514893,-7.812463760375977,2.228403091430664
1748138439649244200,7.467244140625,-2.27138614654541,-7.466536998748779,2.9974822998046875
1748138439659345400,7.477345458984375,-2.152120590209961,-7.064779758453369,4.099498748779297
1748138439669416400,7.48741650390625,-2.5194814205169678,-6.8119401931762695,5.070775032043457
1748138439679487200,7.4974873046875,-3.4728078842163086,-6.406397819519043,5.608827114105225
1748138439689558000,7.50755810546875,-4.444141387939453,-5.747615337371826,6.236105918884277
1748138439699628800,7.51762890625,-5.0360870361328125,-5.105554580688477,6.833982944488525
1748138439709699600,7.527699462890625,-5.584308624267578,-4.671446800231934,6.995267868041992
1748138439719800800,7.53780078125,-6.098207473754883,-3.9572153091430664,6.829021453857422
1748138439729871600,7.54787158203125,-6.281761169433594,-4.1234235763549805,5.503660678863525
1748138439739942400,7.5579423828125,-5.962317943572998,-4.224729537963867,5.3401360511779785
1748138439750013200,7.56801318359375,-3.962679862976074,-3.4366631507873535,6.861602783203125
1748138439760084000,7.578083984375,-1.1276180744171143,-2.231626033782959,8.19556713104248
1748138439770185500,7.588185546875,1.168419361114502,-1.2548103332519531,9.124092102050781
1748138439780256300,7.59825634765625,2.820559501647949,-0.6258502006530762,9.643074035644531
1748138439790327000,7.6083271484375,3.8543710708618164,-0.28484582901000977,10.1166410446167
1748138439800397800,7.618397705078125,5.148383140563965,-0.7949752807617188,9.902077674865723
1748138439810468600,7.628468505859375,6.461842060089111,-0.5569405555725098,9.305129051208496
1748138439820539400,7.638539306640625,7.394562244415283,-0.04777956008911133,8.641679763793945
1748138439830640600,7.648640625,7.4948248863220215,0.6334404945373535,8.350250244140625
1748138439840711400,7.65871142578125,7.058877944946289,1.4244370460510254,8.791716575622559
1748138439850782200,7.6687822265625,6.255550384521484,2.151552677154541,9.44720458984375
1748138439860853000,7.67885302734375,5.382899284362793,2.7073373794555664,9.986959457397461
1748138439870923800,7.688923828125,4.321805000305176,3.1698732376098633,10.324487686157227
1748138439880994800,7.698994873046875,3.125518560409546,3.6262640953063965,10.675926208496094
1748138439891096000,7.709095947265625,1.7369067668914795,4.07416296005249,11.012612342834473
1748138439901166800,7.719166748046875,-0.057218074798583984,4.218428611755371,11.156854629516602
1748138439911237600,7.729237548828125,-1.7788352966308594,3.6299195289611816,10.839642524719238
1748138439921308400,7.739308349609375,-3.064617395401001,2.814603328704834,9.5873384475708
1748138439931379200,7.749379150390625,-4.153289794921875,2.2004313468933105,7.586757183074951
1748138439941450000,7.759449951171875,-4.773390293121338,1.7745790481567383,5.685213565826416
1748138439951551200,7.76955126953125,-4.774982929229736,1.3534855842590332,3.8345022201538086
1748138439961622000,7.7796220703125,-5.525840759277344,1.0090126991271973,1.600229263305664
1748138439971693000,7.789693115234375,-5.663787364959717,1.111539363861084,-1.1273441314697266
1748138439981763800,7.799763916015625,-5.837800025939941,1.5528078079223633,-2.8527565002441406
1748138439991834600,7.809834716796875,-5.206489086151123,2.1889710426330566,-4.139588356018066
1748138440001936000,7.819935791015625,-5.225715637207031,2.5885472297668457,-4.044329643249512
1748138440012006700,7.830006591796875,-6.241418361663818,3.000046730041504,-6.528847694396973
1748138440022077400,7.840077392578125,-7.354126453399658,3.516364097595215,-6.992410659790039
1748138440032148200,7.850148193359375,-6.565110206604004,4.305624008178711,-6.992697715759277
1748138440042219000,7.860218994140625,-3.4097039699554443,4.02500581741333,-3.3616714477539062
1748138440052289800,7.870289794921875,-2.129359006881714,3.624392509460449,-2.0570411682128906
1748138440062391300,7.880391357421875,-0.12885147333145142,2.485504150390625,-0.09344959259033203
1748138440072462000,7.890462158203125,-0.6080068945884705,2.20035982131958,0.1535625457763672
1748138440082532900,7.900532958984375,-2.287766456604004,2.400158405303955,-1.1908187866210938
1748138440092603600,7.910603759765625,-4.6150031089782715,3.136765956878662,-2.748149871826172
1748138440102674400,7.92067431640625,-6.916098594665527,3.9134955406188965,-3.2533769607543945
1748138440112745200,7.9307451171875,-8.146921157836914,4.370973110198975,-2.4919795989990234
1748138440132917200,7.950917236328125,-6.3126654624938965,2.8207030296325684,0.4536590576171875
1748138440142988000,7.960988037109375,-1.0174492597579956,0.9663515090942383,1.8869009017944336
1748138440153058800,7.971058837890625,4.1955976486206055,-0.7987384796142578,1.5001850128173828
1748138440163129600,7.981129638671875,5.747715950012207,-2.6561543941497803,0.2670125961303711
1748138440173231000,7.991231201171875,5.839180946350098,-3.32466459274292,-1.750244140625
1748138440183302000,8.001302001953125,6.785360336303711,-2.5879549980163574,-2.297313690185547
1748138440193372700,8.01137255859375,7.743350982666016,-2.040825605392456,-1.1044883728027344
1748138440203443500,8.021443359375,6.57344913482666,-2.528747320175171,1.6883745193481445
1748138440213514200,8.03151416015625,3.5868570804595947,-3.1044673919677734,4.318770408630371
1748138440223585000,8.0415849609375,2.1234352588653564,-3.769582748413086,4.343890190124512
1748138440233686300,8.051686279296876,1.1861741542816162,-4.4299540519714355,3.050912857055664
1748138440243757000,8.061757080078126,2.8421740531921387,-5.611141204833984,-0.2436227798461914
1748138440253827800,8.071827880859376,4.734572410583496,-6.529249668121338,-1.0024261474609375
1748138440263898600,8.081898681640626,6.257341384887695,-6.435962200164795,-0.6471099853515625
1748138440273969700,8.0919697265625,6.048480987548828,-6.246927261352539,-1.220487117767334
1748138440284040400,8.10204052734375,5.497235298156738,-6.7234344482421875,-2.069070339202881
1748138440294141700,8.1121416015625,4.405826568603516,-7.50984001159668,-1.2252697944641113
1748138440304212500,8.12221240234375,2.572162628173828,-8.131951332092285,0.7631134986877441
1748138440314283300,8.132283203125,-0.527271032333374,-8.1866455078125,1.7315659523010254
1748138440324354000,8.14235400390625,-3.3953521251678467,-7.931437969207764,1.0460162162780762
1748138440334424800,8.1524248046875,-4.089590072631836,-7.568258762359619,-1.319511890411377
1748138440344495600,8.16249560546875,-2.6290814876556396,-7.332653999328613,-4.584779739379883
1748138440354596900,8.172596923828126,-0.2091226577758789,-7.4307098388671875,-4.743671894073486
1748138440364668000,8.18266796875,1.897094964981079,-7.328916549682617,-4.591890335083008
1748138440374738700,8.19273876953125,3.0461654663085938,-6.805825710296631,-3.609126091003418
1748138440384809500,8.2028095703125,3.0379767417907715,-5.926839351654053,-1.409463882446289
1748138440394880300,8.21288037109375,2.3625006675720215,-4.537875652313232,1.1061897277832031
1748138440404981500,8.2229814453125,1.816734790802002,-2.9210472106933594,2.864044666290283
1748138440415052300,8.23305224609375,2.104165554046631,-1.8255071640014648,3.982422351837158
1748138440425123000,8.243123046875,4.249917030334473,-1.372485637664795,4.464442729949951
1748138440435193900,8.25319384765625,7.0399017333984375,-1.4603190422058105,4.658757209777832
1748138440445264600,8.2632646484375,3.893747568130493,-1.5993547439575195,5.585839748382568
1748138440455335400,8.27333544921875,-8.189845085144043,-1.1557416915893555,4.747765064239502
1748138440465437000,8.28343701171875,-9.918279647827148,0.10364866256713867,2.997119426727295
1748138440475507700,8.2935078125,-4.956958770751953,1.111565113067627,1.74090576171875
1748138440485578500,8.30357861328125,-1.7492130994796753,1.1024322509765625,2.7381625175476074
1748138440495649300,8.313649169921876,-0.4374028444290161,1.0973243713378906,3.3772029876708984
1748138440505720000,8.323719970703126,-2.444185256958008,0.9138317108154297,5.025937557220459
1748138440515790800,8.333790771484376,-4.868143558502197,1.6612763404846191,5.591653347015381
1748138440525892000,8.34389208984375,-5.220155715942383,3.1353864669799805,4.512289047241211
1748138440535963000,8.353962890625,-5.270689010620117,4.77250862121582,5.197096824645996
1748138440546033700,8.36403369140625,-7.542328834533691,5.490918159484863,6.437618732452393
1748138440556104400,8.3741044921875,-8.939148902893066,5.867550849914551,7.025074005126953
1748138440566175200,8.38417529296875,-8.980772018432617,5.866841793060303,6.75230598449707
1748138440576276700,8.39427685546875,-8.035962104797363,5.338085651397705,6.36341667175293
1748138440586347500,8.404347412109376,-6.640433311462402,4.154747009277344,6.699691295623779
1748138440596418300,8.414418212890626,-6.403618335723877,2.6813507080078125,6.9476213455200195
1748138440606489000,8.424489013671876,-5.184970855712891,2.379671573638916,2.9388351440429688
1748138440616559900,8.434559814453126,-3.8543221950531006,3.0224008560180664,-10.915593147277832
1748138440626630700,8.444630615234376,-5.213170528411865,3.597109079360962,-8.986932754516602
1748138440636732000,8.45473193359375,-3.6782257556915283,3.5576484203338623,-9.102910995483398
1748138440646802700,8.464802734375,-1.8812406063079834,4.449450492858887,-4.241619110107422
1748138440656873500,8.47487353515625,-1.1200144290924072,4.578559398651123,-0.8328485488891602
1748138440666944500,8.484944580078125,-2.0724847316741943,3.6482906341552734,-0.5772266387939453
1748138440677015300,8.495015380859375,-2.163980722427368,2.2108547687530518,-1.1378793716430664
1748138440687086000,8.505086181640625,-2.031446695327759,2.0436933040618896,-2.1109819412231445
1748138440697187300,8.515187255859376,-2.8447041511535645,1.0893995761871338,-1.1517276763916016
1748138440707258000,8.525258056640626,-3.4150660037994385,0.7134311199188232,-1.2824983596801758
1748138440717329000,8.535328857421876,-3.046518564224243,0.42731499671936035,-0.6734228134155273
1748138440727399700,8.545399658203126,-2.8198108673095703,0.7766849994659424,-0.17284202575683594
1748138440737470500,8.555470458984376,-3.023238182067871,0.6623075008392334,0.5998344421386719
1748138440747571700,8.56557177734375,-2.9997963905334473,-0.28267574310302734,0.5072860717773438
1748138440757642800,8.575642822265625,-2.2727534770965576,-0.6378135681152344,-0.6581344604492188
1748138440767713500,8.585713623046875,-1.3843129873275757,-0.21588873863220215,-1.9592742919921875
1748138440777784300,8.595784423828125,2.8104777336120605,-0.9780595302581787,-2.423809051513672
1748138440787855000,8.605855224609375,0.8348212242126465,-2.0218658447265625,-1.6791000366210938
1748138440797926000,8.61592578125,0.16096752882003784,-2.4304184913635254,0.03183174133300781
1748138440808027100,8.626027099609376,-0.50417160987854,-2.4175939559936523,0.930394172668457
1748138440818098000,8.636097900390626,0.10079984366893768,-2.0969481468200684,1.8133230209350586
1748138440828168700,8.646168701171876,4.583744525909424,-2.8305554389953613,2.9303436279296875
1748138440838239500,8.656239501953126,6.510711193084717,-4.628376483917236,4.172783851623535
1748138440848310300,8.666310302734376,8.254107475280762,-6.126276969909668,4.166388511657715
1748138440858381000,8.676381103515626,7.5271782875061035,-6.210532188415527,1.5899248123168945
1748138440868482600,8.686482666015625,6.122287750244141,-3.189595937728882,-0.33090782165527344
1748138440878553300,8.69655322265625,1.703658938407898,-2.3714160919189453,-0.7098388671875
1748138440888624000,8.7066240234375,-5.200535774230957,-4.274494171142578,-1.4219655990600586
1748138440898695000,8.71669482421875,-6.126097202301025,-5.222395896911621,-1.4853591918945312
1748138440908765700,8.726765625,-6.736032485961914,-4.668606758117676,-2.0658035278320312
1748138440918836500,8.73683642578125,-6.107372760772705,-4.087074279785156,-2.8962650299072266
1748138440928937700,8.746937744140626,-4.142941951751709,-3.760673999786377,-2.5616817474365234
1748138440939008500,8.757008544921876,-3.0230252742767334,-3.18496036529541,-1.4779415130615234
1748138440949079300,8.767079345703126,-2.706393003463745,-2.689340114593506,0.30568885803222656
1748138440959150000,8.777150146484376,-3.059998035430908,-2.341644525527954,1.7535791397094727
1748138440969221000,8.78722119140625,-2.2303781509399414,-2.378549337387085,1.917001724243164
1748138440979322400,8.797322265625,-1.012052059173584,-2.2911033630371094,1.5563702583312988
1748138440989393200,8.80739306640625,1.4381370544433594,-2.453869581222534,1.582411766052246
1748138440999464000,8.8174638671875,6.718283176422119,-2.6640689373016357,1.4810914993286133
1748138441009534700,8.82753466796875,9.408150672912598,-2.899662971496582,0.5926856994628906
1748138441019605500,8.83760546875,8.452186584472656,-3.448861837387085,-0.2541794776916504
1748138441029676300,8.84767626953125,4.856733322143555,-3.496297597885132,0.19018840789794922
1748138441039777500,8.857777587890626,0.30753612518310547,-2.534804582595825,1.764233112335205
1748138441049848600,8.8678486328125,-1.4663352966308594,-0.9639630317687988,2.7190051078796387
1748138441059919400,8.87791943359375,0.10937166213989258,-0.0852670669555664,2.872704029083252
1748138441069990100,8.887990234375,1.8804535865783691,-0.9628677368164062,1.2898869514465332
1748138441080061000,8.89806103515625,2.8746418952941895,-2.539215087890625,-0.5214896202087402
1748138441090131700,8.908131591796876,3.1678457260131836,-3.1554508209228516,-1.5648307800292969
1748138441100233000,8.91823291015625,5.84967565536499,-2.4226150512695312,-1.5956988334655762
1748138441110303700,8.9283037109375,13.576803207397461,-0.03875398635864258,-1.3172831535339355
1748138441120374500,8.93837451171875,7.895126819610596,0.4030160903930664,-1.1446523666381836
1748138441130445300,8.9484453125,2.8106751441955566,-0.45381689071655273,-1.634293556213379
1748138441140516000,8.95851611328125,-1.3879904747009277,-1.1620450019836426,-2.11989164352417
1748138441150617600,8.96861767578125,-3.474618434906006,-1.305394172668457,-3.3082242012023926
1748138441160688400,8.9786884765625,-2.9519214630126953,-1.5049753189086914,-4.552005767822266
1748138441170759200,8.98875927734375,-2.0132012367248535,-0.8886308670043945,-6.214149475097656
1748138441180830000,8.998829833984376,-6.1707024574279785,-2.2349486351013184,-3.5679168701171875
1748138441190900700,9.008900634765626,-5.5431318283081055,-3.0137405395507812,-3.4040637016296387
1748138441200971500,9.018971435546876,-0.2558934688568115,-2.6691975593566895,0.3536214828491211
1748138441211072800,9.02907275390625,-1.519193172454834,-0.4605712890625,3.041027069091797
1748138441221143600,9.0391435546875,-8.793697357177734,1.3677449226379395,9.567182540893555
1748138441231214300,9.04921435546875,-11.766359329223633,3.639613151550293,7.653924942016602
1748138441241285000,9.05928515625,-10.4663667678833,3.931689739227295,7.984673500061035
1748138441251356000,9.06935595703125,-11.960192680358887,3.476661205291748,8.867115020751953
1748138441261427000,9.079427001953125,-11.99923324584961,3.400440216064453,10.885839462280273
1748138441271528200,9.089528076171876,-11.598682403564453,1.9020061492919922,12.511987686157227
1748138441281599000,9.099598876953126,-9.424774169921875,0.17572927474975586,10.317411422729492
1748138441291669800,9.109669677734376,-7.13344669342041,0.47094249725341797,4.4248366355896
1748138441301740500,9.119740478515626,-5.062642574310303,0.6623902320861816,-0.026862621307373047
1748138441311811300,9.129811279296876,-1.1368108987808228,-0.05834627151489258,-5.5851731300354
1748138441321912600,9.13991259765625,1.940139889717102,-0.36836671829223633,-6.044992923736572
1748138441331983400,9.1499833984375,2.0905158519744873,-0.33148956298828125,-5.573803424835205
1748138441342054100,9.16005419921875,-1.574509620666504,0.2655758857727051,-5.601803779602051
1748138441352125200,9.170125244140625,-5.442761421203613,1.759927749633789,-2.550442695617676
1748138441362196000,9.180196044921875,-7.274828910827637,2.2478904724121094,2.5809645652770996
1748138441372266800,9.190266845703125,-8.088436126708984,-0.06047821044921875,5.314800262451172
1748138441382368000,9.200367919921876,-5.575290203094482,-3.4886555671691895,4.243293285369873
1748138441392438800,9.210438720703126,-2.445734977722168,-7.1765241622924805,1.1767349243164062
1748138441402509600,9.220509521484376,0.47359395027160645,-8.364227294921875,-1.8465781211853027
1748138441412580400,9.230580322265626,7.767439842224121,-7.598682880401611,-3.203413963317871
1748138441422651100,9.240651123046876,14.33924674987793,-5.574235916137695,-3.7497730255126953
1748138441432722000,9.250721923828126,16.722061157226562,-4.5856404304504395,-3.6849937438964844
1748138441442823400,9.260823486328125,13.504215240478516,-3.6515040397644043,-3.540628433227539
1748138441452894200,9.270894287109375,9.964542388916016,-3.80118989944458,-2.279881000518799
1748138441462965000,9.280965087890625,10.60577392578125,-4.271519660949707,-1.6123614311218262
1748138441473035800,9.291035888671875,8.265592575073242,-4.741473197937012,-0.3107280731201172
1748138441483106600,9.3011064453125,5.601691722869873,-4.625821113586426,-1.0638484954833984
1748138441493177300,9.31117724609375,4.360496520996094,-4.3465681076049805,-2.0155725479125977
1748138441503278600,9.321278564453126,3.5097341537475586,-4.467748641967773,-3.1496052742004395
1748138441513349400,9.331349365234376,3.0095736980438232,-5.167461395263672,-3.776449680328369
1748138441523420200,9.341420166015626,1.2755095958709717,-5.252795219421387,-2.6032872200012207
1748138441533491000,9.351490966796876,0.8914105892181396,-5.3734917640686035,-0.9873080253601074
1748138441543561700,9.361561767578126,1.7334587574005127,-5.432751178741455,0.4595656394958496
1748138441553663200,9.371663330078125,1.9215428829193115,-4.411898136138916,1.2192797660827637
1748138441563734000,9.381734130859375,1.104302167892456,-3.036559581756592,1.8557567596435547
1748138441573804800,9.3918046875,0.6405107975006104,-1.8632168769836426,0.7953462600708008
1748138441583875600,9.40187548828125,0.9924287796020508,-2.1731529235839844,-0.8543572425842285
1748138441593946400,9.4119462890625,2.0751407146453857,-2.155874729156494,-2.110671043395996
1748138441604017200,9.42201708984375,3.13503098487854,-2.834806442260742,-2.414318084716797
1748138441614118400,9.432118408203126,3.2294156551361084,-3.749786853790283,-2.637645721435547
1748138441624189200,9.442189208984376,0.43081021308898926,-5.03641939163208,-2.546257972717285
1748138441634260000,9.452260009765626,0.04754829406738281,-4.701848030090332,-2.550997734069824
1748138441644330800,9.462330810546876,-0.9681800603866577,-2.519620418548584,-0.7007007598876953
1748138441654401800,9.47240185546875,-0.7195067405700684,-0.8184432983398438,2.1100902557373047
1748138441664472600,9.48247265625,-1.0792319774627686,0.7159690856933594,4.159274101257324
1748138441674573800,9.49257373046875,-1.3655970096588135,1.8713889122009277,3.8172616958618164
1748138441684644600,9.50264453125,0.19429267942905426,2.2510933876037598,2.1871867179870605
1748138441694715400,9.51271533203125,1.2800076007843018,2.279024124145508,0.29828786849975586
1748138441704786200,9.5227861328125,0.4146118760108948,1.881113052368164,-3.4818267822265625
1748138441714857000,9.53285693359375,-2.7611100673675537,1.3731460571289062,-4.146429061889648
1748138441724958200,9.542958251953126,-4.365262031555176,2.2792205810546875,-2.999797821044922
1748138441735029000,9.553029052734376,-4.8053083419799805,3.851426124572754,-2.810774326324463
1748138441745100000,9.56310009765625,-3.7388079166412354,4.594516754150391,-1.6527986526489258
1748138441755170800,9.5731708984375,-2.5235724449157715,4.4134063720703125,-0.7645387649536133
1748138441765241600,9.58324169921875,-6.371016979217529,3.848252296447754,-0.0021829605102539062
1748138441775312400,9.5933125,-4.247562408447266,4.000526428222656,0.27414751052856445
1748138441785413600,9.60341357421875,-1.9326802492141724,3.9101104736328125,2.1912612915039062
1748138441795484400,9.613484375,0.06769990921020508,3.6522998809814453,4.094597816467285
1748138441805555200,9.62355517578125,-0.07907140254974365,3.45465087890625,5.934322834014893
1748138441815626000,9.6336259765625,-2.6531147956848145,3.3067588806152344,7.396781921386719
1748138441825696800,9.64369677734375,-4.389772415161133,3.1788558959960938,8.27197265625
1748138441835767600,9.653767578125,-4.571380615234375,2.891010284423828,8.533035278320312
1748138441845869000,9.663869140625,-3.7080657482147217,2.3434572219848633,8.44809627532959
1748138441855939800,9.67393994140625,-3.1494827270507812,1.340641975402832,7.475949287414551
1748138441866010600,9.6840107421875,-3.7363479137420654,0.3832359313964844,6.246943473815918
1748138441876081400,9.694081298828126,-4.8528594970703125,0.02134227752685547,5.020895957946777
1748138441886152200,9.704152099609376,-5.2115583419799805,0.7935857772827148,4.172909736633301
1748138441896253400,9.71425341796875,-4.915494918823242,1.2236299514770508,4.6507110595703125
1748138441906324200,9.72432421875,-4.100066184997559,0.618260383605957,5.490518569946289
1748138441916395000,9.73439501953125,-5.045467853546143,-0.49474334716796875,6.415999412536621
1748138441926465800,9.7444658203125,-5.0769805908203125,-1.5330533981323242,6.339800834655762
1748138441936536600,9.75453662109375,-4.646129131317139,-2.4299793243408203,6.053225994110107
1748138441946607400,9.764607421875,-4.219164848327637,-2.6164512634277344,4.479021072387695
1748138441956708900,9.774708984375,-5.496909141540527,-3.1287012100219727,2.473918914794922
1748138441966779600,9.784779541015626,-6.816961288452148,-3.8673877716064453,0.4965999126434326
1748138441976850400,9.794850341796876,-6.5760111808776855,-4.6443891525268555,-0.533214807510376
1748138441986921200,9.804921142578126,-5.4904937744140625,-4.495888710021973,-0.20223236083984375
1748138441996992000,9.814991943359376,-2.8126018047332764,-4.447505950927734,0.27394556999206543
1748138442007062800,9.825062744140626,-1.1419949531555176,-4.46021842956543,0.5516672134399414
1748138442017164000,9.8351640625,0.9445860385894775,-4.943184852600098,0.8677711486816406
1748138442027234800,9.84523486328125,2.462261438369751,-4.518918037414551,1.529280424118042
1748138442037305600,9.8553056640625,4.541742324829102,-3.6617650985717773,2.0213849544525146
1748138442047376600,9.865376708984375,4.312389373779297,-3.1454973220825195,2.4889769554138184
1748138442057447400,9.875447509765625,3.474646806716919,-2.9482603073120117,2.5859336853027344
1748138442067548700,9.885548583984376,2.7524044513702393,-2.8471078872680664,2.8832848072052
1748138442077619500,9.895619384765626,2.5979161262512207,-2.8637571334838867,3.7479207515716553
1748138442087690200,9.905690185546876,3.5475826263427734,-3.241034507751465,4.347414016723633
1748138442097761000,9.915760986328126,5.023472785949707,-3.3872146606445312,3.9470882415771484
1748138442107831800,9.925831787109376,5.789717674255371,-2.7758445739746094,3.022271156311035
1748138442117902600,9.935902587890626,4.968539714813232,-3.0425186157226562,1.7436714172363281
1748138442128003800,9.94600390625,2.827864408493042,-4.242708206176758,-1.9568638801574707
1748138442138075000,9.956074951171875,2.07035493850708,-4.901861190795898,-2.3729562759399414
1748138442148145700,9.966145751953125,2.2088279724121094,-5.340163230895996,-2.5808749198913574
1748138442158216400,9.976216552734375,3.0970489978790283,-5.837327003479004,-3.213226318359375
1748138442168287200,9.986287353515625,1.089024543762207,-8.269161224365234,-4.9569315910339355
1748138442178388500,9.996388427734376,-7.307770729064941,-9.073925971984863,-4.826986789703369
1748138442188459300,10.006459228515626,-9.003589630126953,-6.565790176391602,-2.4636588096618652
1748138442198530000,10.016530029296876,-4.801509857177734,-3.09635066986084,-2.460763454437256
1748138442208600800,10.026600830078126,-1.2036330699920654,-1.253617286682129,-0.6920642852783203
1748138442218671600,10.036671630859376,1.5447380542755127,0.0025320053100585938,-0.5258307456970215
1748138442228742400,10.046742431640626,3.2535839080810547,1.0759029388427734,-2.260866165161133
1748138442238844000,10.056843994140625,3.616821527481079,1.8138689994812012,-2.842702865600586
1748138442248914700,10.066914794921875,3.5536699295043945,2.1655774116516113,-3.2838850021362305
1748138442258985500,10.0769853515625,3.65451979637146,2.661113739013672,-3.690464496612549
1748138442269056300,10.08705615234375,3.436905860900879,3.362900733947754,-3.9150032997131348
1748138442279127000,10.097126953125,3.5704450607299805,3.618208885192871,-4.179564952850342
1748138442289197800,10.10719775390625,4.189729690551758,3.5485758781433105,-4.272430419921875
1748138442299299000,10.117299072265626,4.750062942504883,3.1914801597595215,-4.236758232116699
1748138442309369900,10.127369873046876,4.722231388092041,2.6501283645629883,-3.794222354888916
1748138442319440600,10.137440673828126,4.432785987854004,2.261000156402588,-3.2753005027770996
1748138442329511400,10.147511474609376,4.593888282775879,1.9751667976379395,-2.7375288009643555
1748138442339582500,10.15758251953125,4.0338287353515625,2.716233253479004,-1.9791755676269531
1748138442349653200,10.1676533203125,2.039156913757324,4.1746826171875,-1.0787653923034668
1748138442359754500,10.17775439453125,0.9529886245727539,4.459478378295898,-0.879624605178833
1748138442369825300,10.1878251953125,1.42681884765625,3.316962242126465,-0.31922054290771484
1748138442379896000,10.19789599609375,2.927021026611328,1.7615385055541992,0.5373804569244385
1748138442389966800,10.207966796875,4.271352767944336,0.3803691864013672,1.4791760444641113
1748138442400037600,10.21803759765625,4.145768642425537,-0.2344226837158203,2.6513516902923584
1748138442410139000,10.228138916015626,2.6051270961761475,-0.41386890411376953,4.138914108276367
1748138442420209700,10.238209716796876,-0.26523470878601074,0.111328125,5.269523620605469
1748138442430280700,10.24828076171875,-3.5090842247009277,0.5351095199584961,5.422245979309082
1748138442440351500,10.2583515625,-6.375834941864014,1.012685775756836,4.2580790519714355
1748138442450422300,10.26842236328125,-7.067198276519775,1.3506135940551758,0.6488367319107056
1748138442460493000,10.2784931640625,-8.108699798583984,0.4544239044189453,-1.8035587072372437
1748138442470594300,10.28859423828125,-19.285234451293945,-0.7682380676269531,-4.120530605316162
1748138442480665000,10.2986650390625,-24.58319854736328,-2.3283700942993164,-2.1727194786071777
1748138442490735900,10.30873583984375,-17.815702438354492,-3.9944820404052734,-2.4340734481811523
1748138442500806700,10.318806640625,-7.613783836364746,-4.795592308044434,-3.7076566219329834
1748138442510877400,10.32887744140625,2.780832052230835,-4.698990821838379,-4.46315860748291
1748138442520948200,10.3389482421875,9.02397632598877,-3.2007246017456055,-4.176793098449707
1748138442531049700,10.3490498046875,8.763415336608887,-1.3537969589233398,-3.247215509414673
1748138442541120500,10.35912060546875,5.669648170471191,0.6846141815185547,-2.1897711753845215
1748138442551191300,10.36919140625,4.1039557456970215,2.3950891494750977,-1.765250563621521
1748138442561262000,10.379261962890626,3.899411916732788,3.703719139099121,-1.8100244998931885
1748138442571332900,10.389332763671876,4.461625099182129,5.132658004760742,-1.7069108486175537
1748138442581434000,10.39943408203125,4.832083225250244,5.036482810974121,-2.021934986114502
1748138442591505000,10.4095048828125,4.904044151306152,3.404231071472168,-3.374659538269043
1748138442601575700,10.41957568359375,3.835519313812256,0.8249626159667969,-4.744086742401123
1748138442611646500,10.429646484375,2.1012773513793945,-1.417872428894043,-4.875918388366699
1748138442621717200,10.43971728515625,0.7354521751403809,-3.7600793838500977,-4.669872283935547
1748138442631788000,10.4497880859375,1.7474637031555176,-6.865772247314453,-4.441101551055908
1748138442641889500,10.4598896484375,4.127516269683838,-10.140521049499512,-4.837767124176025
1748138442651960300,10.469960205078126,7.318099498748779,-10.96080207824707,-3.95135498046875
1748138442662031000,10.480031005859376,11.071252822875977,-7.687379837036133,-0.6534581780433655
1748138442672102000,10.490101806640626,13.560468673706055,-4.479085922241211,1.5275108814239502
1748138442682172700,10.500172607421876,12.673833847045898,-3.656722068786621,2.659672737121582
1748138442692243500,10.510243408203126,9.918792724609375,-3.424078941345215,2.677499294281006
1748138442702344700,10.5203447265625,6.715720176696777,-2.4139413833618164,4.736222743988037
1748138442712415500,10.53041552734375,3.3959341049194336,-0.513127326965332,7.120962619781494
1748138442722486300,10.540486328125,4.251058578491211,0.8174705505371094,8.458406448364258
1748138442732557300,10.550557373046875,10.109834671020508,0.21613121032714844,8.400999069213867
1748138442742628000,10.560628173828125,7.424018383026123,-1.1835651397705078,7.401793003082275
1748138442752729300,10.570729248046876,1.9185326099395752,-1.4959850311279297,5.88218355178833
1748138442762800000,10.580800048828126,-2.8740017414093018,-1.5476675033569336,3.039003610610962
1748138442772871000,10.590870849609376,-6.331022262573242,-1.5481252670288086,1.514081358909607
1748138442782941700,10.600941650390626,-8.481982231140137,-1.4498004913330078,0.4260087311267853
1748138442793012500,10.611012451171876,-9.102204322814941,-1.2164382934570312,-0.190944105386734
1748138442803083300,10.621083251953126,-8.157455444335938,-1.0627813339233398,-0.7051661610603333
1748138442813184500,10.6311845703125,-5.1844940185546875,-1.2887115478515625,-1.0736169815063477
1748138442823255600,10.641255615234375,-1.0287349224090576,-1.6736640930175781,-1.1165822744369507
1748138442833326300,10.651326416015625,3.597114324569702,-2.296422004699707,-1.0385186672210693
1748138442843397000,10.661397216796875,6.971653461456299,-3.0372228622436523,-1.0206851959228516
1748138442853468000,10.671468017578125,8.105286598205566,-3.0746774673461914,-0.37227359414100647
1748138442863538700,10.68153857421875,7.302303314208984,-2.764885902404785,0.7551551461219788
1748138442873640000,10.691639892578126,5.436297416687012,-2.0478315353393555,1.821535348892212
1748138442883710700,10.701710693359376,2.622422218322754,-0.9311342239379883,2.2912967205047607
1748138442893781500,10.711781494140626,0.4077596068382263,-0.18186473846435547,1.893947720527649
1748138442903852300,10.721852294921876,-0.5318344831466675,-0.00977325439453125,0.7551639080047607
1748138442913923000,10.731923095703126,-0.9455094337463379,-0.2939949035644531,-0.5535539388656616
1748138442924024600,10.742024658203125,-1.8147066831588745,-0.27588558197021484,-1.3349182605743408
1748138442934095400,10.752095458984375,-3.9119715690612793,1.638300895690918,-1.7147196531295776
1748138442944166100,10.762166259765625,-3.4639790058135986,1.3176441192626953,-1.8491764068603516
1748138442954237000,10.77223681640625,-4.472868919372559,1.486842155456543,-1.0737874507904053
1748138442964307700,10.7823076171875,-5.001842021942139,1.4758033752441406,-0.296869695186615
1748138442974378500,10.79237841796875,-4.979477405548096,1.8638286590576172,0.6514902114868164
1748138442984479700,10.802479736328126,-4.6119489669799805,2.318659782409668,1.8366880416870117
1748138442994550500,10.812550537109376,-2.7643680572509766,3.0686655044555664,1.8668184280395508
1748138443004621300,10.822621337890626,-0.9715521335601807,3.0424699783325195,3.387705087661743
1748138443014692000,10.832692138671876,-0.15420043468475342,1.8263025283813477,2.4202346801757812
1748138443024763000,10.842762939453126,-0.2687032222747803,0.014298439025878906,0.6565361618995667
1748138443034834000,10.852833984375,-1.101078987121582,-1.362879753112793,-0.5007889866828918
1748138443044935200,10.86293505859375,-1.7407069206237793,-1.761545181274414,-0.5602908730506897
1748138443055006000,10.873005859375,-2.2932095527648926,-1.5698795318603516,-0.13105911016464233
1748138443065076700,10.88307666015625,-2.762871742248535,-1.1317548751831055,0.5273162126541138
1748138443075147500,10.8931474609375,-2.9863693714141846,-1.0505781173706055,0.8795053362846375
1748138443085218300,10.90321826171875,-2.5696334838867188,-1.0403079986572266,1.12339186668396
1748138443095319600,10.913319580078126,-1.7494624853134155,-1.9100828170776367,0.7285518646240234
1748138443105390300,10.923390380859376,-1.5191081762313843,-3.4573593139648438,-0.08928275108337402
1748138443115461000,10.933461181640626,-2.074624538421631,-4.611076354980469,-0.8409385681152344
1748138443125532200,10.9435322265625,-2.6713874340057373,-4.359074592590332,-1.0161712169647217
1748138443135603000,10.95360302734375,-2.343283176422119,-3.5311527252197266,-1.1029775142669678
1748138443145673700,10.963673828125,-1.9161728620529175,-2.7423830032348633,-1.3235399723052979
1748138443155775000,10.97377490234375,-1.2276583909988403,-2.4979915618896484,-1.4223295450210571
1748138443165845800,10.983845703125,-1.2603206634521484,-2.589118003845215,-1.3000411987304688
1748138443175916500,10.99391650390625,-2.557591676712036,-2.4860610961914062,-0.6099989414215088
1748138443185987300,11.0039873046875,-4.4377336502075195,-2.4232711791992188,0.40843188762664795
1748138443196058000,11.01405810546875,-5.873395919799805,-2.7146244049072266,0.978018045425415
1748138443206129000,11.02412890625,-6.837309837341309,-2.2189579010009766,1.6213715076446533
1748138443216230400,11.03423046875,-7.074672698974609,-2.504521369934082,1.6912604570388794
1748138443226301200,11.04430126953125,-7.049111366271973,-3.476877212524414,1.966747760772705
1748138443236372000,11.0543720703125,-6.4025187492370605,-4.605478286743164,2.729635238647461
1748138443246442800,11.06444287109375,-5.29179048538208,-5.341761589050293,3.0336532592773438
1748138443256513500,11.074513427734376,-3.8928675651550293,-5.671391487121582,2.0846009254455566
1748138443266614800,11.08461474609375,-3.08174467086792,-5.1831207275390625,0.4669837951660156
1748138443276685600,11.094685546875,-3.9156951904296875,-4.200273513793945,0.27758169174194336
1748138443286756400,11.10475634765625,-3.0485501289367676,-3.4752073287963867,1.2983214855194092
1748138443296827100,11.1148271484375,-3.2667324542999268,-2.475351333618164,2.826521158218384
1748138443306898000,11.12489794921875,-3.549391269683838,-1.4036035537719727,4.564966201782227
1748138443316968700,11.13496875,-3.670456886291504,-0.7600526809692383,4.631292343139648
1748138443327070200,11.1450703125,-3.1385140419006348,-0.39877891540527344,5.867392539978027
1748138443337141000,11.15514111328125,-2.2785816192626953,-0.42063331604003906,5.218419075012207
1748138443347211800,11.165211669921876,-0.5823942422866821,-0.5284318923950195,4.654915809631348
1748138443367353300,11.185353271484376,3.4753243923187256,-1.5944719314575195,2.9791152477264404
1748138443377424100,11.195424072265626,4.868383407592773,-2.340054512023926,1.9659018516540527
1748138443387525400,11.205525390625,5.8762969970703125,-3.1132373809814453,0.8266983032226562
1748138443397596200,11.21559619140625,6.85516357421875,-3.633451461791992,-0.32560038566589355
1748138443407667000,11.2256669921875,10.180957794189453,-4.400940895080566,-1.3678436279296875
1748138443417737700,11.23573779296875,12.593961715698242,-5.239428520202637,-2.6829118728637695
1748138443427808800,11.245808837890625,12.011739730834961,-5.417257308959961,-3.947957992553711
1748138443437910000,11.255909912109376,8.992939949035645,-5.081282615661621,-5.10390043258667
1748138443447980800,11.265980712890626,5.008156776428223,-4.36594295501709,-5.773342609405518
1748138443458051600,11.276051513671876,1.3286473751068115,-3.08135986328125,-5.503238201141357
1748138443468122400,11.286122314453126,-2.373964786529541,-0.7481288909912109,-4.590987205505371
1748138443478193200,11.296193115234376,-2.309028148651123,0.6301774978637695,-2.899592876434326
1748138443488264000,11.306263916015626,-0.8932547569274902,1.9178190231323242,-1.515970230102539
1748138443498365200,11.316365234375,0.6586601734161377,2.9931297302246094,-0.34871864318847656
1748138443508436000,11.32643603515625,2.5656299591064453,3.5856409072875977,0.5554999113082886
1748138443518507000,11.336507080078125,3.9377994537353516,3.6167593002319336,1.1747558116912842
1748138443528577800,11.346577880859375,4.646020412445068,3.0673084259033203,1.2401100397109985
1748138443538648600,11.356648681640625,4.867396831512451,2.9370689392089844,1.2117863893508911
1748138443548719400,11.36671923828125,4.873856544494629,3.4106760025024414,1.3987276554107666
1748138443558820600,11.376820556640626,4.6704630851745605,3.496248245239258,1.255614161491394
1748138443568891400,11.386891357421876,4.23900842666626,3.559157371520996,1.0423574447631836
1748138443578962200,11.396962158203126,4.230711460113525,3.7321853637695312,0.8004482984542847
1748138443589033000,11.407032958984376,4.704883098602295,3.853123664855957,0.6437819004058838
1748138443599103700,11.417103759765626,5.569758415222168,3.9487695693969727,0.6479827165603638
1748138443609205200,11.427205322265625,6.313738822937012,3.6844682693481445,0.47004759311676025
1748138443619276000,11.437276123046875,6.158621788024902,3.21956729888916,0.08908402919769287
1748138443629346800,11.447346923828125,5.415961742401123,3.046215057373047,0.0442197322845459
1748138443639417600,11.45741748046875,4.4928812980651855,3.356386184692383,0.2112891674041748
1748138443649488400,11.46748828125,4.203860282897949,3.752945899963379,0.15627169609069824
1748138443659559200,11.47755908203125,4.465581893920898,4.045733451843262,-0.10382497310638428
1748138443669660400,11.487660400390626,4.347317695617676,4.116639137268066,-0.6000474691390991
1748138443679731200,11.497731201171876,3.143728733062744,3.901597023010254,-1.1602989435195923
1748138443689802000,11.507802001953126,1.6733930110931396,3.3848648071289062,-1.700711727142334
1748138443699872800,11.517872802734376,0.5164012908935547,2.571713447570801,-2.21811580657959
1748138443709943600,11.527943603515626,-0.6057517528533936,0.958770751953125,-2.877462387084961
1748138443720014600,11.5380146484375,-4.903125762939453,-3.008816719055176,-2.2586379051208496
1748138443730115800,11.54811572265625,-22.887737274169922,-6.445183753967285,1.6235408782958984
1748138443740186600,11.5581865234375,-25.36377716064453,-4.48931884765625,2.560559034347534
1748138443750257400,11.56825732421875,-19.698318481445312,-2.2184228897094727,2.0718390941619873
1748138443760328200,11.578328125,-14.416888236999512,-1.234619140625,1.9171431064605713
1748138443770399000,11.58839892578125,-9.827195167541504,-1.185816764831543,2.535081386566162
1748138443780500200,11.598500244140626,-5.4154815673828125,-2.239901542663574,3.1835103034973145
1748138443790571000,11.608571044921876,-1.5671265125274658,-3.864368438720703,2.4356632232666016
1748138443800641800,11.618641845703126,0.8616840839385986,-4.514824867248535,0.8470155000686646
1748138443810712800,11.628712890625,2.531229019165039,-3.8010129928588867,-0.5743558406829834
1748138443820783600,11.63878369140625,4.119219779968262,-2.781529426574707,-1.4314945936203003
1748138443830854400,11.6488544921875,5.0250244140625,-2.211491584777832,-1.8295915126800537
1748138443840955600,11.65895556640625,4.316848278045654,-2.8661556243896484,-2.2668285369873047
1748138443851026400,11.6690263671875,3.19828724861145,-3.6908273696899414,-2.3949034214019775
1748138443861097200,11.67909716796875,2.72397518157959,-4.280119895935059,-2.1965603828430176
1748138443871168000,11.68916796875,2.3181545734405518,-4.561132431030273,-2.4263968467712402
1748138443881238800,11.69923876953125,2.31982684135437,-3.8934803009033203,-2.405535936355591
1748138443891309600,11.7093095703125,3.1686084270477295,-2.289865493774414,-2.126156806945801
1748138443901411000,11.7194111328125,3.375603199005127,-0.2939310073852539,-2.139241933822632
1748138443911481900,11.72948193359375,5.183871269226074,1.09063720703125,-1.8160972595214844
1748138443921552600,11.739552734375,7.170001983642578,0.7584514617919922,-1.5196292400360107
1748138443931623400,11.74962353515625,8.936161994934082,-0.2210988998413086,-0.6770064830780029
1748138443941694200,11.759694091796876,10.934065818786621,-0.5609779357910156,0.721759557723999
1748138443951795500,11.76979541015625,12.253174781799316,-0.582794189453125,2.0882201194763184
1748138443961866200,11.7798662109375,11.608126640319824,-0.9452943801879883,2.2980868816375732
1748138443971937000,11.78993701171875,10.096357345581055,-1.592691421508789,1.4015929698944092
1748138443982007800,11.8000078125,8.732332229614258,-2.0097904205322266,0.21335911750793457
1748138443992078600,11.81007861328125,7.502809047698975,-2.0403575897216797,-0.7272522449493408
1748138444002149400,11.8201494140625,6.287339210510254,-1.9491891860961914,-1.6787251234054565
1748138444012251000,11.8302509765625,4.674575328826904,-1.9379682540893555,-2.506141185760498
1748138444022321700,11.84032177734375,2.6773934364318848,-2.0920000076293945,-2.9902586936950684
1748138444032392400,11.850392333984376,0.4455909729003906,-2.1089935302734375,-3.169912815093994
1748138444052534000,11.870533935546876,-4.0665082931518555,-0.9886398315429688,-1.5727674961090088
1748138444062604800,11.880604736328126,-4.015845775604248,-1.7523651123046875,-1.290099024772644
1748138444072706000,11.8907060546875,-4.1836256980896,-2.3859329223632812,-0.923279881477356
1748138444082776800,11.90077685546875,-4.447803020477295,-2.217278480529785,-0.04489099979400635
1748138444092847600,11.91084765625,-4.325996398925781,-1.340815544128418,1.2556557655334473
1748138444102918400,11.92091845703125,-4.03034782409668,-0.223297119140625,2.360950231552124
1748138444112989400,11.930989501953125,-3.8949689865112305,0.7943592071533203,2.9968132972717285
1748138444123090700,11.941090576171876,-3.3762195110321045,1.6007823944091797,3.27653431892395
1748138444133161500,11.951161376953126,-1.9938910007476807,1.8937797546386719,3.1310501098632812
1748138444143232300,11.961232177734376,-0.28607606887817383,1.603764533996582,2.66202712059021
1748138444153303000,11.971302978515626,1.1333485841751099,1.0675325393676758,2.0685975551605225
1748138444163373800,11.981373779296876,2.3141651153564453,0.521306037902832,1.6643505096435547
1748138444173444600,11.991444580078126,3.2486119270324707,0.06352424621582031,1.4984521865844727
1748138444183545900,12.0015458984375,3.655616283416748,-0.3014211654663086,1.4562900066375732
1748138444193616600,12.01161669921875,3.266648054122925,-0.5200510025024414,1.6061224937438965
1748138444203687700,12.021687744140625,2.1440236568450928,-0.4658927917480469,2.034327268600464
1748138444213758500,12.031758544921875,0.7639985084533691,-0.2431049346923828,2.631639242172241
1748138444223829200,12.041829345703125,-0.6372581720352173,-0.09895038604736328,3.1861464977264404
1748138444233900000,12.051900146484375,-2.0125670433044434,-0.14056110382080078,3.5725529193878174
1748138444244001300,12.062001220703126,-3.3944270610809326,-0.20884227752685547,3.870117664337158
1748138444254072000,12.072072021484376,-4.6413254737854,-0.18261432647705078,3.9919848442077637
1748138444264142800,12.082142822265626,-5.645966529846191,-0.15140056610107422,3.8610565662384033
1748138444274213600,12.092213623046876,-6.655850410461426,-0.04230785369873047,3.5803191661834717
1748138444284284400,12.102284423828126,-7.670300483703613,0.27454566955566406,3.171401262283325
1748138444294386000,12.112385986328125,-7.446720123291016,0.7081098556518555,2.68473219871521
1748138444304456700,12.122456787109375,-6.427313804626465,0.8493776321411133,2.019390821456909
1748138444314527500,12.132527587890625,-5.049365997314453,0.7268743515014648,1.2437889575958252
1748138444324598300,12.142598388671875,-3.586209774017334,0.3399801254272461,0.4669935703277588
1748138444334669000,12.1526689453125,-2.044304132461548,-0.19058799743652344,-0.1613144874572754
1748138444344739800,12.16273974609375,-0.9745659828186035,-0.8044166564941406,-0.3385171890258789
1748138444354841000,12.172841064453126,-0.6497659683227539,-1.4488115310668945,-0.0989072322845459
1748138444364911900,12.182911865234376,-0.9292306900024414,-1.8292341232299805,0.16802167892456055
1748138444374982700,12.192982666015626,-0.9694905281066895,-2.226820945739746,0.3519108295440674
1748138444385053400,12.203053466796876,-0.5367703437805176,-2.8991689682006836,0.4463498592376709
1748138444395124200,12.213124267578126,-0.08384537696838379,-3.7666149139404297,0.5186333656311035
1748138444405195000,12.223195068359376,0.17043566703796387,-4.6390533447265625,0.5293819904327393
1748138444415296500,12.233296630859375,0.2914447784423828,-5.419793128967285,0.4080076217651367
1748138444425367300,12.2433671875,-0.11428093910217285,-5.850152969360352,0.1577615737915039
1748138444445508900,12.2635087890625,-2.113694429397583,-5.837368011474609,-0.022002220153808594
1748138444455579600,12.27357958984375,-3.041825294494629,-6.574167251586914,0.24677038192749023
1748138444465681000,12.283680908203126,-3.128101348876953,-6.979372024536133,0.7603654861450195
1748138444475751700,12.293751708984376,-3.3846287727355957,-6.239119529724121,1.3380279541015625
1748138444485822500,12.303822509765626,-5.758556365966797,-4.711343765258789,1.864734411239624
1748138444495893200,12.313893310546876,-10.89525318145752,-3.0616207122802734,2.2667269706726074
1748138444505964300,12.32396435546875,-15.259543418884277,-1.507974624633789,2.5151028633117676
1748138444516035000,12.33403515625,-14.853014945983887,-0.4659271240234375,2.417980432510376
1748138444526136300,12.34413623046875,-10.114299774169922,-0.4518594741821289,2.0684821605682373
1748138444536207000,12.35420703125,-4.31646728515625,-1.0800418853759766,1.9481911659240723
1748138444546278000,12.36427783203125,0.6517564654350281,-2.0766115188598633,1.7664926052093506
1748138444556348700,12.3743486328125,3.8759822845458984,-3.1027355194091797,1.7064995765686035
1748138444566419500,12.38441943359375,5.821506977081299,-3.980501174926758,1.919330358505249
1748138444576490200,12.394490234375,6.653301239013672,-4.322515487670898,2.010831832885742
1748138444586591500,12.404591552734376,6.962196350097656,-4.0406036376953125,2.1021454334259033
1748138444596662500,12.41466259765625,6.553450584411621,-3.2965497970581055,2.0272369384765625
1748138444606733300,12.4247333984375,6.26508092880249,-2.4856128692626953,1.7306320667266846
1748138444616804000,12.43480419921875,5.554208278656006,-1.7785511016845703,1.4632682800292969
1748138444626875000,12.444875,4.370107173919678,-1.6937227249145508,1.3324298858642578
1748138444636976000,12.45497607421875,3.3994643688201904,-2.2221946716308594,1.0598506927490234
1748138444647047000,12.465046875,2.4609479904174805,-2.756484031677246,0.48687267303466797
1748138444657117700,12.47511767578125,1.6474039554595947,-2.8923940658569336,-0.016293048858642578
1748138444667188500,12.4851884765625,0.9966597557067871,-2.4567995071411133,-0.18968641757965088
1748138444677259300,12.49525927734375,0.6827278137207031,-1.8374967575073242,-0.04177522659301758
1748138444697431600,12.515431640625,1.5706915855407715,-0.7886114120483398,0.5543144941329956
1748138444707502300,12.52550244140625,2.37876558303833,-0.4732341766357422,0.5887112617492676
1748138444717573000,12.535572998046876,3.0440101623535156,-0.21730899810791016,0.22400367259979248
1748138444727644000,12.545643798828126,3.23164701461792,0.046054840087890625,-0.7496996521949768
1748138444737714700,12.555714599609376,3.546614170074463,0.09469795227050781,-1.669123649597168
1748138444747785500,12.565785400390626,3.789736747741699,-0.12621307373046875,-2.474437713623047
1748138444757886700,12.57588671875,4.107638835906982,-0.29171085357666016,-2.606527805328369
1748138444767957500,12.58595751953125,4.366269111633301,-0.044770240783691406,-1.963082194328308
1748138444778028300,12.5960283203125,5.728919982910156,1.0494813919067383,-0.9995403289794922
1748138444788099000,12.60609912109375,7.86374044418335,2.1211185455322266,-0.28053778409957886
1748138444798169900,12.616169921875,9.0162353515625,3.010713577270508,0.1693035364151001
1748138444808271400,12.626271240234376,9.368631362915039,3.577016830444336,0.26645052433013916
1748138444818342100,12.636342041015626,9.62496566772461,3.9325876235961914,-0.11779984831809998
1748138444828413000,12.646412841796876,9.060688018798828,3.954366683959961,-0.9815812110900879
1748138444838483700,12.656483642578126,8.248138427734375,3.807572364807129,-1.930448293685913
1748138444848554500,12.666554443359376,7.286632061004639,3.757570266723633,-2.688084602355957
1748138444858625300,12.676625244140626,5.976407051086426,3.8015127182006836,-3.243626356124878
1748138444868726500,12.6867265625,4.674004077911377,3.895364761352539,-3.413072347640991
1748138444878797300,12.69679736328125,3.6838958263397217,3.8637876510620117,-3.3893680572509766
1748138444888868400,12.706868408203125,3.025282144546509,3.6575164794921875,-3.355666160583496
1748138444898939100,12.716939208984375,2.5525755882263184,3.2921600341796875,-3.1708946228027344
1748138444909010000,12.727010009765625,3.379535436630249,2.4127588272094727,-2.4802165031433105
1748138444919080700,12.737080810546875,2.733938217163086,1.303375244140625,-2.505836248397827
1748138444929182000,12.747181884765626,1.2077326774597168,0.2803030014038086,-2.6046178340911865
1748138444939252700,12.757252685546876,-0.8618636131286621,-0.553065299987793,-2.186264991760254
1748138444949323500,12.767323486328126,-3.690950870513916,-1.0538444519042969,-1.6405315399169922
1748138444959394300,12.777394287109376,-12.025959968566895,-1.3831520080566406,1.7196263074874878
1748138444969465000,12.787465087890626,-19.168476104736328,-2.2944889068603516,1.7322003841400146
1748138444979566600,12.797566650390625,-15.674726486206055,-3.7926416397094727,6.4080071449279785
1748138444989637400,12.807637451171875,-11.878164291381836,-2.8741331100463867,7.5308074951171875
1748138444999708200,12.817708251953125,-12.039430618286133,-2.1995792388916016,7.36107063293457
1748138445009779000,12.827779052734375,-13.836859703063965,-3.18359375,6.872635841369629
1748138445019849700,12.837849609375,-6.7323102951049805,-4.331611633300781,7.222388744354248
1748138445029920500,12.84792041015625,-0.34711265563964844,-4.076899528503418,7.218780517578125
1748138445040021800,12.858021728515626,3.3883209228515625,-3.4837779998779297,2.361976385116577
1748138445050092500,12.868092529296876,4.1595988273620605,-3.344705581665039,-0.2774561047554016
1748138445060163300,12.878163330078126,4.095940589904785,-4.426529884338379,-1.1447784900665283
1748138445070234000,12.888234130859376,2.071319103240967,-5.850985527038574,-1.030053973197937
1748138445080305000,12.898304931640626,-1.7342770099639893,-6.130014419555664,-0.5817295908927917
1748138445090375700,12.908375732421876,-2.8751792907714844,-4.727682113647461,-0.15204891562461853
1748138445100477200,12.918477294921875,-2.970003843307495,-3.966785430908203,0.25838688015937805
1748138445110548000,12.9285478515625,-1.6938323974609375,-3.3593978881835938,-1.215806007385254
1748138445120618800,12.93861865234375,3.0972402095794678,-1.9641752243041992,-4.080973148345947
1748138445130689500,12.948689453125,6.271726608276367,-1.165684700012207,-5.8859405517578125
1748138445140760300,12.95876025390625,7.917342185974121,0.12460899353027344,-5.540307521820068
1748138445150861600,12.968861572265626,8.58304500579834,1.0789117813110352,-4.4091081619262695
1748138445160932400,12.978932373046876,9.41867446899414,1.4490013122558594,-3.2530159950256348
1748138445171003100,12.989003173828126,9.688959121704102,1.4119386672973633,-2.1632134914398193
1748138445181074000,12.999073974609376,9.08152961730957,1.5105342864990234,-0.2778014838695526
1748138445191145000,13.00914501953125,8.027105331420898,1.4001998901367188,2.000032663345337
1748138445201215700,13.0192158203125,7.3353986740112305,1.118546485900879,2.055210590362549
1748138445211317000,13.02931689453125,7.022678852081299,0.7960910797119141,3.0559778213500977
1748138445221387800,13.0393876953125,6.138979911804199,0.2607460021972656,1.2160693407058716
1748138445231458600,13.04945849609375,5.538091659545898,-0.18407535552978516,-0.5802549123764038
1748138445241529300,13.059529296875,4.935904502868652,-0.7698297500610352,-1.8586297035217285
1748138445251600100,13.06960009765625,4.36751651763916,-1.3621759414672852,-2.992379903793335
1748138445261671000,13.0796708984375,4.9477386474609375,-2.103896141052246,-3.8295605182647705
1748138445271772200,13.089772216796876,6.27603006362915,-3.0773115158081055,-4.632413864135742
1748138445281843200,13.09984326171875,3.194392204284668,-3.3407535552978516,-5.358310699462891
1748138445291914000,13.1099140625,-1.886315107345581,-3.803574562072754,-5.516417503356934
1748138445301984800,13.11998486328125,-6.376522541046143,-4.271572113037109,-5.00942325592041
1748138445312055600,13.1300556640625,-8.87849235534668,-4.088962554931641,-3.884922742843628
1748138445322156800,13.14015673828125,-8.985233306884766,-3.5098514556884766,-2.458146333694458
1748138445332227600,13.1502275390625,-6.9663238525390625,-2.3654403686523438,-1.0531582832336426
1748138445342298400,13.16029833984375,-4.130383491516113,-0.8994808197021484,0.7383458614349365
1748138445352369200,13.170369140625,-1.554185390472412,-0.06522750854492188,2.338107109069824
1748138445362440000,13.18043994140625,0.5547663569450378,0.5523853302001953,2.4705028533935547
1748138445372510700,13.1905107421875,1.7678965330123901,0.9728050231933594,3.9554522037506104
1748138445382612200,13.2006123046875,2.748145341873169,1.227461814880371,4.684612274169922
1748138445392683000,13.21068310546875,2.477661371231079,1.3328723907470703,5.520959854125977
1748138445402753800,13.22075390625,1.5313069820404053,1.5421419143676758,6.152955055236816
1748138445412824600,13.230824462890626,1.3053216934204102,1.8956422805786133,6.003568649291992
1748138445422895400,13.240895263671876,1.4653563499450684,2.163267135620117,5.4685163497924805
1748138445432966100,13.250966064453126,1.6221939325332642,2.304049491882324,3.8937714099884033
1748138445443067400,13.2610673828125,1.6285046339035034,2.243830680847168,3.1111021041870117
1748138445453138200,13.27113818359375,1.2902381420135498,2.1784591674804688,2.5043368339538574
1748138445463209000,13.281208984375,0.6170636415481567,1.7782936096191406,2.0252299308776855
