time,seconds_elapsed,z,y,x
1751119823776097000,0.198096923828125,-0.06978929787874222,-1.2566654682159424,0.04856235533952713
1751119823786042000,0.2080419921875,0.03894151374697685,-1.332257866859436,-0.016340164467692375
1751119823843985200,0.265985107421875,0.4885250926017761,-0.24036839604377747,1.0787562131881714
1751119823883765500,0.305765625,0.6216897964477539,-0.8444963097572327,0.3692571818828583
1751119823893710600,0.315710693359375,0.5906893014907837,-0.6846070885658264,0.011300674639642239
1751119823913600800,0.335600830078125,0.11239589750766754,1.1795459985733032,-0.16126367449760437
1751119823923545600,0.345545654296875,0.02504473738372326,1.035691499710083,0.03161134570837021
1751119823933490700,0.35549072265625,0.18585027754306793,0.34008920192718506,0.35856732726097107
1751119823943435800,0.365435791015625,0.4459185004234314,-0.1104106456041336,0.7411104440689087
1751119823953380900,0.375380859375,0.6279509663581848,-0.25533416867256165,1.0051491260528564
1751119823963326000,0.385325927734375,0.48104220628738403,-0.4034646153450012,0.9775083065032959
1751119823973271000,0.39527099609375,0.0922379344701767,-0.29473379254341125,0.8134958148002625
1751119823983216000,0.405216064453125,-0.19867807626724243,-0.07528692483901978,0.633448600769043
1751119823993161000,0.415160888671875,-0.35413870215415955,0.023823043331503868,0.41079479455947876
1751119824003106000,0.42510595703125,-0.44790375232696533,0.16538690030574799,0.15943112969398499
1751119824013051100,0.435051025390625,-0.47982051968574524,0.44988900423049927,-0.07498150318861008
1751119824022996200,0.444996337890625,-0.42240089178085327,0.6394043564796448,-0.3061871826648712
1751119824032941300,0.45494140625,-0.3136700689792633,0.6139014959335327,-0.5318952798843384
1751119824042886400,0.464886474609375,-0.20509196817874908,0.5254813432693481,-0.6810947060585022
1751119824052831500,0.47483154296875,-0.11453386396169662,0.5648810267448425,-0.6832326650619507
1751119824062776600,0.484776611328125,-0.08032641559839249,0.6714738607406616,-0.5745018720626831
1751119824072721700,0.4947216796875,-0.16248537600040436,0.7299624681472778,-0.448820024728775
1751119824082666500,0.50466650390625,-0.30084228515625,0.7663078904151917,-0.37857258319854736
1751119824092611600,0.514611572265625,-0.3339807391166687,0.7971556782722473,-0.3614688515663147
1751119824102556700,0.524556640625,-0.2817533016204834,0.760962963104248,-0.3593308925628662
1751119824112501800,0.534501708984375,-0.25289076566696167,0.6374191045761108,-0.33596599102020264
1751119824122446800,0.54444677734375,-0.23166382312774658,0.48608171939849854,-0.2730487287044525
1751119824132392000,0.554391845703125,-0.16248537600040436,0.3306210935115814,-0.1782146841287613
1751119824142337000,0.5643369140625,-0.06337540596723557,0.15484978258609772,-0.07391251623630524
1751119824152281900,0.57428173828125,-0.015423892997205257,-0.041232191026210785,0.028404397889971733
1751119824162227000,0.58422705078125,-0.04306473210453987,-0.1626380831003189,0.12323843687772751
1751119824172172000,0.594172119140625,-0.14110571146011353,-0.21058958768844604,0.18065807223320007
1751119824182117000,0.6041171875,-0.26999449729919434,-0.21914145350456238,0.19455485045909882
1751119824192062200,0.614062255859375,-0.36910444498062134,-0.23196925222873688,0.18279604613780975
1751119824202007300,0.62400732421875,-0.4181249439716339,-0.24250635504722595,0.15836215019226074
1751119824211952400,0.633952392578125,-0.425607830286026,-0.17653486132621765,0.1050657257437706
1751119824221897200,0.643897216796875,-0.3849864900112152,-0.052990999072790146,0.016645587980747223
1751119824231842300,0.65384228515625,-0.3029802441596985,0.016340164467692375,-0.04932591691613197
1751119824241787400,0.663787353515625,-0.2166980654001236,0.0035123717971146107,-0.04306473210453987
1751119824251732500,0.673732421875,-0.15714046359062195,0.022754060104489326,0.014507622458040714
1751119824261677600,0.683677490234375,-0.1378987729549408,0.19211146235466003,0.07101099193096161
1751119824271622700,0.69362255859375,-0.18798823654651642,0.41048935055732727,0.12110047042369843
1751119824281567700,0.703567626953125,-0.31687700748443604,0.5212054252624512,0.19883078336715698
1751119824291512600,0.7135126953125,-0.4074351191520691,0.5563291311264038,0.32878854870796204
1751119824301457700,0.723457763671875,-0.33718767762184143,0.5616740584373474,0.5002838969230652
1751119824311402800,0.73340283203125,-0.1432436853647232,0.5244123935699463,0.6696413159370422
1751119824321347800,0.743347900390625,0.01969982497394085,0.47111594676971436,0.7623373866081238
1751119824331293000,0.75329296875,0.06016845628619194,0.44133713841438293,0.7591304183006287
1751119824341238000,0.763238037109375,0.02504473738372326,0.4083513915538788,0.7441646456718445
1751119824351183000,0.77318310546875,-0.0068720318377017975,0.35291701555252075,0.8017370104789734
1751119824361128000,0.7831279296875,-0.029320668429136276,0.28694549202919006,0.9252808690071106
1751119824371073000,0.793072998046875,-0.04413371533155441,0.20371755957603455,1.0776872634887695
1751119824381018000,0.80301806640625,-0.03558185324072838,0.12171131372451782,1.2288719415664673
1751119824390963200,0.812963134765625,0.004886778071522713,0.0653606578707695,1.333326816558838
1751119824410853400,0.832853271484375,0.2498365342617035,-0.0029015245381742716,1.373795509338379
1751119824420798500,0.842798583984375,0.37765631079673767,0.07589777559041977,1.323706030845642
1751119824430743600,0.85274365234375,0.5054761171340942,0.2591519355773926,1.2534586191177368
1751119824440688400,0.8626884765625,0.6632274389266968,0.47325390577316284,1.2087140083312988
1751119824450633500,0.872633544921875,0.836860716342926,0.6693359017372131,1.2299410104751587
1751119824460578600,0.88257861328125,0.9762866497039795,0.911078691482544,1.3172920942306519
1751119824470523600,0.892523681640625,1.0743275880813599,1.258345365524292,1.4472498893737793
1751119824480468700,0.90246875,1.0764656066894531,1.6323366165161133,1.5581187009811401
1751119824490413800,0.912413818359375,0.8773293495178223,1.8177287578582764,1.5804145336151123
1751119824500359000,0.92235888671875,0.3990359604358673,1.8070389032363892,1.4579397439956665
1751119824510303700,0.9323037109375,-0.25090551376342773,1.965706467628479,1.215127944946289
1751119824520248800,0.942248779296875,-0.7440119385719299,2.3844423294067383,0.9466605186462402
1751119824530194000,0.95219384765625,-0.9049702286720276,2.568612813949585,0.6557445526123047
1751119824540139000,0.962138916015625,-0.8602256774902344,2.1361329555511475,0.3639122545719147
1751119824550084000,0.972083984375,-0.6737645268440247,1.335159420967102,0.11682453751564026
1751119824560029200,0.982029296875,-0.4596625566482544,0.7598940134048462,0.03268032893538475
1751119824569974300,0.991974365234375,-0.37979426980018616,0.48394373059272766,0.19455485045909882
1751119824579919000,1.001919189453125,-0.4703523814678192,0.2411319613456726,0.5642701387405396
1751119824589864200,1.0118642578125,-0.5853443741798401,-0.05726693198084831,1.0350806713104248
1751119824599809300,1.021809326171875,-0.548082709312439,-0.3139754831790924,1.5133740901947021
1751119824609754400,1.03175439453125,-0.3552076816558838,-0.6591041684150696,1.897902488708496
1751119824619699500,1.041699462890625,-0.1560714691877365,-1.4632846117019653,2.0587079524993896
1751119824629644500,1.05164453125,-0.05482354015111923,-2.653215169906616,1.9991503953933716
1751119824639589600,1.061589599609375,0.027182703837752342,-3.636526346206665,1.919282078742981
1751119824649534500,1.071534423828125,0.208298921585083,-4.121233940124512,1.9458539485931396
1751119824659479600,1.0814794921875,0.5108210444450378,-4.214998722076416,2.0055642127990723
1751119824669424600,1.091424560546875,0.8304468393325806,-4.003951072692871,1.9533368349075317
1751119824679369700,1.10136962890625,1.0456178188323975,-3.577885150909424,1.7561858892440796
1751119824689314800,1.111314697265625,1.1712995767593384,-3.1667850017547607,1.5112360715866089
1751119824699260000,1.121260009765625,1.288429617881775,-3.135784387588501,1.2577345371246338
1751119824709205000,1.131205078125,1.3736428022384644,-3.543830394744873,0.9316948056221008
1751119824719149800,1.14114990234375,1.3278292417526245,-3.985931158065796,0.6227588057518005
1751119824729095000,1.151094970703125,1.142589807510376,-4.097716331481934,0.48104220628738403
1751119824739040000,1.1610400390625,0.9135220646858215,-3.8058838844299316,0.4906630516052246
1751119824748985000,1.170985107421875,0.7291989326477051,-3.009033679962158,0.5567872524261475
1751119824758930200,1.18093017578125,0.6227588057518005,-1.9139372110366821,0.6578825116157532
1751119824768875300,1.190875244140625,0.6003101468086243,-1.167176365852356,0.7708892226219177
1751119824778820400,1.2008203125,0.6152759194374084,-0.8359444737434387,0.7878402471542358
1751119824788765200,1.21076513671875,0.6099309921264648,-0.6591041684150696,0.6578825116157532
1751119824798710300,1.220710205078125,0.5853443741798401,-0.4161396920681,0.4193466305732727
1751119824808655400,1.2306552734375,0.6206207871437073,-0.06780404597520828,0.11682453751564026
1751119824818600400,1.240600341796875,0.7621846795082092,0.31031039357185364,-0.2411319613456726
1751119824828545500,1.250545654296875,0.9379559755325317,0.6021426916122437,-0.6650599241256714
1751119824838490600,1.26049072265625,1.0445488691329956,0.728893518447876,-1.154043197631836
1751119824848435700,1.270435791015625,0.998735249042511,0.6064186096191406,-1.6515783071517944
1751119824858380500,1.280380615234375,0.7621846795082092,0.1366770714521408,-2.1127679347991943
1751119824868325600,1.29032568359375,0.548082709312439,-0.6441384553909302,-2.507986068725586
1751119824878270700,1.300270751953125,0.6407787799835205,-1.394106149673462,-2.7732465267181396
1751119824888215800,1.3102158203125,1.1083823442459106,-1.9139372110366821,-2.89892840385437
1751119824898161000,1.320160888671875,1.8307092189788818,-2.175990581512451,-2.9288599491119385
1751119824908106000,1.33010595703125,2.4197187423706055,-1.90645432472229,-2.7785913944244385
1751119824918051000,1.340051025390625,2.2344791889190674,-0.7156075835227966,-2.24807071685791
1751119824927996200,1.34999609375,1.2224581241607666,0.733169436454773,-1.4139586687088013
1751119824937941000,1.35994091796875,0.31596073508262634,0.7481352090835571,-0.9602518677711487
1751119824947886000,1.369885986328125,0.0528382882475853,-0.4214846193790436,-1.0656230449676514
1751119824967776300,1.3897763671875,0.3605526089668274,-0.8625163435935974,-1.1189194917678833
1751119824977721300,1.399721435546875,0.4405735731124878,-0.9200887084007263,-1.165802001953125
1751119824987666400,1.40966650390625,0.534338653087616,-1.207645058631897,-1.2893458604812622
1751119825017501400,1.43950146484375,1.2661336660385132,-1.882020354270935,-0.9761339426040649
1751119825027446500,1.449446533203125,1.353484869003296,-2.4455270767211914,-0.8984035849571228
1751119825067227000,1.489226806640625,1.1286929845809937,-3.607663869857788,-1.401283621788025
1751119825087116800,1.50911669921875,1.2650647163391113,-3.8410074710845947,-1.501309871673584
1751119825126897200,1.548897216796875,1.586675763130188,-2.8204345703125,-0.583053708076477
1751119825136842200,1.55884228515625,1.5132213830947876,-2.0237369537353516,-0.45950984954833984
1751119825166677200,1.58867724609375,1.7241164445877075,-1.012784719467163,-0.08032641559839249
1751119825176622300,1.598622314453125,1.5814836025238037,-1.2268867492675781,0.12216944992542267
1751119825186567400,1.6085673828125,1.3492088317871094,-1.4964231252670288,0.31596073508262634
1751119825196512500,1.618512451171875,1.1541959047317505,-1.7158699035644531,0.42362257838249207
1751119825206457600,1.62845751953125,1.0381349325180054,-1.809635043144226,0.44271156191825867
1751119825216402700,1.638402587890625,1.0274450778961182,-1.761683464050293,0.4172086715698242
1751119825226347800,1.64834765625,1.1766445636749268,-1.616760015487671,0.3746020793914795
1751119825246238000,1.668238037109375,1.7018204927444458,-1.1874871253967285,0.376740038394928
1751119825256183000,1.67818310546875,1.7998614311218262,-1.1992459297180176,0.40758782625198364
1751119825276073200,1.6980732421875,1.2905675172805786,-1.5368916988372803,0.7261446714401245
1751119825305908500,1.727908447265625,0.43736663460731506,-1.5538426637649536,0.33413344621658325
1751119825315853600,1.737853515625,0.6397097706794739,-1.3418787717819214,0.04214845970273018
1751119825325799000,1.747798828125,0.8848122358322144,-1.1960389614105225,-0.1569877415895462
1751119825335744000,1.757743896484375,1.0019421577453613,-1.110825777053833,-0.17302247881889343
1751119825345689000,1.767689208984375,0.9465078115463257,-1.1352596282958984,-0.014202198944985867
1751119825355634200,1.77763427734375,0.7015580534934998,-1.2418525218963623,0.22540263831615448
1751119825365579300,1.787579345703125,0.33718767762184143,-1.2917892932891846,0.45447036623954773
1751119825375524400,1.7975244140625,-0.004734066314995289,-1.2055070400238037,0.6345176100730896
1751119825385469400,1.807469482421875,-0.22524993121623993,-1.053253412246704,0.7175928354263306
1751119825405359600,1.827359619140625,-0.2560977041721344,-0.6473453640937805,0.5216635465621948
1751119825425249800,1.847249755859375,-0.055892523378133774,-0.8338065147399902,0.6270347237586975
1751119825435195000,1.85719482421875,-0.06123743951320648,-1.0042328834533691,0.89764004945755
1751119825445140000,1.867139892578125,-0.237008735537529,-1.2247487306594849,1.1192249059677124
1751119825455085000,1.8770849609375,-0.5448757410049438,-1.2481136322021484,1.1948171854019165
1751119825465030100,1.887030029296875,-0.7153021693229675,-1.103342890739441,1.0967762470245361
1751119825474975200,1.896975341796875,-0.6140542030334473,-0.8582404255867004,0.7826480269432068
1751119825484920600,1.906920654296875,-0.3243598937988281,-0.6036698222160339,0.19989976286888123
1751119825494865700,1.91686572265625,0.04749337583780289,-0.5674771070480347,-0.4424061179161072
1751119825504810500,1.926810546875,0.3574983477592468,-0.7965448498725891,-0.8238802552223206
1751119825514755600,1.936755615234375,0.49585527181625366,-1.2662863731384277,-0.7663078904151917
1751119825524700700,1.94670068359375,0.5022691488265991,-1.7722206115722656,-0.45202696323394775
1751119825534645800,1.956645751953125,0.20081603527069092,-2.1248321533203125,-0.16126367449760437
1751119825554536000,1.976535888671875,-0.7791357040405273,-2.210045337677002,0.27976804971694946
1751119825574425900,1.99642578125,-0.2582356929779053,-1.7137320041656494,-0.15912571549415588
1751119825584371000,2.006370849609375,0.007024743594229221,-1.9927364587783813,-0.19211146235466003
1751119825604261000,2.02626123046875,0.543806791305542,-2.1685078144073486,-0.18676654994487762
1751119825614206200,2.036206298828125,0.5705313682556152,-1.6944903135299683,-0.36039987206459045
1751119825624151300,2.0461513671875,0.5279247164726257,-1.0819631814956665,-0.4563029110431671
1751119825634096400,2.056096435546875,0.4821111857891083,-0.540905237197876,-0.43080002069473267
1751119825644041500,2.06604150390625,0.42453885078430176,-0.1382041871547699,-0.2698417901992798
1751119825653986300,2.075986328125,0.2626643180847168,0.17180079221725464,0.016645587980747223
1751119825663931400,2.085931396484375,-0.013285927474498749,0.4424061179161072,0.2435753494501114
1751119825673876500,2.09587646484375,-0.25502872467041016,0.7108734846115112,0.22647161781787872
1751119825683821600,2.105821533203125,-0.2838912606239319,0.8472451567649841,0.0006108472589403391
1751119825693766700,2.1157666015625,-0.19333316385746002,0.47859883308410645,-0.2593046724796295
1751119825703711700,2.125711669921875,-0.06765133142471313,-0.1904316395521164,-0.28694549202919006
1751119825713656800,2.13565673828125,0.040010496973991394,-1.0318737030029297,-0.0525328628718853
1751119825723601700,2.1456015625,0.045355409383773804,-1.8436896800994873,0.2489202618598938
1751119825733546800,2.155546630859375,0.0261137206107378,-2.146211862564087,0.31916770339012146
1751119825743491800,2.165491943359375,0.11346487700939178,-1.9214200973510742,0.13377554714679718
1751119825753437000,2.17543701171875,0.08261708915233612,-1.8458276987075806,0.10827267915010452
1751119825763382000,2.185382080078125,-0.16034740209579468,-1.9171441793441772,0.32878854870796204
1751119825773327000,2.1953271484375,-0.41705596446990967,-1.874537467956543,0.5599942207336426
1751119825783272200,2.205272216796875,-0.474475622177124,-1.7732895612716675,0.6100836992263794
1751119825793217000,2.215217041015625,-0.37444937229156494,-1.7882553339004517,0.5471664071083069
1751119825803162000,2.225162109375,-0.30404922366142273,-1.9629576206207275,0.5471664071083069
1751119825813107200,2.235107177734375,-0.305118203163147,-2.2665488719940186,0.6653653979301453
1751119825823052300,2.24505224609375,-0.222042977809906,-2.6287810802459717,0.9093988537788391
1751119825832997400,2.254997314453125,-0.0856713280081749,-2.935579299926758,1.210852026939392
1751119825842942500,2.2649423828125,-0.21990501880645752,-2.9983437061309814,1.4632846117019653
1751119825852887600,2.274887451171875,-0.747218906879425,-2.7640838623046875,1.5793455839157104
1751119825862832400,2.284832275390625,-1.3288981914520264,-2.478512763977051,1.521925926208496
1751119825872777500,2.294777587890625,-1.5205515623092651,-2.3474860191345215,1.3673815727233887
1751119825882722600,2.30472265625,-1.288429617881775,-2.412541151046753,1.2320789098739624
1751119825892667600,2.314667724609375,-0.9422318935394287,-2.5562431812286377,1.146865725517273
1751119825902612700,2.32461279296875,-0.6791094541549683,-2.577622652053833,1.0531007051467896
1751119825912557800,2.334557861328125,-0.4712686538696289,-2.3016724586486816,0.9083298444747925
1751119825922503000,2.3445029296875,-0.265718549489975,-1.790393352508545,0.7730271816253662
1751119825932447700,2.35444775390625,-0.021837789565324783,-1.1896250247955322,0.7015580534934998
1751119825942392800,2.364392822265625,0.24128466844558716,-0.4587462842464447,0.5844281315803528
1751119825952338000,2.374337890625,0.4756973087787628,0.5809157490730286,0.31382277607917786
1751119825962283000,2.384282958984375,0.6972821354866028,1.9348586797714233,-0.15591876208782196
1751119825972228000,2.39422802734375,0.8730534315109253,3.3825666904449463,-0.8675557971000671
1751119825982173200,2.404173095703125,0.8687775135040283,4.700316905975342,-1.7207567691802979
1751119825992118300,2.4141181640625,0.6184828281402588,5.692027568817139,-2.4750003814697266
1751119826002063000,2.42406298828125,2.2546372413635254,5.395919322967529,-2.5612826347351074
1751119826021953300,2.443953369140625,4.385119915008545,0.16752485930919647,0.7931851744651794
1751119826031898400,2.4538984375,2.7117037773132324,-0.30756160616874695,0.8561024069786072
1751119826041843500,2.463843505859375,1.1094512939453125,0.44668206572532654,0.5109737515449524
1751119826051788500,2.47378857421875,0.09544488787651062,0.7237012982368469,0.6238277554512024
1751119826061733600,2.483733642578125,-0.36482852697372437,0.1516428291797638,0.9914051294326782
1751119826071678500,2.493678466796875,-0.6129852533340454,-0.9286405444145203,1.5378079414367676
1751119826081623600,2.50362353515625,-0.6855233311653137,-2.502030372619629,2.4455270767211914
1751119826091568600,2.513568603515625,-0.5160132050514221,-4.358700752258301,3.563988447189331
1751119826101513700,2.523513671875,-0.3393256664276123,-6.0418901443481445,4.506678581237793
1751119826111458800,2.533458740234375,-0.21028417348861694,-6.641589641571045,4.662291526794434
1751119826121404000,2.54340380859375,0.46393850445747375,-5.385687351226807,3.592698097229004
1751119826131349000,2.553348876953125,1.4397670030593872,-2.9377171993255615,1.8893505334854126
1751119826141293800,2.5632939453125,2.0000665187835693,-0.719730794429779,0.4853181540966034
1751119826151239000,2.573239013671875,1.882936716079712,0.5946598052978516,-0.409420371055603
1751119826161184000,2.58318408203125,1.2980504035949707,1.22963547706604,-0.8718317747116089
1751119826171129000,2.593129150390625,0.6450546979904175,1.6567704677581787,-0.9953756332397461
1751119826181074200,2.60307421875,0.15927842259407043,1.9753273725509644,-1.0230164527893066
1751119826191019300,2.613019287109375,-0.3211529552936554,1.9337897300720215,-1.1060916185379028
1751119826200964400,2.62296435546875,-0.7067502737045288,1.456565260887146,-1.154043197631836
1751119826210909400,2.632909423828125,-0.9368869662284851,0.5946598052978516,-0.9165763258934021
1751119826220854300,2.642854248046875,-1.1499199867248535,-0.26495498418807983,-0.43614494800567627
1751119826230799400,2.65279931640625,-1.364021897315979,-0.45355409383773804,-0.20600824058055878
1751119826240744400,2.662744384765625,-1.5323103666305542,0.3124483823776245,-0.5245651006698608
1751119826250689500,2.672689453125,-1.6804407835006714,1.274380087852478,-0.9197832345962524
1751119826260634600,2.682634521484375,-1.8082605600357056,1.60561203956604,-0.8791618943214417
1751119826270579700,2.692579833984375,-1.8326945304870605,1.4330476522445679,-0.6288672685623169
1751119826280524800,2.70252490234375,-1.7656539678573608,1.0602781772613525,-0.4946335554122925
1751119826290469600,2.7124697265625,-1.5100144147872925,0.6235223412513733,-0.41476529836654663
1751119826300414700,2.722414794921875,-0.9518527388572693,0.31351736187934875,-0.2486148327589035
1751119826310359800,2.73235986328125,-0.42759308218955994,0.09513945877552032,-0.012064233422279358
1751119826320305000,2.742304931640625,-0.29977330565452576,-0.025197450071573257,0.19776180386543274
1751119826330250000,2.75225,-0.4596625566482544,0.1122431829571724,0.29473379254341125
1751119826340195000,2.762195068359375,-0.6151232123374939,0.47325390577316284,0.23181653022766113
1751119826350140200,2.77214013671875,-0.751494824886322,0.8525900840759277,0.14018943905830383
1751119826360085000,2.7820849609375,-0.7750124335289001,1.0112576484680176,0.1647760421037674
1751119826370030000,2.792030029296875,-0.6491779088973999,1.0772291421890259,0.2435753494501114
1751119826379975200,2.80197509765625,-0.41171106696128845,1.0857809782028198,0.2680092453956604
1751119826389920300,2.811920166015625,-0.197609081864357,1.0208784341812134,0.23502348363399506
1751119826399865300,2.821865234375,-0.16553960740566254,0.9930849075317383,0.16905197501182556
1751119826409810400,2.831810546875,-0.2710634768009186,1.0741748809814453,0.07742489129304886
1751119826419755500,2.841755615234375,-0.40850409865379333,1.1369394063949585,-0.04199574887752533
1751119826429700400,2.851700439453125,-0.5118899941444397,1.0613471269607544,-0.17928366363048553
1751119826439645400,2.8616455078125,-0.5076140761375427,0.8663341403007507,-0.3306210935115814
1751119826449590500,2.871590576171875,-0.45324867963790894,0.5766398310661316,-0.45416492223739624
1751119826469480700,2.891480712890625,-0.37765631079673767,0.05894676223397255,-0.5308262705802917
1751119826479425800,2.90142578125,-0.25289076566696167,0.02901524491608143,-0.5425850749015808
1751119826489371000,2.911370849609375,-0.1560714691877365,0.11636640131473541,-0.5393781065940857
1751119826499315700,2.921315673828125,-0.2092151790857315,0.2441861927509308,-0.5383091568946838
1751119826509260800,2.9312607421875,-0.3701734244823456,0.3038965165615082,-0.5841227173805237
1751119826519206000,2.941205810546875,-0.5395308136940002,0.18035265803337097,-0.6342121958732605
1751119826529151000,2.95115087890625,-0.7014053463935852,-0.16691401600837708,-0.6534538269042969
1751119826539096000,2.961095947265625,-0.8707627654075623,-0.532353401184082,-0.6725428104400635
1751119826549041200,2.971041259765625,-0.9677347540855408,-0.7017107605934143,-0.5980194807052612
1751119826558986200,2.980986328125,-0.9538379907608032,-0.9179506897926331,-0.35291701555252075
1751119826568931300,2.990931396484375,-0.9261971712112427,-0.867861270904541,-0.39353835582733154
1751119826578876400,3.00087646484375,-0.7696675658226013,-0.2510582208633423,-0.8324320912361145
1751119826588821500,3.010821533203125,-0.474475622177124,0.4563029110431671,-1.2339115142822266
1751119826598766600,3.0207666015625,-0.07925742864608765,0.661853015422821,-1.2360494136810303
1751119826608712700,3.030712646484375,0.34787750244140625,0.42423340678215027,-0.8206732869148254
1751119826618657800,3.04065771484375,0.6439857482910156,0.36360684037208557,-0.1963873952627182
1751119826628603000,3.050602783203125,0.8516737818717957,0.488219678401947,0.34696123003959656
1751119826638548000,3.0605478515625,1.3194301128387451,0.6757497787475586,0.6473453640937805
1751119826648493000,3.0704931640625,2.143921136856079,0.778982937335968,0.8603783845901489
1751119826658438100,3.080438232421875,2.909770965576172,0.5766398310661316,1.320499062538147
1751119826668383200,3.09038330078125,3.337974786758423,-0.6122216582298279,2.5434153079986572
1751119826678328300,3.100328369140625,3.766331434249878,-3.117764472961426,4.632513046264648
1751119826688273200,3.110273193359375,3.479691505432129,-4.741243839263916,6.249578475952148
1751119826698218200,3.12021826171875,2.0820729732513428,-3.005826711654663,5.503886699676514
1751119826708163300,3.130163330078125,0.9529217481613159,1.2797249555587769,1.6976972818374634
1751119826718108400,3.1401083984375,0.7983773946762085,2.791266441345215,-1.0272923707962036
1751119826728053500,3.150053466796875,0.994459331035614,1.4330476522445679,-0.9707890152931213
1751119826737998600,3.15999853515625,0.9730796813964844,0.30068957805633545,-0.1175880953669548
1751119826747943700,3.169943603515625,0.6120689511299133,0.004581354558467865,0.3170297145843506
1751119826757888500,3.179888427734375,0.18691925704479218,-0.24678228795528412,0.1626380831003189
1751119826767833600,3.18983349609375,-0.5234960913658142,-0.44393324851989746,-0.41048935055732727
1751119826777778700,3.19977880859375,-1.7230473756790161,-0.358720064163208,-1.0283613204956055
1751119826787723800,3.209723876953125,-2.818143844604492,-0.09239064902067184,-1.5385714769363403
1751119826797668900,3.2196689453125,-3.1057002544403076,0.29320669174194336,-1.8869072198867798
1751119826817559000,3.23955908203125,-1.4364073276519775,0.5201364159584045,-1.8517835140228271
1751119826827504000,3.249504150390625,-0.5267030596733093,0.13453911244869232,-1.392731785774231
1751119826837449000,3.259448974609375,0.12094775587320328,-0.04978405311703682,-0.8962656259536743
1751119826847394000,3.26939404296875,0.564117431640625,0.36574479937553406,-0.6203153729438782
1751119826857339100,3.279339111328125,0.8623636364936829,1.1508362293243408,-0.6843016147613525
1751119826867284200,3.2892841796875,1.2128372192382812,1.6940321922302246,-0.9718579649925232
1751119826877229300,3.299229248046875,1.8200193643569946,1.7366387844085693,-1.271173119544983
1751119826887174400,3.30917431640625,2.7031519412994385,1.5332266092300415,-1.509861707687378
1751119826897119500,3.319119384765625,3.624614953994751,1.398992896080017,-1.735722541809082
1751119826926954500,3.34895458984375,3.676842451095581,-0.058335911482572556,-2.3418357372283936
1751119826936899600,3.358899658203125,3.150597333908081,-0.9817842841148376,-2.334352731704712
1751119826946844700,3.3688447265625,3.0078117847442627,-1.8479657173156738,-1.845369577407837
1751119826956789800,3.378789794921875,3.0504186153411865,-2.2931206226348877,-0.8228112459182739
1751119826966734800,3.38873486328125,2.918322801589966,-2.369934558868408,0.4960079789161682
1751119826976679700,3.3986796875,2.5731940269470215,-2.528602123260498,1.6358489990234375
1751119826986624800,3.408624755859375,2.262120008468628,-2.600987672805786,2.328244209289551
1751119826996569900,3.41856982421875,1.9979286193847656,-2.467975616455078,2.5380704402923584
1751119827006515000,3.428514892578125,1.5793455839157104,-2.102536201477051,1.8649166822433472
1751119827016460000,3.4384599609375,1.5622419118881226,-1.0766183137893677,0.5876350402832031
1751119827026405000,3.448405029296875,2.5933520793914795,0.7939487099647522,-0.2486148327589035
1751119827036350200,3.45835009765625,3.509622812271118,1.95394766330719,-0.9069554805755615
1751119827046295000,3.468294921875,3.6959314346313477,0.4327852725982666,-1.1679399013519287
1751119827056240000,3.478240234375,3.9121713638305664,-1.729614019393921,-0.8408312797546387
1751119827066185200,3.488185302734375,3.934619903564453,-2.2984654903411865,-0.29229041934013367
1751119827076130300,3.49813037109375,3.3859262466430664,-1.8766754865646362,0.19776180386543274
1751119827086075400,3.508075439453125,2.46232533454895,-1.4441956281661987,0.45981526374816895
1751119827096020500,3.5180205078125,1.5526210069656372,-1.1607625484466553,0.45767730474472046
1751119827105965600,3.527965576171875,0.8026533126831055,-0.694227933883667,0.24785128235816956
1751119827115910400,3.537910400390625,0.1453816443681717,0.13560809195041656,-0.11010521650314331
1751119827125855500,3.54785546875,-0.4543176591396332,0.9410101771354675,-0.4563029110431671
1751119827135800600,3.557800537109375,-1.12655508518219,0.6757497787475586,-0.5351021885871887
1751119827145745700,3.56774560546875,-1.797570824623108,0.21975229680538177,-0.6502469182014465
1751119827155690800,3.577690673828125,-1.945701241493225,1.828265905380249,-1.452289342880249
1751119827165635800,3.5876357421875,-1.7635160684585571,4.4190216064453125,-2.3790974617004395
1751119827175581000,3.597580810546875,-1.462062954902649,6.709393501281738,-2.988417387008667
1751119827185525800,3.60752587890625,-1.1030374765396118,8.076011657714844,-3.010866165161133
1751119827205416000,3.627416015625,-0.19440214335918427,8.426485061645508,-1.525896430015564
1751119827215361000,3.637361083984375,0.3637595474720001,7.991867542266846,-0.5883986353874207
1751119827225306000,3.64730615234375,0.9976662993431091,6.911736965179443,0.22647161781787872
1751119827235251200,3.657251220703125,1.445111870765686,4.875019073486328,0.8379297256469727
1751119827245196300,3.6671962890625,1.5164283514022827,2.5846474170684814,1.0040801763534546
1751119827255141400,3.677141357421875,1.3704358339309692,1.0388984680175781,0.6068767309188843
1751119827265086500,3.68708642578125,1.2862915992736816,0.07375980913639069,-0.08246438205242157
1751119827275031600,3.697031494140625,1.3299671411514282,-0.6218425035476685,-0.7566870450973511
1751119827284976600,3.7069765625,1.3342431783676147,-1.0181297063827515,-1.1690089702606201
1751119827294922000,3.716921875,1.1841274499893188,-1.1757283210754395,-1.2116155624389648
1751119827304867000,3.7268671875,0.846328854560852,-1.0275977849960327,-0.9943066239356995
1751119827314812200,3.736812255859375,0.20936790108680725,-0.3032856583595276,-0.5586197972297668
1751119827324757200,3.74675732421875,-0.6044333577156067,0.7481352090835571,0.03588727489113808
1751119827334702300,3.756702392578125,-1.0987615585327148,1.7537424564361572,0.3309265077114105
1751119827344647400,3.7666474609375,-1.0465340614318848,2.276780366897583,0.09651386737823486
1751119827364537600,3.78653759765625,-0.11453386396169662,2.088181257247925,-0.6800256967544556
1751119827374482700,3.796482666015625,0.3883461356163025,0.5083776116371155,-0.5703786015510559
1751119827394372900,3.816372802734375,0.9710944294929504,-2.525395393371582,-1.0880717039108276
1751119827404318000,3.82631787109375,1.2171131372451782,-3.0931777954101562,-1.4736690521240234
1751119827414263000,3.836262939453125,1.197871446609497,-3.700360059738159,-1.4832898378372192
1751119827424208100,3.8462080078125,0.8240329623222351,-4.043350696563721,-1.3021736145019531
1751119827434153200,3.8561533203125,0.4011739492416382,-3.8868210315704346,-1.0315682888031006
1751119827444098300,3.866098388671875,0.03145863488316536,-3.6866159439086914,-0.4030064642429352
1751119827454043600,3.876043701171875,-0.32542887330055237,-3.742966651916504,0.5589252710342407
1751119827463988700,3.88598876953125,-0.569309651851654,-3.78022837638855,1.6156909465789795
1751119827473933800,3.895933837890625,-0.577861487865448,-3.7386906147003174,2.5508980751037598
1751119827483879000,3.90587890625,-0.30191126465797424,-3.7163946628570557,3.1197495460510254
1751119827493824000,3.915823974609375,0.24342262744903564,-3.6577534675598145,3.118680715560913
1751119827503769000,3.92576904296875,0.8495358228683472,-3.5481061935424805,2.632904291152954
1751119827513714200,3.935714111328125,1.308740258216858,-3.3051416873931885,2.0779497623443604
1751119827523659300,3.9456591796875,1.6251591444015503,-2.7555320262908936,1.8276549577713013
1751119827533604400,3.955604248046875,1.8551430702209473,-2.1110880374908447,1.8510198593139648
1751119827543549400,3.965549560546875,1.9137845039367676,-1.6636425256729126,1.9287502765655518
1751119827553494500,3.97549462890625,1.8893505334854126,-1.4570233821868896,2.016101360321045
1751119827563439600,3.985439697265625,1.8572810888290405,-1.4217469692230225,2.22714900970459
1751119827573384700,3.995384765625,1.6921995878219604,-1.583774209022522,2.7011666297912598
1751119827583329800,4.005329833984375,1.61874520778656,-1.8010830879211426,3.2177906036376953
1751119827593275000,4.01527490234375,1.7444270849227905,-1.5762913227081299,3.5458157062530518
1751119827603220000,4.025219970703125,1.793447494506836,-0.8370134830474854,3.8057310581207275
1751119827613165300,4.035165283203125,1.4183872938156128,1.2775870561599731,3.835662603378296
1751119827623110400,4.0451103515625,0.555565595626831,4.416883945465088,2.687269687652588
1751119827633055500,4.055055419921875,-0.3211529552936554,5.505566120147705,0.8017370104789734
1751119827643000600,4.06500048828125,-0.8069292306900024,3.777784824371338,-0.4372139275074005
1751119827652945700,4.074945556640625,-0.9347490072250366,1.1315945386886597,-0.760962963104248
1751119827662890800,4.084890869140625,-0.8176190853118896,-0.5578562617301941,-0.5723638534545898
1751119827672835800,4.0948359375,-0.5213581323623657,-0.9860602021217346,-0.2145601063966751
1751119827682781000,4.104781005859375,-0.05375456064939499,-0.5525113344192505,0.051769305020570755
1751119827692726000,4.11472607421875,0.6812474131584167,0.601073682308197,-0.004581354558467865
1751119827702671000,4.124671142578125,1.9521151781082153,2.250208616256714,-0.3167243003845215
1751119827712616200,4.1346162109375,2.9981911182403564,2.953293800354004,-0.18569757044315338
1751119827722561300,4.144561279296875,3.0249156951904297,2.1223888397216797,0.520594596862793
1751119827732506400,4.15450634765625,2.0608458518981934,0.13774605095386505,1.2331478595733643
1751119827742451200,4.164451171875,0.6206207871437073,-1.9789924621582031,1.4228159189224243
1751119827752396300,4.174396240234375,-0.24449162185192108,-2.7373592853546143,1.1224318742752075
1751119827762341400,4.18434130859375,0.4127800464630127,-1.5901881456375122,0.4022429287433624
1751119827772286500,4.194286376953125,1.5804145336151123,-0.7805100679397583,-0.17088451981544495
1751119827782231600,4.2042314453125,1.94249427318573,-1.2652174234390259,-0.15271180868148804
1751119827792176600,4.2141767578125,1.7709989547729492,-1.7957382202148438,0.12323843687772751
1751119827802121700,4.224121826171875,1.7987924814224243,-2.146211862564087,0.47050508856773376
1751119827812066600,4.234066650390625,1.991514801979065,-2.682077646255493,0.8124268651008606
1751119827822011600,4.24401171875,2.024500608444214,-3.283914804458618,1.0776872634887695
1751119827831956700,4.253956787109375,1.8071916103363037,-3.375541925430298,1.195886254310608
1751119827841901800,4.26390185546875,1.3481398820877075,-2.7204082012176514,1.0925003290176392
1751119827851847000,4.273846923828125,0.7101099491119385,-1.0851701498031616,0.6824691295623779
1751119827861792000,4.2837919921875,0.029320668429136276,0.8866447806358337,-0.03023693896830082
1751119827871737000,4.293737060546875,-0.5842754244804382,1.957154631614685,-0.7663078904151917
1751119827881682000,4.303681884765625,-1.1158652305603027,2.2352428436279297,-1.3096565008163452
1751119827891627000,4.313626953125,-1.4258701801300049,2.5473856925964355,-1.6984608173370361
1751119827901572000,4.323572021484375,-1.3650909662246704,3.1076853275299072,-2.1213197708129883
1751119827911517200,4.33351708984375,-1.0582928657531738,3.69364070892334,-2.4803452491760254
1751119827921462300,4.343462158203125,-0.7493568658828735,3.928969621658325,-2.3642842769622803
1751119827931407400,4.353407470703125,-0.569309651851654,3.4273111820220947,-1.8070389032363892
1751119827941352400,4.3633525390625,-0.37979426980018616,2.2266910076141357,-1.1764918565750122
1751119827951297300,4.37329736328125,0.1582094430923462,0.9558232426643372,-0.6374191045761108
1751119827961242400,4.383242431640625,0.7814263701438904,-0.21058958768844604,-0.3742966651916504
1751119827971187500,4.3931875,1.1884033679962158,-0.9434536099433899,-0.4243861436843872
1751119827991077600,4.41307763671875,1.7699298858642578,-0.7357655167579651,-0.7866185307502747
1751119828001022700,4.423022705078125,1.9371494054794312,-1.1245697736740112,-1.1071606874465942
1751119828010967800,4.4329677734375,1.9360803365707397,-2.031067132949829,-1.3938007354736328
1751119828020912600,4.44291259765625,2.0671072006225586,-2.9462690353393555,-1.397007703781128
1751119828030857700,4.452857666015625,2.258913278579712,-3.5022928714752197,-1.0112576484680176
1751119828040802800,4.462802734375,2.1481971740722656,-3.7877111434936523,-0.5980194807052612
1751119828050748000,4.472747802734375,1.8146744966506958,-3.744035482406616,-0.5234960913658142
1751119828060693000,4.48269287109375,1.7305302619934082,-3.3425562381744385,-0.7748597264289856
1751119828070638000,4.49263818359375,1.7219784259796143,-2.779965877532959,-1.170077919960022
1751119828080583200,4.502583251953125,1.3779187202453613,-2.6457321643829346,-1.670667290687561
1751119828090528000,4.512528076171875,0.7857022881507874,-3.3712661266326904,-1.981741189956665
1751119828100473000,4.52247314453125,0.13805148005485535,-4.478121280670166,-1.9348586797714233
1751119828110418200,4.532418212890625,-0.3243598937988281,-4.664429664611816,-2.0243477821350098
1751119828120363300,4.54236328125,-0.22845686972141266,-2.768359661102295,-2.571972370147705
1751119828130308400,4.552308349609375,0.08154810965061188,0.2985515892505646,-3.0417139530181885
1751119828140253400,4.56225341796875,-0.06551336497068405,2.883962631225586,-2.7807295322418213
1751119828150198500,4.572198486328125,-0.46607646346092224,4.130396366119385,-1.7879499197006226
1751119828160143600,4.5821435546875,-0.44255882501602173,4.505303859710693,-0.5841227173805237
1751119828170089000,4.5920888671875,-0.12827792763710022,5.050790786743164,0.22005772590637207
1751119828180034000,4.602033935546875,-0.12400199472904205,5.69951057434082,0.455539345741272
1751119828189979100,4.611979248046875,-0.6226060390472412,5.827330112457275,0.40758782625198364
1751119828199924200,4.62192431640625,-1.4854278564453125,5.9433913230896,0.18065807223320007
1751119828209869300,4.631869384765625,-2.4548423290252686,6.36212682723999,-0.23471805453300476
1751119828219814400,4.641814453125,-3.1728932857513428,6.576229095458984,-0.726908266544342
1751119828229759500,4.651759521484375,-3.378443479537964,6.205444812774658,-1.1296093463897705
1751119828239704600,4.66170458984375,-3.135631799697876,5.593986511230469,-1.4299933910369873
1751119828249649700,4.671649658203125,-2.7755372524261475,5.2083892822265625,-1.747481346130371
1751119828259594800,4.6815947265625,-2.412235736846924,4.600138187408447,-1.804900884628296
1751119828269539800,4.691539794921875,-1.935011386871338,3.1279962062835693,-1.3458492755889893
1751119828279485000,4.70148486328125,-1.222305417060852,0.938872218132019,-0.7450809478759766
1751119828289430000,4.711429931640625,-0.5671716928482056,-1.0969289541244507,-0.5383091568946838
1751119828299375000,4.721375,-0.2689255177974701,-2.0790185928344727,-0.7716528177261353
1751119828309320200,4.7313203125,-0.17302247881889343,-2.091846466064453,-1.0251544713974
1751119828319265300,4.741265380859375,-0.10705098509788513,-1.8180341720581055,-1.0176715850830078
1751119828329210600,4.751210693359375,0.030389651656150818,-1.861709713935852,-0.6736118197441101
1751119828339155700,4.76115576171875,0.20936790108680725,-2.028012990951538,-0.1782146841287613
1751119828349100800,4.771100830078125,0.3883461356163025,-1.764890432357788,0.21272756159305573
1751119828359047200,4.781047119140625,0.7036960124969482,-1.1545013189315796,0.5056288242340088
1751119828368991700,4.79099169921875,1.2458230257034302,-0.6036698222160339,0.8507575392723083
1751119828378936000,4.80093603515625,1.7752748727798462,-0.3683409094810486,1.2630794048309326
1751119828388880600,4.810880615234375,1.9797559976577759,-0.5856497883796692,1.692352294921875
1751119828398825200,4.8208251953125,2.3473331928253174,-1.058598279953003,2.013963460922241
1751119828408769800,4.830769775390625,3.497864007949829,-1.4570233821868896,2.122694253921509
1751119828418714400,4.84071435546875,4.548215866088867,-1.8233790397644043,2.3271753787994385
1751119828428659200,4.8506591796875,5.169294834136963,-1.592326045036316,2.4220094680786133
1751119828438604000,4.86060400390625,5.255577087402344,-0.08704573661088943,1.6017942428588867
1751119828448549000,4.870549072265625,4.432002067565918,1.8070389032363892,0.1647760421037674
1751119828458494200,4.880494140625,2.690324068069458,2.6773436069488525,-0.7684458494186401
1751119828468439600,4.890439453125,0.49585527181625366,2.3279387950897217,-0.922837495803833
1751119828478385000,4.900385009765625,-1.466338872909546,1.508792757987976,-0.6597150564193726
1751119828488330200,4.910330322265625,-2.695668935775757,0.8588512539863586,-0.3402419090270996
1751119828498275600,4.920275634765625,-3.049349546432495,0.23471805453300476,-0.021685076877474785
1751119828508221200,4.93022119140625,-2.6306138038635254,-0.6760551929473877,0.21898874640464783
1751119828518166800,4.940166748046875,-1.971204161643982,-1.3259966373443604,0.13377554714679718
1751119828528112000,4.950112060546875,-1.6558542251586914,-1.3292036056518555,-0.08887827396392822
1751119828538057700,4.9600576171875,-1.6121786832809448,-0.8305995464324951,0.012369656935334206
1751119828548003300,4.97000341796875,-1.4907727241516113,-0.11147962510585785,0.45447036623954773
1751119828557948400,4.979948486328125,-1.284153699874878,0.2730487287044525,0.7644753456115723
1751119828567893500,4.9898935546875,-1.1233481168746948,-0.145687073469162,0.7942541241645813
1751119828577838600,4.999838623046875,-1.0114103555679321,-1.0489774942398071,0.7495095729827881
1751119828587783400,5.009783447265625,-0.8431219458580017,-1.8490346670150757,0.6387935280799866
1751119828597728500,5.019728515625,-0.6022953987121582,-2.4369752407073975,0.554649293422699
1751119828607673600,5.029673583984375,-0.3339807391166687,-2.763014793395996,0.6568135023117065
1751119828617618700,5.03961865234375,0.06658235192298889,-2.579760789871216,0.8475505709648132
1751119828627563800,5.049563720703125,0.61313796043396,-1.8723995685577393,0.8987090587615967
1751119828657398800,5.079398681640625,1.4791666269302368,1.2754490375518799,0.6781931519508362
1751119828677289000,5.0992890625,1.5558279752731323,3.231229305267334,1.7955855131149292
1751119828687234000,5.109234130859375,1.5410149097442627,4.176209926605225,2.499739646911621
1751119828697179100,5.11917919921875,1.4461809396743774,4.960232257843018,2.7990548610687256
1751119828707124200,5.129124267578125,1.549414038658142,4.571428298950195,2.410250663757324
1751119828717069300,5.1390693359375,1.9041635990142822,2.4281177520751953,1.877744436264038
1751119828727014100,5.14901416015625,2.0287764072418213,-0.03802524134516716,1.8723995685577393
1751119828736959200,5.158959228515625,1.9148534536361694,-1.2087140083312988,2.1875967979431152
1751119828746904300,5.168904296875,1.9266122579574585,-1.0702043771743774,2.3389341831207275
1751119828756849400,5.178849365234375,2.0981075763702393,-0.5002838969230652,2.277085781097412
1751119828766794500,5.18879443359375,2.2141685485839844,-0.145687073469162,2.1950795650482178
1751119828776739600,5.198739501953125,2.2610511779785156,-0.14248012006282806,2.1886656284332275
1751119828786684700,5.2086845703125,2.2951059341430664,-0.1360662281513214,2.1886656284332275
1751119828796629500,5.21862939453125,2.2876229286193848,0.2623589038848877,2.1802666187286377
1751119828806574600,5.22857470703125,2.2173755168914795,0.9100096821784973,2.2036314010620117
1751119828816519700,5.238519775390625,2.073521137237549,1.4777922630310059,2.2143213748931885
1751119828826464800,5.24846484375,1.878660798072815,1.8145217895507812,2.0929155349731445
1751119828836409900,5.258409912109375,1.644248127937317,1.9252378940582275,1.8968334197998047
1751119828846355000,5.26835498046875,1.3588297367095947,1.958223581314087,1.7189241647720337
1751119828866244900,5.288244873046875,0.8773293495178223,2.4919514656066895,1.1798515319824219
1751119828876190000,5.29818994140625,0.8441908955574036,2.8306663036346436,0.8614473342895508
1751119828886135000,5.308135009765625,0.8506048321723938,2.8244049549102783,0.566408097743988
1751119828896080100,5.318080078125,0.8304468393325806,2.3737523555755615,0.25747212767601013
1751119828925915400,5.347915283203125,0.791047215461731,0.5777087807655334,-1.2542221546173096
1751119828935860500,5.357860595703125,0.6397097706794739,0.4158342778682709,-1.8177287578582764
1751119828945805600,5.3678056640625,0.4127800464630127,0.3465031087398529,-2.2150847911834717
1751119828955750700,5.377750732421875,0.10918894410133362,0.15378080308437347,-2.391925096511841
1751119828965695700,5.38769580078125,-0.2029540091753006,-0.19455485045909882,-2.3994081020355225
1751119828975640800,5.397640869140625,-0.23807771503925323,-0.5929799675941467,-2.3099188804626465
1751119828985586000,5.4075859375,-0.06551336497068405,-1.1874871253967285,-1.9337897300720215
1751119828995531000,5.417531005859375,-0.13362284004688263,-1.7137320041656494,-1.1722159385681152
1751119829005476000,5.42747607421875,-0.3658975064754486,-1.7638214826583862,-0.1985253542661667
1751119829015421200,5.437421142578125,-0.4468347728252411,-1.3780714273452759,0.7899782061576843
1751119829025366300,5.4473662109375,-0.3808632791042328,-0.823116660118103,1.5272709131240845
1751119829035311400,5.457311279296875,-0.2976353168487549,-0.3032856583595276,1.8691926002502441
1751119829045256400,5.46725634765625,-0.20616094768047333,0.012064233422279358,1.8766754865646362
1751119829055201500,5.477201416015625,-0.06016845628619194,-0.03161134570837021,1.634779930114746
1751119829065147000,5.48714697265625,0.10384403169155121,-0.35658207535743713,1.1341906785964966
1751119829075092000,5.497092041015625,0.20402298867702484,-0.8774821162223816,0.5024218559265137
1751119829085037000,5.507037109375,0.26907822489738464,-1.5688084363937378,0.0198525357991457
1751119829094982100,5.516982177734375,0.36162158846855164,-2.242114782333374,-0.10048437118530273
1751119829104927200,5.52692724609375,0.4853181540966034,-2.2729625701904297,-0.029167955741286278
1751119829114872300,5.536872314453125,0.568393349647522,-1.1971079111099243,-0.08780929446220398
1751119829124817400,5.5468173828125,0.5247178077697754,0.7832589149475098,-0.5639647245407104
1751119829134762500,5.556762451171875,0.24021568894386292,2.8073012828826904,-1.4043378829956055
1751119829144707600,5.56670751953125,-0.39888325333595276,3.989748954772949,-2.197981119155884
1751119829154652700,5.576652587890625,-1.284153699874878,3.85872220993042,-2.551661729812622
1751119829164597800,5.58659765625,-2.149113416671753,2.4983654022216797,-2.421704053878784
1751119829174542800,5.59654296875,-2.837232828140259,0.5702258944511414,-2.071230411529541
1751119829184488000,5.606488037109375,-3.4146361351013184,-1.2226108312606812,-1.7687082290649414
1751119829194433000,5.61643310546875,-3.9537088871002197,-2.6713876724243164,-1.5886609554290771
1751119829204378000,5.626378173828125,-4.402223587036133,-3.778243064880371,-1.5119997262954712
1751119829214323200,5.6363232421875,-4.664277076721191,-4.2681427001953125,-1.5790401697158813
1751119829224268500,5.6462685546875,-4.592807769775391,-3.7707600593566895,-1.8059699535369873
1751119829234213600,5.656213623046875,-4.1177215576171875,-2.337865114212036,-2.0637474060058594
1751119829244158700,5.66615869140625,-3.4114291667938232,-0.43324342370033264,-2.1575124263763428
1751119829254103800,5.676103759765625,-2.7201027870178223,1.5257437229156494,-2.062678575515747
1751119829264049000,5.686048828125,-2.2109615802764893,3.251539945602417,-1.8954590559005737
1751119829273994000,5.695993896484375,-1.9605143070220947,4.4851460456848145,-1.6738742589950562
1751119829283939000,5.70593896484375,-1.9574600458145142,5.157230854034424,-1.3713520765304565
1751119829293884200,5.71588427734375,-2.115058660507202,5.260616779327393,-1.0071344375610352
1751119829303829200,5.725829345703125,-2.302588701248169,4.7662882804870605,-0.5500679612159729
1751119829313774300,5.7357744140625,-2.3910088539123535,4.038769245147705,-0.08032641559839249
1751119829323719400,5.745719482421875,-2.3962011337280273,3.1779329776763916,0.24571330845355988
1751119829333664500,5.75566455078125,-2.4346845149993896,1.9102721214294434,0.18493400514125824
1751119829343609600,5.765609619140625,-2.502794027328491,0.16431790590286255,-0.13347013294696808
1751119829353554700,5.7755546875,-2.499587059020996,-1.5240639448165894,-0.3689517378807068
1751119829363499800,5.785499755859375,-2.386733055114746,-2.539292097091675,-0.4766135811805725
1751119829373444900,5.79544482421875,-2.201340913772583,-2.8972485065460205,-0.5457920432090759
1751119829383390200,5.80539013671875,-2.005258798599243,-2.98246169090271,-0.5948125123977661
1751119829393335300,5.815335205078125,-1.821088433265686,-3.048433303833008,-0.5883986353874207
1751119829403280400,5.8252802734375,-1.6708199977874756,-3.109212636947632,-0.5457920432090759
1751119829413225500,5.8352255859375,-1.5845377445220947,-3.1336464881896973,-0.5117372870445251
1751119829423170600,5.845170654296875,-1.546207070350647,-3.156095027923584,-0.4819584786891937
1751119829433115600,5.85511572265625,-1.4406832456588745,-3.250929117202759,-0.43828290700912476
1751119829443060700,5.865060791015625,-1.0998305082321167,-3.5416924953460693,-0.3455868363380432
1751119829453005800,5.875005859375,-0.7482879161834717,-3.5545201301574707,-0.2954973578453064
1751119829462951000,5.884950927734375,-0.48516544699668884,-3.1635780334472656,-0.29229041934013367
1751119829472896000,5.89489599609375,-0.15500248968601227,-2.673525810241699,-0.24647687375545502
1751119829492786200,5.9147861328125,0.6737645268440247,-1.5762913227081299,0.1763821393251419
1751119829502731300,5.924731201171875,0.9486457705497742,-1.1874871253967285,0.6313106417655945
1751119829512676400,5.93467626953125,1.1233481168746948,-0.8806890249252319,1.0436325073242188
1751119829522621400,5.944621337890625,1.2788087129592896,-0.6398624777793884,1.4142640829086304
1751119829532566800,5.95456689453125,1.5399459600448608,-0.4193466305732727,1.7615307569503784
1751119829542511900,5.964511962890625,1.8701088428497314,-0.32878854870796204,2.068328857421875
1751119829552457000,5.97445703125,2.2524993419647217,-0.536629319190979,2.3155691623687744
1751119829562402000,5.984402099609375,2.702082872390747,-0.9871291518211365,2.2899136543273926
1751119829572347100,5.99434716796875,3.0653841495513916,-1.3292036056518555,1.6561596393585205
1751119829582292200,6.004292236328125,2.9354264736175537,-1.4356437921524048,0.6803311109542847
1751119829592237300,6.0142373046875,2.08634877204895,-1.1682454347610474,0.00916270911693573
1751119829602182400,6.024182373046875,0.7750124335289001,-0.3277195692062378,-0.029167955741286278
1751119829612127500,6.03412744140625,-0.6887302994728088,0.6714738607406616,0.3127537965774536
1751119829622072600,6.044072509765625,-1.9808249473571777,1.0538642406463623,0.5780141949653625
1751119829632017700,6.054017578125,-2.6477174758911133,0.7811209559440613,0.5865660905838013
1751119829641962800,6.063962646484375,-2.6306138038635254,0.3689517378807068,0.4853181540966034
1751119829651907800,6.073907958984375,-2.2514302730560303,0.1835595965385437,0.4928010404109955
1751119829661853000,6.08385302734375,-1.8189504146575928,0.21654535830020905,0.5621321797370911
1751119829671798000,6.093798095703125,-1.371504783630371,0.5967977643013,0.4737120568752289
1751119829681743000,6.1037431640625,-0.7855495810508728,1.804900884628296,0.13591352105140686
1751119829691688400,6.1136884765625,-0.08032641559839249,3.387911558151245,-0.25716668367385864
1751119829701633500,6.123633544921875,0.5076140761375427,3.6062893867492676,-0.35826191306114197
1751119829711578600,6.13357861328125,0.5619794726371765,2.0350377559661865,0.06139015033841133
1751119829721523700,6.143523681640625,0.15286453068256378,0.20692451298236847,0.7293516397476196
1751119829731468800,6.15346875,-0.2145601063966751,-0.7603521347045898,1.2384928464889526
1751119829741414000,6.163413818359375,-0.36696648597717285,-0.8593093752861023,1.4142640829086304
1751119829751359000,6.17335888671875,-0.32008397579193115,-0.7464553713798523,1.2395617961883545
1751119829761304000,6.183303955078125,-0.06978929787874222,-1.194969892501831,0.9614735841751099
1751119829771249200,6.193249267578125,0.28602921962738037,-2.0237369537353516,0.7430956959724426
1751119829781194200,6.2031943359375,0.6673506498336792,-2.513636589050293,0.5854970812797546
1751119829791139300,6.213139404296875,1.0668447017669678,-2.366727590560913,0.5418215394020081
1751119829801084400,6.22308447265625,1.4472498893737793,-1.935316801071167,0.7368345260620117
1751119829811029500,6.233029541015625,1.792378544807434,-1.4964231252670288,1.1074661016464233
1751119829820974600,6.242974609375,2.135369300842285,-1.0275977849960327,1.4504568576812744
1751119829830919700,6.252919677734375,2.4740841388702393,-0.5034908652305603,1.679524540901184
1751119829840864500,6.262864501953125,2.748965263366699,-0.007177455350756645,1.8308619260787964
1751119829850809600,6.2728095703125,2.951308488845825,0.4062134325504303,1.9171441793441772
1751119829870699800,6.29269970703125,3.3912713527679443,1.1178505420684814,1.8734685182571411
1751119829880644900,6.302644775390625,3.609649181365967,1.606680989265442,1.7625997066497803
1751119829890590000,6.31258984375,3.705552101135254,2.0722992420196533,1.6176762580871582
1751119829900535000,6.32253515625,3.711966037750244,2.2086710929870605,1.4461809396743774
1751119829910480000,6.33247998046875,3.7556416988372803,1.9849481582641602,1.2481136322021484
1751119829920425000,6.342425048828125,3.887737274169922,1.671736240386963,1.0648595094680786
1751119829930370000,6.3523701171875,4.0080742835998535,1.3638691902160645,0.9520054459571838
1751119829940315100,6.362315185546875,4.072060585021973,1.0527952909469604,0.955212414264679
1751119829950260200,6.37226025390625,4.08473539352417,0.9761339426040649,1.0946383476257324
1751119829960205300,6.382205322265625,4.035715103149414,1.335159420967102,1.327981948852539
1751119829970150400,6.392150390625,3.971881628036499,1.9487555027008057,1.61874520778656
1751119829980095200,6.40209521484375,3.855820655822754,2.5037102699279785,1.9000403881072998
1751119829999985400,6.4219853515625,3.295368194580078,2.524937152862549,2.1738526821136475
1751119830009930500,6.431930419921875,2.889612913131714,1.9188239574432373,2.105590581893921
1751119830019875600,6.44187548828125,2.5070698261260986,1.2285665273666382,1.9319571256637573
1751119830029820700,6.451820556640625,2.164079189300537,0.4871506989002228,1.684869408607483
1751119830039765800,6.461765869140625,1.7624469995498657,-0.41293275356292725,1.4057122468948364
1751119830049710600,6.471710693359375,1.3843326568603516,-1.2939271926879883,1.0436325073242188
1751119830059655700,6.48165576171875,1.2010784149169922,-1.9586817026138306,0.5567872524261475
1751119830069600800,6.491600830078125,1.2372710704803467,-2.3016724586486816,0.00916270911693573
1751119830079545900,6.5015458984375,1.3631056547164917,-2.2410459518432617,-0.5128062963485718
1751119830089491000,6.511490966796875,1.4631319046020508,-2.0002193450927734,-0.844038188457489
1751119830099436000,6.52143603515625,1.5451381206512451,-1.8276549577713013,-0.8855758309364319
1751119830109382000,6.5313818359375,1.663489818572998,-1.6775392293930054,-0.6577298045158386
1751119830119327200,6.5413271484375,1.8142163753509521,-1.2653701305389404,-0.26220619678497314
1751119830129272300,6.551272216796875,1.9634158611297607,-0.46210595965385437,0.21394924819469452
1751119830139217700,6.5612177734375,2.082683801651001,0.5306735634803772,0.7136223316192627
1751119830149162800,6.571162841796875,2.131704330444336,1.4095300436019897,1.188708782196045
1751119830159107600,6.581107666015625,2.0752007961273193,1.896375298500061,1.5040587186813354
1751119830169052700,6.591052734375,1.9304300546646118,1.8291821479797363,1.5220786333084106
1751119830178997800,6.600997802734375,1.5478869676589966,1.1868761777877808,1.1664128303527832
1751119830188942800,6.61094287109375,0.9130639433860779,0.04810422286391258,0.5154023766517639
1751119830198888000,6.620887939453125,0.33352261781692505,-1.2120736837387085,-0.1566823273897171
1751119830208833000,6.6308330078125,-0.024433890357613564,-2.0994820594787598,-0.7159129977226257
1751119830218778000,6.640778076171875,-0.31626617908477783,-2.253873586654663,-1.1633585691452026
1751119830228723000,6.650722900390625,-0.5506787896156311,-1.5668232440948486,-1.4808465242385864
1751119830238668000,6.66066796875,-0.6922426819801331,-0.3417690396308899,-1.644858956336975
1751119830248613000,6.670613037109375,-0.8596147894859314,0.9834640622138977,-1.677844762802124
1751119830258558200,6.68055810546875,-1.126860499382019,1.9134790897369385,-1.5958384275436401
1751119830268503300,6.69050341796875,-1.4773341417312622,2.1733944416046143,-1.4861913919448853
1751119830278448400,6.700448486328125,-1.874690294265747,2.082836389541626,-1.4200671911239624
1751119830288393500,6.7103935546875,-2.2326467037200928,2.0113673210144043,-1.4701566696166992
1751119830298338300,6.72033837890625,-2.5447897911071777,1.9389818906784058,-1.6673076152801514
1751119830308283400,6.730283447265625,-2.765305519104004,1.6385977268218994,-1.9548639059066772
1751119830318228500,6.740228515625,-2.9091601371765137,0.9376505613327026,-2.2434892654418945
1751119830328173600,6.750173583984375,-3.0102553367614746,-0.20432840287685394,-2.380929946899414
1751119830338118700,6.76011865234375,-3.089207410812378,-1.0949437618255615,-2.4640052318573
1751119830348063700,6.770063720703125,-3.0391178131103516,-0.4462239146232605,-2.8305134773254395
1751119830358008800,6.7800087890625,-2.987959384918213,0.7916580438613892,-3.1512084007263184
1751119830367954000,6.789953857421875,-2.985821485519409,1.4339638948440552,-3.052098274230957
1751119830377898800,6.799898681640625,-2.9697866439819336,1.5161229372024536,-2.58021879196167
1751119830387843800,6.80984375,-2.933593988418579,1.601336121559143,-2.1040632724761963
1751119830397789000,6.819788818359375,-2.9325249195098877,1.8985133171081543,-1.851478099822998
1751119830407734000,6.829734130859375,-3.029496908187866,2.212794303894043,-1.7461068630218506
1751119830417679000,6.83967919921875,-3.1573166847229004,2.5440261363983154,-1.6204251050949097
1751119830427624200,6.849624267578125,-3.2159581184387207,3.0021615028381348,-1.33912992477417
1751119830437569300,6.8595693359375,-3.075310468673706,3.4057788848876953,-0.934290885925293
1751119830447514000,6.86951416015625,-2.7088022232055664,2.2894554138183594,-0.24937839806079865
1751119830457459200,6.879459228515625,-2.400935173034668,0.5435013771057129,0.09895725548267365
1751119830467404300,6.889404296875,-2.3497767448425293,0.020463382825255394,-0.4080459773540497
1751119830477349400,6.899349365234375,-2.502183198928833,-0.45355409383773804,-0.8021951913833618
1751119830487294500,6.90929443359375,-2.635347843170166,-1.2227635383605957,-0.8396095633506775
1751119830497239600,6.919239501953125,-2.788670539855957,-1.702125906944275,-1.003622055053711
1751119830507184600,6.9291845703125,-2.9922351837158203,-1.9151588678359985,-1.3573026657104492
1751119830517129700,6.939129638671875,-3.1254000663757324,-2.1622464656829834,-1.650203824043274
1751119830527074800,6.94907470703125,-3.063551664352417,-2.4542315006256104,-1.778023600578308
1751119830537020200,6.959020263671875,-2.7408716678619385,-2.702388286590576,-1.7951273918151855
1751119830546965200,6.96896533203125,-2.230508804321289,-2.8706767559051514,-1.7461068630218506
1751119830556910300,6.978910400390625,-1.6541743278503418,-2.96764874458313,-1.650203824043274
1751119830566855400,6.98885546875,-1.0842539072036743,-2.97406268119812,-1.5298669338226318
1751119830576800500,6.998800537109375,-0.5528167486190796,-2.9665796756744385,-1.4328949451446533
1751119830586745600,7.00874560546875,-0.08933641016483307,-2.9845995903015137,-1.362647533416748
1751119830596690700,7.018690673828125,0.25686126947402954,-2.9196972846984863,-1.2442958354949951
1751119830606635800,7.0286357421875,0.47417017817497253,-2.638401985168457,-1.0344698429107666
1751119830616580900,7.038580810546875,0.5816792845726013,-2.131398916244507,-0.7340856790542603
1751119830626526000,7.04852587890625,0.6233696341514587,-1.5103198289871216,-0.35597124695777893
1751119830636471000,7.058470947265625,0.6392516493797302,-0.8125795722007751,0.07864658534526825
1751119830646416100,7.068416015625,0.681858241558075,-0.12018419802188873,0.5697677731513977
1751119830656361200,7.078361328125,0.7713474035263062,0.2921377122402191,1.1248751878738403
1751119830666306300,7.088306396484375,0.9066500663757324,0.18768282234668732,1.7331264019012451
1751119830676251400,7.09825146484375,1.0909732580184937,-0.5015056133270264,2.3914670944213867
1751119830686196500,7.108196533203125,1.301868200302124,-1.495506763458252,2.9645943641662598
1751119830696141800,7.118141845703125,1.3785295486450195,-1.8885869979858398,2.9922351837158203
1751119830706087000,7.1280869140625,0.9237537384033203,-0.71453857421875,1.8853800296783447
1751119830716032000,7.138031982421875,-0.17241163551807404,1.0952491760253906,0.33443886041641235
1751119830725977000,7.14797705078125,-1.430604338645935,1.847354769706726,-0.3313846290111542
1751119830735922200,7.157922119140625,-2.369018316268921,1.6279079914093018,-0.19501298666000366
1751119830745867300,7.1678671875,-2.647106647491455,1.4223577976226807,-0.08643488585948944
1751119830755812400,7.177812255859375,-2.1804192066192627,1.3317997455596924,-0.1960819661617279
1751119830765757400,7.18775732421875,-1.3805148601531982,1.071884274482727,-0.24403348565101624
1751119830775702500,7.19770263671875,-0.7690566778182983,0.7053758502006531,-0.07681404054164886
1751119830785647600,7.207647705078125,-0.43767204880714417,0.697892963886261,0.19058434665203094
1751119830795592700,7.2175927734375,-0.18844637274742126,1.4979501962661743,0.3417690396308899
1751119830805537800,7.227537841796875,0.05024218559265137,2.6506190299987793,0.2629697322845459
1751119830815483000,7.23748291015625,0.08857285231351852,3.3462212085723877,0.019088976085186005
1751119830825428000,7.247427978515625,-0.26190075278282166,3.011629581451416,-0.02351761981844902
1751119830835373000,7.257373046875,-0.5847335457801819,1.6908252239227295,0.20661908388137817
1751119830845318100,7.267318115234375,-0.3567348122596741,0.6212316751480103,0.33764582872390747
1751119830855263500,7.277263427734375,0.19180603325366974,0.3176405727863312,0.3280249834060669
1751119830865208600,7.28720849609375,0.6499415040016174,0.29534465074539185,0.29916244745254517
1751119830885098800,7.3070986328125,1.1622896194458008,-0.31092125177383423,0.15866757929325104
1751119830895043800,7.3170439453125,1.3359229564666748,-0.8286142945289612,0.1181989461183548
1751119830904989000,7.326989013671875,1.4616048336029053,-1.2865970134735107,0.22570806741714478
1751119830924879000,7.346879150390625,1.524522066116333,-1.3782241344451904,0.7583668828010559
1751119830934824200,7.35682421875,1.479777455329895,-0.9393303990364075,1.0790616273880005
1751119830944769300,7.366769287109375,1.4350329637527466,-0.4034646153450012,1.4614521265029907
1751119830954714400,7.37671435546875,1.4105989933013916,0.14400723576545715,1.858808159828186
1751119830964659500,7.386659423828125,1.4168602228164673,0.7246175408363342,2.1538474559783936
1751119830974604500,7.3966044921875,1.456259846687317,1.2988139390945435,2.311445951461792
1751119830984549600,7.406549560546875,1.5309358835220337,1.7525207996368408,2.4020042419433594
1751119830994494700,7.41649462890625,1.6427209377288818,2.0295400619506836,2.485079288482666
1751119831004440000,7.426440185546875,1.7758857011795044,2.216001033782959,2.5394446849823
1751119831014385200,7.43638525390625,1.9090503454208374,2.3757376670837402,2.5298240184783936
1751119831024330200,7.446330322265625,2.0231261253356934,2.447054147720337,2.458507537841797
1751119831034275300,7.456275390625,2.108339309692383,2.3821516036987305,2.3987972736358643
1751119831044220400,7.466220458984375,2.172172784805298,2.2297451496124268,2.4574384689331055
1751119831054165500,7.47616552734375,2.2147793769836426,2.039160966873169,2.5927412509918213
1751119831064110600,7.486110595703125,2.178586721420288,1.7983343601226807,2.59167218208313
1751119831074055700,7.4960556640625,2.008160352706909,1.5459016561508179,2.340308666229248
1751119831084000800,7.506000732421875,1.7002933025360107,1.3605095148086548,1.890725016593933
1751119831093945900,7.51594580078125,1.3316470384597778,1.1943590641021729,1.321873426437378
1751119831103891000,7.525890869140625,1.0046910047531128,0.9684983491897583,0.7423321604728699
1751119831113836000,7.5358359375,0.7777612805366516,0.6989619731903076,0.28755635023117065
1751119831123781000,7.545781005859375,0.673306405544281,0.4486673176288605,0.06169557198882103
1751119831133726200,7.555726318359375,0.6786513328552246,0.23349636793136597,0.07024743407964706
1751119831143671300,7.56567138671875,0.7394306063652039,0.0716218426823616,0.22677704691886902
1751119831153616400,7.575616455078125,0.7798992395401001,-0.0328330397605896,0.3865135908126831
1751119831163561700,7.585561767578125,0.7479824423789978,-0.11056335270404816,0.4280512034893036
1751119831173506800,7.5955068359375,0.6488724946975708,-0.16706672310829163,0.33230090141296387
1751119831183452000,7.605451904296875,0.5328115224838257,-0.16599774360656738,0.17027367651462555
1751119831193397000,7.61539697265625,0.4506525695323944,-0.07650861889123917,0.03298575058579445
1751119831203342000,7.625342041015625,0.42728766798973083,0.11315945535898209,0.006261184345930815
1751119831213287200,7.635287109375,0.460273414850235,0.3549022674560547,0.14904673397541046
1751119831223232300,7.645232177734375,0.48272204399108887,0.5946598052978516,0.4355340898036957
1751119831233177300,7.65517724609375,0.446529358625412,0.8044858574867249,0.7423321604728699
1751119831243122400,7.665122314453125,0.381474107503891,0.9429954290390015,0.9542961120605469
1751119831253067500,7.675067626953125,0.3239017724990845,1.0335536003112793,1.0480611324310303
1751119831263012600,7.6850126953125,0.2802261710166931,1.1335798501968384,1.0480611324310303
1751119831272957700,7.694957763671875,0.2557922899723053,1.2572764158248901,0.9767447710037231
1751119831282902800,7.70490283203125,0.2536543309688568,1.4052541255950928,0.8574768304824829
1751119831292847900,7.714847900390625,0.2877090573310852,1.5917152166366577,0.7018635272979736
1751119831302793000,7.72479296875,0.3846810758113861,1.783521294593811,0.49417543411254883
1751119831312738000,7.734738037109375,0.5328115224838257,1.871788740158081,0.20555010437965393
1751119831322683400,7.744683349609375,0.6946860551834106,1.7621415853500366,-0.149199441075325
1751119831332628500,7.75462841796875,0.8428165316581726,1.5234531164169312,-0.4549284875392914
1751119831342573600,7.764573486328125,0.9642223715782166,1.378682255744934,-0.5242596864700317
1751119831352518700,7.7745185546875,1.0472975969314575,1.487260341644287,-0.2632751762866974
1751119831362463700,7.784463623046875,1.0143119096755981,1.83132004737854,0.06704048812389374
1751119831372408800,7.794408935546875,0.8043331503868103,2.296938419342041,0.0584886260330677
1751119831382354000,7.80435400390625,0.4559974670410156,2.7294182777404785,-0.3581092059612274
1751119831392299000,7.814299072265625,-0.0030542362947016954,2.883809804916382,-0.9471186995506287
1751119831402244000,7.824244140625,-0.5751127004623413,2.444916248321533,-1.4446537494659424
1751119831412189200,7.834189208984375,-1.2387982606887817,1.3456965684890747,-1.7386239767074585
1751119831422134300,7.84413427734375,-1.9844900369644165,0.13545538485050201,-1.8824785947799683
1751119831432079400,7.854079345703125,-2.812188148498535,-0.4462239146232605,-1.9282920360565186
1751119831442024400,7.8640244140625,-3.6728718280792236,-0.39078953862190247,-1.8994295597076416
1751119831451969500,7.873969482421875,-4.434598445892334,-0.4280512034893036,-1.9229471683502197
1751119831461914600,7.88391455078125,-4.9394636154174805,-0.8040276765823364,-2.099787473678589
1751119831471859700,7.893859619140625,-5.167462348937988,-1.066081166267395,-2.337254285812378
1751119831481804800,7.9038046875,-5.188841819763184,-0.7806627750396729,-2.421398639678955
1751119831491750000,7.91375,-5.0173468589782715,0.09284878522157669,-2.1529312133789062
1751119831501695000,7.923695068359375,-4.601817607879639,1.2252068519592285,-1.521315097808838
1751119831511640000,7.93364013671875,-3.983945846557617,2.2350900173187256,-0.7116370797157288
1751119831521585200,7.943585205078125,-3.282998561859131,2.912672519683838,0.09681928902864456
1751119831531530000,7.953530029296875,-2.628933906555176,3.2269532680511475,0.8328902125358582
1751119831541475000,7.96347509765625,-2.1069648265838623,2.982919931411743,1.4753488302230835
1751119831551420200,7.973420166015625,-1.7202986478805542,1.9518096446990967,1.9397454261779785
1751119831561365200,7.983365234375,-1.42739737033844,0.43263256549835205,2.082530975341797
1751119831571310300,7.993310302734375,-1.2270394563674927,-1.131136417388916,1.874690294265747
1751119831581255400,8.00325537109375,-1.2174185514450073,-2.2208878993988037,1.1737430095672607
1751119831591200500,8.013200439453126,-1.4529001712799072,-2.49363112449646,0.042453885078430176
1751119831611090400,8.03309033203125,-1.9951798915863037,-2.815242290496826,-1.0216420888900757
1751119831621035500,8.043035400390625,-2.1240687370300293,-3.1860265731811523,-1.0621106624603271
1751119831630980600,8.052980712890625,-2.090930223464966,-3.3596599102020264,-1.0451596975326538
1751119831640925700,8.06292578125,-1.8673601150512695,-3.332019090652466,-0.9747595191001892
1751119831650870800,8.072870849609375,-1.5413203239440918,-3.2297022342681885,-0.867250382900238
1751119831660816000,8.08281591796875,-1.2345223426818848,-3.011324167251587,-0.7394306063652039
1751119831670760700,8.0927607421875,-0.9917105436325073,-2.6831464767456055,-0.6253548860549927
1751119831680705800,8.102705810546874,-0.7774558663368225,-2.3998661041259766,-0.594507098197937
1751119831690651000,8.11265087890625,-0.5676298141479492,-2.2347846031188965,-0.6649072170257568
1751119831700596000,8.122595947265625,-0.3727695345878601,-2.1281919479370117,-0.7511894106864929
1751119831710541000,8.132541015625,-0.20753535628318787,-2.0579442977905273,-0.7777612805366516
1751119831720486100,8.142486083984375,-0.06704048812389374,-2.06008243560791,-0.7458444833755493
1751119831730431200,8.15243115234375,0.08215895295143127,-2.045116662979126,-0.6606312990188599
1751119831740376000,8.1623759765625,0.26755109429359436,-1.8650693893432617,-0.5082249045372009
1751119831750321200,8.172321044921874,0.48272204399108887,-1.5039058923721313,-0.27595025300979614
1751119831770211300,8.19221142578125,0.9674293398857117,-0.795628547668457,0.4068242609500885
1751119831780156400,8.202156494140626,1.2378820180892944,-0.8254073858261108,0.848924994468689
1751119831790101500,8.2121015625,1.521315097808838,-1.1769499778747559,1.2152806520462036
1751119831800046600,8.222046630859374,1.8088713884353638,-1.470920205116272,1.2696460485458374
1751119831809991700,8.23199169921875,2.0199191570281982,-1.0810469388961792,0.6337540149688721
1751119831819936800,8.241936767578125,1.9357749223709106,-0.35138988494873047,-0.3155026137828827
1751119831829881900,8.2518818359375,1.3892194032669067,-0.8466343283653259,-0.16523417830467224
1751119831839827000,8.261826904296875,0.3900259733200073,-1.611567735671997,0.8574768304824829
1751119831849772000,8.27177197265625,-0.7498149871826172,-0.9255862832069397,1.4933688640594482
1751119831859717000,8.281717041015625,-1.486954927444458,0.7415685653686523,1.264301061630249
1751119831869662200,8.291662109375,-1.5210096836090088,2.1072702407836914,0.6369609832763672
1751119831879607300,8.301607177734375,-1.0566130876541138,2.711245536804199,0.28755635023117065
1751119831889552400,8.311552490234375,-0.6316160559654236,2.6622250080108643,0.5410579442977905
1751119831899497500,8.32149755859375,-0.45049986243247986,2.030608892440796,1.1024266481399536
1751119831909442800,8.33144287109375,-0.3620797097682953,1.1570974588394165,1.4357964992523193
1751119831919388000,8.341387939453124,-0.22998400032520294,1.0089669227600098,1.2781978845596313
1751119831929333000,8.3513330078125,-0.14049486815929413,1.8591135740280151,0.5868715047836304
1751119831939278000,8.361278076171875,-0.3077143132686615,2.4928677082061768,-0.15988926589488983
1751119831949223200,8.37122314453125,-0.5601469278335571,2.3650479316711426,-0.49646610021591187
1751119831959168300,8.381168212890625,-0.5196782946586609,2.030608892440796,-0.4891359508037567
1751119831969113300,8.39111328125,-0.19592925906181335,1.5831633806228638,-0.07681404054164886
1751119831979058400,8.401058349609375,0.15347537398338318,0.762948215007782,0.6763606071472168
1751119831989003500,8.41100341796875,0.4677563011646271,-0.10201149433851242,1.1067025661468506
1751119831998948600,8.420948486328125,0.8160919547080994,-0.6794148683547974,0.8936695456504822
1751119832008893700,8.430893798828125,1.1389247179031372,-1.070357084274292,0.36849361658096313
1751119832018838800,8.4408388671875,1.3316470384597778,-1.4028106927871704,-0.13117945194244385
1751119832028783900,8.450783935546875,1.3913573026657104,-1.5231475830078125,-0.5390726923942566
1751119832038729000,8.46072900390625,1.3945642709732056,-1.368603229522705,-0.871526300907135
1751119832048674000,8.470674072265625,1.4232741594314575,-1.0459232330322266,-1.052642583847046
1751119832058619100,8.480619140625,1.5138322114944458,-0.5909947156906128,-1.0143119096755981
1751119832068564500,8.490564453125,1.650203824043274,-0.01572931744158268,-0.760657548904419
1751119832078509600,8.500509521484375,1.7769546508789062,0.5722111463546753,-0.33352261781692505
1751119832088454700,8.51045458984375,1.7726787328720093,0.9524635672569275,0.19592925906181335
1751119832098399700,8.520399658203125,1.6054593324661255,0.9567395448684692,0.716829240322113
1751119832108344800,8.5303447265625,1.4275500774383545,0.6351284384727478,1.1493091583251953
1751119832118290000,8.5402900390625,1.3977712392807007,0.12583453953266144,1.478403091430664
1751119832128235000,8.550235107421875,1.5010044574737549,-0.418430358171463,1.702125906944275
1751119832138180000,8.56018017578125,1.6225630044937134,-0.8637380003929138,1.8055118322372437
1751119832148125200,8.570125244140625,1.69387948513031,-1.1694670915603638,1.7990978956222534
1751119832168015400,8.590015380859375,1.7354170083999634,-1.5775130987167358,1.5935478210449219
1751119832177960400,8.59996044921875,1.7364860773086548,-1.6584503650665283,1.495506763458252
1751119832187905500,8.609905517578126,1.7322101593017578,-1.5657542943954468,1.4742798805236816
1751119832197850600,8.6198505859375,1.7354170083999634,-1.3377554416656494,1.5263545513153076
1751119832207795700,8.629795654296874,1.7386239767074585,-1.0416473150253296,1.6243956089019775
1751119832217741000,8.639740966796875,1.7236582040786743,-0.6421532034873962,1.7192295789718628
1751119832227686100,8.64968603515625,1.6799826622009277,-0.13301199674606323,1.72991943359375
1751119832247576300,8.669576416015625,1.5341428518295288,0.9312366247177124,1.3634110689163208
1751119832257521400,8.679521484375,1.4690876007080078,1.4052541255950928,1.0885298252105713
1751119832267466500,8.689466552734375,1.4125843048095703,1.7418309450149536,0.848924994468689
1751119832277411600,8.69941162109375,1.3359229564666748,1.8218519687652588,0.6646018028259277
1751119832287356700,8.709356689453125,1.2198619842529297,1.5863703489303589,0.5335750579833984
1751119832297301800,8.7193017578125,1.067455530166626,1.0941801071166992,0.4494308829307556
1751119832307246800,8.729246826171876,0.9216157793998718,0.5381564497947693,0.3961344361305237
1751119832317192000,8.73919189453125,0.8257128000259399,0.15469707548618317,0.3727695345878601
1751119832327137000,8.749136962890624,0.7831062078475952,0.04810422286391258,0.38544461131095886
1751119832337082000,8.75908203125,0.760657548904419,0.15362808108329773,0.444085955619812
1751119832347027200,8.769027099609374,0.7201889157295227,0.35917818546295166,0.543195903301239
1751119832356972300,8.77897216796875,0.6520794630050659,0.5743491649627686,0.6485670804977417
1751119832366917400,8.78891748046875,0.5679352283477783,0.7394306063652039,0.6975875496864319
1751119832376862700,8.79886279296875,0.4752391576766968,0.833195686340332,0.6571189165115356
1751119832386807800,8.808807861328125,0.38254308700561523,0.9014578461647034,0.5378510355949402
1751119832406698000,8.828697998046875,0.2504473626613617,1.0952491760253906,0.036039989441633224
1751119832416643000,8.83864306640625,0.24510246515274048,1.1038010120391846,-0.342074453830719
1751119832426588200,8.848588134765626,0.29626092314720154,0.9515473246574402,-0.7330167293548584
1751119832436533200,8.858533203125,0.3953709006309509,0.6659762263298035,-1.0462286472320557
1751119832446478300,8.868478271484374,0.5444176197052002,0.37735089659690857,-1.1909993886947632
1751119832456423400,8.87842333984375,0.7362236380577087,0.2611372172832489,-1.052642583847046
1751119832466368500,8.888368408203124,0.8758022785186768,0.40819868445396423,-0.5913001298904419
1751119832476313600,8.898313720703126,0.7820371985435486,0.7608102560043335,-0.05650337040424347
1751119832486258700,8.9082587890625,0.41018393635749817,1.22627592086792,0.15973655879497528
1751119832496203800,8.918203857421876,-0.08292251825332642,1.8079551458358765,-0.03955236077308655
1751119832506148900,8.92814892578125,-0.5996993184089661,2.514247417449951,-0.4294256269931793
1751119832516094000,8.938093994140624,-1.196191668510437,2.898775577545166,-0.7989882230758667
1751119832526039000,8.9480390625,-1.9641793966293335,2.433310031890869,-1.1303728818893433
1751119832535984400,8.957984375,-2.9112980365753174,1.4148749113082886,-1.4744325876235962
1751119832545929500,8.967929443359376,-3.893387794494629,0.7128587365150452,-1.8216992616653442
1751119832555874600,8.97787451171875,-4.711464881896973,0.7075138092041016,-2.149876832962036
1751119832565819600,8.987819580078124,-5.27298641204834,0.9845330715179443,-2.423536539077759
1751119832575764700,8.9977646484375,-5.5935282707214355,1.015380859375,-2.5652530193328857
1751119832585709800,9.007709716796874,-5.677672386169434,0.7873821258544922,-2.493936538696289
1751119832595655000,9.017655029296876,-5.5008320808410645,0.7267554998397827,-2.172172784805298
1751119832605601000,9.02760107421875,-5.054608345031738,1.1421316862106323,-1.6384450197219849
1751119832615545300,9.03754541015625,-4.394129753112793,1.71846604347229,-0.9865183234214783
1751119832625489400,9.047489501953125,-3.6313343048095703,2.1509459018707275,-0.32283276319503784
1751119832635433500,9.05743359375,-2.884573459625244,2.340614080429077,0.23105297982692719
1751119832645377800,9.067377685546875,-2.2550954818725586,2.181793689727783,0.6348230242729187
1751119832655322000,9.077322021484376,-1.7639741897583008,1.6289769411087036,0.9426900148391724
1751119832665266700,9.0872666015625,-1.3473763465881348,0.8130376935005188,1.13968825340271
1751119832675211500,9.09721142578125,-0.9799517393112183,-0.06795676052570343,1.1535850763320923
1751119832685156400,9.10715625,-0.6911736726760864,-0.8393041491508484,0.9863656163215637
1751119832695101200,9.11710107421875,-0.5335750579833984,-1.3931899070739746,0.7029324769973755
1751119832705046300,9.12704638671875,-0.5464028716087341,-1.6925050020217896,0.3449759781360626
1751119832714991600,9.13699169921875,-0.7104153633117676,-1.8320835828781128,0.007330167107284069
1751119832724937200,9.146937255859376,-0.9448279738426208,-1.947075605392456,-0.20677179098129272
1751119832734882800,9.1568828125,-1.163205862045288,-2.112157106399536,-0.2951919436454773
1751119832744828400,9.166828369140624,-1.30476975440979,-2.340155839920044,-0.3239017724990845
1751119832754774300,9.176774169921876,-1.3325632810592651,-2.5638787746429443,-0.34421244263648987
1751119832764719900,9.186719970703125,-1.209019422531128,-2.675816535949707,-0.3643703758716583
1751119832774665700,9.196665771484374,-0.973537802696228,-2.667264461517334,-0.3527642786502838
1751119832784611600,9.206611572265626,-0.7232431769371033,-2.6225199699401855,-0.32069480419158936
1751119832794557000,9.216556884765625,-0.5325061082839966,-2.537306785583496,-0.28129515051841736
1751119832804502000,9.226501953125,-0.41110020875930786,-2.4030730724334717,-0.23334364593029022
1751119832814447000,9.236447021484375,-0.30343836545944214,-2.230508804321289,-0.19287502765655518
1751119832824392200,9.24639208984375,-0.16279079020023346,-2.0525994300842285,-0.16844113171100616
1751119832834337300,9.256337158203126,0.016034740954637527,-1.8468966484069824,-0.12583453953266144
1751119832844282000,9.2662822265625,0.22601348161697388,-1.5636162757873535,-0.0331384651362896
1751119832854227200,9.276227294921876,0.4677563011646271,-1.251473307609558,0.10857810080051422
1751119832864172300,9.28617236328125,0.7362236380577087,-0.9840749502182007,0.3130592107772827
1751119832874117400,9.296117431640624,1.0237799882888794,-0.8008207678794861,0.5793886184692383
1751119832884062500,9.3060625,1.314695954322815,-0.7369872331619263,0.8296833038330078
1751119832894007600,9.316007568359375,1.5532318353652954,-0.7806627750396729,0.9138274788856506
1751119832903952600,9.32595263671875,1.64165198802948,-0.5686988234519958,0.5399889945983887
1751119832913897500,9.3358974609375,1.4478607177734375,-0.004123218823224306,-0.16844113171100616
1751119832923842600,9.345842529296876,0.9695672988891602,-0.16172181069850922,-0.16844113171100616
1751119832933787600,9.35578759765625,0.19928891956806183,-0.6282563805580139,0.5740436911582947
1751119832943732700,9.365732666015624,-0.8073873519897461,-0.02641914412379265,1.0917367935180664
1751119832953677800,9.375677734375,-1.72991943359375,1.306144118309021,0.8127322793006897
1751119832963623000,9.385622802734375,-2.1048269271850586,2.0092294216156006,0.17027367651462555
1751119832973568000,9.395568115234376,-1.7085397243499756,1.6514256000518799,-0.17271706461906433
1751119832983513000,9.40551318359375,-1.014006495475769,0.8832851648330688,-0.03527642786502838
1751119832993458000,9.4154580078125,-0.5590779781341553,0.3058817684650421,0.29916244745254517
1751119833003403000,9.425403076171875,-0.2811424434185028,-0.0328330397605896,0.5517477989196777
1751119833013348000,9.43534814453125,0.031000498682260513,-0.319320410490036,0.7061394453048706
1751119833023293200,9.445293212890626,0.420873761177063,-0.5558710098266602,0.8286142945289612
1751119833033238300,9.45523828125,0.8107470273971558,-0.49616068601608276,0.8393041491508484
1751119833043183400,9.465183349609376,1.0856282711029053,-0.004123218823224306,0.5986303091049194
1751119833053128400,9.47512841796875,1.22627592086792,0.6563553810119629,0.17454960942268372
1751119833063073300,9.4850732421875,1.1963443756103516,0.9387195110321045,-0.0331384651362896
1751119833073018400,9.495018310546875,0.9631534218788147,0.7757760286331177,0.20875705778598785
1751119833082963500,9.50496337890625,0.6882721781730652,0.7256865501403809,0.5282301902770996
1751119833092908500,9.514908447265626,0.4422534108161926,0.9130639433860779,0.716829240322113
1751119833102853600,9.524853515625,0.11514470726251602,0.9173398613929749,0.9086353182792664
1751119833112798700,9.534798828125,-0.11178504675626755,0.6000047326087952,0.961778998374939
1751119833122743800,9.544743896484375,-0.06704048812389374,0.3176405727863312,0.6496360301971436
1751119833132688600,9.554688720703124,0.19821994006633759,0.28037887811660767,0.10109522193670273
1751119833142633700,9.5646337890625,0.5700731873512268,0.3784198760986328,-0.3643703758716583
1751119833152578800,9.574578857421875,0.9631534218788147,0.40071579813957214,-0.5529694557189941
1751119833162524000,9.58452392578125,1.3093510866165161,0.16737215220928192,-0.46241137385368347
1751119833172469000,9.594468994140625,1.520246148109436,-0.4130854606628418,-0.2217375487089157
1751119833182414000,9.6044140625,1.5831633806228638,-1.0960127115249634,-0.016034740954637527
1751119833192359200,9.614359130859375,1.588355541229248,-1.466644287109375,0.07024743407964706
1751119833202304300,9.62430419921875,1.6247010231018066,-1.421899676322937,0.06704048812389374
1751119833212249300,9.634249267578125,1.7236582040786743,-1.1375503540039062,0.029778804630041122
1751119833222194700,9.644194580078125,1.860029935836792,-0.862669050693512,0.05741964280605316
1751119833232139800,9.654139892578126,1.981435775756836,-0.7860077023506165,0.2363978922367096
1751119833242084900,9.6640849609375,2.071993827819824,-0.8913788795471191,0.5239542126655579
1751119833252030000,9.674030029296874,2.1456010341644287,-1.0714260339736938,0.7892146706581116
1751119833261975000,9.68397509765625,2.1828627586364746,-1.248266339302063,0.9895725846290588
1751119833271920000,9.693920166015625,2.1646900177001953,-1.4122788906097412,1.1790878772735596
1751119833281865200,9.703865234375,2.0848217010498047,-1.5743061304092407,1.3974658250808716
1751119833291810300,9.713810302734375,1.9612778425216675,-1.6295877695083618,1.6511201858520508
1751119833311700500,9.733700439453125,1.7300721406936646,-1.3569971323013306,2.111240863800049
1751119833321645600,9.7436455078125,1.6214940547943115,-1.1300674676895142,2.2114198207855225
1751119833331590700,9.753590576171876,1.4648116827011108,-0.7892146706581116,2.1911091804504395
1751119833341535700,9.76353564453125,1.2688825130462646,-0.323596328496933,2.036717414855957
1751119833351480800,9.773480712890626,1.0802834033966064,0.22494450211524963,1.7714570760726929
1751119833371371300,9.793371337890624,0.8321266770362854,1.346612811088562,1.2026054859161377
1751119833381316400,9.80331640625,0.7617265582084656,1.7706935405731201,0.9959864616394043
1751119833391261400,9.813261474609375,0.689341127872467,1.900651216506958,0.7679877281188965
1751119833401206500,9.82320654296875,0.6041279435157776,1.714190125465393,0.4802786707878113
1751119833411151600,9.833151611328125,0.531742513179779,1.359440565109253,0.1969982385635376
1751119833421096700,9.8430966796875,0.5082249045372009,1.006829023361206,0.012675080448389053
1751119833431041800,9.853041748046875,0.5444176197052002,0.7831062078475952,-0.02993151545524597
1751119833440987000,9.86298681640625,0.6190937161445618,0.7160657048225403,0.05100574716925621
1751119833450932000,9.872931884765626,0.6743753552436829,0.7267554998397827,0.1969982385635376
1751119833460877000,9.882876953125,0.6670452356338501,0.7479824423789978,0.3567348122596741
1751119833470822100,9.892822265625,0.6051968932151794,0.7927270531654358,0.5059342384338379
1751119833480767200,9.902767333984375,0.5328115224838257,0.8918370008468628,0.6284091472625732
1751119833490712300,9.91271240234375,0.48272204399108887,1.0175188779830933,0.6975875496864319
1751119833500657400,9.922657470703125,0.45385950803756714,1.1112838983535767,0.6911736726760864
1751119833510602500,9.9326025390625,0.43583953380584717,1.1793932914733887,0.6134433746337891
1751119833520547600,9.942547607421876,0.43049460649490356,1.2551383972167969,0.47707170248031616
1751119833530493000,9.952492919921875,0.45172154903411865,1.2998830080032349,0.27686652541160583
1751119833540438000,9.96243798828125,0.4934118688106537,1.2508624792099,-0.009620844386518002
1751119833550383000,9.972383056640625,0.5422796607017517,1.0440906286239624,-0.36757734417915344
1751119833560328200,9.982328125,0.6223006248474121,0.6777350306510925,-0.7201889157295227
1751119833570273300,9.992273193359376,0.7617265582084656,0.3133646547794342,-0.9226847887039185
1751119833580218400,10.00221826171875,0.9492566585540771,0.1695101112127304,-0.8182299137115479
1751119833590163500,10.01216357421875,1.0834903717041016,0.29946786165237427,-0.3868190348148346
1751119833600108500,10.022108642578125,1.002553105354309,0.601073682308197,0.10750912129878998
1751119833610053600,10.0320537109375,0.663838267326355,0.9429954290390015,0.28755635023117065
1751119833619998700,10.041998779296875,0.20570281147956848,1.3009519577026367,0.05635065957903862
1751119833629943800,10.05194384765625,-0.27686652541160583,1.6886872053146362,-0.35383328795433044
1751119833639889000,10.061888916015626,-0.7977665066719055,1.8239898681640625,-0.673306405544281
1751119833649834000,10.071833984375,-1.3889139890670776,1.314695954322815,-0.8832851648330688
1751119833659779000,10.081779052734374,-2.0962750911712646,0.3623851239681244,-1.1793932914733887
1751119833669724200,10.09172412109375,-2.9207661151885986,-0.33535513281822205,-1.6395140886306763
1751119833679669200,10.101669189453125,-3.7165474891662598,-0.30985227227211,-2.1456010341644287
1751119833689614600,10.111614501953126,-4.321591854095459,0.2345653474330902,-2.546164035797119
1751119833699559700,10.1215595703125,-4.7168097496032715,0.7278245091438293,-2.785768985748291
1751119833709504800,10.1315048828125,-4.955498218536377,0.8939749598503113,-2.852809429168701
1751119833719449900,10.141449951171875,-5.059953212738037,0.9046648144721985,-2.704831600189209
1751119833729395000,10.15139501953125,-5.022538661956787,1.0494356155395508,-2.3160274028778076
1751119833739340000,10.161340087890625,-4.809505939483643,1.4298406839370728,-1.682120680809021
1751119833749285000,10.17128515625,-4.344040393829346,1.9145480394363403,-0.9077190160751343
1751119833759230200,10.181230224609376,-3.6632509231567383,2.2926623821258545,-0.18646112084388733
1751119833769175300,10.19117529296875,-2.9261109828948975,2.4630887508392334,0.4089622497558594
1751119833779120400,10.201120361328124,-2.294495105743408,2.330993175506592,0.9181034564971924
1751119833789065500,10.2110654296875,-1.7543532848358154,1.8366650342941284,1.366618037223816
1751119833799010600,10.221010498046875,-1.2568182945251465,0.9588775038719177,1.672347068786621
1751119833808955600,10.23095556640625,-0.8180772066116333,-0.14782503247261047,1.7202986478805542
1751119833818900700,10.240900634765625,-0.4984513521194458,-1.1992459297180176,1.4933688640594482
1751119833828845800,10.250845703125,-0.4121691882610321,-1.8438425064086914,0.9895725846290588
1751119833838791000,10.260791015625,-0.5761816501617432,-2.019613742828369,0.32695600390434265
1751119833848736300,10.270736328125,-0.8680139780044556,-2.082378387451172,-0.1769929975271225
1751119833858681300,10.280681396484376,-1.1812258958816528,-2.2889974117279053,-0.4283566474914551
1751119833868626400,10.29062646484375,-1.4443483352661133,-2.6128990650177,-0.5540384650230408
1751119833878571500,10.300571533203126,-1.6031686067581177,-2.9729936122894287,-0.6169557571411133
1751119833888516600,10.3105166015625,-1.589271903038025,-3.25199818611145,-0.6253548860549927
1751119833898461400,10.32046142578125,-1.3963968753814697,-3.2840676307678223,-0.5913001298904419
1751119833908406500,10.330406494140625,-1.1343433856964111,-3.0646207332611084,-0.5007420182228088
1751119833918351600,10.3403515625,-0.8979454636573792,-2.6981122493743896,-0.3474193811416626
1751119833928296700,10.350296630859376,-0.7072083950042725,-2.3242738246917725,-0.18019993603229523
1751119833938241800,10.36024169921875,-0.5357130169868469,-2.0185446739196777,-0.060779303312301636
1751119833948187000,10.370186767578126,-0.3503209054470062,-1.7884080410003662,-0.02351761981844902
1751119833958132000,10.380132080078125,-0.15118469297885895,-1.6732633113861084,-0.06933116167783737
1751119833968076800,10.390076904296874,0.04062134400010109,-1.5901881456375122,-0.09910997003316879
1751119833978022000,10.40002197265625,0.23028941452503204,-1.3942588567733765,-0.0012216945178806782
1751119833987967000,10.409967041015625,0.4390464723110199,-1.1086877584457397,0.22677704691886902
1751119833997912000,10.419912109375,0.6765133142471313,-0.8328902125358582,0.5292991399765015
1751119834007857200,10.429857177734375,0.954601526260376,-0.6250494718551636,0.8628217577934265
1751119834017802200,10.43980224609375,1.281557559967041,-0.5590779781341553,1.19191575050354
1751119834027747300,10.449747314453125,1.6608936786651611,-0.6975875496864319,1.4721418619155884
1751119834037692200,10.459692138671874,2.0550429821014404,-0.8722898960113525,1.4965758323669434
1751119834047637200,10.46963720703125,2.276627779006958,-0.3694098889827728,0.5612159371376038
1751119834057582300,10.479582275390625,1.9964015483856201,0.4966188073158264,-0.9567395448684692
1751119834067527400,10.48952734375,1.22627592086792,0.010842538438737392,-1.1218210458755493
1751119834077472500,10.499472412109375,0.12690351903438568,-0.9266552925109863,0.041384901851415634
1751119834087417600,10.50941748046875,-1.1865707635879517,-0.556939959526062,0.8658760190010071
1751119834097362700,10.51936279296875,-2.3221359252929688,0.7650861740112305,0.7243121266365051
1751119834107307500,10.5293076171875,-2.748201847076416,1.7972652912139893,0.3312319219112396
1751119834117252600,10.539252685546876,-2.224094867706299,2.0316779613494873,0.2492256760597229
1751119834127197700,10.54919775390625,-1.3591351509094238,1.825058937072754,0.38758260011672974
1751119834137142800,10.559142822265626,-0.7498149871826172,1.5032950639724731,0.5496098399162292
1751119834147088000,10.569087890625,-0.37918344140052795,0.9791881442070007,0.7508839964866638
1751119834157033000,10.579032958984374,-0.020157959312200546,0.41675055027008057,0.9756757616996765
1751119834166978000,10.58897802734375,0.46241137385368347,0.29946786165237427,1.0555440187454224
1751119834176923100,10.598923095703125,0.9248227477073669,0.8012788891792297,0.9022213816642761
1751119834186868000,10.608867919921876,1.112200140953064,1.5000882148742676,0.4984513521194458
1751119834196813000,10.61881298828125,0.9513946175575256,1.5842323303222656,0.08826743066310883
1751119834206758100,10.628758056640624,0.576487123966217,0.9312366247177124,-0.01817270554602146
1751119834216703200,10.638703125,0.25258535146713257,0.2292204350233078,0.0659715011715889
1751119834226648300,10.6486484375,0.03420744836330414,-0.21288026869297028,0.19592925906181335
1751119834236593400,10.658593505859375,-0.14370182156562805,-0.4918847680091858,0.296108216047287
1751119834246538500,10.66853857421875,-0.14156384766101837,-0.7082774043083191,0.17882554233074188
1751119834256483300,10.6784833984375,0.1044548824429512,-0.8892409205436707,-0.20035789906978607
1751119834266428400,10.688428466796875,0.47417017817497253,-1.009730577468872,-0.647803544998169
1751119834276373500,10.69837353515625,0.841747522354126,-1.0501991510391235,-0.9280297160148621
1751119834286318600,10.708318603515625,1.1346487998962402,-1.0129374265670776,-0.950325608253479
1751119834296263700,10.718263671875,1.3327159881591797,-0.9127585291862488,-0.768140435218811
1751119834306209000,10.728208984375,1.471225619316101,-0.7571451663970947,-0.4731011986732483
1751119834316154000,10.738154052734375,1.582094430923462,-0.545181155204773,-0.13331741094589233
1751119834326099200,10.74809912109375,1.6587557792663574,-0.25976279377937317,0.2214321345090866
1751119834336044300,10.758044189453125,1.657686710357666,0.09712471067905426,0.5601469278335571
1751119834345989400,10.7679892578125,1.5649906396865845,0.43049460649490356,0.8435800671577454
1751119834355935000,10.77793505859375,1.4521366357803345,0.5604523420333862,1.0405782461166382
1751119834365880600,10.787880615234375,1.4690876007080078,0.47203221917152405,1.1322053670883179
1751119834375825700,10.79782568359375,1.6555488109588623,0.29839888215065,1.138619303703308
1751119834385770800,10.807770751953125,1.9261541366577148,0.09071081876754761,1.1056334972381592
1751119834405661000,10.827660888671875,2.352220058441162,-0.2970244884490967,1.142895221710205
1751119834415606000,10.83760595703125,2.4224674701690674,-0.3567348122596741,1.2920947074890137
1751119834425551000,10.847551025390626,2.406585454940796,-0.3268032968044281,1.5179554224014282
1751119834435496000,10.857495849609375,2.3425991535186768,-0.24372805655002594,1.7415255308151245
1751119834445441000,10.86744091796875,2.25311017036438,-0.11590826511383057,1.8843110799789429
1751119834455386000,10.87738623046875,2.1509459018707275,0.049173206090927124,1.890725016593933
1751119834465331200,10.887331298828125,2.0582499504089355,0.2238755226135254,1.7479394674301147
1751119834475276300,10.8972763671875,1.9953325986862183,0.43049460649490356,1.5179554224014282
1751119834485221400,10.907221435546875,1.9655537605285645,0.6925480961799622,1.2867497205734253
1751119834495166500,10.91716650390625,1.9505879878997803,0.9866710305213928,1.1173923015594482
1751119834505111300,10.927111328125,1.9304300546646118,1.3020209074020386,1.035386085510254
1751119834515056400,10.937056396484374,1.8972915410995483,1.5991981029510498,1.00224769115448
1751119834525001500,10.94700146484375,1.8462858200073242,1.755727767944336,0.9405520558357239
1751119834534946600,10.956946533203125,1.760003685951233,1.665169596672058,0.8180772066116333
1751119834544891600,10.9668916015625,1.6311148405075073,1.3307307958602905,0.6613948941230774
1751119834554836700,10.976836669921875,1.4744325876235962,0.8492304086685181,0.5196782946586609
1751119834564781800,10.98678173828125,1.3337849378585815,0.36879903078079224,0.43767204880714417
1751119834574726700,10.9967265625,1.2646065950393677,0.031153209507465363,0.43981003761291504
1751119834584671700,11.006671630859374,1.2646065950393677,-0.10094250738620758,0.5112791657447815
1751119834594616800,11.016616943359375,1.230551838874817,-0.05100574716925621,0.5996993184089661
1751119834604563000,11.02656298828125,1.0760074853897095,0.1056765764951706,0.6198572516441345
1751119834614507500,11.036507568359376,0.846939742565155,0.3101576864719391,0.51341712474823
1751119834624452400,11.046452392578125,0.6531484127044678,0.5253286361694336,0.2790044844150543
1751119834634397200,11.056397216796874,0.5454866290092468,0.7128587365150452,-0.02244863659143448
1751119834644342000,11.066342041015625,0.48806697130203247,0.853506326675415,-0.30160582065582275
1751119834654286800,11.076286865234374,0.43263256549835205,0.9387195110321045,-0.515707790851593
1751119834664231700,11.086231689453125,0.3793361485004425,0.9749122262001038,-0.681858241558075
1751119834674176500,11.096176513671875,0.3506263196468353,0.9813261032104492,-0.8107470273971558
1751119834684121600,11.10612158203125,0.35597124695777893,0.9845330715179443,-0.8790091872215271
1751119834694066400,11.11606640625,0.3921639323234558,0.9962918758392334,-0.867250382900238
1751119834704011500,11.126011474609374,0.4283566474914551,0.9802571535110474,-0.7809682488441467
1751119834713956600,11.13595654296875,0.38788801431655884,0.8971819281578064,-0.6606312990188599
1751119834723901700,11.145901611328124,0.24403348565101624,0.8044858574867249,-0.5444176197052002
1751119834733847000,11.155846923828125,0.049173206090927124,0.8811471462249756,-0.4315635859966278
1751119834743792400,11.16579248046875,-0.16187451779842377,1.3956332206726074,-0.34100547432899475
1751119834753737500,11.175737548828126,-0.4569137394428253,2.4375860691070557,-0.3836120665073395
1751119834763682800,11.185682861328125,-0.9138274788856506,3.706315755844116,-0.6904101371765137
1751119834773628200,11.195628173828124,-1.519940733909607,4.642591953277588,-1.2581926584243774
1751119834783573200,11.2055732421875,-2.242267608642578,4.5402750968933105,-1.8749957084655762
1751119834793518600,11.2155185546875,-3.1018824577331543,3.3025457859039307,-2.2787656784057617
1751119834803464000,11.2254638671875,-4.091607570648193,1.763210654258728,-2.409792423248291
1751119834813409000,11.235408935546875,-5.075835227966309,0.5743491649627686,-2.37237811088562
1751119834823354400,11.245354248046874,-5.835423946380615,-0.11483928561210632,-2.3160274028778076
1751119834833299500,11.255299560546876,-6.225296974182129,-0.09681928902864456,-2.189276695251465
1751119834843244500,11.26524462890625,-6.254006862640381,0.5839699506759644,-1.8120783567428589
1751119834853189600,11.275189697265626,-6.032422065734863,1.3615785837173462,-1.1314418315887451
1751119834863134700,11.285134765625,-5.530763626098633,1.888892412185669,-0.09284878522157669
1751119834873079600,11.29507958984375,-4.682754993438721,2.108339309692383,1.1141854524612427
1751119834883024600,11.305024658203125,-3.6175901889801025,2.108339309692383,2.1048269271850586
1751119834892969700,11.3149697265625,-2.620382070541382,2.0496978759765625,2.74194073677063
1751119834902914800,11.324914794921876,-1.8641531467437744,1.8591135740280151,3.176558494567871
1751119834912860000,11.33485986328125,-1.326149344444275,1.3040062189102173,3.3949363231658936
1751119834922805000,11.344804931640626,-1.0831849575042725,0.6021426916122437,2.7152161598205566
1751119834932750000,11.35475,-1.1247224807739258,-0.2298312783241272,1.2867497205734253
1751119834942695200,11.364695068359374,-1.1790878772735596,-1.5443745851516724,0.2554868757724762
1751119834952640000,11.374639892578125,-1.1364812850952148,-3.0710346698760986,-0.13331741094589233
1751119834962585000,11.384585205078125,-1.0204203128814697,-4.159717082977295,-0.23868857324123383
1751119834972530200,11.3945302734375,-0.8819107413291931,-4.538900375366211,-0.2748812735080719
1751119834982475300,11.404475341796875,-0.7679877281188965,-4.389700889587402,-0.28664007782936096
1751119834992420400,11.41442041015625,-0.6838434934616089,-3.9582903385162354,-0.27595025300979614
1751119835002365400,11.424365478515625,-0.610236406326294,-3.387300729751587,-0.23655059933662415
1751119835012310500,11.434310546875,-0.5335750579833984,-2.803636312484741,-0.1769929975271225
1751119835022255400,11.44425537109375,-0.4291202127933502,-2.3390867710113525,-0.1438545286655426
1751119835032200400,11.454200439453125,-0.2918322682380676,-2.0813093185424805,-0.17913095653057098
1751119835042145500,11.4641455078125,-0.1426328420639038,-2.0003721714019775,-0.26968905329704285
1751119835052090600,11.474090576171875,-0.004123218823224306,-1.9811303615570068,-0.35597124695777893
1751119835062035700,11.48403564453125,0.10017894953489304,-1.9374548196792603,-0.3846810758113861
1751119835071980800,11.493980712890625,0.16844113171100616,-1.8607934713363647,-0.33886751532554626
1751119835081926000,11.50392578125,0.23334364593029022,-1.713884711265564,-0.22708246111869812
1751119835091870700,11.51387060546875,0.3345915973186493,-1.426175594329834,-0.0650552362203598
1751119835101815800,11.52381591796875,0.5060869455337524,-1.0363023281097412,0.11926792562007904
1751119835111761000,11.533760986328126,0.7458444833755493,-0.6581879258155823,0.31412819027900696
1751119835121706000,11.5437060546875,1.0344698429107666,-0.37796175479888916,0.5164713859558105
1751119835131651000,11.553651123046874,1.338060975074768,-0.22677704691886902,0.7307260632514954
1751119835141596200,11.56359619140625,1.6300458908081055,-0.1979145109653473,0.9649859666824341
1751119835151541200,11.573541259765625,1.9101194143295288,-0.305576354265213,1.1940536499023438
1751119835161486000,11.583486083984376,2.1775176525115967,-0.53143709897995,1.3379082679748535
1751119835171431200,11.59343115234375,2.386274814605713,-0.5100574493408203,0.9095515608787537
1751119835181376300,11.603376220703124,2.291440725326538,0.21318569779396057,-0.7660024762153625
1751119835191321300,11.6133212890625,1.863236904144287,0.022601349279284477,-1.4926053285598755
1751119835201266400,11.623266357421874,1.1186140775680542,-1.3675342798233032,-0.07360709458589554
1751119835211211500,11.63321142578125,-0.20020519196987152,-1.2675080299377441,1.4518312215805054
1751119835221156600,11.643156494140625,-1.7564913034439087,0.767224133014679,1.5732370615005493
1751119835231101400,11.653101318359376,-2.7291128635406494,2.5855636596679688,0.8733588457107544
1751119835241046500,11.663046630859375,-2.6481754779815674,3.2736830711364746,0.40789327025413513
1751119835250991600,11.67299169921875,-1.9536422491073608,3.3280484676361084,0.5027272701263428
1751119835270881800,11.6928818359375,-0.6986565589904785,2.20424222946167,1.2803359031677246
1751119835280827000,11.702826904296876,-0.08078455179929733,1.408461093902588,1.5849958658218384
1751119835290772000,11.71277197265625,0.647803544998169,1.384027123451233,1.6020996570587158
1751119835300717000,11.722717041015626,1.193290114402771,2.004953384399414,0.9266552925109863
1751119835310662100,11.732662109375,1.1432006359100342,1.6418046951293945,-0.18019993603229523
1751119835320607200,11.742607177734374,0.5604523420333862,-0.047798797488212585,-1.0590564012527466
1751119835330552300,11.75255224609375,-0.03176405653357506,-1.7415255308151245,-1.4861913919448853
1751119835340497400,11.762497314453125,-0.31092125177383423,-2.4424726963043213,-1.4382398128509521
1751119835350442500,11.7724423828125,-0.5207473039627075,-2.5063064098358154,-0.9407047629356384
1751119835360387600,11.7823876953125,-0.8414421081542969,-2.276322364807129,-0.5178457498550415
1751119835370332700,11.792332763671874,-1.0011786222457886,-1.7969598770141602,-0.6158867478370667
1751119835380277800,11.80227783203125,-0.8296833038330078,-1.1619842052459717,-1.0558494329452515
1751119835400168000,11.82216796875,0.1566823273897171,-0.014660334214568138,-1.5181081295013428
1751119835410113000,11.832113037109375,0.7447755336761475,0.1247655525803566,-1.314695954322815
1751119835420058000,11.84205810546875,1.2134480476379395,-0.05207473039627075,-0.8629744648933411
1751119835430003200,11.852003173828125,1.4936742782592773,-0.23410721123218536,-0.23975755274295807
1751119835439948500,11.861948486328124,1.6236320734024048,-0.2426590770483017,0.37704548239707947
1751119835449893600,11.8718935546875,1.6279079914093018,-0.23090025782585144,0.8127322793006897
1751119835459838700,11.881838623046875,1.5617836713790894,-0.3374931216239929,1.0204203128814697
1751119835469783800,11.89178369140625,1.524522066116333,-0.5835118293762207,1.0619579553604126
1751119835479729000,11.90172900390625,1.5990453958511353,-0.8754968047142029,1.0321791172027588
1751119835489674000,11.911674072265624,1.7822996377944946,-1.0266815423965454,0.9969027042388916
1751119835499619000,11.921619140625,2.0070912837982178,-1.0628741979599,0.969261884689331
1751119835509564200,11.931564208984375,2.198897361755371,-1.082115888595581,0.9512419104576111
1751119835519509200,11.94150927734375,2.3064064979553223,-1.0437852144241333,0.9671239256858826
1751119835529454300,11.951454345703125,2.3096134662628174,-0.9127585291862488,1.0459232330322266
1751119835539399400,11.9613994140625,2.25311017036438,-0.8147175312042236,1.2345223426818848
1751119835549344500,11.971344482421875,2.2147793769836426,-0.8562551736831665,1.6222575902938843
1751119835559289600,11.98128955078125,2.2254693508148193,-0.9223793745040894,2.2050058841705322
1751119835569234700,11.991234619140625,2.2372281551361084,-0.8147175312042236,2.759960651397705
1751119835579179800,12.0011796875,2.2147793769836426,-0.5473191738128662,3.0209450721740723
1751119835589124900,12.011124755859376,2.1657588481903076,-0.24159009754657745,2.933593988418579
1751119835599070200,12.0210703125,2.1274282932281494,0.06734590977430344,2.6171751022338867
1751119835609015300,12.031015380859374,2.117807388305664,0.6041279435157776,2.2401297092437744
1751119835618960400,12.04096044921875,2.1135315895080566,1.7781764268875122,1.9131735563278198
1751119835628905500,12.050905517578125,2.0325942039489746,3.2736830711364746,1.5252856016159058
1751119835638850600,12.0608505859375,1.8206303119659424,3.951265573501587,0.948034942150116
1751119835648795600,12.070795654296875,1.5489559173583984,3.28330397605896,0.3578037917613983
1751119835658740700,12.08074072265625,1.3327159881591797,1.835595965385437,0.004123218823224306
1751119835668685800,12.090685791015625,1.2081031799316406,0.4700469672679901,-0.07467607408761978
1751119835678631000,12.100630859375,1.172979474067688,-0.33535513281822205,-0.00015271181473508477
1751119835688576000,12.110575927734375,1.2198619842529297,-0.6070294380187988,0.11285403370857239
1751119835698521000,12.12052099609375,1.313627004623413,-0.6016845703125,0.18630841374397278
1751119835708466200,12.130466064453126,1.4105989933013916,-0.487761527299881,0.1575985997915268
1751119835718411300,12.140411376953125,1.466949701309204,-0.33535513281822205,0.018019994720816612
1751119835728356400,12.1503564453125,1.4435847997665405,-0.1766875684261322,-0.1844758689403534
1751119835748246800,12.170246826171875,1.1059389114379883,0.09391776472330093,-0.5486935377120972
1751119835768136700,12.19013671875,0.5722111463546753,0.3474193811416626,-0.7820371985435486
1751119835778081800,12.200081787109376,0.34635040163993835,0.5531222224235535,-0.8171609044075012
1751119835788027000,12.21002685546875,0.17806197702884674,0.6340594291687012,-0.7895200848579407
1751119835797972000,12.219971923828124,0.004428642801940441,0.4816530644893646,-0.647803544998169
1751119835807917000,12.2299169921875,-0.23746687173843384,0.20585553348064423,-0.34314343333244324
1751119835817862100,12.239862060546875,-0.483485609292984,0.15149012207984924,0.053143709897994995
1751119835827807000,12.249806884765626,-0.6369609832763672,0.7278245091438293,0.27152159810066223
1751119835837752000,12.259751953125,-0.7455390691757202,2.2809035778045654,0.03924693539738655
1751119835847697200,12.269697265625,-1.0129374265670776,4.652212619781494,-0.8811471462249756
1751119835857642200,12.279642333984375,-1.5488032102584839,5.653543949127197,-2.0933735370635986
1751119835867587300,12.28958740234375,-2.2604403495788574,3.8170318603515625,-2.7495763301849365
1751119835877532400,12.299532470703125,-3.043393850326538,0.8385405540466309,-2.8187546730041504
1751119835887477500,12.3094775390625,-3.824209213256836,-1.0491302013397217,-2.7239205837249756
1751119835897422300,12.31942236328125,-4.576314926147461,-1.2418525218963623,-2.670776844024658
1751119835907367400,12.329367431640625,-5.284592151641846,-0.3321481943130493,-2.6110665798187256
1751119835917312500,12.3393125,-5.869478702545166,0.7299624681472778,-2.502488613128662
1751119835927257600,12.349257568359375,-6.162379741668701,1.4510676860809326,-2.3554270267486572
1751119835937202700,12.35920263671875,-6.0793046951293945,1.9912093877792358,-2.1008565425872803
1751119835947147800,12.369147705078126,-5.729899883270264,2.4598820209503174,-1.5352119207382202
1751119835957092900,12.3790927734375,-5.256951332092285,2.748507261276245,-0.5125008225440979
1751119835967037700,12.38903759765625,-4.660459041595459,2.6654319763183594,0.7669187188148499
1751119835976982800,12.398982666015625,-3.818864345550537,2.2628836631774902,1.8331526517868042
1751119835986927900,12.408927978515624,-2.8622775077819824,1.780314326286316,2.400935173034668
1751119835996873000,12.418873046875,-2.0525994300842285,1.1911520957946777,2.600224018096924
1751119836006818000,12.428818115234375,-1.4454172849655151,0.2473931461572647,2.6460375785827637
1751119836016763100,12.43876318359375,-1.0204203128814697,-0.9052756428718567,2.534099817276001
1751119836026708200,12.448708251953125,-0.7913526296615601,-1.855448603630066,2.009992837905884
1751119836036653000,12.458653076171874,-0.7690566778182983,-2.4743895530700684,1.0822685956954956
1751119836046598100,12.46859814453125,-0.8211314082145691,-3.0241520404815674,0.3280249834060669
1751119836056543200,12.478543212890624,-0.8840487003326416,-3.6664578914642334,-0.0012216945178806782
1751119836066488300,12.48848828125,-0.9810206890106201,-4.204461574554443,-0.09284878522157669
1751119836076433400,12.498433349609375,-1.0747857093811035,-4.389700889587402,-0.13331741094589233
1751119836086378500,12.50837841796875,-1.1056334972381592,-4.188426971435547,-0.13652436435222626
1751119836106269700,12.528269775390624,-0.8243383765220642,-3.4438040256500244,-0.05131116881966591
1751119836116214500,12.538214599609375,-0.5239542126655579,-3.17854380607605,-0.042759306728839874
1751119836126159000,12.5481591796875,-0.1901262104511261,-3.019723415374756,-0.06642963737249374
1751119836136104000,12.55810400390625,0.12094775587320328,-2.886558771133423,-0.12934690713882446
1751119836146048800,12.568048828125,0.3733803927898407,-2.7086493968963623,-0.2038702666759491
1751119836155993600,12.57799365234375,0.5769452452659607,-2.498823404312134,-0.2486148327589035
1751119836165938400,12.5879384765625,0.755770742893219,-2.2431838512420654,-0.2518217861652374
1751119836175883300,12.59788330078125,0.9274188280105591,-1.964026689529419,-0.20814619958400726
1751119836185828400,12.607828369140625,1.1051753759384155,-1.7627525329589844,-0.09941539168357849
1751119836195773200,12.617773193359374,1.2798776626586914,-1.7030421495437622,0.11254860460758209
1751119836205718300,12.62771826171875,1.433353066444397,-1.749924659729004,0.3968980014324188
1751119836215663400,12.637663330078125,1.5804145336151123,-1.9544057846069336,0.6377245187759399
1751119836225608700,12.647608642578126,1.8157434463500977,-2.3155691623687744,0.6824691295623779
1751119836235553800,12.6575537109375,2.13216233253479,-2.523257255554199,0.14874130487442017
1751119836245499100,12.6674990234375,2.186527729034424,-2.3337419033050537,-0.6875085830688477
1751119836255444200,12.6774443359375,1.7060964107513428,-1.7520626783370972,-0.47233763337135315
1751119836265389600,12.6873896484375,0.7281299233436584,-0.48547086119651794,0.6846070885658264
1751119836275335000,12.6973349609375,-0.5170822143554688,1.625922679901123,1.5048222541809082
1751119836285280000,12.707280029296875,-1.5770548582077026,3.506110668182373,1.7103723287582397
1751119836295225300,12.717225341796874,-2.128955364227295,4.174072265625,1.6518837213516235
1751119836305170700,12.727170654296875,-2.186375141143799,3.9066736698150635,1.4761123657226562
1751119836315115800,12.73711572265625,-1.94249427318573,3.318580389022827,1.2224581241607666
1751119836325060900,12.747060791015626,-1.5153592824935913,2.617633104324341,0.9775083065032959
1751119836335006000,12.757005859375,-0.9433009028434753,1.6897562742233276,0.832584798336029
1751119836344951000,12.766950927734374,-0.23380178213119507,0.5989357233047485,0.7730271816253662
1751119836354897400,12.7768974609375,0.6174138784408569,-0.28190600872039795,0.6760551929473877
1751119836364841200,12.78684130859375,1.5025315284729004,-0.8561024069786072,0.49707695841789246
1751119836374785000,12.796784912109375,2.0619149208068848,-1.1491564512252808,0.4981459379196167
1751119836384728800,12.806728759765624,1.9489082098007202,-1.2907202243804932,0.8635852932929993
1751119836404617000,12.826616943359374,0.6748335361480713,-1.1320526599884033,0.7559235095977783
1751119836414561300,12.836561279296875,-0.08353336155414581,0.0791047215461731,0.4512633979320526
1751119836424505600,12.846505615234374,-0.9187142848968506,1.044243335723877,0.05497625470161438
1751119836434450400,12.856450439453125,-1.4790139198303223,0.8909206986427307,-0.6502469182014465
1751119836444395500,12.8663955078125,-1.5397932529449463,0.2623589038848877,-1.4544273614883423
1751119836454340600,12.876340576171875,-1.2565127611160278,-0.0988045409321785,-1.9583762884140015
1751119836464286200,12.8862861328125,-0.8015843033790588,-0.26816195249557495,-1.9669281244277954
1751119836474231800,12.896231689453124,-0.20616094768047333,-0.8102889060974121,-1.554606318473816
1751119836484177400,12.906177490234375,0.47676628828048706,-1.812689185142517,-0.8504521250724792
1751119836494123300,12.916123291015625,1.0445488691329956,-2.5553267002105713,0.013438640162348747
1751119836504069400,12.9260693359375,1.3267602920532227,-2.498823404312134,0.7368345260620117
1751119836514015500,12.936015380859375,1.3631056547164917,-1.8649166822433472,1.0573766231536865
1751119836523961300,12.94596142578125,1.2746855020523071,-1.0639432668685913,0.968956470489502
1751119836533907500,12.955907470703124,1.1563338041305542,-0.29259583353996277,0.6505523324012756
1751119836543852500,12.9658525390625,1.0498937368392944,0.3646758198738098,0.3384093940258026
1751119836553797600,12.975797607421875,0.9976662993431091,0.778982937335968,0.17958909273147583
1751119836563742700,12.98574267578125,1.0509626865386963,0.848314106464386,0.2020377367734909
1751119836573687600,12.9956875,1.2661336660385132,0.42423340678215027,0.48638713359832764
1751119836583632600,13.005632568359376,1.635696291923523,-0.566408097743988,1.0946383476257324
1751119836593577700,13.01557763671875,1.9692188501358032,-1.786117434501648,1.7955855131149292
1751119836603522800,13.025522705078124,2.056570053100586,-2.705442428588867,2.250514030456543
1751119836613468000,13.035468017578125,1.9201983213424683,-3.0878329277038574,2.369781970977783
1751119836623413000,13.0454130859375,1.7358752489089966,-3.039881467819214,2.2718937397003174
1751119836633358000,13.055358154296876,1.6389031410217285,-2.7011666297912598,2.097191333770752
1751119836643303000,13.065302978515625,1.6740269660949707,-1.9916675090789795,1.9234052896499634
1751119836653248000,13.075248046875,1.7699298858642578,-0.7432484030723572,1.6146219968795776
1751119836663193000,13.085193115234375,1.7816886901855469,0.6714738607406616,0.9338327646255493
1751119836673138200,13.09513818359375,1.719840407371521,1.4150276184082031,0.15087927877902985
1751119836683083300,13.105083251953126,1.6825788021087646,1.3180556297302246,-0.38071054220199585
1751119836693028400,13.1150283203125,1.7187714576721191,0.7736380696296692,-0.5937435626983643
1751119836702973400,13.124973388671876,1.822157382965088,0.13774605095386505,-0.5883986353874207
1751119836712918300,13.134918212890625,1.9435632228851318,-0.3927747905254364,-0.4999784827232361
1751119836722863400,13.14486328125,2.0118255615234375,-0.7400414347648621,-0.42545512318611145
1751119836732808400,13.154808349609375,2.0011355876922607,-0.9254335761070251,-0.3903313875198364
1751119836742753500,13.16475341796875,1.9266122579574585,-0.9573503732681274,-0.33596599102020264
1751119836752698600,13.17469873046875,1.8030683994293213,-0.818840742111206,-0.20493926107883453
1751119836762643700,13.184643798828125,1.6613517999649048,-0.5557183027267456,0.010231691412627697
1751119836772588800,13.1945888671875,1.5346009731292725,-0.28190600872039795,0.25747212767601013
1751119836782533600,13.20453369140625,1.445111870765686,-0.1328592747449875,0.4416425824165344
1751119836792478700,13.214478759765624,1.3768497705459595,-0.16050012409687042,0.5056288242340088
1751119836802423800,13.224423828125,1.304464340209961,-0.2904578745365143,0.4737120568752289
1751119836812369000,13.234368896484375,1.2106993198394775,-0.4343124032020569,0.3874298632144928
1751119836822314000,13.24431396484375,1.089293360710144,-0.546097457408905,0.2701472043991089
1751119836832259000,13.254259033203125,0.9571976661682129,-0.6090146899223328,0.12858334183692932
1751119836842204200,13.2642041015625,0.8527427911758423,-0.6250494718551636,-0.021685076877474785
1751119836852149000,13.27414892578125,0.8069292306900024,-0.5887040495872498,-0.13453911244869232
1751119836862094000,13.284093994140624,0.7994463443756104,-0.4556920528411865,-0.11865708231925964
1751119836881984300,13.303984375,0.4969242513179779,0.10048437118530273,0.4608842432498932
1751119836891929300,13.313929443359376,0.183865025639534,0.3507790267467499,0.6546755433082581
1751119836901874400,13.32387451171875,-0.10491301864385605,0.571294903755188,0.5195255875587463
