time,seconds_elapsed,z,y,x
1751119823835762700,0.2577626953125,-19.275001525878906,-27.375001907348633,37.20000076293945
1751119823873820400,0.2958203125,-19.05000114440918,-29.100000381469727,36
1751119823883765500,0.305765625,-18.900001525878906,-29.025001525878906,35.85000228881836
1751119823893710600,0.315710693359375,-19.125,-28.725000381469727,35.775001525878906
1751119823903655700,0.32565576171875,-19.650001525878906,-29.025001525878906,35.47500228881836
1751119823913600800,0.335600830078125,-18.825000762939453,-29.325000762939453,35.625
1751119823923545600,0.345545654296875,-18.825000762939453,-29.325000762939453,35.55000305175781
1751119823933490700,0.35549072265625,-18.525001525878906,-29.025001525878906,35.70000076293945
1751119823943435800,0.365435791015625,-19.05000114440918,-28.80000114440918,35.85000228881836
1751119823953380900,0.375380859375,-18.900001525878906,-29.100000381469727,35.70000076293945
1751119823963326000,0.385325927734375,-18.375,-29.325000762939453,35.400001525878906
1751119823973271000,0.39527099609375,-18.075000762939453,-29.700000762939453,35.17500305175781
1751119823983216000,0.405216064453125,-18.375,-30.000001907348633,35.17500305175781
1751119823993161000,0.415160888671875,-18,-30.075000762939453,34.875
1751119824003106000,0.42510595703125,-17.775001525878906,-30.000001907348633,35.10000228881836
1751119824013051100,0.435051025390625,-17.55000114440918,-29.700000762939453,35.32500076293945
1751119824022996200,0.444996337890625,-17.325000762939453,-29.475000381469727,35.47500228881836
1751119824032941300,0.45494140625,-17.55000114440918,-29.025001525878906,35.47500228881836
1751119824042886400,0.464886474609375,-17.025001525878906,-28.80000114440918,35.70000076293945
1751119824052831500,0.47483154296875,-16.5,-28.875001907348633,36.60000228881836
1751119824062776600,0.484776611328125,-16.725000381469727,-28.350000381469727,36.150001525878906
1751119824072721700,0.4947216796875,-16.725000381469727,-28.350000381469727,36.150001525878906
1751119824082666500,0.50466650390625,-16.275001525878906,-28.05000114440918,36.60000228881836
1751119824092611600,0.514611572265625,-16.5,-27.67500114440918,37.125
1751119824102556700,0.524556640625,-16.200000762939453,-27.750001907348633,37.650001525878906
1751119824112501800,0.534501708984375,-15.975000381469727,-27.450000762939453,37.95000076293945
1751119824122446800,0.54444677734375,-16.5,-27.525001525878906,38.17500305175781
1751119824132392000,0.554391845703125,-16.950000762939453,-27.375001907348633,38.32500076293945
1751119824142337000,0.5643369140625,-16.5,-27.075000762939453,38.10000228881836
1751119824152281900,0.57428173828125,-15.52500057220459,-27.225000381469727,37.875
1751119824162227000,0.58422705078125,-15.450000762939453,-26.92500114440918,37.5
1751119824172172000,0.594172119140625,-15.675000190734863,-26.92500114440918,37.42500305175781
1751119824182117000,0.6041171875,-15.450000762939453,-27.000001907348633,37.72500228881836
1751119824192062200,0.614062255859375,-15.000000953674316,-26.850000381469727,37.80000305175781
1751119824202007300,0.62400732421875,-15.52500057220459,-26.250001907348633,38.32500076293945
1751119824211952400,0.633952392578125,-15.975000381469727,-25.80000114440918,38.70000076293945
1751119824221897200,0.643897216796875,-15.975000381469727,-25.80000114440918,38.70000076293945
1751119824231842300,0.65384228515625,-15.750000953674316,-25.80000114440918,38.32500076293945
1751119824241787400,0.663787353515625,-16.275001525878906,-25.650001525878906,38.32500076293945
1751119824251732500,0.673732421875,-16.200000762939453,-25.875001907348633,38.625
1751119824261677600,0.683677490234375,-15.975000381469727,-25.80000114440918,38.775001525878906
1751119824271622700,0.69362255859375,-16.350000381469727,-25.42500114440918,38.775001525878906
1751119824281567700,0.703567626953125,-15.600000381469727,-25.275001525878906,39
1751119824291512600,0.7135126953125,-15.000000953674316,-25.125001907348633,39.22500228881836
1751119824301457700,0.723457763671875,-15.075000762939453,-24.600000381469727,39.375
1751119824311402800,0.73340283203125,-15.075000762939453,-24.525001525878906,39.45000076293945
1751119824321347800,0.743347900390625,-14.475000381469727,-24.825000762939453,39.82500076293945
1751119824331293000,0.75329296875,-13.875000953674316,-25.05000114440918,39.97500228881836
1751119824341238000,0.763238037109375,-13.125000953674316,-25.275001525878906,39.82500076293945
1751119824351183000,0.77318310546875,-13.050000190734863,-25.575000762939453,40.05000305175781
1751119824361128000,0.7831279296875,-13.050000190734863,-25.500001907348633,40.05000305175781
1751119824371073000,0.793072998046875,-13.125000953674316,-25.500001907348633,40.20000076293945
1751119824381018000,0.80301806640625,-12.600000381469727,-25.200000762939453,40.42500305175781
1751119824400908300,0.822908203125,-11.700000762939453,-25.125001907348633,40.35000228881836
1751119824410853400,0.832853271484375,-11.550000190734863,-25.275001525878906,40.20000076293945
1751119824420798500,0.842798583984375,-10.5,-25.500001907348633,40.275001525878906
1751119824430743600,0.85274365234375,-10.5,-25.725000381469727,40.35000228881836
1751119824440688400,0.8626884765625,-10.5,-26.100000381469727,40.275001525878906
1751119824450633500,0.872633544921875,-10.125,-26.325000762939453,40.275001525878906
1751119824460578600,0.88257861328125,-10.050000190734863,-26.775001525878906,40.275001525878906
1751119824470523600,0.892523681640625,-9.225000381469727,-27.450000762939453,40.125
1751119824480468700,0.90246875,-7.650000095367432,-27.900001525878906,39.82500076293945
1751119824490413800,0.912413818359375,-5.700000286102295,-29.400001525878906,39.900001525878906
1751119824500359000,0.92235888671875,-5.700000286102295,-29.325000762939453,39.82500076293945
1751119824510303700,0.9323037109375,-4.275000095367432,-29.55000114440918,39.75
1751119824520248800,0.942248779296875,-3.1500000953674316,-29.325000762939453,39.82500076293945
1751119824530194000,0.95219384765625,-2.325000047683716,-29.250001907348633,40.05000305175781
1751119824540139000,0.962138916015625,-0.375,-28.950000762939453,40.5
1751119824550084000,0.972083984375,0.675000011920929,-28.500001907348633,40.80000305175781
1751119824560029200,0.982029296875,1.2000000476837158,-27.975000381469727,41.025001525878906
1751119824569974300,0.991974365234375,2.25,-27.750001907348633,41.025001525878906
1751119824579919000,1.001919189453125,2.700000047683716,-27.67500114440918,41.025001525878906
1751119824589864200,1.0118642578125,2.700000047683716,-27.30000114440918,41.10000228881836
1751119824599809300,1.021809326171875,2.9250001907348633,-26.850000381469727,41.625
1751119824609754400,1.03175439453125,2.700000047683716,-26.400001525878906,41.92500305175781
1751119824619699500,1.041699462890625,2.9250001907348633,-26.400001525878906,41.70000076293945
1751119824629644500,1.05164453125,3.075000047683716,-26.400001525878906,41.775001525878906
1751119824639589600,1.061589599609375,2.1750001907348633,-26.250001907348633,41.70000076293945
1751119824649534500,1.071534423828125,0.675000011920929,-26.250001907348633,41.775001525878906
1751119824659479600,1.0814794921875,0.675000011920929,-26.325000762939453,41.625
1751119824669424600,1.091424560546875,-0.6000000238418579,-26.400001525878906,41.625
1751119824679369700,1.10136962890625,-2.25,-26.325000762939453,41.10000228881836
1751119824689314800,1.111314697265625,-3.5250000953674316,-26.250001907348633,40.650001525878906
1751119824699260000,1.121260009765625,-4.875,-27.450000762939453,40.5
1751119824709205000,1.131205078125,-5.925000190734863,-27.975000381469727,39.60000228881836
1751119824719149800,1.14114990234375,-6.825000286102295,-28.725000381469727,38.625
1751119824729095000,1.151094970703125,-8.550000190734863,-29.17500114440918,37.875
1751119824739040000,1.1610400390625,-10.875,-29.850000381469727,37.20000076293945
1751119824748985000,1.170985107421875,-11.77500057220459,-30.30000114440918,36.525001525878906
1751119824758930200,1.18093017578125,-12.450000762939453,-30.525001525878906,35.70000076293945
1751119824768875300,1.190875244140625,-13.725000381469727,-30.750001907348633,35.10000228881836
1751119824778820400,1.2008203125,-13.800000190734863,-30.67500114440918,34.95000076293945
1751119824788765200,1.21076513671875,-13.500000953674316,-31.05000114440918,34.5
1751119824798710300,1.220710205078125,-13.500000953674316,-31.05000114440918,34.5
1751119824808655400,1.2306552734375,-13.500000953674316,-31.575000762939453,34.35000228881836
1751119824818600400,1.240600341796875,-13.27500057220459,-31.950000762939453,34.275001525878906
1751119824828545500,1.250545654296875,-12.52500057220459,-31.950000762939453,33.97500228881836
1751119824838490600,1.26049072265625,-12.675000190734863,-31.875001907348633,34.05000305175781
1751119824848435700,1.270435791015625,-13.800000190734863,-32.32500076293945,33.97500228881836
1751119824858380500,1.280380615234375,-14.02500057220459,-32.625,33.375
1751119824868325600,1.29032568359375,-14.02500057220459,-32.400001525878906,33.45000076293945
1751119824878270700,1.300270751953125,-14.625000953674316,-32.17500305175781,33.150001525878906
1751119824888215800,1.3102158203125,-15.52500057220459,-31.575000762939453,32.400001525878906
1751119824898161000,1.320160888671875,-16.950000762939453,-31.350000381469727,32.400001525878906
1751119824908106000,1.33010595703125,-18.75,-31.350000381469727,31.575000762939453
1751119824918051000,1.340051025390625,-22.125,-31.650001525878906,29.100000381469727
1751119824927996200,1.34999609375,-22.42500114440918,-31.80000114440918,28.350000381469727
1751119824937941000,1.35994091796875,-22.42500114440918,-31.80000114440918,28.350000381469727
1751119824957831200,1.3798310546875,-23.625,-31.05000114440918,28.575000762939453
1751119824967776300,1.3897763671875,-23.775001525878906,-30.525001525878906,28.350000381469727
1751119824987666400,1.40966650390625,-24.525001525878906,-30.150001525878906,27.375001907348633
1751119825007556400,1.429556396484375,-25.80000114440918,-30.225000381469727,26.625001907348633
1751119825017501400,1.43950146484375,-27.000001907348633,-30.075000762939453,25.725000381469727
1751119825067227000,1.489226806640625,-31.575000762939453,-29.250001907348633,19.42500114440918
1751119825087116800,1.50911669921875,-33.30000305175781,-29.250001907348633,18.150001525878906
1751119825116952000,1.5389521484375,-34.35000228881836,-28.500001907348633,12.225000381469727
1751119825126897200,1.548897216796875,-36.900001525878906,-27.750001907348633,9
1751119825156732200,1.578732177734375,-37.20000076293945,-27.375001907348633,5.100000381469727
1751119825166677200,1.58867724609375,-37.5,-27.225000381469727,4.275000095367432
1751119825186567400,1.6085673828125,-38.47500228881836,-27.600000381469727,2.700000047683716
1751119825196512500,1.618512451171875,-38.55000305175781,-27.525001525878906,1.4250000715255737
1751119825206457600,1.62845751953125,-38.47500228881836,-27.600000381469727,0.30000001192092896
1751119825216402700,1.638402587890625,-38.47500228881836,-28.200000762939453,-0.6000000238418579
1751119825236292900,1.65829296875,-38.32500076293945,-28.350000381469727,-1.2750000953674316
1751119825246238000,1.668238037109375,-37.650001525878906,-28.350000381469727,-2.4000000953674316
1751119825276073200,1.6980732421875,-36.22500228881836,-28.875001907348633,-5.100000381469727
1751119825295963400,1.71796337890625,-36.97500228881836,-28.650001525878906,-7.125000476837158
1751119825305908500,1.727908447265625,-36.22500228881836,-29.025001525878906,-8.25
1751119825315853600,1.737853515625,-35.625,-29.100000381469727,-9.15000057220459
1751119825325799000,1.747798828125,-35.17500305175781,-29.025001525878906,-9.675000190734863
1751119825335744000,1.757743896484375,-35.47500228881836,-29.17500114440918,-10.875
1751119825355634200,1.77763427734375,-35.10000228881836,-28.875001907348633,-12.15000057220459
1751119825365579300,1.787579345703125,-35.10000228881836,-28.950000762939453,-12.675000190734863
1751119825375524400,1.7975244140625,-35.10000228881836,-28.950000762939453,-12.600000381469727
1751119825395414500,1.81741455078125,-33.60000228881836,-29.250001907348633,-13.500000953674316
1751119825405359600,1.827359619140625,-33.525001525878906,-29.700000762939453,-14.02500057220459
1751119825415304700,1.8373046875,-33.67500305175781,-30.075000762939453,-14.175000190734863
1751119825435195000,1.85719482421875,-33,-30.450000762939453,-14.475000381469727
1751119825445140000,1.867139892578125,-33.150001525878906,-30.825000762939453,-14.475000381469727
1751119825455085000,1.8770849609375,-32.17500305175781,-31.125001907348633,-15.075000762939453
1751119825465030100,1.887030029296875,-31.125001907348633,-31.500001907348633,-15.075000762939453
1751119825474975200,1.896975341796875,-30.900001525878906,-31.875001907348633,-15.15000057220459
1751119825484920600,1.906920654296875,-30.825000762939453,-32.17500305175781,-15.52500057220459
1751119825494865700,1.91686572265625,-30.525001525878906,-32.625,-15.52500057220459
1751119825504810500,1.926810546875,-30.600000381469727,-32.55000305175781,-15.450000762939453
1751119825514755600,1.936755615234375,-31.42500114440918,-32.10000228881836,-15.600000381469727
1751119825524700700,1.94670068359375,-31.42500114440918,-32.10000228881836,-15.600000381469727
1751119825544590800,1.9665908203125,-31.80000114440918,-31.42500114440918,-17.100000381469727
1751119825564481000,1.98648095703125,-30.000001907348633,-31.42500114440918,-19.05000114440918
1751119825574425900,1.99642578125,-29.475000381469727,-31.725000381469727,-19.42500114440918
1751119825594316000,2.01631591796875,-28.42500114440918,-31.80000114440918,-20.625
1751119825604261000,2.02626123046875,-27.900001525878906,-31.650001525878906,-21.525001525878906
1751119825614206200,2.036206298828125,-27.67500114440918,-31.725000381469727,-21.825000762939453
1751119825624151300,2.0461513671875,-27.67500114440918,-31.80000114440918,-22.42500114440918
1751119825634096400,2.056096435546875,-27.225000381469727,-31.125001907348633,-23.400001525878906
1751119825644041500,2.06604150390625,-27.225000381469727,-30.67500114440918,-23.325000762939453
1751119825653986300,2.075986328125,-27.525001525878906,-30.67500114440918,-23.17500114440918
1751119825663931400,2.085931396484375,-27.525001525878906,-30.67500114440918,-23.17500114440918
1751119825673876500,2.09587646484375,-27.600000381469727,-30.825000762939453,-23.25
1751119825683821600,2.105821533203125,-27.825000762939453,-31.05000114440918,-23.25
1751119825693766700,2.1157666015625,-27.975000381469727,-30.825000762939453,-22.875
1751119825703711700,2.125711669921875,-28.200000762939453,-30.750001907348633,-22.575000762939453
1751119825713656800,2.13565673828125,-29.100000381469727,-31.05000114440918,-22.42500114440918
1751119825723601700,2.1456015625,-29.250001907348633,-30.600000381469727,-22.950000762939453
1751119825733546800,2.155546630859375,-28.575000762939453,-30.225000381469727,-23.475000381469727
1751119825743491800,2.165491943359375,-27.750001907348633,-30.67500114440918,-23.625
1751119825753437000,2.17543701171875,-27.075000762939453,-30.975000381469727,-23.92500114440918
1751119825763382000,2.185382080078125,-26.55000114440918,-31.42500114440918,-25.275001525878906
1751119825773327000,2.1953271484375,-25.80000114440918,-31.500001907348633,-25.575000762939453
1751119825783272200,2.205272216796875,-24.525001525878906,-31.725000381469727,-25.950000762939453
1751119825793217000,2.215217041015625,-24,-32.10000228881836,-26.400001525878906
1751119825803162000,2.225162109375,-23.400001525878906,-31.80000114440918,-26.92500114440918
1751119825813107200,2.235107177734375,-23.400001525878906,-31.80000114440918,-26.850000381469727
1751119825823052300,2.24505224609375,-22.950000762939453,-32.025001525878906,-26.92500114440918
1751119825832997400,2.254997314453125,-22.125,-32.55000305175781,-27.525001525878906
1751119825842942500,2.2649423828125,-20.625,-33.22500228881836,-28.125001907348633
1751119825852887600,2.274887451171875,-19.875,-33.82500076293945,-28.350000381469727
1751119825862832400,2.284832275390625,-18.30000114440918,-34.20000076293945,-29.025001525878906
1751119825872777500,2.294777587890625,-16.42500114440918,-34.95000076293945,-29.325000762939453
1751119825882722600,2.30472265625,-15.075000762939453,-35.47500228881836,-29.250001907348633
1751119825892667600,2.314667724609375,-14.175000190734863,-35.92500305175781,-29.400001525878906
1751119825902612700,2.32461279296875,-13.425000190734863,-36.525001525878906,-29.475000381469727
1751119825912557800,2.334557861328125,-12.600000381469727,-36.67500305175781,-29.55000114440918
1751119825922503000,2.3445029296875,-11.850000381469727,-37.125,-29.55000114440918
1751119825932447700,2.35444775390625,-11.100000381469727,-37.42500305175781,-29.475000381469727
1751119825942392800,2.364392822265625,-10.27500057220459,-37.57500076293945,-29.700000762939453
1751119825952338000,2.374337890625,-9.075000762939453,-37.650001525878906,-29.700000762939453
1751119825962283000,2.384282958984375,-9.075000762939453,-37.650001525878906,-29.700000762939453
1751119825972228000,2.39422802734375,-9.600000381469727,-37.275001525878906,-30.000001907348633
1751119825982173200,2.404173095703125,-11.175000190734863,-37.125,-29.92500114440918
1751119825992118300,2.4141181640625,-13.27500057220459,-37.05000305175781,-29.55000114440918
1751119826012008200,2.43400830078125,-18.225000381469727,-35.10000228881836,-28.42500114440918
1751119826021953300,2.443953369140625,-19.5,-33.67500305175781,-29.17500114440918
1751119826031898400,2.4538984375,-19.05000114440918,-32.32500076293945,-30.150001525878906
1751119826041843500,2.463843505859375,-18.975000381469727,-31.575000762939453,-31.275001525878906
1751119826051788500,2.47378857421875,-18.75,-31.725000381469727,-31.875001907348633
1751119826061733600,2.483733642578125,-18.375,-31.650001525878906,-31.575000762939453
1751119826071678500,2.493678466796875,-18.225000381469727,-31.500001907348633,-31.575000762939453
1751119826081623600,2.50362353515625,-17.400001525878906,-32.17500305175781,-31.725000381469727
1751119826091568600,2.513568603515625,-16.05000114440918,-33.150001525878906,-32.025001525878906
1751119826101513700,2.523513671875,-15.975000381469727,-32.85000228881836,-31.80000114440918
1751119826111458800,2.533458740234375,-13.500000953674316,-33.45000076293945,-32.25
1751119826121404000,2.54340380859375,-9.675000190734863,-34.275001525878906,-32.55000305175781
1751119826131349000,2.553348876953125,-6.225000381469727,-35.025001525878906,-33.150001525878906
1751119826141293800,2.5632939453125,-4.125,-35.025001525878906,-33.97500228881836
1751119826151239000,2.573239013671875,-2.4750001430511475,-34.72500228881836,-34.95000076293945
1751119826161184000,2.58318408203125,-1.8750001192092896,-34.05000305175781,-35.25
1751119826171129000,2.593129150390625,-2.1000001430511475,-33.30000305175781,-35.400001525878906
1751119826181074200,2.60307421875,-2.325000047683716,-32.775001525878906,-36
1751119826191019300,2.613019287109375,-5.175000190734863,-33.07500076293945,-35.92500305175781
1751119826200964400,2.62296435546875,-6.300000190734863,-33.07500076293945,-35.625
1751119826210909400,2.632909423828125,-7.125000476837158,-32.92500305175781,-35.55000305175781
1751119826220854300,2.642854248046875,-7.500000476837158,-33.22500228881836,-35.32500076293945
1751119826230799400,2.65279931640625,-7.800000190734863,-33.525001525878906,-34.72500228881836
1751119826240744400,2.662744384765625,-7.800000190734863,-33.525001525878906,-34.72500228881836
1751119826250689500,2.672689453125,-8.02500057220459,-34.35000228881836,-34.275001525878906
1751119826260634600,2.682634521484375,-7.725000381469727,-34.875,-33.67500305175781
1751119826270579700,2.692579833984375,-8.175000190734863,-35.17500305175781,-32.625
1751119826280524800,2.70252490234375,-9.75,-35.625,-32.10000228881836
1751119826290469600,2.7124697265625,-9.675000190734863,-35.85000228881836,-31.575000762939453
1751119826300414700,2.722414794921875,-10.050000190734863,-36.60000228881836,-30.825000762939453
1751119826310359800,2.73235986328125,-10.65000057220459,-37.125,-30.150001525878906
1751119826320305000,2.742304931640625,-9.90000057220459,-37.20000076293945,-29.92500114440918
1751119826330250000,2.75225,-9.825000762939453,-37.57500076293945,-29.92500114440918
1751119826340195000,2.762195068359375,-10.5,-37.5,-29.400001525878906
1751119826350140200,2.77214013671875,-10.575000762939453,-37.42500305175781,-29.250001907348633
1751119826360085000,2.7820849609375,-11.02500057220459,-37.875,-29.100000381469727
1751119826370030000,2.792030029296875,-11.02500057220459,-38.025001525878906,-28.725000381469727
1751119826379975200,2.80197509765625,-10.950000762939453,-38.17500305175781,-27.975000381469727
1751119826389920300,2.811920166015625,-11.25,-38.55000305175781,-27.600000381469727
1751119826399865300,2.821865234375,-11.550000190734863,-38.92500305175781,-27.525001525878906
1751119826409810400,2.831810546875,-11.925000190734863,-39,-27.375001907348633
1751119826419755500,2.841755615234375,-12,-39.07500076293945,-27.525001525878906
1751119826429700400,2.851700439453125,-12.300000190734863,-39.07500076293945,-27.000001907348633
1751119826439645400,2.8616455078125,-12.15000057220459,-39.150001525878906,-26.475000381469727
1751119826459535600,2.88153564453125,-13.725000381469727,-39.22500228881836,-25.42500114440918
1751119826469480700,2.891480712890625,-13.65000057220459,-39.30000305175781,-25.575000762939453
1751119826479425800,2.90142578125,-13.800000190734863,-39.30000305175781,-25.42500114440918
1751119826489371000,2.911370849609375,-14.02500057220459,-39.30000305175781,-25.125001907348633
1751119826499315700,2.921315673828125,-14.250000953674316,-39.22500228881836,-25.125001907348633
1751119826509260800,2.9312607421875,-14.700000762939453,-39.22500228881836,-24.975000381469727
1751119826519206000,2.941205810546875,-15.300000190734863,-38.92500305175781,-24.525001525878906
1751119826529151000,2.95115087890625,-15.300000190734863,-39,-24
1751119826539096000,2.961095947265625,-15.300000190734863,-39,-24
1751119826549041200,2.971041259765625,-15.675000190734863,-39.375,-24
1751119826558986200,2.980986328125,-15.675000190734863,-39,-23.92500114440918
1751119826568931300,2.990931396484375,-15.375000953674316,-39.22500228881836,-23.700000762939453
1751119826578876400,3.00087646484375,-15.15000057220459,-39.900001525878906,-23.700000762939453
1751119826588821500,3.010821533203125,-15.15000057220459,-39.97500228881836,-23.400001525878906
1751119826598766600,3.0207666015625,-15.90000057220459,-39.900001525878906,-22.950000762939453
1751119826608712700,3.030712646484375,-17.475000381469727,-39.67500305175781,-22.875
1751119826618657800,3.04065771484375,-17.55000114440918,-39.30000305175781,-22.725000381469727
1751119826628603000,3.050602783203125,-16.950000762939453,-39,-22.875
1751119826638548000,3.0605478515625,-17.25,-38.92500305175781,-23.325000762939453
1751119826648493000,3.0704931640625,-17.475000381469727,-39.07500076293945,-23.850000381469727
1751119826658438100,3.080438232421875,-17.325000762939453,-38.625,-24.375001907348633
1751119826668383200,3.09038330078125,-17.100000381469727,-37.95000076293945,-25.350000381469727
1751119826678328300,3.100328369140625,-17.100000381469727,-37.80000305175781,-25.350000381469727
1751119826688273200,3.110273193359375,-14.550000190734863,-37.42500305175781,-26.92500114440918
1751119826698218200,3.12021826171875,-11.40000057220459,-37.05000305175781,-28.725000381469727
1751119826708163300,3.130163330078125,-8.25,-37.275001525878906,-30.30000114440918
1751119826718108400,3.1401083984375,-6.375000476837158,-37.650001525878906,-31.125001907348633
1751119826728053500,3.150053466796875,-6.825000286102295,-37.20000076293945,-31.42500114440918
1751119826737998600,3.15999853515625,-7.425000190734863,-36.525001525878906,-31.350000381469727
1751119826747943700,3.169943603515625,-8.02500057220459,-36,-31.875001907348633
1751119826757888500,3.179888427734375,-8.850000381469727,-35.47500228881836,-32.400001525878906
1751119826767833600,3.18983349609375,-8.850000381469727,-35.775001525878906,-32.25
1751119826777778700,3.19977880859375,-8.02500057220459,-35.92500305175781,-32.10000228881836
1751119826787723800,3.209723876953125,-7.950000286102295,-36.150001525878906,-31.350000381469727
1751119826807614000,3.229614013671875,-9.52500057220459,-37.42500305175781,-29.700000762939453
1751119826817559000,3.23955908203125,-9.90000057220459,-38.17500305175781,-28.650001525878906
1751119826827504000,3.249504150390625,-10.725000381469727,-38.55000305175781,-27.825000762939453
1751119826837449000,3.259448974609375,-11.925000190734863,-38.32500076293945,-27.450000762939453
1751119826847394000,3.26939404296875,-12.225000381469727,-38.400001525878906,-27.450000762939453
1751119826857339100,3.279339111328125,-12.450000762939453,-38.32500076293945,-27.825000762939453
1751119826867284200,3.2892841796875,-12.825000762939453,-38.025001525878906,-28.05000114440918
1751119826877229300,3.299229248046875,-13.27500057220459,-37.275001525878906,-28.05000114440918
1751119826887174400,3.30917431640625,-13.800000190734863,-36.150001525878906,-28.500001907348633
1751119826917009400,3.339009521484375,-18,-32.32500076293945,-30.900001525878906
1751119826926954500,3.34895458984375,-18.375,-30.600000381469727,-32.25
1751119826936899600,3.358899658203125,-19.350000381469727,-29.250001907348633,-33.150001525878906
1751119826946844700,3.3688447265625,-19.200000762939453,-27.375001907348633,-33.900001525878906
1751119826956789800,3.378789794921875,-18.600000381469727,-25.80000114440918,-35.10000228881836
1751119826966734800,3.38873486328125,-18.375,-24.750001907348633,-36.900001525878906
1751119826976679700,3.3986796875,-18.375,-24.67500114440918,-36.82500076293945
1751119826986624800,3.408624755859375,-17.400001525878906,-23.850000381469727,-38.32500076293945
1751119826996569900,3.41856982421875,-15.975000381469727,-22.950000762939453,-39.22500228881836
1751119827006515000,3.428514892578125,-14.325000762939453,-22.650001525878906,-40.05000305175781
1751119827016460000,3.4384599609375,-13.200000762939453,-22.42500114440918,-40.72500228881836
1751119827026405000,3.448405029296875,-12.375000953674316,-21.975000381469727,-41.32500076293945
1751119827036350200,3.45835009765625,-11.77500057220459,-19.42500114440918,-42.150001525878906
1751119827046295000,3.468294921875,-12.225000381469727,-17.700000762939453,-42.45000076293945
1751119827056240000,3.478240234375,-12.90000057220459,-16.200000762939453,-42.900001525878906
1751119827066185200,3.488185302734375,-11.850000381469727,-14.850000381469727,-43.95000076293945
1751119827076130300,3.49813037109375,-10.27500057220459,-12.825000762939453,-44.70000076293945
1751119827086075400,3.508075439453125,-9.825000762939453,-11.02500057220459,-45.22500228881836
1751119827096020500,3.5180205078125,-9.75,-10.050000190734863,-45.75
1751119827105965600,3.527965576171875,-9.375,-9.600000381469727,-46.275001525878906
1751119827115910400,3.537910400390625,-9.375,-9.600000381469727,-46.275001525878906
1751119827125855500,3.54785546875,-8.77500057220459,-9.450000762939453,-46.57500076293945
1751119827135800600,3.557800537109375,-9.225000381469727,-9.450000762939453,-46.35000228881836
1751119827145745700,3.56774560546875,-8.925000190734863,-9.825000762939453,-46.05000305175781
1751119827155690800,3.577690673828125,-8.925000190734863,-10.350000381469727,-45.75
1751119827165635800,3.5876357421875,-9.975000381469727,-10.875,-45
1751119827175581000,3.597580810546875,-11.25,-11.625,-44.775001525878906
1751119827195470800,3.617470947265625,-17.400001525878906,-12.225000381469727,-42.30000305175781
1751119827205416000,3.627416015625,-21.375,-11.850000381469727,-40.42500305175781
1751119827215361000,3.637361083984375,-25.650001525878906,-11.325000762939453,-38.400001525878906
1751119827225306000,3.64730615234375,-28.350000381469727,-10.950000762939453,-36
1751119827235251200,3.657251220703125,-30.450000762939453,-10.575000762939453,-33.900001525878906
1751119827245196300,3.6671962890625,-33.45000076293945,-10.27500057220459,-30.825000762939453
1751119827255141400,3.677141357421875,-33.45000076293945,-10.27500057220459,-30.825000762939453
1751119827265086500,3.68708642578125,-33.82500076293945,-10.27500057220459,-30.30000114440918
1751119827275031600,3.697031494140625,-34.05000305175781,-9.600000381469727,-30.000001907348633
1751119827284976600,3.7069765625,-33.75,-9.15000057220459,-30.450000762939453
1751119827294922000,3.716921875,-33.60000228881836,-8.700000762939453,-31.200000762939453
1751119827304867000,3.7268671875,-33.900001525878906,-8.100000381469727,-31.575000762939453
1751119827314812200,3.736812255859375,-33.07500076293945,-7.050000190734863,-31.650001525878906
1751119827324757200,3.74675732421875,-32.70000076293945,-6.675000190734863,-32.10000228881836
1751119827334702300,3.756702392578125,-33.150001525878906,-7.050000190734863,-31.875001907348633
1751119827364537600,3.78653759765625,-34.875,-7.575000286102295,-29.475000381469727
1751119827384427800,3.806427734375,-35.92500305175781,-6.975000381469727,-28.275001525878906
1751119827394372900,3.816372802734375,-35.625,-6.675000190734863,-29.100000381469727
1751119827404318000,3.82631787109375,-35.17500305175781,-6.225000381469727,-29.700000762939453
1751119827414263000,3.836262939453125,-35.10000228881836,-6.225000381469727,-29.625001907348633
1751119827424208100,3.8462080078125,-34.20000076293945,-5.25,-30.67500114440918
1751119827434153200,3.8561533203125,-32.625,-4.200000286102295,-32.25
1751119827444098300,3.866098388671875,-31.650001525878906,-3.375000238418579,-33.75
1751119827454043600,3.876043701171875,-30.600000381469727,-2.9250001907348633,-35.55000305175781
1751119827463988700,3.88598876953125,-27.825000762939453,-3.075000047683716,-37.5
1751119827473933800,3.895933837890625,-26.775001525878906,-3.6750001907348633,-38.32500076293945
1751119827483879000,3.90587890625,-24.750001907348633,-4.800000190734863,-39.150001525878906
1751119827493824000,3.915823974609375,-22.725000381469727,-5.850000381469727,-40.42500305175781
1751119827503769000,3.92576904296875,-21.375,-6.600000381469727,-41.47500228881836
1751119827513714200,3.935714111328125,-20.17500114440918,-6.900000095367432,-42.22500228881836
1751119827523659300,3.9456591796875,-18.600000381469727,-6.750000476837158,-43.125
1751119827533604400,3.955604248046875,-17.100000381469727,-6.375000476837158,-43.875
1751119827543549400,3.965549560546875,-16.125,-6,-43.875
1751119827553494500,3.97549462890625,-16.125,-5.925000190734863,-43.80000305175781
1751119827563439600,3.985439697265625,-14.550000190734863,-5.175000190734863,-44.17500305175781
1751119827573384700,3.995384765625,-13.500000953674316,-4.725000381469727,-44.775001525878906
1751119827583329800,4.005329833984375,-13.350000381469727,-4.350000381469727,-44.92500305175781
1751119827593275000,4.01527490234375,-13.050000190734863,-3.825000047683716,-45.22500228881836
1751119827603220000,4.025219970703125,-12.300000190734863,-3.6750001907348633,-45.525001525878906
1751119827613165300,4.035165283203125,-11.25,-3.3000001907348633,-45.75
1751119827623110400,4.0451103515625,-10.875,-3.3000001907348633,-45.900001525878906
1751119827633055500,4.055055419921875,-11.850000381469727,-3.375000238418579,-45.150001525878906
1751119827643000600,4.06500048828125,-14.40000057220459,-3.2250001430511475,-44.400001525878906
1751119827652945700,4.074945556640625,-16.5,-3.375000238418579,-43.95000076293945
1751119827662890800,4.084890869140625,-16.80000114440918,-4.125,-43.57500076293945
1751119827672835800,4.0948359375,-17.700000762939453,-4.575000286102295,-43.72500228881836
1751119827682781000,4.104781005859375,-17.17500114440918,-4.5,-43.95000076293945
1751119827692726000,4.11472607421875,-17.17500114440918,-4.5,-43.95000076293945
1751119827702671000,4.124671142578125,-16.875,-4.350000381469727,-43.80000305175781
1751119827712616200,4.1346162109375,-17.92500114440918,-3.825000047683716,-43.35000228881836
1751119827722561300,4.144561279296875,-19.200000762939453,-2.4750001430511475,-42.97500228881836
1751119827732506400,4.15450634765625,-20.400001525878906,-0.8250000476837158,-42.45000076293945
1751119827742451200,4.164451171875,-20.625,-0.30000001192092896,-42.375
1751119827752396300,4.174396240234375,-19.350000381469727,-0.6000000238418579,-42.60000228881836
1751119827762341400,4.18434130859375,-18.600000381469727,-0.8250000476837158,-42.82500076293945
1751119827772286500,4.194286376953125,-18.75,-0.675000011920929,-43.57500076293945
1751119827782231600,4.2042314453125,-18.900001525878906,-0.07500000298023224,-43.72500228881836
1751119827792176600,4.2141767578125,-18.075000762939453,0.9000000357627869,-43.57500076293945
1751119827802121700,4.224121826171875,-16.350000381469727,1.8000000715255737,-44.10000228881836
1751119827812066600,4.234066650390625,-15.225000381469727,2.25,-44.70000076293945
1751119827822011600,4.24401171875,-13.725000381469727,3.075000047683716,-45.07500076293945
1751119827831956700,4.253956787109375,-12.52500057220459,3.9750001430511475,-45.30000305175781
1751119827841901800,4.26390185546875,-12.52500057220459,4.050000190734863,-45.150001525878906
1751119827851847000,4.273846923828125,-11.550000190734863,4.5,-45.150001525878906
1751119827861792000,4.2837919921875,-10.800000190734863,4.875,-45.60000228881836
1751119827871737000,4.293737060546875,-10.350000381469727,5.175000190734863,-45.75
1751119827881682000,4.303681884765625,-11.77500057220459,4.950000286102295,-45.45000076293945
1751119827891627000,4.313626953125,-11.850000381469727,4.800000190734863,-44.92500305175781
1751119827901572000,4.323572021484375,-12.750000953674316,4.575000286102295,-44.85000228881836
1751119827911517200,4.33351708984375,-14.100000381469727,4.200000286102295,-44.625
1751119827921462300,4.343462158203125,-15.600000381469727,4.200000286102295,-44.10000228881836
1751119827931407400,4.353407470703125,-17.475000381469727,4.5,-43.275001525878906
1751119827941352400,4.3633525390625,-19.42500114440918,4.5,-42.375
1751119827951297300,4.37329736328125,-20.100000381469727,4.425000190734863,-42.150001525878906
1751119827961242400,4.383242431640625,-20.100000381469727,4.650000095367432,-42.07500076293945
1751119827981132500,4.403132568359375,-19.42500114440918,5.700000286102295,-42.07500076293945
1751119827991077600,4.41307763671875,-19.42500114440918,5.700000286102295,-42.07500076293945
1751119828001022700,4.423022705078125,-19.200000762939453,6.450000286102295,-42.07500076293945
1751119828010967800,4.4329677734375,-18.825000762939453,6.900000095367432,-42.60000228881836
1751119828020912600,4.44291259765625,-17.850000381469727,8.02500057220459,-42.67500305175781
1751119828030857700,4.452857666015625,-16.200000762939453,9.52500057220459,-42.82500076293945
1751119828040802800,4.462802734375,-14.77500057220459,10.5,-43.05000305175781
1751119828050748000,4.472747802734375,-13.500000953674316,11.475000381469727,-43.125
1751119828060693000,4.48269287109375,-12,12.52500057220459,-43.275001525878906
1751119828070638000,4.49263818359375,-10.200000762939453,13.27500057220459,-43.35000228881836
1751119828080583200,4.502583251953125,-8.175000190734863,13.800000190734863,-43.80000305175781
1751119828090528000,4.512528076171875,-6.450000286102295,14.625000953674316,-44.25
1751119828100473000,4.52247314453125,-3.375000238418579,15.90000057220459,-44.400001525878906
1751119828110418200,4.532418212890625,-0.9000000357627869,16.275001525878906,-44.55000305175781
1751119828120363300,4.54236328125,0.6000000238418579,16.200000762939453,-44.47500228881836
1751119828130308400,4.552308349609375,0.6000000238418579,16.125,-44.400001525878906
1751119828140253400,4.56225341796875,1.5750000476837158,16.125,-44.17500305175781
1751119828150198500,4.572198486328125,2.1750001907348633,16.05000114440918,-44.47500228881836
1751119828160143600,4.5821435546875,0.675000011920929,15.825000762939453,-44.47500228881836
1751119828170089000,4.5920888671875,-0.75,15.675000190734863,-44.400001525878906
1751119828180034000,4.602033935546875,-1.9500000476837158,15.375000953674316,-44.47500228881836
1751119828189979100,4.611979248046875,-5.325000286102295,15.52500057220459,-44.17500305175781
1751119828199924200,4.62192431640625,-8.475000381469727,15.675000190734863,-43.72500228881836
1751119828209869300,4.631869384765625,-10.27500057220459,15.000000953674316,-42.67500305175781
1751119828219814400,4.641814453125,-12.750000953674316,14.175000190734863,-41.85000228881836
1751119828229759500,4.651759521484375,-16.350000381469727,13.050000190734863,-41.47500228881836
1751119828239704600,4.66170458984375,-19.05000114440918,11.77500057220459,-40.875
1751119828249649700,4.671649658203125,-21.600000381469727,10.875,-40.5
1751119828259594800,4.6815947265625,-23.625,10.125,-39.525001525878906
1751119828269539800,4.691539794921875,-25.05000114440918,9.375,-38.10000228881836
1751119828279485000,4.70148486328125,-25.05000114440918,9.450000762939453,-38.10000228881836
1751119828289430000,4.711429931640625,-26.17500114440918,8.925000190734863,-37.57500076293945
1751119828299375000,4.721375,-26.400001525878906,8.77500057220459,-37.80000305175781
1751119828309320200,4.7313203125,-25.42500114440918,8.850000381469727,-38.17500305175781
1751119828319265300,4.741265380859375,-24.225000381469727,9.075000762939453,-38.55000305175781
1751119828329210600,4.751210693359375,-23.17500114440918,9,-39.150001525878906
1751119828339155700,4.76115576171875,-22.200000762939453,9.375,-39.75
1751119828349100800,4.771100830078125,-21.375,9.52500057220459,-40.35000228881836
1751119828359047200,4.781047119140625,-20.775001525878906,9.375,-40.875
1751119828368991700,4.79099169921875,-20.400001525878906,9.450000762939453,-40.95000076293945
1751119828378936000,4.80093603515625,-20.55000114440918,9.975000381469727,-40.5
1751119828388880600,4.810880615234375,-20.625,10.27500057220459,-40.650001525878906
1751119828398825200,4.8208251953125,-20.775001525878906,10.27500057220459,-40.95000076293945
1751119828408769800,4.830769775390625,-20.625,11.25,-40.57500076293945
1751119828418714400,4.84071435546875,-20.625,11.25,-40.57500076293945
1751119828428659200,4.8506591796875,-19.80000114440918,12.675000190734863,-39.82500076293945
1751119828438604000,4.86060400390625,-19.575000762939453,13.875000953674316,-39.525001525878906
1751119828448549000,4.870549072265625,-19.42500114440918,15.300000190734863,-39.30000305175781
1751119828458494200,4.880494140625,-18.75,16.725000381469727,-38.400001525878906
1751119828468439600,4.890439453125,-19.650001525878906,18.450000762939453,-37.275001525878906
1751119828478385000,4.900385009765625,-20.850000381469727,19.575000762939453,-36.150001525878906
1751119828488330200,4.910330322265625,-21.375,19.5,-35.85000228881836
1751119828498275600,4.920275634765625,-21.600000381469727,18.825000762939453,-36.07500076293945
1751119828508221200,4.93022119140625,-21.67500114440918,18.225000381469727,-36.22500228881836
1751119828518166800,4.940166748046875,-22.200000762939453,17.400001525878906,-36.75
1751119828528112000,4.950112060546875,-21.825000762939453,15.600000381469727,-38.025001525878906
1751119828538057700,4.9600576171875,-21.600000381469727,15.075000762939453,-38.400001525878906
1751119828548003300,4.97000341796875,-21.525001525878906,14.250000953674316,-39
1751119828557948400,4.979948486328125,-21.825000762939453,13.425000190734863,-39.30000305175781
1751119828567893500,4.9898935546875,-21.825000762939453,13.425000190734863,-39.22500228881836
1751119828577838600,4.999838623046875,-21.225000381469727,12.750000953674316,-39.45000076293945
1751119828587783400,5.009783447265625,-21,12.225000381469727,-39.900001525878906
1751119828597728500,5.019728515625,-21.225000381469727,11.77500057220459,-40.20000076293945
1751119828607673600,5.029673583984375,-20.325000762939453,11.25,-40.57500076293945
1751119828617618700,5.03961865234375,-18.75,10.800000190734863,-41.32500076293945
1751119828627563800,5.049563720703125,-17.850000381469727,10.350000381469727,-41.85000228881836
1751119828647454000,5.069453857421875,-17.100000381469727,10.350000381469727,-42.60000228881836
1751119828667344000,5.08934375,-17.92500114440918,11.550000190734863,-41.25
1751119828677289000,5.0992890625,-18.67500114440918,12.375000953674316,-40.5
1751119828687234000,5.109234130859375,-19.350000381469727,12.300000190734863,-40.05000305175781
1751119828697179100,5.11917919921875,-21.225000381469727,12.075000762939453,-39.375
1751119828707124200,5.129124267578125,-23.850000381469727,12.600000381469727,-38.17500305175781
1751119828717069300,5.1390693359375,-23.775001525878906,12.450000762939453,-38.025001525878906
1751119828727014100,5.14901416015625,-25.275001525878906,12.52500057220459,-36.525001525878906
1751119828736959200,5.158959228515625,-27.450000762939453,12.600000381469727,-35.32500076293945
1751119828746904300,5.168904296875,-27.450000762939453,12.600000381469727,-35.47500228881836
1751119828756849400,5.178849365234375,-27.67500114440918,12.675000190734863,-35.025001525878906
1751119828766794500,5.18879443359375,-27.600000381469727,12.52500057220459,-34.72500228881836
1751119828776739600,5.198739501953125,-27.67500114440918,12.450000762939453,-34.80000305175781
1751119828786684700,5.2086845703125,-27.900001525878906,12.600000381469727,-34.57500076293945
1751119828796629500,5.21862939453125,-28.200000762939453,13.125000953674316,-33.97500228881836
1751119828806574600,5.22857470703125,-28.650001525878906,13.500000953674316,-33.60000228881836
1751119828816519700,5.238519775390625,-29.17500114440918,13.500000953674316,-33
1751119828826464800,5.24846484375,-30.225000381469727,13.125000953674316,-32.25
1751119828836409900,5.258409912109375,-31.42500114440918,13.050000190734863,-31.725000381469727
1751119828856300000,5.278300048828125,-32.47500228881836,13.125000953674316,-30.600000381469727
1751119828866244900,5.288244873046875,-33.45000076293945,12.90000057220459,-29.700000762939453
1751119828886135000,5.308135009765625,-35.10000228881836,12.375000953674316,-28.200000762939453
1751119828896080100,5.318080078125,-35.92500305175781,12.075000762939453,-26.775001525878906
1751119828915970300,5.33797021484375,-37.42500305175781,12.300000190734863,-24.450000762939453
1751119828925915400,5.347915283203125,-37.42500305175781,12.750000953674316,-23.850000381469727
1751119828935860500,5.357860595703125,-37.42500305175781,13.27500057220459,-23.325000762939453
1751119828945805600,5.3678056640625,-36.60000228881836,14.625000953674316,-22.650001525878906
1751119828955750700,5.377750732421875,-36.22500228881836,15.450000762939453,-22.5
1751119828965695700,5.38769580078125,-36.30000305175781,16.725000381469727,-22.650001525878906
1751119828975640800,5.397640869140625,-36.22500228881836,17.325000762939453,-22.950000762939453
1751119828985586000,5.4075859375,-35.47500228881836,18.075000762939453,-23.100000381469727
1751119828995531000,5.417531005859375,-35.47500228881836,18,-23.025001525878906
1751119829005476000,5.42747607421875,-35.400001525878906,18,-23.025001525878906
1751119829015421200,5.437421142578125,-33.60000228881836,19.125,-24.450000762939453
1751119829025366300,5.4473662109375,-33.375,18.975000381469727,-25.500001907348633
1751119829035311400,5.457311279296875,-33.60000228881836,18.600000381469727,-25.575000762939453
1751119829045256400,5.46725634765625,-34.05000305175781,18,-25.650001525878906
1751119829055201500,5.477201416015625,-34.80000305175781,17.25,-25.875001907348633
1751119829065147000,5.48714697265625,-35.400001525878906,16.42500114440918,-26.025001525878906
1751119829075092000,5.497092041015625,-35.32500076293945,16.05000114440918,-26.025001525878906
1751119829085037000,5.507037109375,-34.80000305175781,15.750000953674316,-26.400001525878906
1751119829094982100,5.516982177734375,-33.97500228881836,15.375000953674316,-26.92500114440918
1751119829104927200,5.52692724609375,-33.150001525878906,15.075000762939453,-27.67500114440918
1751119829114872300,5.536872314453125,-32.92500305175781,15.375000953674316,-28.350000381469727
1751119829124817400,5.5468173828125,-32.85000228881836,16.05000114440918,-28.42500114440918
1751119829134762500,5.556762451171875,-32.55000305175781,16.125,-28.42500114440918
1751119829144707600,5.56670751953125,-32.55000305175781,16.42500114440918,-27.750001907348633
1751119829154652700,5.576652587890625,-32.47500228881836,16.42500114440918,-27.750001907348633
1751119829164597800,5.58659765625,-34.42500305175781,18,-25.500001907348633
1751119829174542800,5.59654296875,-33.900001525878906,18.375,-24.825000762939453
1751119829184488000,5.606488037109375,-33.67500305175781,18.450000762939453,-25.05000114440918
1751119829194433000,5.61643310546875,-33.22500228881836,18.150001525878906,-26.025001525878906
1751119829204378000,5.626378173828125,-32.400001525878906,17.850000381469727,-27.450000762939453
1751119829214323200,5.6363232421875,-31.500001907348633,17.475000381469727,-29.250001907348633
1751119829224268500,5.6462685546875,-29.400001525878906,16.650001525878906,-31.500001907348633
1751119829234213600,5.656213623046875,-28.125001907348633,15.600000381469727,-33.67500305175781
1751119829244158700,5.66615869140625,-27.600000381469727,14.40000057220459,-35.17500305175781
1751119829254103800,5.676103759765625,-27.450000762939453,14.100000381469727,-35.70000076293945
1751119829264049000,5.686048828125,-27.525001525878906,13.950000762939453,-35.400001525878906
1751119829273994000,5.695993896484375,-27.525001525878906,13.500000953674316,-34.80000305175781
1751119829283939000,5.70593896484375,-28.275001525878906,13.575000762939453,-34.275001525878906
1751119829293884200,5.71588427734375,-28.200000762939453,13.65000057220459,-34.125
1751119829303829200,5.725829345703125,-30.075000762939453,13.050000190734863,-32.85000228881836
1751119829313774300,5.7357744140625,-32.10000228881836,12.300000190734863,-31.200000762939453
1751119829323719400,5.745719482421875,-33.97500228881836,11.550000190734863,-29.92500114440918
1751119829333664500,5.75566455078125,-34.57500076293945,11.40000057220459,-29.55000114440918
1751119829343609600,5.765609619140625,-36.07500076293945,9.825000762939453,-28.05000114440918
1751119829353554700,5.7755546875,-36.07500076293945,7.275000095367432,-27.450000762939453
1751119829363499800,5.785499755859375,-35.25,5.925000190734863,-28.125001907348633
1751119829373444900,5.79544482421875,-33.75,4.350000381469727,-29.100000381469727
1751119829383390200,5.80539013671875,-33.97500228881836,4.5,-30.450000762939453
1751119829393335300,5.815335205078125,-33.525001525878906,4.575000286102295,-32.55000305175781
1751119829403280400,5.8252802734375,-32.400001525878906,4.200000286102295,-33.22500228881836
1751119829413225500,5.8352255859375,-31.650001525878906,3.750000238418579,-34.125
1751119829423170600,5.845170654296875,-30.975000381469727,3.825000047683716,-36.22500228881836
1751119829433115600,5.85511572265625,-29.55000114440918,3,-34.5
1751119829443060700,5.865060791015625,-28.42500114440918,2.5500001907348633,-35.92500305175781
1751119829453005800,5.875005859375,-26.625001907348633,1.6500000953674316,-36.45000076293945
1751119829462951000,5.884950927734375,-25.725000381469727,1.5,-37.80000305175781
1751119829472896000,5.89489599609375,-24.900001525878906,1.350000023841858,-39.07500076293945
1751119829482841000,5.904841064453125,-23.475000381469727,1.5750000476837158,-40.125
1751119829492786200,5.9147861328125,-22.275001525878906,1.5,-41.17500305175781
1751119829502731300,5.924731201171875,-22.200000762939453,0.9750000238418579,-41.70000076293945
1751119829512676400,5.93467626953125,-21.75,1.2000000476837158,-42.150001525878906
1751119829522621400,5.944621337890625,-21.150001525878906,1.8750001192092896,-42
1751119829532566800,5.95456689453125,-20.92500114440918,1.8750001192092896,-41.92500305175781
1751119829542511900,5.964511962890625,-20.400001525878906,1.725000023841858,-42.30000305175781
1751119829552457000,5.97445703125,-20.700000762939453,3.2250001430511475,-42.30000305175781
1751119829562402000,5.984402099609375,-21.525001525878906,4.050000190734863,-42.60000228881836
1751119829572347100,5.99434716796875,-21,4.125,-42.22500228881836
1751119829582292200,6.004292236328125,-19.875,6.075000286102295,-41.17500305175781
1751119829592237300,6.0142373046875,-19.950000762939453,7.200000286102295,-40.95000076293945
1751119829602182400,6.024182373046875,-19.42500114440918,7.875000476837158,-40.875
1751119829612127500,6.03412744140625,-19.05000114440918,8.325000762939453,-41.025001525878906
1751119829622072600,6.044072509765625,-20.100000381469727,8.325000762939453,-41.025001525878906
1751119829632017700,6.054017578125,-20.475000381469727,7.725000381469727,-40.72500228881836
1751119829641962800,6.063962646484375,-19.650001525878906,6.825000286102295,-41.025001525878906
1751119829651907800,6.073907958984375,-20.100000381469727,5.325000286102295,-40.875
1751119829661853000,6.08385302734375,-21.225000381469727,4.200000286102295,-41.025001525878906
1751119829671798000,6.093798095703125,-21.375,3.6750001907348633,-41.400001525878906
1751119829681743000,6.1037431640625,-20.92500114440918,2.700000047683716,-41.10000228881836
1751119829691688400,6.1136884765625,-21.375,2.1000001430511475,-40.5
1751119829701633500,6.123633544921875,-22.950000762939453,2.0250000953674316,-39.900001525878906
1751119829711578600,6.13357861328125,-25.125001907348633,2.1750001907348633,-39.375
1751119829721523700,6.143523681640625,-25.500001907348633,2.625,-39
1751119829731468800,6.15346875,-25.42500114440918,2.5500001907348633,-39
1751119829741414000,6.163413818359375,-25.350000381469727,2.625,-38.70000076293945
1751119829751359000,6.17335888671875,-25.500001907348633,2.1750001907348633,-38.92500305175781
1751119829761304000,6.183303955078125,-24.600000381469727,1.5750000476837158,-39.525001525878906
1751119829771249200,6.193249267578125,-24.30000114440918,1.2750000953674316,-39.375
1751119829781194200,6.2031943359375,-24.225000381469727,0.9750000238418579,-39.67500305175781
1751119829791139300,6.213139404296875,-23.325000762939453,0.8250000476837158,-40.05000305175781
1751119829801084400,6.22308447265625,-21.600000381469727,1.125,-41.025001525878906
1751119829811029500,6.233029541015625,-21,1.8000000715255737,-41.10000228881836
1751119829820974600,6.242974609375,-20.700000762939453,2.0250000953674316,-41.47500228881836
1751119829830919700,6.252919677734375,-20.25,2.625,-41.775001525878906
1751119829840864500,6.262864501953125,-19.950000762939453,4.050000190734863,-41.70000076293945
1751119829860754700,6.282754638671875,-19.650001525878906,5.925000190734863,-41.25
1751119829870699800,6.29269970703125,-19.950000762939453,5.325000286102295,-40.650001525878906
1751119829880644900,6.302644775390625,-20.55000114440918,6.150000095367432,-40.05000305175781
1751119829890590000,6.31258984375,-21.375,6.900000095367432,-39.45000076293945
1751119829900535000,6.32253515625,-22.5,8.25,-38.70000076293945
1751119829910480000,6.33247998046875,-23.400001525878906,9.90000057220459,-37.57500076293945
1751119829920425000,6.342425048828125,-24.375001907348633,10.800000190734863,-36.900001525878906
1751119829930370000,6.3523701171875,-25.42500114440918,12.225000381469727,-36.30000305175781
1751119829940315100,6.362315185546875,-26.55000114440918,14.100000381469727,-35.47500228881836
1751119829950260200,6.37226025390625,-27.525001525878906,15.000000953674316,-34.80000305175781
1751119829960205300,6.382205322265625,-27.600000381469727,15.975000381469727,-33.75
1751119829970150400,6.392150390625,-28.200000762939453,17.625,-32.47500228881836
1751119829990040300,6.412040283203125,-29.400001525878906,18.975000381469727,-29.55000114440918
1751119829999985400,6.4219853515625,-31.725000381469727,20.025001525878906,-28.42500114440918
1751119830009930500,6.431930419921875,-33.22500228881836,19.650001525878906,-26.775001525878906
1751119830019875600,6.44187548828125,-33.30000305175781,19.575000762939453,-25.200000762939453
1751119830029820700,6.451820556640625,-33.375,19.575000762939453,-24.30000114440918
1751119830039765800,6.461765869140625,-34.650001525878906,19.350000381469727,-23.625
1751119830049710600,6.471710693359375,-35.625,19.575000762939453,-22.950000762939453
1751119830059655700,6.48165576171875,-35.775001525878906,20.25,-22.575000762939453
1751119830069600800,6.491600830078125,-34.95000076293945,20.025001525878906,-23.025001525878906
1751119830079545900,6.5015458984375,-33.75,19.950000762939453,-23.850000381469727
1751119830089491000,6.511490966796875,-33.150001525878906,20.400001525878906,-24.67500114440918
1751119830099436000,6.52143603515625,-32.70000076293945,21.150001525878906,-24.975000381469727
1751119830109382000,6.5313818359375,-32.25,21.900001525878906,-25.200000762939453
1751119830119327200,6.5413271484375,-32.55000305175781,22.5,-25.650001525878906
1751119830129272300,6.551272216796875,-31.950000762939453,23.25,-25.500001907348633
1751119830139217700,6.5612177734375,-31.275001525878906,23.55000114440918,-24.975000381469727
1751119830149162800,6.571162841796875,-31.950000762939453,23.700000762939453,-24.750001907348633
1751119830159107600,6.581107666015625,-31.725000381469727,23.92500114440918,-23.55000114440918
1751119830169052700,6.591052734375,-31.350000381469727,23.475000381469727,-23.325000762939453
1751119830178997800,6.600997802734375,-31.350000381469727,23.475000381469727,-21.900001525878906
1751119830188942800,6.61094287109375,-33,23.625,-20.55000114440918
1751119830198888000,6.620887939453125,-34.125,23.850000381469727,-19.725000381469727
1751119830208833000,6.6308330078125,-33.900001525878906,24,-19.950000762939453
1751119830218778000,6.640778076171875,-32.10000228881836,23.850000381469727,-20.700000762939453
1751119830228723000,6.650722900390625,-31.350000381469727,24.225000381469727,-21.67500114440918
1751119830238668000,6.66066796875,-30.975000381469727,24.67500114440918,-22.350000381469727
1751119830248613000,6.670613037109375,-30.975000381469727,24.750001907348633,-22.575000762939453
1751119830258558200,6.68055810546875,-30.525001525878906,25.125001907348633,-22.275001525878906
1751119830268503300,6.69050341796875,-30.30000114440918,25.575000762939453,-21.975000381469727
1751119830278448400,6.700448486328125,-30.525001525878906,25.875001907348633,-21.975000381469727
1751119830288393500,6.7103935546875,-30.375001907348633,26.025001525878906,-22.125
1751119830298338300,6.72033837890625,-29.850000381469727,25.950000762939453,-22.05000114440918
1751119830308283400,6.730283447265625,-29.92500114440918,25.950000762939453,-22.05000114440918
1751119830318228500,6.740228515625,-30.450000762939453,25.650001525878906,-21.75
1751119830328173600,6.750173583984375,-30.525001525878906,25.575000762939453,-22.05000114440918
1751119830338118700,6.76011865234375,-29.325000762939453,25.575000762939453,-22.950000762939453
1751119830348063700,6.770063720703125,-29.250001907348633,25.275001525878906,-24.075000762939453
1751119830358008800,6.7800087890625,-28.500001907348633,25.575000762939453,-25.125001907348633
1751119830367954000,6.789953857421875,-27.075000762939453,25.650001525878906,-25.500001907348633
1751119830377898800,6.799898681640625,-26.100000381469727,25.80000114440918,-26.100000381469727
1751119830387843800,6.80984375,-25.725000381469727,25.950000762939453,-26.475000381469727
1751119830397789000,6.819788818359375,-26.625001907348633,25.500001907348633,-26.775001525878906
1751119830407734000,6.829734130859375,-26.400001525878906,25.350000381469727,-27.150001525878906
1751119830417679000,6.83967919921875,-25.875001907348633,25.500001907348633,-27.075000762939453
1751119830427624200,6.849624267578125,-26.475000381469727,25.05000114440918,-27.225000381469727
1751119830437569300,6.8595693359375,-28.200000762939453,23.92500114440918,-27.600000381469727
1751119830447514000,6.86951416015625,-27.975000381469727,24.075000762939453,-27.150001525878906
1751119830457459200,6.879459228515625,-28.42500114440918,22.950000762939453,-27.525001525878906
1751119830467404300,6.889404296875,-28.350000381469727,22.350000381469727,-27.825000762939453
1751119830477349400,6.899349365234375,-27.825000762939453,21.75,-27.975000381469727
1751119830487294500,6.90929443359375,-27.525001525878906,20.92500114440918,-28.42500114440918
1751119830497239600,6.919239501953125,-27.67500114440918,20.17500114440918,-29.17500114440918
1751119830507184600,6.9291845703125,-27.075000762939453,19.875,-30.000001907348633
1751119830517129700,6.939129638671875,-26.17500114440918,19.725000381469727,-31.500001907348633
1751119830527074800,6.94907470703125,-25.275001525878906,19.125,-33.150001525878906
1751119830537020200,6.959020263671875,-23.100000381469727,18.375,-34.275001525878906
1751119830546965200,6.96896533203125,-21.600000381469727,17.400001525878906,-35.25
1751119830556910300,6.978910400390625,-20.400001525878906,16.950000762939453,-36.22500228881836
1751119830566855400,6.98885546875,-19.125,17.100000381469727,-37.125
1751119830576800500,6.998800537109375,-17.850000381469727,17.025001525878906,-38.25
1751119830586745600,7.00874560546875,-16.42500114440918,16.875,-39
1751119830596690700,7.018690673828125,-16.125,16.725000381469727,-38.625
1751119830606635800,7.0286357421875,-14.40000057220459,16.80000114440918,-39.07500076293945
1751119830616580900,7.038580810546875,-13.200000762939453,16.650001525878906,-39.82500076293945
1751119830626526000,7.04852587890625,-12.300000190734863,17.100000381469727,-40.05000305175781
1751119830636471000,7.058470947265625,-11.100000381469727,17.700000762939453,-40.35000228881836
1751119830646416100,7.068416015625,-10.5,18,-40.42500305175781
1751119830656361200,7.078361328125,-10.800000190734863,18.30000114440918,-40.57500076293945
1751119830666306300,7.088306396484375,-10.65000057220459,18.67500114440918,-40.05000305175781
1751119830676251400,7.09825146484375,-10.200000762939453,18.900001525878906,-39.525001525878906
1751119830686196500,7.108196533203125,-10.5,18.75,-39.67500305175781
1751119830696141800,7.118141845703125,-10.27500057220459,18.75,-39.60000228881836
1751119830706087000,7.1280869140625,-10.350000381469727,19.275001525878906,-39.45000076293945
1751119830716032000,7.138031982421875,-11.325000762939453,19.5,-39.30000305175781
1751119830725977000,7.14797705078125,-12.450000762939453,19.200000762939453,-38.92500305175781
1751119830735922200,7.157922119140625,-13.050000190734863,18.825000762939453,-39.22500228881836
1751119830745867300,7.1678671875,-12.975000381469727,18.75,-39
1751119830755812400,7.177812255859375,-13.125000953674316,18,-39.375
1751119830765757400,7.18775732421875,-14.40000057220459,16.80000114440918,-39.525001525878906
1751119830775702500,7.19770263671875,-14.325000762939453,16.275001525878906,-39.45000076293945
1751119830785647600,7.207647705078125,-14.325000762939453,15.825000762939453,-39.525001525878906
1751119830795592700,7.2175927734375,-14.175000190734863,15.450000762939453,-39.75
1751119830805537800,7.227537841796875,-14.925000190734863,15.15000057220459,-39.67500305175781
1751119830815483000,7.23748291015625,-16.125,14.925000190734863,-38.92500305175781
1751119830825428000,7.247427978515625,-16.125,15.075000762939453,-38.32500076293945
1751119830835373000,7.257373046875,-17.92500114440918,14.925000190734863,-37.95000076293945
1751119830845318100,7.267318115234375,-19.42500114440918,14.850000381469727,-37.5
1751119830855263500,7.277263427734375,-20.25,14.475000381469727,-37.5
1751119830875153700,7.297153564453125,-20.775001525878906,14.625000953674316,-37.20000076293945
1751119830885098800,7.3070986328125,-20.775001525878906,14.625000953674316,-37.20000076293945
1751119830895043800,7.3170439453125,-20.775001525878906,14.77500057220459,-36.82500076293945
1751119830904989000,7.326989013671875,-20.100000381469727,15.300000190734863,-37.05000305175781
1751119830914934000,7.33693408203125,-19.5,16.05000114440918,-36.900001525878906
1751119830924879000,7.346879150390625,-19.650001525878906,16.875,-36.75
1751119830934824200,7.35682421875,-19.275001525878906,17.025001525878906,-37.125
1751119830944769300,7.366769287109375,-18.67500114440918,16.875,-37.5
1751119830954714400,7.37671435546875,-18.600000381469727,17.55000114440918,-37.35000228881836
1751119830964659500,7.386659423828125,-19.125,18.225000381469727,-36.525001525878906
1751119830974604500,7.3966044921875,-19.875,18.450000762939453,-35.85000228881836
1751119830984549600,7.406549560546875,-20.475000381469727,18,-35.25
1751119830994494700,7.41649462890625,-21.30000114440918,17.775001525878906,-34.875
1751119831004440000,7.426440185546875,-23.325000762939453,18.30000114440918,-34.35000228881836
1751119831014385200,7.43638525390625,-24.67500114440918,18.375,-33.30000305175781
1751119831024330200,7.446330322265625,-25.42500114440918,18.075000762939453,-32.25
1751119831034275300,7.456275390625,-25.125001907348633,17.700000762939453,-31.950000762939453
1751119831044220400,7.466220458984375,-26.325000762939453,18,-30.825000762939453
1751119831054165500,7.47616552734375,-27.975000381469727,18.150001525878906,-29.850000381469727
1751119831064110600,7.486110595703125,-29.400001525878906,18.075000762939453,-28.80000114440918
1751119831074055700,7.4960556640625,-31.500001907348633,17.700000762939453,-26.700000762939453
1751119831084000800,7.506000732421875,-32.70000076293945,17.850000381469727,-25.725000381469727
1751119831093945900,7.51594580078125,-32.400001525878906,17.700000762939453,-24.900001525878906
1751119831103891000,7.525890869140625,-32.70000076293945,17.55000114440918,-24.30000114440918
1751119831113836000,7.5358359375,-33.900001525878906,17.55000114440918,-23.92500114440918
1751119831123781000,7.545781005859375,-33.900001525878906,17.700000762939453,-23.475000381469727
1751119831133726200,7.555726318359375,-33.525001525878906,17.850000381469727,-23.25
1751119831143671300,7.56567138671875,-33.45000076293945,17.700000762939453,-23.025001525878906
1751119831153616400,7.575616455078125,-33.900001525878906,17.850000381469727,-22.950000762939453
1751119831163561700,7.585561767578125,-34.72500228881836,18.150001525878906,-22.575000762939453
1751119831173506800,7.5955068359375,-34.72500228881836,18.150001525878906,-22.575000762939453
1751119831183452000,7.605451904296875,-34.72500228881836,18.075000762939453,-22.575000762939453
1751119831193397000,7.61539697265625,-34.5,18,-22.42500114440918
1751119831203342000,7.625342041015625,-34.42500305175781,18.075000762939453,-22.350000381469727
1751119831213287200,7.635287109375,-34.275001525878906,18.30000114440918,-22.275001525878906
1751119831223232300,7.645232177734375,-34.5,18.375,-21.975000381469727
1751119831233177300,7.65517724609375,-34.42500305175781,18.150001525878906,-21.825000762939453
1751119831243122400,7.665122314453125,-34.650001525878906,18.450000762939453,-21.67500114440918
1751119831253067500,7.675067626953125,-35.10000228881836,18.450000762939453,-20.850000381469727
1751119831263012600,7.6850126953125,-35.92500305175781,18,-20.400001525878906
1751119831272957700,7.694957763671875,-36.22500228881836,17.325000762939453,-20.25
1751119831282902800,7.70490283203125,-36.60000228881836,16.575000762939453,-19.275001525878906
1751119831292847900,7.714847900390625,-36.60000228881836,16.275001525878906,-18.450000762939453
1751119831302793000,7.72479296875,-37.72500228881836,16.350000381469727,-17.850000381469727
1751119831312738000,7.734738037109375,-39,16.125,-17.100000381469727
1751119831322683400,7.744683349609375,-38.775001525878906,16.125,-17.025001525878906
1751119831332628500,7.75462841796875,-39,15.975000381469727,-16.275001525878906
1751119831342573600,7.764573486328125,-39.375,16.650001525878906,-15.450000762939453
1751119831352518700,7.7745185546875,-39.07500076293945,17.325000762939453,-14.625000953674316
1751119831362463700,7.784463623046875,-38.85000228881836,17.17500114440918,-13.950000762939453
1751119831372408800,7.794408935546875,-39.75,17.400001525878906,-12.975000381469727
1751119831382354000,7.80435400390625,-40.05000305175781,17.775001525878906,-11.700000762939453
1751119831392299000,7.814299072265625,-39.60000228881836,17.775001525878906,-10.5
1751119831402244000,7.824244140625,-39.60000228881836,18,-9.225000381469727
1751119831412189200,7.834189208984375,-39.60000228881836,18.67500114440918,-8.100000381469727
1751119831422134300,7.84413427734375,-39.45000076293945,19.200000762939453,-7.650000095367432
1751119831432079400,7.854079345703125,-39.375,19.650001525878906,-8.25
1751119831442024400,7.8640244140625,-38.85000228881836,20.100000381469727,-8.925000190734863
1751119831451969500,7.873969482421875,-38.32500076293945,20.55000114440918,-9.825000762939453
1751119831461914600,7.88391455078125,-38.17500305175781,20.850000381469727,-10.725000381469727
1751119831471859700,7.893859619140625,-38.10000228881836,20.325000762939453,-10.800000190734863
1751119831481804800,7.9038046875,-37.650001525878906,20.400001525878906,-11.700000762939453
1751119831491750000,7.91375,-35.55000305175781,21.075000762939453,-14.850000381469727
1751119831501695000,7.923695068359375,-35.025001525878906,21.225000381469727,-16.350000381469727
1751119831511640000,7.93364013671875,-34.5,20.850000381469727,-16.80000114440918
1751119831521585200,7.943585205078125,-35.10000228881836,20.325000762939453,-16.725000381469727
1751119831531530000,7.953530029296875,-35.70000076293945,20.025001525878906,-16.5
1751119831541475000,7.96347509765625,-36.525001525878906,19.275001525878906,-16.05000114440918
1751119831551420200,7.973420166015625,-37.650001525878906,18.450000762939453,-15.375000953674316
1751119831561365200,7.983365234375,-38.400001525878906,17.700000762939453,-14.700000762939453
1751119831571310300,7.993310302734375,-38.775001525878906,16.725000381469727,-15.000000953674316
1751119831581255400,8.00325537109375,-38.400001525878906,15.52500057220459,-15.750000953674316
1751119831601145300,8.023145263671875,-37.5,14.475000381469727,-18
1751119831611090400,8.03309033203125,-37.275001525878906,14.325000762939453,-17.850000381469727
1751119831621035500,8.043035400390625,-36.60000228881836,14.475000381469727,-19.125
1751119831630980600,8.052980712890625,-35.47500228881836,14.40000057220459,-20.625
1751119831640925700,8.06292578125,-35.025001525878906,14.250000953674316,-21.975000381469727
1751119831650870800,8.072870849609375,-34.95000076293945,14.325000762939453,-23.55000114440918
1751119831660816000,8.08281591796875,-33.900001525878906,13.950000762939453,-25.05000114440918
1751119831670760700,8.0927607421875,-32.025001525878906,13.725000381469727,-26.775001525878906
1751119831680705800,8.102705810546874,-30.750001907348633,13.725000381469727,-27.750001907348633
1751119831690651000,8.11265087890625,-30.750001907348633,13.950000762939453,-28.350000381469727
1751119831700596000,8.122595947265625,-30.150001525878906,14.175000190734863,-29.55000114440918
1751119831710541000,8.132541015625,-28.05000114440918,13.875000953674316,-30.900001525878906
1751119831720486100,8.142486083984375,-27.225000381469727,14.100000381469727,-31.42500114440918
1751119831730431200,8.15243115234375,-26.17500114440918,14.40000057220459,-32.25
1751119831740376000,8.1623759765625,-25.650001525878906,14.625000953674316,-32.625
1751119831760266200,8.182266357421875,-24.900001525878906,14.925000190734863,-32.70000076293945
1751119831770211300,8.19221142578125,-24.150001525878906,15.15000057220459,-33.150001525878906
1751119831780156400,8.202156494140626,-23.775001525878906,15.600000381469727,-33.525001525878906
1751119831790101500,8.2121015625,-24.150001525878906,15.90000057220459,-33.45000076293945
1751119831800046600,8.222046630859374,-23.775001525878906,15.825000762939453,-33.45000076293945
1751119831809991700,8.23199169921875,-23.25,16.125,-33.60000228881836
1751119831819936800,8.241936767578125,-23.025001525878906,16.725000381469727,-33.375
1751119831829881900,8.2518818359375,-22.875,17.55000114440918,-32.85000228881836
1751119831839827000,8.261826904296875,-22.575000762939453,18.375,-32.32500076293945
1751119831849772000,8.27177197265625,-22.275001525878906,18.225000381469727,-32.775001525878906
1751119831859717000,8.281717041015625,-22.125,17.400001525878906,-33.150001525878906
1751119831869662200,8.291662109375,-22.125,16.575000762939453,-33.150001525878906
1751119831879607300,8.301607177734375,-22.950000762939453,15.90000057220459,-33.150001525878906
1751119831889552400,8.311552490234375,-24,15.600000381469727,-32.85000228881836
1751119831899497500,8.32149755859375,-24.600000381469727,15.52500057220459,-32.400001525878906
1751119831909442800,8.33144287109375,-24.450000762939453,15.52500057220459,-32.25
1751119831919388000,8.341387939453124,-25.950000762939453,14.625000953674316,-31.650001525878906
1751119831929333000,8.3513330078125,-26.850000381469727,13.950000762939453,-31.42500114440918
1751119831939278000,8.361278076171875,-27.525001525878906,13.800000190734863,-30.900001525878906
1751119831949223200,8.37122314453125,-28.05000114440918,13.950000762939453,-30.150001525878906
1751119831959168300,8.381168212890625,-28.42500114440918,14.02500057220459,-29.775001525878906
1751119831979058400,8.401058349609375,-29.400001525878906,14.02500057220459,-28.650001525878906
1751119831989003500,8.41100341796875,-29.775001525878906,13.575000762939453,-28.125001907348633
1751119831998948600,8.420948486328125,-29.55000114440918,13.725000381469727,-28.200000762939453
1751119832008893700,8.430893798828125,-29.775001525878906,13.725000381469727,-28.275001525878906
1751119832018838800,8.4408388671875,-30.600000381469727,13.500000953674316,-28.275001525878906
1751119832028783900,8.450783935546875,-30.30000114440918,14.02500057220459,-28.125001907348633
1751119832038729000,8.46072900390625,-29.475000381469727,14.550000190734863,-28.500001907348633
1751119832048674000,8.470674072265625,-29.400001525878906,14.550000190734863,-28.42500114440918
1751119832058619100,8.480619140625,-28.200000762939453,15.075000762939453,-28.650001525878906
1751119832068564500,8.490564453125,-27.375001907348633,15.675000190734863,-28.650001525878906
1751119832078509600,8.500509521484375,-27.225000381469727,16.875,-28.725000381469727
1751119832088454700,8.51045458984375,-27.225000381469727,17.92500114440918,-28.42500114440918
1751119832098399700,8.520399658203125,-27.750001907348633,18.375,-27.975000381469727
1751119832108344800,8.5303447265625,-28.275001525878906,18.375,-27.375001907348633
1751119832118290000,8.5402900390625,-27.825000762939453,18.600000381469727,-26.55000114440918
1751119832128235000,8.550235107421875,-28.125001907348633,18.75,-26.17500114440918
1751119832138180000,8.56018017578125,-28.725000381469727,18.975000381469727,-25.575000762939453
1751119832158070300,8.5800703125,-29.100000381469727,18.075000762939453,-25.80000114440918
1751119832168015400,8.590015380859375,-29.025001525878906,18.375,-26.025001525878906
1751119832177960400,8.59996044921875,-28.275001525878906,18.67500114440918,-26.400001525878906
1751119832187905500,8.609905517578126,-28.275001525878906,18.67500114440918,-26.400001525878906
1751119832197850600,8.6198505859375,-28.275001525878906,18.67500114440918,-26.400001525878906
1751119832207795700,8.629795654296874,-28.275001525878906,18.525001525878906,-25.950000762939453
1751119832217741000,8.639740966796875,-27.750001907348633,18.450000762939453,-26.17500114440918
1751119832227686100,8.64968603515625,-28.125001907348633,18.30000114440918,-26.55000114440918
1751119832237631200,8.65963134765625,-29.475000381469727,18.30000114440918,-26.250001907348633
1751119832247576300,8.669576416015625,-29.55000114440918,18.375,-25.500001907348633
1751119832257521400,8.679521484375,-29.475000381469727,18.375,-24.975000381469727
1751119832267466500,8.689466552734375,-30.225000381469727,18.375,-24.525001525878906
1751119832277411600,8.69941162109375,-30.600000381469727,18.450000762939453,-23.775001525878906
1751119832287356700,8.709356689453125,-31.725000381469727,18.75,-22.725000381469727
1751119832297301800,8.7193017578125,-31.575000762939453,18.825000762939453,-21.825000762939453
1751119832307246800,8.729246826171876,-31.200000762939453,18.75,-21.225000381469727
1751119832317192000,8.73919189453125,-32.70000076293945,19.125,-20.700000762939453
1751119832327137000,8.749136962890624,-33.22500228881836,19.275001525878906,-20.325000762939453
1751119832337082000,8.75908203125,-33.22500228881836,19.200000762939453,-20.025001525878906
1751119832347027200,8.769027099609374,-32.400001525878906,18.900001525878906,-20.025001525878906
1751119832356972300,8.77897216796875,-32.10000228881836,18.975000381469727,-19.875
1751119832366917400,8.78891748046875,-32.625,18.900001525878906,-19.5
1751119832376862700,8.79886279296875,-33.07500076293945,18.600000381469727,-18.975000381469727
1751119832396753000,8.8187529296875,-34.35000228881836,18.525001525878906,-18.150001525878906
1751119832406698000,8.828697998046875,-34.875,18.75,-18.075000762939453
1751119832416643000,8.83864306640625,-34.875,19.05000114440918,-17.475000381469727
1751119832426588200,8.848588134765626,-34.05000305175781,18.825000762939453,-16.875
1751119832436533200,8.858533203125,-33.82500076293945,18.825000762939453,-16.275001525878906
1751119832446478300,8.868478271484374,-34.5,19.42500114440918,-16.125
1751119832456423400,8.87842333984375,-34.57500076293945,20.100000381469727,-16.275001525878906
1751119832466368500,8.888368408203124,-34.05000305175781,20.475000381469727,-16.05000114440918
1751119832476313600,8.898313720703126,-33.22500228881836,20.775001525878906,-15.52500057220459
1751119832486258700,8.9082587890625,-33.150001525878906,20.700000762939453,-15.52500057220459
1751119832496203800,8.918203857421876,-33.07500076293945,21,-14.700000762939453
1751119832506148900,8.92814892578125,-33.82500076293945,21.075000762939453,-14.550000190734863
1751119832516094000,8.938093994140624,-34.80000305175781,21.075000762939453,-14.100000381469727
1751119832526039000,8.9480390625,-34.875,20.92500114440918,-12.975000381469727
1751119832535984400,8.957984375,-34.57500076293945,21,-12.15000057220459
1751119832545929500,8.967929443359376,-34.875,21,-11.700000762939453
1751119832555874600,8.97787451171875,-34.275001525878906,21.450000762939453,-12.450000762939453
1751119832565819600,8.987819580078124,-33.82500076293945,21.67500114440918,-13.575000762939453
1751119832575764700,8.9977646484375,-33.82500076293945,21.75,-14.40000057220459
1751119832585709800,9.007709716796874,-33.60000228881836,21.975000381469727,-15.375000953674316
1751119832595655000,9.017655029296876,-33.30000305175781,21.67500114440918,-15.975000381469727
1751119832605601000,9.02760107421875,-32.47500228881836,21.375,-16.875
1751119832615545300,9.03754541015625,-31.875001907348633,21.375,-17.700000762939453
1751119832625489400,9.047489501953125,-31.875001907348633,21.30000114440918,-17.625
1751119832635433500,9.05743359375,-31.950000762939453,20.850000381469727,-18.075000762939453
1751119832645377800,9.067377685546875,-32.55000305175781,20.17500114440918,-17.92500114440918
1751119832655322000,9.077322021484376,-33.30000305175781,19.5,-17.400001525878906
1751119832665266700,9.0872666015625,-33.45000076293945,18.900001525878906,-17.400001525878906
1751119832675211500,9.09721142578125,-34.275001525878906,18.450000762939453,-17.700000762939453
1751119832685156400,9.10715625,-34.72500228881836,17.92500114440918,-17.55000114440918
1751119832695101200,9.11710107421875,-34.35000228881836,17.25,-17.700000762939453
1751119832705046300,9.12704638671875,-34.57500076293945,16.650001525878906,-18.150001525878906
1751119832714991600,9.13699169921875,-34.72500228881836,16.5,-18.525001525878906
1751119832724937200,9.146937255859376,-35.025001525878906,16.5,-19.42500114440918
1751119832734882800,9.1568828125,-34.57500076293945,16.125,-20.700000762939453
1751119832744828400,9.166828369140624,-33.07500076293945,16.125,-21.450000762939453
1751119832754774300,9.176774169921876,-32.25,16.05000114440918,-22.42500114440918
1751119832764719900,9.186719970703125,-31.575000762939453,15.675000190734863,-24.450000762939453
1751119832774665700,9.196665771484374,-31.350000381469727,15.600000381469727,-24.375001907348633
1751119832784611600,9.206611572265626,-30.750001907348633,15.15000057220459,-25.350000381469727
1751119832794557000,9.216556884765625,-29.850000381469727,14.77500057220459,-26.475000381469727
1751119832804502000,9.226501953125,-29.025001525878906,14.925000190734863,-27.30000114440918
1751119832814447000,9.236447021484375,-28.200000762939453,14.850000381469727,-27.900001525878906
1751119832824392200,9.24639208984375,-27.825000762939453,15.000000953674316,-28.575000762939453
1751119832834337300,9.256337158203126,-27.225000381469727,14.925000190734863,-29.700000762939453
1751119832844282000,9.2662822265625,-26.325000762939453,14.625000953674316,-30.225000381469727
1751119832854227200,9.276227294921876,-26.025001525878906,14.925000190734863,-29.850000381469727
1751119832864172300,9.28617236328125,-25.350000381469727,15.075000762939453,-30.225000381469727
1751119832874117400,9.296117431640624,-24.750001907348633,15.15000057220459,-30.525001525878906
1751119832884062500,9.3060625,-24.225000381469727,15.675000190734863,-30.825000762939453
1751119832894007600,9.316007568359375,-24.450000762939453,15.975000381469727,-30.825000762939453
1751119832903952600,9.32595263671875,-24.450000762939453,16.200000762939453,-30.525001525878906
1751119832913897500,9.3358974609375,-24.225000381469727,16.5,-30.525001525878906
1751119832923842600,9.345842529296876,-24.225000381469727,16.5,-30.525001525878906
1751119832933787600,9.35578759765625,-24.30000114440918,16.950000762939453,-30.67500114440918
1751119832943732700,9.365732666015624,-23.92500114440918,17.325000762939453,-30.450000762939453
1751119832953677800,9.375677734375,-23.17500114440918,17.100000381469727,-30.450000762939453
1751119832963623000,9.385622802734375,-23.625,16.350000381469727,-30.525001525878906
1751119832973568000,9.395568115234376,-24.825000762939453,15.675000190734863,-30.375001907348633
1751119832983513000,9.40551318359375,-25.725000381469727,14.550000190734863,-30.075000762939453
1751119832993458000,9.4154580078125,-25.725000381469727,14.475000381469727,-29.850000381469727
1751119833003403000,9.425403076171875,-25.725000381469727,14.100000381469727,-30.000001907348633
1751119833013348000,9.43534814453125,-26.025001525878906,13.875000953674316,-30.150001525878906
1751119833023293200,9.445293212890626,-26.100000381469727,13.950000762939453,-30.000001907348633
1751119833033238300,9.45523828125,-25.80000114440918,13.725000381469727,-30.150001525878906
1751119833043183400,9.465183349609376,-25.725000381469727,13.575000762939453,-30.225000381469727
1751119833053128400,9.47512841796875,-25.80000114440918,14.100000381469727,-29.850000381469727
1751119833063073300,9.4850732421875,-25.80000114440918,14.100000381469727,-29.850000381469727
1751119833073018400,9.495018310546875,-26.025001525878906,14.250000953674316,-29.325000762939453
1751119833082963500,9.50496337890625,-26.55000114440918,14.700000762939453,-29.17500114440918
1751119833092908500,9.514908447265626,-26.475000381469727,14.925000190734863,-29.17500114440918
1751119833102853600,9.524853515625,-26.850000381469727,14.625000953674316,-28.575000762939453
1751119833112798700,9.534798828125,-27.600000381469727,14.550000190734863,-27.900001525878906
1751119833122743800,9.544743896484375,-27.975000381469727,14.40000057220459,-27.900001525878906
1751119833132688600,9.554688720703124,-27.975000381469727,14.02500057220459,-27.67500114440918
1751119833142633700,9.5646337890625,-28.200000762939453,14.02500057220459,-27.525001525878906
1751119833152578800,9.574578857421875,-27.750001907348633,14.175000190734863,-27.67500114440918
1751119833162524000,9.58452392578125,-27.825000762939453,14.700000762939453,-27.30000114440918
1751119833172469000,9.594468994140625,-28.500001907348633,15.15000057220459,-26.92500114440918
1751119833182414000,9.6044140625,-28.125001907348633,15.52500057220459,-26.775001525878906
1751119833192359200,9.614359130859375,-27.975000381469727,16.350000381469727,-27.225000381469727
1751119833202304300,9.62430419921875,-27.900001525878906,16.350000381469727,-27.150001525878906
1751119833212249300,9.634249267578125,-27.150001525878906,16.725000381469727,-27.000001907348633
1751119833222194700,9.644194580078125,-26.625001907348633,17.25,-26.700000762939453
1751119833232139800,9.654139892578126,-26.850000381469727,18,-26.850000381469727
1751119833242084900,9.6640849609375,-26.55000114440918,18.450000762939453,-27.150001525878906
1751119833252030000,9.674030029296874,-25.950000762939453,18.600000381469727,-26.850000381469727
1751119833261975000,9.68397509765625,-26.250001907348633,19.125,-26.250001907348633
1751119833271920000,9.693920166015625,-26.400001525878906,19.42500114440918,-26.475000381469727
1751119833281865200,9.703865234375,-26.475000381469727,19.875,-26.475000381469727
1751119833301755400,9.72375537109375,-26.250001907348633,20.100000381469727,-26.250001907348633
1751119833311700500,9.733700439453125,-26.100000381469727,20.025001525878906,-26.025001525878906
1751119833321645600,9.7436455078125,-26.100000381469727,20.100000381469727,-26.17500114440918
1751119833331590700,9.753590576171876,-26.100000381469727,19.950000762939453,-26.250001907348633
1751119833341535700,9.76353564453125,-25.500001907348633,19.575000762939453,-26.17500114440918
1751119833351480800,9.773480712890626,-25.725000381469727,19.650001525878906,-26.100000381469727
1751119833361426000,9.783426025390625,-25.650001525878906,19.650001525878906,-26.100000381469727
1751119833371371300,9.793371337890624,-26.325000762939453,19.350000381469727,-26.025001525878906
1751119833381316400,9.80331640625,-26.325000762939453,19.05000114440918,-25.500001907348633
1751119833391261400,9.813261474609375,-27.150001525878906,18.900001525878906,-24.67500114440918
1751119833401206500,9.82320654296875,-28.950000762939453,18.900001525878906,-23.625
1751119833411151600,9.833151611328125,-29.17500114440918,18.67500114440918,-22.950000762939453
1751119833421096700,9.8430966796875,-30.150001525878906,18.450000762939453,-22.350000381469727
1751119833431041800,9.853041748046875,-30.67500114440918,18.825000762939453,-21.975000381469727
1751119833440987000,9.86298681640625,-30.525001525878906,18.975000381469727,-21.75
1751119833450932000,9.872931884765626,-31.200000762939453,18.975000381469727,-21.525001525878906
1751119833460877000,9.882876953125,-31.725000381469727,19.125,-21
1751119833470822100,9.892822265625,-31.350000381469727,19.05000114440918,-20.625
1751119833480767200,9.902767333984375,-31.650001525878906,19.275001525878906,-19.875
1751119833490712300,9.91271240234375,-31.650001525878906,19.125,-19.200000762939453
1751119833500657400,9.922657470703125,-31.650001525878906,19.125,-19.200000762939453
1751119833510602500,9.9326025390625,-31.650001525878906,18.900001525878906,-18.975000381469727
1751119833520547600,9.942547607421876,-32.775001525878906,18.900001525878906,-18.825000762939453
1751119833530493000,9.952492919921875,-33.30000305175781,18.825000762939453,-18.450000762939453
1751119833540438000,9.96243798828125,-33.150001525878906,18.600000381469727,-17.850000381469727
1751119833550383000,9.972383056640625,-33.60000228881836,18.450000762939453,-17.025001525878906
1751119833560328200,9.982328125,-34.42500305175781,18.75,-16.650001525878906
1751119833570273300,9.992273193359376,-34.20000076293945,19.05000114440918,-16.275001525878906
1751119833580218400,10.00221826171875,-33.375,19.5,-15.750000953674316
1751119833590163500,10.01216357421875,-33.150001525878906,19.950000762939453,-15.52500057220459
1751119833600108500,10.022108642578125,-33.30000305175781,20.625,-15.075000762939453
1751119833610053600,10.0320537109375,-33.30000305175781,20.700000762939453,-14.700000762939453
1751119833619998700,10.041998779296875,-34.05000305175781,20.775001525878906,-14.02500057220459
1751119833629943800,10.05194384765625,-33.75,20.775001525878906,-13.27500057220459
1751119833639889000,10.061888916015626,-33.67500305175781,20.775001525878906,-13.27500057220459
1751119833649834000,10.071833984375,-33.150001525878906,20.700000762939453,-12.600000381469727
1751119833659779000,10.081779052734374,-33.75,21.075000762939453,-12.375000953674316
1751119833669724200,10.09172412109375,-33.82500076293945,21.225000381469727,-12.675000190734863
1751119833679669200,10.101669189453125,-33.150001525878906,21.225000381469727,-13.200000762939453
1751119833689614600,10.111614501953126,-32.70000076293945,21.075000762939453,-14.250000953674316
1751119833699559700,10.1215595703125,-32.25,21.225000381469727,-15.300000190734863
1751119833709504800,10.1315048828125,-32.025001525878906,21.600000381469727,-16.200000762939453
1751119833719449900,10.141449951171875,-31.650001525878906,21.975000381469727,-16.725000381469727
1751119833729395000,10.15139501953125,-31.350000381469727,21.975000381469727,-17.55000114440918
1751119833739340000,10.161340087890625,-30.30000114440918,21.75,-18.600000381469727
1751119833749285000,10.17128515625,-29.55000114440918,21.600000381469727,-19.42500114440918
1751119833759230200,10.181230224609376,-29.775001525878906,20.700000762939453,-19.575000762939453
1751119833769175300,10.19117529296875,-30.67500114440918,20.25,-19.575000762939453
1751119833779120400,10.201120361328124,-31.350000381469727,19.575000762939453,-19.42500114440918
1751119833789065500,10.2110654296875,-32.25,18.600000381469727,-19.200000762939453
1751119833799010600,10.221010498046875,-32.10000228881836,18.600000381469727,-19.125
1751119833808955600,10.23095556640625,-33.60000228881836,17.92500114440918,-19.05000114440918
1751119833818900700,10.240900634765625,-34.125,17.400001525878906,-18.900001525878906
1751119833828845800,10.250845703125,-33.60000228881836,15.825000762939453,-19.125
1751119833838791000,10.260791015625,-33.30000305175781,15.15000057220459,-19.875
1751119833848736300,10.270736328125,-32.625,15.15000057220459,-20.92500114440918
1751119833858681300,10.280681396484376,-32.55000305175781,15.450000762939453,-21.450000762939453
1751119833868626400,10.29062646484375,-31.875001907348633,15.225000381469727,-22.575000762939453
1751119833878571500,10.300571533203126,-31.350000381469727,14.550000190734863,-23.775001525878906
1751119833888516600,10.3105166015625,-30.900001525878906,14.175000190734863,-24.750001907348633
1751119833898461400,10.32046142578125,-29.55000114440918,14.175000190734863,-25.80000114440918
1751119833908406500,10.330406494140625,-28.500001907348633,14.175000190734863,-27.30000114440918
1751119833918351600,10.3403515625,-27.150001525878906,14.100000381469727,-28.575000762939453
1751119833928296700,10.350296630859376,-26.400001525878906,13.575000762939453,-29.325000762939453
1751119833938241800,10.36024169921875,-26.325000762939453,13.575000762939453,-29.250001907348633
1751119833948187000,10.370186767578126,-26.17500114440918,13.27500057220459,-30.000001907348633
1751119833958132000,10.380132080078125,-25.650001525878906,13.500000953674316,-30.750001907348633
1751119833968076800,10.390076904296874,-24.825000762939453,13.350000381469727,-31.125001907348633
1751119833978022000,10.40002197265625,-24.600000381469727,13.575000762939453,-31.725000381469727
1751119833987967000,10.409967041015625,-24.30000114440918,13.65000057220459,-32.25
1751119833997912000,10.419912109375,-23.17500114440918,13.425000190734863,-32.55000305175781
1751119834007857200,10.429857177734375,-23.17500114440918,13.425000190734863,-32.85000228881836
1751119834017802200,10.43980224609375,-23.700000762939453,13.65000057220459,-32.92500305175781
1751119834027747300,10.449747314453125,-23.25,13.800000190734863,-32.625
1751119834037692200,10.459692138671874,-23.100000381469727,14.175000190734863,-32.775001525878906
1751119834047637200,10.46963720703125,-22.5,14.77500057220459,-32.47500228881836
1751119834057582300,10.479582275390625,-21.975000381469727,15.450000762939453,-32.025001525878906
1751119834067527400,10.48952734375,-22.275001525878906,15.90000057220459,-31.725000381469727
1751119834077472500,10.499472412109375,-22.200000762939453,15.90000057220459,-31.725000381469727
1751119834087417600,10.50941748046875,-22.275001525878906,16.200000762939453,-31.650001525878906
1751119834097362700,10.51936279296875,-22.275001525878906,16.200000762939453,-31.725000381469727
1751119834107307500,10.5293076171875,-23.100000381469727,15.600000381469727,-31.725000381469727
1751119834117252600,10.539252685546876,-23.625,14.625000953674316,-32.10000228881836
1751119834127197700,10.54919775390625,-23.92500114440918,13.725000381469727,-32.17500305175781
1751119834137142800,10.559142822265626,-24.30000114440918,12.975000381469727,-31.575000762939453
1751119834147088000,10.569087890625,-24.600000381469727,12.675000190734863,-31.275001525878906
1751119834157033000,10.579032958984374,-25.80000114440918,12.52500057220459,-31.200000762939453
1751119834166978000,10.58897802734375,-26.850000381469727,12,-31.200000762939453
1751119834176923100,10.598923095703125,-27.075000762939453,11.77500057220459,-30.900001525878906
1751119834186868000,10.608867919921876,-27.000001907348633,11.700000762939453,-30.525001525878906
1751119834196813000,10.61881298828125,-27.375001907348633,12.075000762939453,-30.075000762939453
1751119834206758100,10.628758056640624,-27.900001525878906,12.52500057220459,-29.625001907348633
1751119834216703200,10.638703125,-27.900001525878906,12.450000762939453,-29.250001907348633
1751119834226648300,10.6486484375,-27.900001525878906,12.450000762939453,-29.250001907348633
1751119834236593400,10.658593505859375,-28.05000114440918,12.450000762939453,-28.950000762939453
1751119834246538500,10.66853857421875,-27.750001907348633,12.300000190734863,-28.575000762939453
1751119834256483300,10.6784833984375,-28.125001907348633,12.075000762939453,-29.250001907348633
1751119834266428400,10.688428466796875,-27.375001907348633,12.375000953674316,-29.55000114440918
1751119834276373500,10.69837353515625,-27.075000762939453,12.450000762939453,-29.55000114440918
1751119834286318600,10.708318603515625,-26.55000114440918,13.125000953674316,-29.475000381469727
1751119834296263700,10.718263671875,-26.325000762939453,13.65000057220459,-29.775001525878906
1751119834306209000,10.728208984375,-26.100000381469727,14.325000762939453,-30.150001525878906
1751119834316154000,10.738154052734375,-25.950000762939453,15.15000057220459,-29.625001907348633
1751119834326099200,10.74809912109375,-25.875001907348633,15.975000381469727,-29.700000762939453
1751119834336044300,10.758044189453125,-25.650001525878906,16.05000114440918,-29.850000381469727
1751119834345989400,10.7679892578125,-26.17500114440918,16.200000762939453,-29.250001907348633
1751119834355935000,10.77793505859375,-26.55000114440918,16.650001525878906,-28.80000114440918
1751119834365880600,10.787880615234375,-26.325000762939453,16.725000381469727,-28.575000762939453
1751119834375825700,10.79782568359375,-26.325000762939453,16.650001525878906,-28.575000762939453
1751119834385770800,10.807770751953125,-26.250001907348633,17.025001525878906,-28.275001525878906
1751119834395715800,10.8177158203125,-26.700000762939453,17.475000381469727,-28.05000114440918
1751119834405661000,10.827660888671875,-27.150001525878906,17.625,-27.750001907348633
1751119834415606000,10.83760595703125,-26.92500114440918,17.700000762939453,-27.000001907348633
1751119834425551000,10.847551025390626,-26.850000381469727,17.850000381469727,-26.700000762939453
1751119834435496000,10.857495849609375,-27.450000762939453,18.450000762939453,-26.475000381469727
1751119834445441000,10.86744091796875,-27.825000762939453,18.67500114440918,-25.875001907348633
1751119834455386000,10.87738623046875,-27.900001525878906,18.450000762939453,-25.500001907348633
1751119834465331200,10.887331298828125,-28.200000762939453,18.75,-24.525001525878906
1751119834475276300,10.8972763671875,-28.05000114440918,18.75,-24.225000381469727
1751119834485221400,10.907221435546875,-28.950000762939453,18.900001525878906,-23.850000381469727
1751119834495166500,10.91716650390625,-29.92500114440918,18.67500114440918,-23.100000381469727
1751119834505111300,10.927111328125,-30.225000381469727,18.975000381469727,-21.975000381469727
1751119834515056400,10.937056396484374,-30.225000381469727,18.900001525878906,-21.975000381469727
1751119834525001500,10.94700146484375,-30.825000762939453,19.200000762939453,-21
1751119834534946600,10.956946533203125,-31.80000114440918,19.125,-20.325000762939453
1751119834544891600,10.9668916015625,-32.55000305175781,19.125,-19.5
1751119834554836700,10.976836669921875,-32.55000305175781,19.275001525878906,-18.825000762939453
1751119834564781800,10.98678173828125,-32.70000076293945,19.650001525878906,-18.075000762939453
1751119834574726700,10.9967265625,-32.92500305175781,19.80000114440918,-17.55000114440918
1751119834584671700,11.006671630859374,-33.45000076293945,19.575000762939453,-16.80000114440918
1751119834594616800,11.016616943359375,-33.75,19.350000381469727,-16.650001525878906
1751119834604563000,11.02656298828125,-33.45000076293945,19.5,-16.725000381469727
1751119834614507500,11.036507568359376,-33.525001525878906,19.650001525878906,-16.575000762939453
1751119834624452400,11.046452392578125,-33.75,19.650001525878906,-16.05000114440918
1751119834634397200,11.056397216796874,-33.97500228881836,19.5,-15.825000762939453
1751119834644342000,11.066342041015625,-33.900001525878906,19.725000381469727,-15.52500057220459
1751119834654286800,11.076286865234374,-33.67500305175781,19.575000762939453,-15.15000057220459
1751119834664231700,11.086231689453125,-33.67500305175781,19.575000762939453,-15.15000057220459
1751119834674176500,11.096176513671875,-33.97500228881836,19.80000114440918,-14.850000381469727
1751119834684121600,11.10612158203125,-33.97500228881836,20.775001525878906,-13.575000762939453
1751119834694066400,11.11606640625,-33.97500228881836,21.150001525878906,-13.350000381469727
1751119834704011500,11.126011474609374,-33.900001525878906,21.150001525878906,-12.90000057220459
1751119834713956600,11.13595654296875,-33.525001525878906,21.525001525878906,-12.450000762939453
1751119834723901700,11.145901611328124,-33.60000228881836,21.975000381469727,-12.075000762939453
1751119834733847000,11.155846923828125,-33.67500305175781,21.975000381469727,-11.625
1751119834743792400,11.16579248046875,-34.20000076293945,22.125,-11.02500057220459
1751119834753737500,11.175737548828126,-34.80000305175781,22.575000762939453,-10.350000381469727
1751119834763682800,11.185682861328125,-34.57500076293945,22.875,-9.825000762939453
1751119834773628200,11.195628173828124,-34.875,22.950000762939453,-8.925000190734863
1751119834783573200,11.2055732421875,-35.10000228881836,23.100000381469727,-7.425000190734863
1751119834793518600,11.2155185546875,-34.650001525878906,23.400001525878906,-6.300000190734863
1751119834803464000,11.2254638671875,-34.125,24,-5.775000095367432
1751119834813409000,11.235408935546875,-34.125,23.850000381469727,-5.850000381469727
1751119834823354400,11.245354248046874,-33.60000228881836,24.67500114440918,-6
1751119834833299500,11.255299560546876,-32.85000228881836,25.125001907348633,-7.125000476837158
1751119834843244500,11.26524462890625,-32.025001525878906,25.200000762939453,-8.850000381469727
1751119834853189600,11.275189697265626,-31.875001907348633,25.575000762939453,-10.5
1751119834863134700,11.285134765625,-31.42500114440918,25.725000381469727,-11.77500057220459
1751119834873079600,11.29507958984375,-30.825000762939453,25.275001525878906,-12.90000057220459
1751119834883024600,11.305024658203125,-31.875001907348633,24.075000762939453,-14.175000190734863
1751119834892969700,11.3149697265625,-32.85000228881836,22.42500114440918,-13.950000762939453
1751119834902914800,11.324914794921876,-34.05000305175781,21,-14.100000381469727
1751119834912860000,11.33485986328125,-35.025001525878906,19.42500114440918,-13.725000381469727
1751119834922805000,11.344804931640626,-35.625,18.30000114440918,-13.575000762939453
1751119834932750000,11.35475,-35.70000076293945,17.17500114440918,-13.875000953674316
1751119834942695200,11.364695068359374,-35.55000305175781,16.575000762939453,-14.550000190734863
1751119834962585000,11.384585205078125,-35.10000228881836,16.275001525878906,-15.450000762939453
1751119834972530200,11.3945302734375,-34.95000076293945,15.975000381469727,-16.80000114440918
1751119834982475300,11.404475341796875,-34.05000305175781,16.125,-18.225000381469727
1751119834992420400,11.41442041015625,-33.45000076293945,15.975000381469727,-20.17500114440918
1751119835002365400,11.424365478515625,-33.30000305175781,16.05000114440918,-22.125
1751119835012310500,11.434310546875,-32.025001525878906,16.42500114440918,-23.400001525878906
1751119835022255400,11.44425537109375,-30.975000381469727,16.275001525878906,-24.825000762939453
1751119835032200400,11.454200439453125,-30.000001907348633,15.90000057220459,-25.650001525878906
1751119835042145500,11.4641455078125,-29.025001525878906,15.90000057220459,-26.100000381469727
1751119835052090600,11.474090576171875,-28.650001525878906,16.200000762939453,-27.075000762939453
1751119835062035700,11.48403564453125,-27.900001525878906,16.05000114440918,-27.750001907348633
1751119835071980800,11.493980712890625,-27.075000762939453,16.05000114440918,-28.275001525878906
1751119835081926000,11.50392578125,-26.775001525878906,16.350000381469727,-28.875001907348633
1751119835091870700,11.51387060546875,-26.625001907348633,16.575000762939453,-29.325000762939453
1751119835101815800,11.52381591796875,-26.17500114440918,16.42500114440918,-29.625001907348633
1751119835111761000,11.533760986328126,-25.42500114440918,16.5,-29.850000381469727
1751119835121706000,11.5437060546875,-25.500001907348633,17.100000381469727,-30.000001907348633
1751119835131651000,11.553651123046874,-26.400001525878906,17.400001525878906,-30.150001525878906
1751119835141596200,11.56359619140625,-26.400001525878906,17.475000381469727,-30.375001907348633
1751119835151541200,11.573541259765625,-25.875001907348633,17.475000381469727,-30.225000381469727
1751119835161486000,11.583486083984376,-25.650001525878906,17.775001525878906,-29.325000762939453
1751119835181376300,11.603376220703124,-25.80000114440918,18.900001525878906,-28.725000381469727
1751119835191321300,11.6133212890625,-25.05000114440918,19.725000381469727,-28.42500114440918
1751119835201266400,11.623266357421874,-25.05000114440918,20.400001525878906,-27.900001525878906
1751119835211211500,11.63321142578125,-25.275001525878906,20.400001525878906,-28.125001907348633
1751119835221156600,11.643156494140625,-25.275001525878906,19.875,-28.350000381469727
1751119835231101400,11.653101318359376,-25.950000762939453,19.125,-28.350000381469727
1751119835241046500,11.663046630859375,-25.80000114440918,19.125,-28.200000762939453
1751119835250991600,11.67299169921875,-26.325000762939453,18.225000381469727,-27.975000381469727
1751119835260936700,11.682936767578125,-27.825000762939453,17.775001525878906,-27.67500114440918
1751119835270881800,11.6928818359375,-29.17500114440918,17.55000114440918,-27.225000381469727
1751119835280827000,11.702826904296876,-29.625001907348633,16.575000762939453,-26.625001907348633
1751119835290772000,11.71277197265625,-30.450000762939453,15.750000953674316,-25.80000114440918
1751119835300717000,11.722717041015626,-31.80000114440918,15.225000381469727,-25.350000381469727
1751119835310662100,11.732662109375,-32.25,14.77500057220459,-24.975000381469727
1751119835320607200,11.742607177734374,-32.25,15.675000190734863,-23.55000114440918
1751119835330552300,11.75255224609375,-32.25,15.675000190734863,-23.55000114440918
1751119835340497400,11.762497314453125,-31.725000381469727,16.05000114440918,-24.30000114440918
1751119835350442500,11.7724423828125,-30.975000381469727,16.725000381469727,-25.125001907348633
1751119835360387600,11.7823876953125,-30.075000762939453,16.875,-26.325000762939453
1751119835370332700,11.792332763671874,-29.625001907348633,16.875,-27.225000381469727
1751119835380277800,11.80227783203125,-28.575000762939453,16.80000114440918,-27.67500114440918
1751119835390222800,11.812222900390625,-28.575000762939453,16.80000114440918,-27.67500114440918
1751119835400168000,11.82216796875,-27.900001525878906,16.725000381469727,-28.05000114440918
1751119835410113000,11.832113037109375,-27.750001907348633,17.25,-27.900001525878906
1751119835420058000,11.84205810546875,-27.450000762939453,18,-28.05000114440918
1751119835430003200,11.852003173828125,-27.150001525878906,18.525001525878906,-28.200000762939453
1751119835439948500,11.861948486328124,-26.92500114440918,18.900001525878906,-28.125001907348633
1751119835449893600,11.8718935546875,-26.92500114440918,19.5,-27.525001525878906
1751119835459838700,11.881838623046875,-26.92500114440918,19.5,-27.150001525878906
1751119835469783800,11.89178369140625,-27.450000762939453,19.5,-26.92500114440918
1751119835479729000,11.90172900390625,-27.30000114440918,20.100000381469727,-27.000001907348633
1751119835489674000,11.911674072265624,-27.150001525878906,20.100000381469727,-27.150001525878906
1751119835499619000,11.921619140625,-27.67500114440918,20.17500114440918,-26.850000381469727
1751119835509564200,11.931564208984375,-27.67500114440918,20.55000114440918,-26.400001525878906
1751119835519509200,11.94150927734375,-27.225000381469727,20.92500114440918,-26.17500114440918
1751119835529454300,11.951454345703125,-27.450000762939453,21.75,-26.100000381469727
1751119835539399400,11.9613994140625,-27.825000762939453,22.200000762939453,-25.80000114440918
1751119835549344500,11.971344482421875,-27.525001525878906,22.42500114440918,-25.875001907348633
1751119835559289600,11.98128955078125,-27.150001525878906,22.125,-25.725000381469727
1751119835569234700,11.991234619140625,-27.375001907348633,21.75,-25.42500114440918
1751119835579179800,12.0011796875,-28.42500114440918,21.75,-25.42500114440918
1751119835589124900,12.011124755859376,-29.100000381469727,21.375,-24.825000762939453
1751119835599070200,12.0210703125,-29.025001525878906,21.375,-24
1751119835609015300,12.031015380859374,-29.92500114440918,21.150001525878906,-23.92500114440918
1751119835618960400,12.04096044921875,-30.750001907348633,21,-23.400001525878906
1751119835628905500,12.050905517578125,-31.500001907348633,20.850000381469727,-22.350000381469727
1751119835638850600,12.0608505859375,-32.32500076293945,20.625,-20.700000762939453
1751119835648795600,12.070795654296875,-33.45000076293945,20.625,-18.900001525878906
1751119835658740700,12.08074072265625,-34.42500305175781,20.400001525878906,-17.55000114440918
1751119835668685800,12.090685791015625,-34.5,20.700000762939453,-16.575000762939453
1751119835678631000,12.100630859375,-34.5,20.700000762939453,-16.575000762939453
1751119835688576000,12.110575927734375,-34.72500228881836,21.225000381469727,-15.975000381469727
1751119835698521000,12.12052099609375,-34.72500228881836,21.525001525878906,-15.975000381469727
1751119835708466200,12.130466064453126,-35.25,21.825000762939453,-16.200000762939453
1751119835718411300,12.140411376953125,-35.55000305175781,22.125,-15.975000381469727
1751119835738301400,12.160301513671875,-34.5,22.725000381469727,-14.925000190734863
1751119835758191600,12.180191650390626,-34.05000305175781,23.625,-14.850000381469727
1751119835768136700,12.19013671875,-33.67500305175781,23.700000762939453,-14.625000953674316
1751119835778081800,12.200081787109376,-33.45000076293945,24,-14.250000953674316
1751119835788027000,12.21002685546875,-33.45000076293945,24.150001525878906,-14.175000190734863
1751119835797972000,12.219971923828124,-33.75,24.450000762939453,-14.02500057220459
1751119835807917000,12.2299169921875,-33.97500228881836,25.42500114440918,-13.725000381469727
1751119835817862100,12.239862060546875,-33.97500228881836,25.42500114440918,-13.725000381469727
1751119835827807000,12.249806884765626,-33.525001525878906,25.725000381469727,-13.575000762939453
1751119835837752000,12.259751953125,-33,24.900001525878906,-14.100000381469727
1751119835847697200,12.269697265625,-33.22500228881836,24.450000762939453,-13.950000762939453
1751119835857642200,12.279642333984375,-34.275001525878906,24.525001525878906,-12.90000057220459
1751119835867587300,12.28958740234375,-34.650001525878906,24.825000762939453,-11.100000381469727
1751119835877532400,12.299532470703125,-34.650001525878906,25.650001525878906,-10.050000190734863
1751119835887477500,12.3094775390625,-34.42500305175781,26.100000381469727,-10.050000190734863
1751119835897422300,12.31942236328125,-33.375,26.92500114440918,-10.800000190734863
1751119835907367400,12.329367431640625,-32.25,27.67500114440918,-12.075000762939453
1751119835917312500,12.3393125,-32.17500305175781,27.450000762939453,-13.65000057220459
1751119835927257600,12.349257568359375,-31.500001907348633,27.375001907348633,-15.450000762939453
1751119835937202700,12.35920263671875,-30.825000762939453,27.225000381469727,-17.025001525878906
1751119835947147800,12.369147705078126,-30.225000381469727,26.700000762939453,-18.225000381469727
1751119835957092900,12.3790927734375,-29.700000762939453,25.875001907348633,-19.80000114440918
1751119835967037700,12.38903759765625,-29.700000762939453,25.80000114440918,-19.650001525878906
1751119835976982800,12.398982666015625,-30.375001907348633,24.525001525878906,-19.950000762939453
1751119835986927900,12.408927978515624,-31.275001525878906,23.25,-20.55000114440918
1751119835996873000,12.418873046875,-32.17500305175781,21.67500114440918,-20.625
1751119836006818000,12.428818115234375,-33.525001525878906,20.25,-20.625
1751119836016763100,12.43876318359375,-34.5,19.275001525878906,-21
1751119836026708200,12.448708251953125,-34.275001525878906,18.075000762939453,-21.375
1751119836036653000,12.458653076171874,-34.72500228881836,17.17500114440918,-22.275001525878906
1751119836046598100,12.46859814453125,-34.5,16.275001525878906,-23.025001525878906
1751119836056543200,12.478543212890624,-33.375,15.825000762939453,-24.150001525878906
1751119836066488300,12.48848828125,-32.625,15.90000057220459,-25.42500114440918
1751119836076433400,12.498433349609375,-31.725000381469727,15.825000762939453,-26.775001525878906
1751119836086378500,12.50837841796875,-30.600000381469727,15.15000057220459,-28.275001525878906
1751119836096323600,12.518323486328125,-29.17500114440918,14.77500057220459,-30.000001907348633
1751119836106269700,12.528269775390624,-27.525001525878906,14.77500057220459,-31.200000762939453
1751119836116214500,12.538214599609375,-27.375001907348633,14.77500057220459,-31.125001907348633
1751119836126159000,12.5481591796875,-25.650001525878906,14.325000762939453,-32.17500305175781
1751119836136104000,12.55810400390625,-24.30000114440918,14.175000190734863,-33.30000305175781
1751119836146048800,12.568048828125,-23.775001525878906,13.875000953674316,-33.900001525878906
1751119836155993600,12.57799365234375,-23.025001525878906,13.875000953674316,-34.72500228881836
1751119836165938400,12.5879384765625,-20.55000114440918,14.40000057220459,-36
1751119836175883300,12.59788330078125,-19.80000114440918,14.550000190734863,-36.150001525878906
1751119836185828400,12.607828369140625,-19.125,14.77500057220459,-36.525001525878906
1751119836195773200,12.617773193359374,-18.375,15.375000953674316,-36.97500228881836
1751119836205718300,12.62771826171875,-17.325000762939453,15.90000057220459,-37.20000076293945
1751119836215663400,12.637663330078125,-16.80000114440918,16.200000762939453,-37.20000076293945
1751119836225608700,12.647608642578126,-16.275001525878906,16.875,-37.05000305175781
1751119836235553800,12.6575537109375,-15.225000381469727,17.775001525878906,-37.35000228881836
1751119836245499100,12.6674990234375,-14.475000381469727,18.600000381469727,-37.275001525878906
1751119836255444200,12.6774443359375,-14.40000057220459,18.600000381469727,-37.20000076293945
1751119836265389600,12.6873896484375,-13.425000190734863,19.200000762939453,-36.900001525878906
1751119836275335000,12.6973349609375,-13.27500057220459,19.875,-37.05000305175781
1751119836285280000,12.707280029296875,-13.500000953674316,20.025001525878906,-36.82500076293945
1751119836295225300,12.717225341796874,-14.02500057220459,19.5,-36.375
1751119836305170700,12.727170654296875,-16.125,18.375,-36.30000305175781
1751119836315115800,12.73711572265625,-18.225000381469727,17.100000381469727,-36
1751119836325060900,12.747060791015626,-19.575000762939453,15.975000381469727,-35.400001525878906
1751119836335006000,12.757005859375,-20.325000762939453,15.15000057220459,-34.95000076293945
1751119836344951000,12.766950927734374,-21.375,14.700000762939453,-35.025001525878906
1751119836354897400,12.7768974609375,-22.875,14.250000953674316,-34.95000076293945
1751119836364841200,12.78684130859375,-23.17500114440918,14.02500057220459,-35.10000228881836
1751119836374785000,12.796784912109375,-21.525001525878906,14.40000057220459,-34.80000305175781
1751119836384728800,12.806728759765624,-22.05000114440918,15.000000953674316,-35.10000228881836
1751119836404617000,12.826616943359374,-22.125,15.600000381469727,-34.650001525878906
1751119836414561300,12.836561279296875,-21.075000762939453,15.825000762939453,-34.57500076293945
1751119836424505600,12.846505615234374,-20.400001525878906,15.825000762939453,-34.650001525878906
1751119836434450400,12.856450439453125,-20.17500114440918,15.300000190734863,-34.57500076293945
1751119836444395500,12.8663955078125,-20.700000762939453,15.075000762939453,-34.875
1751119836454340600,12.876340576171875,-21.075000762939453,14.850000381469727,-35.025001525878906
1751119836464286200,12.8862861328125,-20.400001525878906,14.77500057220459,-35.25
1751119836474231800,12.896231689453124,-19.650001525878906,15.000000953674316,-35.25
1751119836484177400,12.906177490234375,-19.125,15.15000057220459,-35.32500076293945
1751119836494123300,12.916123291015625,-18.30000114440918,15.15000057220459,-35.400001525878906
1751119836504069400,12.9260693359375,-17.625,15.52500057220459,-35.70000076293945
1751119836514015500,12.936015380859375,-17.775001525878906,15.975000381469727,-36.30000305175781
1751119836523961300,12.94596142578125,-17.775001525878906,16.200000762939453,-36.525001525878906
1751119836533907500,12.955907470703124,-16.650001525878906,16.80000114440918,-36.45000076293945
1751119836543852500,12.9658525390625,-16.05000114440918,17.475000381469727,-36.150001525878906
1751119836553797600,12.975797607421875,-16.05000114440918,17.400001525878906,-36.150001525878906
1751119836563742700,12.98574267578125,-16.42500114440918,17.700000762939453,-35.775001525878906
1751119836573687600,12.9956875,-16.875,18.075000762939453,-35.400001525878906
1751119836583632600,13.005632568359376,-16.950000762939453,18.075000762939453,-35.17500305175781
1751119836593577700,13.01557763671875,-18.150001525878906,18.900001525878906,-34.57500076293945
1751119836603522800,13.025522705078124,-17.700000762939453,19.275001525878906,-34.57500076293945
1751119836613468000,13.035468017578125,-16.875,19.725000381469727,-34.5
1751119836623413000,13.0454130859375,-16.350000381469727,19.875,-34.72500228881836
1751119836633358000,13.055358154296876,-15.375000953674316,20.100000381469727,-35.025001525878906
1751119836643303000,13.065302978515625,-14.925000190734863,20.55000114440918,-34.875
1751119836653248000,13.075248046875,-15.225000381469727,20.55000114440918,-34.95000076293945
1751119836663193000,13.085193115234375,-15.375000953674316,20.775001525878906,-34.650001525878906
1751119836673138200,13.09513818359375,-15.375000953674316,21.450000762939453,-34.275001525878906
1751119836683083300,13.105083251953126,-15.000000953674316,22.125,-33.75
1751119836693028400,13.1150283203125,-15.000000953674316,22.125,-33.67500305175781
1751119836702973400,13.124973388671876,-15.075000762939453,22.875,-33.150001525878906
1751119836712918300,13.134918212890625,-15.600000381469727,23.625,-32.55000305175781
1751119836722863400,13.14486328125,-15.52500057220459,24.150001525878906,-32.17500305175781
1751119836732808400,13.154808349609375,-15.300000190734863,24.900001525878906,-31.80000114440918
1751119836742753500,13.16475341796875,-15.15000057220459,25.500001907348633,-31.125001907348633
1751119836752698600,13.17469873046875,-15.15000057220459,26.250001907348633,-30.67500114440918
1751119836762643700,13.184643798828125,-14.325000762939453,27.30000114440918,-30.450000762939453
1751119836772588800,13.1945888671875,-13.500000953674316,27.600000381469727,-30.150001525878906
1751119836782533600,13.20453369140625,-14.550000190734863,27.975000381469727,-29.400001525878906
1751119836792478700,13.214478759765624,-14.550000190734863,28.42500114440918,-28.80000114440918
1751119836802423800,13.224423828125,-13.800000190734863,29.325000762939453,-28.125001907348633
1751119836812369000,13.234368896484375,-14.175000190734863,29.400001525878906,-28.05000114440918
1751119836822314000,13.24431396484375,-14.850000381469727,29.700000762939453,-27.750001907348633
1751119836832259000,13.254259033203125,-14.850000381469727,29.700000762939453,-27.750001907348633
1751119836842204200,13.2642041015625,-14.02500057220459,30.075000762939453,-27.450000762939453
1751119836852149000,13.27414892578125,-13.65000057220459,30.225000381469727,-27.375001907348633
1751119836872039200,13.2940390625,-13.575000762939453,30.600000381469727,-27.375001907348633
1751119836881984300,13.303984375,-13.575000762939453,30.825000762939453,-26.850000381469727
1751119836891929300,13.313929443359376,-13.125000953674316,31.125001907348633,-26.475000381469727
1751119836901874400,13.32387451171875,-13.125000953674316,31.200000762939453,-26.250001907348633
1751119836911819500,13.333819580078124,-13.65000057220459,30.975000381469727,-26.17500114440918
1751119836921764400,13.343764404296875,-14.02500057220459,30.600000381469727,-26.325000762939453
1751119836931709400,13.35370947265625,-14.550000190734863,30.67500114440918,-26.250001907348633
1751119836941654500,13.363654541015626,-14.77500057220459,30.525001525878906,-26.17500114440918
1751119836951599600,13.373599609375,-14.850000381469727,30.075000762939453,-26.250001907348633
1751119836961544700,13.383544677734376,-15.300000190734863,29.92500114440918,-26.400001525878906
1751119836971489800,13.39348974609375,-15.975000381469727,29.625001907348633,-26.850000381469727
1751119836981435000,13.403434814453124,-15.375000953674316,28.875001907348633,-27.750001907348633
1751119836991379700,13.413379638671875,-15.450000762939453,28.725000381469727,-27.750001907348633
1751119837001324800,13.42332470703125,-14.40000057220459,28.275001525878906,-29.100000381469727
1751119837011270000,13.433269775390626,-13.050000190734863,26.325000762939453,-30.825000762939453
1751119837021215000,13.443215087890625,-12.300000190734863,25.200000762939453,-31.875001907348633
1751119837031160000,13.45316015625,-12.375000953674316,23.850000381469727,-33.07500076293945
1751119837041105200,13.463105224609375,-12.375000953674316,22.42500114440918,-33.900001525878906
1751119837051050200,13.47305029296875,-12.52500057220459,20.775001525878906,-34.57500076293945
1751119837060995000,13.4829951171875,-12.600000381469727,19.200000762939453,-35.55000305175781
1751119837070940200,13.492940185546875,-14.325000762939453,17.775001525878906,-35.85000228881836
1751119837080885200,13.50288525390625,-15.90000057220459,16.875,-35.70000076293945
1751119837090830300,13.512830322265625,-16.350000381469727,16.275001525878906,-35.625
1751119837100775400,13.522775390625,-17.100000381469727,15.450000762939453,-35.85000228881836
1751119837110720500,13.532720458984375,-17.25,14.475000381469727,-36.30000305175781
1751119837120665600,13.54266552734375,-16.725000381469727,13.800000190734863,-36.525001525878906
1751119837130610700,13.552610595703126,-16.650001525878906,13.875000953674316,-36.45000076293945
1751119837140555500,13.562555419921875,-16.350000381469727,13.575000762939453,-36.525001525878906
1751119837150500600,13.57250048828125,-16.200000762939453,13.200000762939453,-37.20000076293945
1751119837160445700,13.58244580078125,-15.075000762939453,12.825000762939453,-37.650001525878906
1751119837170390800,13.592390869140624,-13.65000057220459,12.52500057220459,-38.25
1751119837180335900,13.6023359375,-12.450000762939453,12.075000762939453,-39
1751119837190281000,13.612281005859375,-9.975000381469727,11.625,-39.525001525878906
1751119837200226000,13.62222607421875,-7.725000381469727,11.325000762939453,-40.20000076293945
1751119837210171000,13.6321708984375,-6.450000286102295,10.800000190734863,-40.57500076293945
1751119837220116000,13.642115966796876,-5.475000381469727,10.425000190734863,-40.42500305175781
1751119837230061000,13.65206103515625,-3.6000001430511475,9.75,-41.32500076293945
1751119837240006100,13.662006103515624,-1.6500000953674316,9.225000381469727,-41.92500305175781
1751119837249951200,13.671951171875,-0.675000011920929,9,-41.85000228881836
1751119837259896300,13.681896240234375,-0.675000011920929,9.075000762939453,-41.25
1751119837269841400,13.69184130859375,-0.675000011920929,9.075000762939453,-41.25
1751119837279786200,13.7017861328125,0,9.375,-41.47500228881836
1751119837289731300,13.7117314453125,0.75,9.75,-41.70000076293945
1751119837309621800,13.731621826171875,0.5250000357627869,10.200000762939453,-41.10000228881836
1751119837319566800,13.74156689453125,0.9000000357627869,10.350000381469727,-41.025001525878906
1751119837329512000,13.751511962890625,1.6500000953674316,10.875,-40.875
1751119837339457000,13.76145703125,1.5750000476837158,11.700000762939453,-40.80000305175781
1751119837349402000,13.771402099609375,1.2750000953674316,12.52500057220459,-40.42500305175781
1751119837359347200,13.78134716796875,1.725000023841858,13.200000762939453,-40.05000305175781
1751119837369292300,13.791292236328125,1.5,14.175000190734863,-39.525001525878906
1751119837379237400,13.8012373046875,0.9750000238418579,14.850000381469727,-39.150001525878906
1751119837389182500,13.811182373046876,0.675000011920929,14.925000190734863,-39.30000305175781
1751119837399127600,13.82112744140625,0.5250000357627869,15.15000057220459,-39.525001525878906
1751119837409072600,13.83107275390625,0.22500000894069672,14.850000381469727,-39.82500076293945
1751119837419017700,13.841017822265625,-0.8250000476837158,13.800000190734863,-39.75
1751119837428962800,13.850962890625,-0.8250000476837158,13.725000381469727,-39.67500305175781
1751119837438908000,13.860907958984376,0,12.375000953674316,-40.650001525878906
1751119837448853000,13.87085302734375,-0.45000001788139343,12,-41.025001525878906
1751119837458798300,13.88079833984375,-0.8250000476837158,11.925000190734863,-41.025001525878906
1751119837468743400,13.890743408203125,-0.6000000238418579,11.850000381469727,-40.650001525878906
1751119837478688500,13.9006884765625,0.07500000298023224,11.700000762939453,-40.650001525878906
1751119837488633600,13.910633544921875,0.30000001192092896,12,-40.650001525878906
1751119837498578700,13.92057861328125,0.22500000894069672,12.450000762939453,-40.42500305175781
1751119837508523800,13.930523681640626,0.5250000357627869,13.200000762939453,-40.05000305175781
1751119837518468900,13.94046875,0.8250000476837158,13.800000190734863,-39.60000228881836
1751119837528414000,13.9504140625,0.675000011920929,14.700000762939453,-39.60000228881836
1751119837538359000,13.960359130859375,0.675000011920929,15.450000762939453,-39.525001525878906
1751119837548304100,13.97030419921875,0.675000011920929,15.52500057220459,-39.525001525878906
1751119837558249200,13.980249267578126,0.15000000596046448,15.750000953674316,-39.150001525878906
1751119837568194300,13.9901943359375,0.15000000596046448,15.750000953674316,-39.150001525878906
1751119837578139400,14.000139404296876,-0.07500000298023224,16.200000762939453,-38.85000228881836
1751119837588084500,14.01008447265625,-0.30000001192092896,16.650001525878906,-38.775001525878906
1751119837598029600,14.020029541015624,-0.22500000894069672,16.650001525878906,-38.55000305175781
