time,seconds_elapsed,z,y,x
1749987940685575000,0.120574951171875,9.152901649475098,0.6271089911460876,3.283149003982544
1749987940695588900,0.1305888671875,9.156813621520996,0.5893290042877197,3.2711970806121826
1749987940705602600,0.1406025390625,9.162368774414062,0.5545819997787476,3.253631114959717
1749987940715616500,0.150616455078125,9.168500900268555,0.5245839953422546,3.234771966934204
1749987940725630200,0.160630126953125,9.174688339233398,0.49964600801467896,3.216099977493286
1749987940735644200,0.17064404296875,9.180845260620117,0.4791730046272278,3.197756052017212
1749987940745657600,0.18065771484375,9.186858177185059,0.46283599734306335,3.1799159049987793
1749987940755671800,0.190671875,9.192758560180664,0.45205000042915344,3.160860061645508
1749987940765685200,0.200685302734375,9.198513984680176,0.4449610114097595,3.1408510208129883
1749987940775699200,0.21069921875,9.204195022583008,0.4417850077152252,3.119637966156006
1749987940785713200,0.220713134765625,9.209497451782227,0.4428830146789551,3.0982348918914795
1749987940795726800,0.230726806640625,9.213850021362305,0.4480690062046051,3.078629970550537
1749987940805740800,0.24074072265625,9.21675968170166,0.4572800099849701,3.0621469020843506
1749987940815754500,0.25075439453125,9.217718124389648,0.47010698914527893,3.0498859882354736
1749987940825768400,0.2607685546875,9.217307090759277,0.4857900142669678,3.0397019386291504
1749987940835782100,0.2707822265625,9.216094017028809,0.5038530230522156,3.029897928237915
1749987940845795800,0.2807958984375,9.214569091796875,0.5240079760551453,3.019274950027466
1749987940855809800,0.290809814453125,9.212605476379395,0.5458570122718811,3.0087499618530273
1749987940865823500,0.300823486328125,9.210436820983887,0.568979024887085,2.9983599185943604
1749987940875837400,0.31083740234375,9.207972526550293,0.5932850241661072,2.9887518882751465
1749987940885851100,0.32085107421875,9.205074310302734,0.618852972984314,2.9804749488830566
1749987940895865000,0.330864990234375,9.201848983764648,0.6457279920578003,2.9733870029449463
1749987940905878800,0.340878662109375,9.198410034179688,0.6736549735069275,2.967360019683838
1749987940915892700,0.350892822265625,9.194923400878906,0.7020589709281921,2.9622368812561035
1749987940925906200,0.36090625,9.191425323486328,0.730135977268219,2.9581611156463623
1749987940935920400,0.37092041015625,9.187893867492676,0.7570329904556274,2.955317974090576
1749987940945934000,0.38093408203125,9.184160232543945,0.7820479869842529,2.9540789127349854
1749987940955947800,0.39094775390625,9.179858207702637,0.8047639727592468,2.955049991607666
1749987940965961700,0.400961669921875,9.17442512512207,0.8250190019607544,2.9590680599212646
1749987940975975400,0.410975341796875,9.169242858886719,0.8428990244865417,2.963505983352661
1749987940985989400,0.4209892578125,9.161391258239746,0.8584240078926086,2.9731879234313965
1749987940996003000,0.431003173828125,9.150154113769531,0.8717640042304993,2.9885849952697754
1749987941006017000,0.44101708984375,9.134903907775879,0.8830909729003906,3.0099289417266846
1749987941016030700,0.45103076171875,9.11506462097168,0.8926540017127991,3.0374650955200195
1749987941026044700,0.461044677734375,9.090550422668457,0.9000049829483032,3.0707199573516846
1749987941036058000,0.47105810546875,9.06154727935791,0.904865026473999,3.1088550090789795
1749987941046072000,0.481072021484375,9.028329849243164,0.907135009765625,3.151118040084839
1749987941056086300,0.491086181640625,8.991076469421387,0.9068909883499146,3.1971659660339355
1749987941066099700,0.501099609375,8.95005989074707,0.9045270085334778,3.246673107147217
1749987941076113700,0.51111376953125,8.905715942382812,0.9006109833717346,3.299237012863159
1749987941086127400,0.52112744140625,8.858575820922852,0.8957750201225281,3.3542048931121826
1749987941096141300,0.531141357421875,8.80894947052002,0.8906400203704834,3.4109439849853516
1749987941106155000,0.541155029296875,8.758210182189941,0.8823320269584656,3.4680020809173584
1749987941116169000,0.5511689453125,8.70478630065918,0.8747829794883728,3.5263829231262207
1749987941126182700,0.5611826171875,8.647828102111816,0.8674399852752686,3.5864830017089844
1749987941136196400,0.5711962890625,8.586307525634766,0.8593540191650391,3.6487019062042236
1749987941146210300,0.581210205078125,8.51928424835205,0.8495619893074036,3.7131879329681396
1749987941156224000,0.59122412109375,8.446155548095703,0.837261974811554,3.779819965362549
1749987941166238000,0.601238037109375,8.369650840759277,0.8206470012664795,3.847234010696411
1749987941176252000,0.611251953125,8.290111541748047,0.7992969751358032,3.9151580333709717
1749987941186265600,0.621265625,8.20753288269043,0.7722190022468567,3.9832310676574707
1749987941196279600,0.631279541015625,8.118395805358887,0.7406719923019409,4.052423000335693
1749987941206293200,0.641293212890625,8.022588729858398,0.7040640115737915,4.12299919128418
1749987941216307000,0.651306884765625,7.920332908630371,0.6619840264320374,4.194561004638672
1749987941236334800,0.6713349609375,7.699913024902344,0.5586479902267456,4.337121963500977
1749987941246348500,0.6813486328125,7.582924842834473,0.4967379868030548,4.406424045562744
1749987941256362500,0.691362548828125,7.461542129516602,0.4283680021762848,4.47373104095459
1749987941276390100,0.71139013671875,7.208737850189209,0.27480199933052063,4.5996928215026855
1749987941286403800,0.72140380859375,7.078693866729736,0.19065499305725098,4.65807580947876
1749987941296417500,0.73141748046875,6.947179794311523,0.10238800197839737,4.713612079620361
1749987941306431500,0.741431396484375,6.814912796020508,0.010591000318527222,4.7665300369262695
1749987941316445200,0.751445068359375,6.682439804077148,-0.08425399661064148,4.816883087158203
1749987941326459100,0.761459228515625,6.550103187561035,-0.18182599544525146,4.864696025848389
1749987941336472800,0.771472900390625,6.41807222366333,-0.28180500864982605,4.910037040710449
1749987941346486800,0.78148681640625,6.28649377822876,-0.38385599851608276,4.953045845031738
1749987941356500500,0.79150048828125,6.155571937561035,-0.4876280128955841,4.993850231170654
1749987941366514400,0.801514404296875,6.02555513381958,-0.5927600264549255,5.032703876495361
1749987941376528000,0.81152783203125,5.896679878234863,-0.6995469927787781,5.070018768310547
1749987941386541800,0.821541748046875,5.769236087799072,-0.8084980249404907,5.105846881866455
1749987941396555500,0.831555419921875,5.643346786499023,-0.9197940230369568,5.139877796173096
1749987941406569500,0.841569580078125,5.518925189971924,-1.0332980155944824,5.171785831451416
1749987941416583200,0.851583251953125,5.3957719802856445,-1.1488779783248901,5.201406002044678
1749987941426597000,0.86159716796875,5.2734551429748535,-1.2661930322647095,5.2293171882629395
1749987941436610800,0.87161083984375,5.1515021324157715,-1.3846789598464966,5.255859851837158
1749987941446624800,0.881624755859375,5.029498100280762,-1.503680944442749,5.281403064727783
1749987941456638700,0.891638671875,4.907167911529541,-1.6226030588150024,5.306485176086426
1749987941466652400,0.90165234375,4.784441947937012,-1.740913987159729,5.331829071044922
1749987941476666400,0.911666259765625,4.6615471839904785,-1.858260989189148,5.35766077041626
1749987941486680000,0.92168017578125,4.540286064147949,-1.9526740312576294,5.3818488121032715
1749987941496694000,0.931694091796875,4.418361186981201,-2.049443006515503,5.4085540771484375
1749987941506707700,0.941707763671875,4.295910835266113,-2.1493868827819824,5.43918514251709
1749987941516721400,0.951721435546875,4.173711776733398,-2.2542660236358643,5.4717230796813965
1749987941526735400,0.9617353515625,4.052215099334717,-2.364135980606079,5.504785060882568
1749987941536749000,0.9717490234375,3.931195020675659,-2.4788990020751953,5.537964820861816
1749987941546763000,0.981762939453125,3.8103768825531006,-2.598620891571045,5.571078777313232
1749987941556777000,0.99177685546875,3.689969062805176,-2.7232260704040527,5.604401111602783
1749987941566790700,1.001790771484375,3.5703461170196533,-2.8506500720977783,5.6379499435424805
1749987941576804400,1.011804443359375,3.4522929191589355,-2.981173038482666,5.671082973480225
1749987941586818300,1.021818359375,3.336664915084839,-3.1151299476623535,5.702614784240723
1749987941596832300,1.031832275390625,3.2241170406341553,-3.2527949810028076,5.731130123138428
1749987941606846000,1.041845947265625,3.1152660846710205,-3.394361972808838,5.755270957946777
1749987941616859600,1.051859619140625,3.011378049850464,-3.5378310680389404,5.777885913848877
1749987941626873600,1.06187353515625,2.9105780124664307,-3.6819241046905518,5.801236152648926
1749987941636887300,1.07188720703125,2.810586929321289,-3.8258368968963623,5.827197074890137
1749987941646901200,1.0819013671875,2.7119550704956055,-3.9709110260009766,5.853588104248047
1749987941656915000,1.0919150390625,2.6140201091766357,-4.1163249015808105,5.880012035369873
1749987941666929000,1.101928955078125,2.515799045562744,-4.261169910430908,5.90676212310791
1749987941676942600,1.111942626953125,2.4168601036071777,-4.4048638343811035,5.933524131774902
1749987941686956500,1.12195654296875,2.3171350955963135,-4.547067165374756,5.9600300788879395
1749987941696970200,1.13197021484375,2.2154269218444824,-4.685141086578369,5.989837169647217
1749987941706984200,1.141984130859375,2.1131889820098877,-4.820925235748291,6.019802093505859
1749987941716998100,1.151998046875,2.010334014892578,-4.954251766204834,6.049777984619141
1749987941727011800,1.16201171875,1.9068340063095093,-5.085073947906494,6.079246997833252
1749987941737025800,1.17202587890625,1.8027299642562866,-5.213393211364746,6.107614994049072
1749987941747039500,1.18203955078125,1.6980899572372437,-5.339101791381836,6.134304046630859
1749987941757053200,1.19205322265625,1.5932120084762573,-5.461987018585205,6.158816814422607
1749987941767067100,1.202067138671875,1.4885109663009644,-5.581814765930176,6.180696964263916
1749987941777080800,1.212080810546875,1.3819899559020996,-5.698503017425537,6.202949047088623
1749987941787094800,1.2220947265625,1.2758009433746338,-5.811762809753418,6.221141815185547
1749987941797108500,1.2321083984375,1.1695250272750854,-5.918950080871582,6.237222194671631
1749987941807122400,1.242122314453125,1.0640050172805786,-6.021759033203125,6.248961925506592
1749987941817136000,1.25213623046875,0.9601479768753052,-6.117592811584473,6.258615970611572
1749987941827150000,1.262150146484375,0.8596889972686768,-6.207181930541992,6.265678882598877
1749987941837163800,1.272163818359375,0.7614859938621521,-6.291780948638916,6.269350051879883
1749987941847177700,1.282177734375,0.6685659885406494,-6.37100887298584,6.271152973175049
1749987941857191700,1.292191650390625,0.5806019902229309,-6.4446210861206055,6.271957874298096
1749987941867205400,1.302205322265625,0.49715301394462585,-6.512070178985596,6.27290678024292
1749987941877219300,1.31221923828125,0.4180949926376343,-6.572653770446777,6.275150775909424
1749987941887233300,1.3222333984375,0.34165099263191223,-6.629683017730713,6.277054786682129
1749987941897246700,1.332246826171875,0.2679460048675537,-6.68312406539917,6.279040813446045
1749987941907260700,1.3422607421875,0.19488100707530975,-6.729668140411377,6.282129764556885
1749987941917274600,1.352274658203125,0.12329299747943878,-6.773711204528809,6.284733772277832
1749987941927288300,1.362288330078125,0.05414900183677673,-6.815799236297607,6.286090850830078
1749987941937302300,1.37230224609375,-0.011851999908685684,-6.855768203735352,6.285665988922119
1749987941947316000,1.38231591796875,-0.07375799864530563,-6.893290996551514,6.283225059509277
1749987941957330000,1.392329833984375,-0.1300780028104782,-6.928187847137451,6.278926849365234
1749987941967343600,1.402343505859375,-0.18320399522781372,-6.959322929382324,6.274083137512207
1749987941977357600,1.412357666015625,-0.23366299271583557,-6.98698091506958,6.26880407333374
1749987941987371300,1.422371337890625,-0.281823992729187,-7.01061487197876,6.263304233551025
1749987941997385200,1.43238525390625,-0.32471999526023865,-7.031652927398682,6.256566047668457
1749987942007399200,1.442399169921875,-0.3630799949169159,-7.049742221832275,6.249076843261719
1749987942017412600,1.45241259765625,-0.3975459933280945,-7.064453125,6.24135684967041
1749987942027426600,1.462426513671875,-0.42868199944496155,-7.075228214263916,6.23399019241333
1749987942037440300,1.472440185546875,-0.4589439928531647,-7.079730987548828,6.228553771972656
1749987942047454200,1.4824541015625,-0.4873569905757904,-7.079096794128418,6.22484016418457
1749987942057468200,1.49246826171875,-0.5146049857139587,-7.0730180740356445,6.223471164703369
1749987942067481900,1.50248193359375,-0.540565013885498,-7.0616679191589355,6.225082874298096
1749987942077495600,1.51249560546875,-0.5648850202560425,-7.045483112335205,6.230179786682129
1749987942087509500,1.522509521484375,-0.5880280137062073,-7.024909019470215,6.238875865936279
1749987942097523500,1.5325234375,-0.6116089820861816,-7.000217914581299,6.250858783721924
1749987942107537200,1.542537109375,-0.6376140117645264,-6.971755027770996,6.265500068664551
1749987942117551000,1.552551025390625,-0.6672319769859314,-6.940022945404053,6.282205104827881
1749987942127564800,1.562564697265625,-0.7003759741783142,-6.905442237854004,6.3008527755737305
1749987942137578500,1.57257861328125,-0.7359989881515503,-6.868175029754639,6.321934223175049
1749987942147592400,1.582592529296875,-0.7733790278434753,-6.828096866607666,6.345986843109131
1749987942157606100,1.592606201171875,-0.8126019835472107,-6.7849931716918945,6.373150825500488
1749987942167620000,1.6026201171875,-0.8538069725036621,-6.738563060760498,6.4035539627075195
1749987942177633800,1.6126337890625,-0.8967639803886414,-6.688722133636475,6.43740177154541
1749987942187647700,1.622647705078125,-0.9415990114212036,-6.635433197021484,6.474691867828369
1749987942197661400,1.632661376953125,-0.9864299893379211,-6.581419944763184,6.514833927154541
1749987942207675400,1.64267529296875,-1.0328439474105835,-6.524129867553711,6.558138847351074
1749987942217689000,1.652689208984375,-1.0801550149917603,-6.4639787673950195,6.604397773742676
1749987942227703000,1.662703125,-1.1287800073623657,-6.401275157928467,6.65283203125
1749987942237717000,1.672717041015625,-1.1791470050811768,-6.336258888244629,6.702640056610107
1749987942247730700,1.682730712890625,-1.2307380437850952,-6.269463062286377,6.753416061401367
1749987942257744600,1.69274462890625,-1.2828530073165894,-6.201934814453125,6.804633140563965
1749987942267758600,1.702758544921875,-1.335312008857727,-6.134894847869873,6.855582237243652
1749987942277772000,1.71277197265625,-1.388566017150879,-6.069500923156738,6.905355930328369
1749987942287786000,1.722785888671875,-1.4429869651794434,-6.0065388679504395,6.953228950500488
1749987942297800000,1.732800048828125,-1.4985020160675049,-5.946444988250732,6.998891830444336
1749987942307813600,1.742813720703125,-1.5538519620895386,-5.889667987823486,7.0428547859191895
1749987942317827600,1.75282763671875,-1.6032320261001587,-5.837500095367432,7.087778091430664
1749987942327841300,1.76284130859375,-1.6511399745941162,-5.789334774017334,7.1312761306762695
1749987942337855200,1.772855224609375,-1.6976159811019897,-5.7454071044921875,7.1726789474487305
1749987942347869000,1.782868896484375,-1.7409919500350952,-5.705325126647949,7.212497234344482
1749987942357883000,1.7928828125,-1.7808549404144287,-5.668111801147461,7.251277923583984
1749987942367896600,1.802896484375,-1.8198349475860596,-5.633584976196289,7.288006782531738
1749987942377910500,1.81291064453125,-1.8593339920043945,-5.6015400886535645,7.322555065155029
1749987942387924200,1.82292431640625,-1.900001049041748,-5.57161808013916,7.355298042297363
1749987942397938000,1.83293798828125,-1.9421190023422241,-5.5435662269592285,7.38651180267334
1749987942407952000,1.842951904296875,-1.986050009727478,-5.517358779907227,7.416101932525635
1749987942417965600,1.852965576171875,-2.033108949661255,-5.495041847229004,7.439576148986816
1749987942427979500,1.8629794921875,-2.081835985183716,-5.4775872230529785,7.455442905426025
1749987942437993200,1.8729931640625,-2.130592107772827,-5.465073108673096,7.463514804840088
1749987942448007200,1.883007080078125,-2.1803159713745117,-5.455573081970215,7.467382907867432
1749987942458020900,1.893020751953125,-2.2300610542297363,-5.449096202850342,7.4669060707092285
1749987942468034800,1.903034912109375,-2.2770519256591797,-5.4449849128723145,7.464104175567627
1749987942478048500,1.913048583984375,-2.320905923843384,-5.443121910095215,7.458902835845947
1749987942488062500,1.9230625,-2.363245964050293,-5.443920135498047,7.4493727684021
1749987942498076200,1.933076171875,-2.4023780822753906,-5.44989013671875,7.431704044342041
1749987942508089900,1.94308984375,-2.439424991607666,-5.458988189697266,7.409175872802734
1749987942518103800,1.953103759765625,-2.474169969558716,-5.470987796783447,7.382119178771973
1749987942528117500,1.963117431640625,-2.5081820487976074,-5.484735012054443,7.351858139038086
1749987942538131500,1.97313134765625,-2.5413289070129395,-5.4998979568481445,7.318963050842285
1749987942548145200,1.983145263671875,-2.5726819038391113,-5.516732215881348,7.28319787979126
1749987942558159000,1.9931591796875,-2.6024329662323,-5.535254001617432,7.2444610595703125
1749987942568172800,2.0031728515625,-2.630711078643799,-5.555618762969971,7.202404975891113
1749987942578186800,2.013186767578125,-2.6571619510650635,-5.577916145324707,7.156786918640137
1749987942588200700,2.02320068359375,-2.6811249256134033,-5.602208137512207,7.107619762420654
1749987942598214400,2.03321435546875,-2.7013449668884277,-5.630928039550781,7.052700042724609
1749987942608228400,2.043228271484375,-2.7179229259490967,-5.662112236022949,6.994389057159424
1749987942618242000,2.053241943359375,-2.731149911880493,-5.6979851722717285,6.930974006652832
1749987942628255700,2.063255859375,-2.741584062576294,-5.736743927001953,6.867176055908203
1749987942638269700,2.073269775390625,-2.7486488819122314,-5.777616024017334,6.801449775695801
1749987942648283400,2.083283447265625,-2.755671977996826,-5.820824146270752,6.733603000640869
1749987942658297300,2.09329736328125,-2.763062000274658,-5.866539001464844,6.664097785949707
1749987942668311000,2.10331103515625,-2.7714920043945312,-5.915435791015625,6.59309196472168
1749987942678325000,2.113324951171875,-2.7848610877990723,-5.967282772064209,6.522688865661621
1749987942688338700,2.123338623046875,-2.7994329929351807,-6.020243167877197,6.453020095825195
1749987942698352400,2.133352294921875,-2.8158719539642334,-6.0747599601745605,6.383767127990723
1749987942708366600,2.14336669921875,-2.8336129188537598,-6.131120204925537,6.314824104309082
1749987942718380000,2.153380126953125,-2.8524460792541504,-6.18874979019165,6.246429920196533
1749987942728394000,2.16339404296875,-2.8725740909576416,-6.2467498779296875,6.178805828094482
1749987942738407700,2.17340771484375,-2.893894910812378,-6.304470062255859,6.112268924713135
1749987942748421600,2.183421630859375,-2.9165079593658447,-6.36159610748291,6.046632766723633
1749987942758435300,2.193435302734375,-2.9409940242767334,-6.417885780334473,5.9817609786987305
1749987942768449300,2.20344921875,-2.9673049449920654,-6.473024845123291,5.917723178863525
1749987942778463200,2.213463134765625,-2.9949491024017334,-6.526631832122803,5.854678153991699
1749987942788476700,2.2234765625,-3.0231430530548096,-6.578530788421631,5.792841911315918
1749987942798490600,2.23349072265625,-3.050837993621826,-6.628759860992432,5.732507228851318
1749987942808504300,2.24350439453125,-3.0769119262695312,-6.67753791809082,5.673893928527832
1749987942818518300,2.253518310546875,-3.1003570556640625,-6.725133895874023,5.617178916931152
1749987942828532000,2.263531982421875,-3.1203830242156982,-6.771749973297119,5.562522888183594
1749987942838546000,2.2735458984375,-3.1366450786590576,-6.818047046661377,5.509775161743164
1749987942848559900,2.283559814453125,-3.1486449241638184,-6.863728046417236,5.4591779708862305
1749987942858573600,2.293573486328125,-3.1566860675811768,-6.909006118774414,5.410285949707031
1749987942868587500,2.30358740234375,-3.1620419025421143,-6.953991889953613,5.362399101257324
1749987942878601200,2.313601318359375,-3.166080951690674,-6.998856067657471,5.314650058746338
1749987942888615000,2.323614990234375,-3.1691009998321533,-7.043819904327393,5.266636848449707
1749987942898628900,2.33362890625,-3.1703040599823,-7.089353084564209,5.218062877655029
1749987942908642600,2.343642578125,-3.16865611076355,-7.1353678703308105,5.1695661544799805
1749987942918656300,2.35365625,-3.1633338928222656,-7.181804180145264,5.121500015258789
1749987942928670200,2.363670166015625,-3.1546061038970947,-7.228568077087402,5.073904991149902
1749987942938684000,2.373683837890625,-3.143476963043213,-7.275827884674072,5.026216983795166
1749987942948697900,2.38369775390625,-3.1307690143585205,-7.324028968811035,4.977672100067139
1749987942958711600,2.393711669921875,-3.1166000366210938,-7.37371301651001,4.927796840667725
1749987942968725500,2.4037255859375,-3.1010630130767822,-7.425458908081055,4.876191139221191
1749987942978739200,2.4137392578125,-3.0846118927001953,-7.47954797744751,4.822509765625
1749987942988753200,2.423753173828125,-3.067348003387451,-7.536081790924072,4.766869068145752
1749987942998766800,2.433766845703125,-3.05126690864563,-7.5924201011657715,4.70987606048584
1749987943008780500,2.443780517578125,-3.0345969200134277,-7.651331901550293,4.650934219360352
1749987943018794500,2.45379443359375,-3.0176010131835938,-7.712703227996826,4.589798927307129
1749987943028808400,2.463808349609375,-2.9993159770965576,-7.776548862457275,4.526660919189453
1749987943038822000,2.47382177734375,-2.978703022003174,-7.842926025390625,4.461702823638916
1749987943048835800,2.4838359375,-2.9557979106903076,-7.911524772644043,4.3947601318359375
1749987943058849500,2.493849609375,-2.93121600151062,-7.981411933898926,4.325913906097412
1749987943068863500,2.503863525390625,-2.90562105178833,-8.051295280456543,4.255724906921387
1749987943078877200,2.513877197265625,-2.8793299198150635,-8.119815826416016,4.185418128967285
1749987943088891100,2.52389111328125,-2.852492094039917,-8.185901641845703,4.11643123626709
1749987943098905000,2.533905029296875,-2.8256618976593018,-8.248910903930664,4.049580097198486
1749987943108918800,2.543918701171875,-2.8007519245147705,-8.308252334594727,3.9845669269561768
1749987943118932500,2.553932373046875,-2.784306049346924,-8.362462997436523,3.918971061706543
1749987943128946400,2.563946533203125,-2.773780107498169,-8.412124633789062,3.852579116821289
1749987943138960100,2.573960205078125,-2.765194892883301,-8.457964897155762,3.786431074142456
1749987943148974000,2.58397412109375,-2.761152982711792,-8.499613761901855,3.7213339805603027
1749987943158987800,2.59398779296875,-2.761418104171753,-8.538445472717285,3.6561310291290283
1749987943169001700,2.604001708984375,-2.763115882873535,-8.574906349182129,3.5917439460754395
1749987943179015400,2.614015380859375,-2.7649788856506348,-8.60925006866455,3.5286760330200195
1749987943189029400,2.624029296875,-2.7668309211730957,-8.641674995422363,3.4672820568084717
1749987943199042800,2.634042724609375,-2.768786907196045,-8.67228889465332,3.4076969623565674
1749987943209056800,2.644056884765625,-2.77046799659729,-8.701162338256836,3.3500430583953857
1749987943219070700,2.65407080078125,-2.7708919048309326,-8.728302001953125,3.2949459552764893
1749987943229084400,2.66408447265625,-2.769929885864258,-8.753072738647461,3.2437829971313477
1749987943239098000,2.67409814453125,-2.767893075942993,-8.775232315063477,3.1973929405212402
1749987943249112000,2.684112060546875,-2.7652928829193115,-8.794570922851562,3.1561338901519775
1749987943259125800,2.694125732421875,-2.7625439167022705,-8.81110954284668,3.119810104370117
1749987943269139500,2.704139404296875,-2.760188102722168,-8.826031684875488,3.086134910583496
1749987943279153400,2.7141533203125,-2.757720947265625,-8.839811325073242,3.054194927215576
1749987943289167000,2.7241669921875,-2.7529940605163574,-8.852355003356934,3.025038003921509
1749987943299181000,2.73418115234375,-2.746217966079712,-8.863863945007324,2.9978420734405518
1749987943309194800,2.74419482421875,-2.7378299236297607,-8.874391555786133,2.9722189903259277
1749987943319208700,2.754208740234375,-2.7281899452209473,-8.883955001831055,2.948240041732788
1749987943329222100,2.76422216796875,-2.7168989181518555,-8.89311695098877,2.9256680011749268
1749987943339236000,2.774236083984375,-2.704035997390747,-8.901969909667969,2.9043149948120117
1749987943349249800,2.784249755859375,-2.6903979778289795,-8.910168647766113,2.8846750259399414
1749987943359263700,2.794263671875,-2.675731897354126,-8.917767524719238,2.8669800758361816
1749987943369277400,2.80427734375,-2.659882068634033,-8.924713134765625,2.8516829013824463
1749987943379291400,2.81429150390625,-2.642904043197632,-8.930926322937012,2.8391940593719482
1749987943389305000,2.82430517578125,-2.625322103500366,-8.936335563659668,2.8297019004821777
1749987943399318800,2.83431884765625,-2.608099937438965,-8.940871238708496,2.823199987411499
1749987943409332700,2.844332763671875,-2.593864917755127,-8.943815231323242,2.82163405418396
1749987943419346400,2.854346435546875,-2.581563949584961,-8.945862770080566,2.8223109245300293
1749987943429360000,2.864360107421875,-2.5726981163024902,-8.947693824768066,2.8213210105895996
1749987943439374000,2.8743740234375,-2.5672900676727295,-8.9485502243042,2.821798086166382
1749987943449388000,2.884387939453125,-2.565747022628784,-8.9484224319458,2.823431968688965
1749987943459401500,2.8944013671875,-2.5678610801696777,-8.947383880615234,2.8258490562438965
1749987943469415400,2.90441552734375,-2.572819948196411,-8.94566822052002,2.828428030014038
1749987943479429000,2.91442919921875,-2.5767951011657715,-8.944786071777344,2.828291893005371
1749987943489443000,2.924443115234375,-2.5816569328308105,-8.943995475769043,2.826982021331787
1749987943499456800,2.934456787109375,-2.586514949798584,-8.943653106689453,2.82409405708313
1749987943509470700,2.944470703125,-2.590751886367798,-8.944035530090332,2.8193979263305664
1749987943519484400,2.954484375,-2.5936119556427,-8.945392608642578,2.812933921813965
1749987943529498000,2.964498046875,-2.5948829650878906,-8.947731018066406,2.805095911026001
1749987943539512000,2.974511962890625,-2.5929811000823975,-8.95121955871582,2.797187089920044
1749987943549525800,2.98452587890625,-2.5875680446624756,-8.955846786499023,2.7897040843963623
1749987943559539700,2.994539794921875,-2.5802841186523438,-8.961502075195312,2.781601905822754
1749987943569553400,3.004553466796875,-2.5716750621795654,-8.968017578125,2.7729299068450928
1749987943579567400,3.0145673828125,-2.5622470378875732,-8.975217819213867,2.763719081878662
1749987943589581000,3.0245810546875,-2.552489995956421,-8.982877731323242,2.754102945327759
1749987943599594800,3.0345947265625,-2.542862892150879,-8.990839958190918,2.743989944458008
1749987943609608400,3.0446083984375,-2.5338380336761475,-8.998900413513184,2.7333600521087646
1749987943619622400,3.054622314453125,-2.525984048843384,-9.006902694702148,2.721959114074707
1749987943629636400,3.06463623046875,-2.519033908843994,-9.015175819396973,2.709052085876465
1749987943639650000,3.074650146484375,-2.5126121044158936,-9.024203300476074,2.6936330795288086
1749987943649663700,3.084663818359375,-2.506408929824829,-9.034163475036621,2.675389051437378
1749987943659677700,3.094677734375,-2.500053882598877,-9.044899940490723,2.654876947402954
1749987943669691400,3.10469140625,-2.4933629035949707,-9.056085586547852,2.6330220699310303
1749987943679705300,3.114705322265625,-2.4863650798797607,-9.067315101623535,2.6107900142669678
1749987943689719000,3.124718994140625,-2.47927188873291,-9.078317642211914,2.588701009750366
1749987943699732700,3.134732666015625,-2.472421884536743,-9.08890438079834,2.566744089126587
1749987943709746400,3.144746337890625,-2.4645280838012695,-9.099710464477539,2.5440471172332764
1749987943719760400,3.154760498046875,-2.455919027328491,-9.110309600830078,2.5217320919036865
1749987943729774300,3.1647744140625,-2.4464480876922607,-9.120780944824219,2.499574899673462
1749987943739788000,3.1747880859375,-2.4361751079559326,-9.131129264831543,2.47735595703125
1749987943749802000,3.184802001953125,-2.4250800609588623,-9.141341209411621,2.454965114593506
1749987943759815400,3.1948154296875,-2.4131999015808105,-9.151399612426758,2.432279109954834
1749987943769829400,3.204829345703125,-2.4007060527801514,-9.16129207611084,2.40905499458313
1749987943779843000,3.214843017578125,-2.387753963470459,-9.171034812927246,2.384993076324463
1749987943789857000,3.22485693359375,-2.374423027038574,-9.180700302124023,2.359687089920044
1749987943799870700,3.23487060546875,-2.3607800006866455,-9.190346717834473,2.332808017730713
1749987943809884700,3.244884765625,-2.3472180366516113,-9.199857711791992,2.304313898086548
1749987943819898000,3.254898193359375,-2.3349640369415283,-9.208531379699707,2.2784030437469482
1749987943829912000,3.264912109375,-2.3231890201568604,-9.216705322265625,2.2523748874664307
1749987943839925800,3.27492578125,-2.3117120265960693,-9.224235534667969,2.227216958999634
1749987943849939700,3.284939697265625,-2.2988901138305664,-9.23072624206543,2.208859920501709
1749987943859953400,3.294953369140625,-2.286545991897583,-9.23639965057373,2.1929070949554443
1749987943869967000,3.304967041015625,-2.2750730514526367,-9.241313934326172,2.1794259548187256
1749987943889994800,3.324994873046875,-2.2559010982513428,-9.249839782714844,2.1554830074310303
1749987943900008400,3.335008544921875,-2.2475268840789795,-9.254040718078613,2.1429829597473145
1749987943910022400,3.3450224609375,-2.239003896713257,-9.258538246154785,2.1295320987701416
1749987943920036000,3.3550361328125,-2.225313901901245,-9.2644681930542,2.1140079498291016
1749987943930049800,3.3650498046875,-2.203990936279297,-9.271669387817383,2.099910020828247
1749987943940063700,3.375063720703125,-2.1830289363861084,-9.278459548950195,2.0872249603271484
1749987943950077400,3.385077392578125,-2.160630941390991,-9.285643577575684,2.0750820636749268
1749987943960091100,3.395091064453125,-2.1369919776916504,-9.292917251586914,2.0646750926971436
1749987943970104800,3.405104736328125,-2.1123409271240234,-9.300026893615723,2.0565290451049805
1749987943980118800,3.415118896484375,-2.086651086807251,-9.306888580322266,2.050412893295288
1749987943990132500,3.425132568359375,-2.059546947479248,-9.313615798950195,2.045591115951538
1749987944000146400,3.435146484375,-2.030827045440674,-9.32032585144043,2.0414540767669678
1749987944010160000,3.44516015625,-2.000792980194092,-9.326993942260742,2.037621021270752
1749987944030187800,3.465187744140625,-1.9385570287704468,-9.340177536010742,2.028287887573242
1749987944040201500,3.475201416015625,-1.90653395652771,-9.34707260131836,2.020850896835327
1749987944050215400,3.48521533203125,-1.8740450143814087,-9.354368209838867,2.01078200340271
1749987944060229000,3.49522900390625,-1.8413059711456299,-9.362003326416016,1.9982550144195557
1749987944070243000,3.5052431640625,-1.810067057609558,-9.36937427520752,1.983739972114563
1749987944080256800,3.5152568359375,-1.7809849977493286,-9.376134872436523,1.968392014503479
1749987944090270500,3.5252705078125,-1.7546249628067017,-9.38204574584961,1.953320026397705
1749987944100284200,3.5352841796875,-1.731462001800537,-9.386871337890625,1.9402689933776855
1749987944110298000,3.545298095703125,-1.7114900350570679,-9.39057445526123,1.9303950071334839
1749987944120311800,3.555311767578125,-1.6945370435714722,-9.393247604370117,1.9239829778671265
1749987944130325500,3.565325439453125,-1.6790369749069214,-9.39567756652832,1.9175089597702026
1749987944140339500,3.57533935546875,-1.6649500131607056,-9.397858619689941,1.911249041557312
1749987944150353200,3.585353271484375,-1.65236496925354,-9.399764060974121,1.9056260585784912
1749987944160367000,3.5953671875,-1.6440999507904053,-9.400673866271973,1.9045130014419556
1749987944170380500,3.605380615234375,-1.6377619504928589,-9.401165008544922,1.9046920537948608
1749987944180394500,3.61539453125,-1.6334099769592285,-9.401206016540527,1.9062349796295166
1749987944190408400,3.625408447265625,-1.6308109760284424,-9.400795936584473,1.909121036529541
1749987944200422100,3.635422119140625,-1.6293540000915527,-9.39992618560791,1.9134399890899658
1749987944210435800,3.645435791015625,-1.626824975013733,-9.399190902709961,1.917348027229309
1749987944220449800,3.65544970703125,-1.624804973602295,-9.397747039794922,1.9235490560531616
1749987944230463500,3.66546337890625,-1.6230570077896118,-9.395444869995117,1.9323699474334717
1749987944240477200,3.675477294921875,-1.621230959892273,-9.3922700881958,1.9436999559402466
1749987944250491000,3.685490966796875,-1.6188759803771973,-9.388330459594727,1.9571410417556763
1749987944260504600,3.695504638671875,-1.6141929626464844,-9.38471794128418,1.9705389738082886
1749987944270518500,3.7055185546875,-1.6084059476852417,-9.380672454833984,1.9853110313415527
1749987944280532200,3.7155322265625,-1.6012109518051147,-9.376309394836426,2.001315116882324
1749987944290546200,3.725546142578125,-1.5922540426254272,-9.37171745300293,2.018563985824585
1749987944300560000,3.735559814453125,-1.5808990001678467,-9.366992950439453,2.037177085876465
1749987944310573800,3.74557373046875,-1.5664299726486206,-9.36235523223877,2.057003974914551
1749987944320587500,3.75558740234375,-1.5484199523925781,-9.3580904006958,2.0775399208068848
1749987944330601200,3.765601318359375,-1.5269140005111694,-9.35444164276123,2.0980889797210693
1749987944340615200,3.775615234375,-1.503661036491394,-9.351457595825195,2.1169979572296143
1749987944350628900,3.78562890625,-1.4794889688491821,-9.349054336547852,2.1340560913085938
1749987944360642800,3.795642822265625,-1.453544020652771,-9.347124099731445,2.150567054748535
1749987944370656500,3.805656494140625,-1.4259389638900757,-9.345632553100586,2.166616916656494
1749987944380670500,3.81567041015625,-1.39649498462677,-9.344623565673828,2.1822330951690674
1749987944390684200,3.82568408203125,-1.3648840188980103,-9.344263076782227,2.1970810890197754
1749987944400697900,3.83569775390625,-1.330976963043213,-9.344732284545898,2.2107019424438477
1749987944410711800,3.8457119140625,-1.296800971031189,-9.346083641052246,2.222714900970459
1749987944420725500,3.8557255859375,-1.2610390186309814,-9.34859561920166,2.2325329780578613
1749987944430739200,3.8657392578125,-1.2260149717330933,-9.350893020629883,2.2426719665527344
1749987944440753200,3.875753173828125,-1.191625952720642,-9.352185249328613,2.254612922668457
1749987944450766800,3.885766845703125,-1.158189058303833,-9.353532791137695,2.2658140659332275
1749987944460780800,3.89578076171875,-1.1256070137023926,-9.354931831359863,2.2762629985809326
1749987944470794200,3.905794189453125,-1.0942180156707764,-9.35661506652832,2.2853939533233643
1749987944480808200,3.91580810546875,-1.0646170377731323,-9.358831405639648,2.292543888092041
1749987944490822000,3.92582177734375,-1.0372430086135864,-9.361689567565918,2.2973110675811768
1749987944500835800,3.9358359375,-1.0120619535446167,-9.36508560180664,2.30002498626709
1749987944510849300,3.945849365234375,-0.990041971206665,-9.368440628051758,2.3013930320739746
1749987944520863200,3.95586328125,-0.9703519940376282,-9.371950149536133,2.3006811141967773
1749987944530877000,3.965876953125,-0.9520689845085144,-9.375428199768066,2.2985939979553223
1749987944540890600,3.975890625,-0.9341250061988831,-9.378759384155273,2.2959089279174805
1749987944550904600,3.985904541015625,-0.9160900115966797,-9.381830215454102,2.2933011054992676
1749987944560918300,3.995918212890625,-0.9028649926185608,-9.383883476257324,2.2930359840393066
1749987944570932000,4.005931884765625,-0.8908640146255493,-9.385517120361328,2.2937419414520264
1749987944580946000,4.01594580078125,-0.8815060257911682,-9.387081146240234,2.292578935623169
1749987944590959600,4.025959716796875,-0.8733130097389221,-9.388256072998047,2.292675018310547
1749987944600973300,4.035973388671875,-0.8652300238609314,-9.389211654663086,2.2940471172332764
1749987944610987000,4.045987060546875,-0.8561189770698547,-9.39013671875,2.296612024307251
1749987944621000700,4.056000732421875,-0.8445209860801697,-9.391650199890137,2.2962210178375244
1749987944631014700,4.0660146484375,-0.8315169811248779,-9.39323902130127,2.295743942260742
1749987944641028400,4.0760283203125,-0.8177289962768555,-9.39486312866211,2.2944700717926025
1749987944651042300,4.086042236328125,-0.8056129813194275,-9.396760940551758,2.2869040966033936
1749987944661055700,4.0960556640625,-0.7937080264091492,-9.398711204528809,2.2778708934783936
1749987944671069700,4.106069580078125,-0.7815989851951599,-9.400805473327637,2.2679219245910645
1749987944681083600,4.116083740234375,-0.7686370015144348,-9.403083801269531,2.2581920623779297
1749987944691097300,4.126097412109375,-0.7545369863510132,-9.405556678771973,2.249253034591675
1749987944701110800,4.13611083984375,-0.739512026309967,-9.40821647644043,2.2407360076904297
1749987944711124700,4.146124755859375,-0.7240219712257385,-9.411016464233398,2.232100009918213
1749987944721138700,4.156138671875,-0.7128120064735413,-9.41298770904541,2.22377610206604
1749987944731152400,4.16615234375,-0.706384003162384,-9.414258003234863,2.21459698677063
1749987944741166300,4.176166259765625,-0.700016975402832,-9.415538787841797,2.2039830684661865
1749987944751179800,4.1861796875,-0.6937580108642578,-9.416837692260742,2.191243886947632
1749987944761193700,4.19619384765625,-0.6876720190048218,-9.418184280395508,2.17549991607666
1749987944771207400,4.20620751953125,-0.6817730069160461,-9.41959285736084,2.15639591217041
1749987944781221400,4.216221435546875,-0.6761760115623474,-9.42103385925293,2.1343209743499756
1749987944791235000,4.226235107421875,-0.6711369752883911,-9.422466278076172,2.1101300716400146
1749987944801249000,4.2362490234375,-0.6668319702148438,-9.423892974853516,2.085045099258423
1749987944811262500,4.246262451171875,-0.6635130047798157,-9.425322532653809,2.060580015182495
1749987944821276400,4.2562763671875,-0.6616479754447937,-9.426736831665039,2.038341999053955
1749987944831290000,4.2662900390625,-0.6618360280990601,-9.428041458129883,2.019747018814087
1749987944841303800,4.2763037109375,-0.6684650182723999,-9.428722381591797,2.0073490142822266
1749987944851317500,4.2863173828125,-0.6776019930839539,-9.428837776184082,2.000025987625122
1749987944861331200,4.296331298828125,-0.6892290115356445,-9.428218841552734,1.9979209899902344
1749987944871345200,4.30634521484375,-0.7033650279045105,-9.426759719848633,2.0006439685821533
1749987944881358800,4.31635888671875,-0.7199490070343018,-9.4243803024292,2.007596969604492
1749987944891372500,4.32637255859375,-0.7388010025024414,-9.421051979064941,2.017997980117798
1749987944901386500,4.336386474609375,-0.7594770193099976,-9.416849136352539,2.0305380821228027
1749987944911400000,4.34639990234375,-0.7815350294113159,-9.411903381347656,2.044055938720703
1749987944921414100,4.3564140625,-0.8045160174369812,-9.406377792358398,2.0577340126037598
1749987944931427600,4.366427490234375,-0.8282920122146606,-9.39998722076416,2.07407808303833
1749987944941441500,4.376441650390625,-0.8524429798126221,-9.392908096313477,2.092479944229126
1749987944951455000,4.386455078125,-0.8718029856681824,-9.387208938598633,2.1092939376831055
1749987944961469000,4.396468994140625,-0.8876630067825317,-9.381834030151367,2.1235098838806152
1749987944971482600,4.406482666015625,-0.901826024055481,-9.376277923583984,2.1382830142974854
1749987944981496300,4.416496337890625,-0.913424015045166,-9.370651245117188,2.153477907180786
1749987944991510300,4.42651025390625,-0.9217780232429504,-9.365068435668945,2.16888689994812
1749987945001524000,4.43652392578125,-0.9262909889221191,-9.35973072052002,2.1839919090270996
1749987945011537700,4.44653759765625,-0.9263439774513245,-9.355083465576172,2.1976940631866455
1749987945021551400,4.45655126953125,-0.9216409921646118,-9.3518705368042,2.2081189155578613
1749987945031565300,4.4665654296875,-0.9126750230789185,-9.351008415222168,2.2128429412841797
1749987945041579000,4.4765791015625,-0.8999990224838257,-9.352773666381836,2.2110180854797363
1749987945051592700,4.4865927734375,-0.8849660158157349,-9.357145309448242,2.20251202583313
1749987945061606700,4.496606689453125,-0.8706780076026917,-9.363040924072266,2.189138889312744
1749987945071620400,4.506620361328125,-0.8570780158042908,-9.37110710144043,2.1694319248199463
1749987945081634000,4.516634033203125,-0.8451719880104065,-9.38098430633545,2.1437060832977295
1749987945091647700,4.526647705078125,-0.8356379866600037,-9.392248153686523,2.11236310005188
1749987945101661700,4.53666162109375,-0.8258990049362183,-9.404417037963867,2.078300952911377
1749987945111675400,4.54667529296875,-0.8191810250282288,-9.417165756225586,2.040152072906494
1749987945121689000,4.556689208984375,-0.8152989745140076,-9.430103302001953,1.998932957649231
1749987945131702800,4.566702880859375,-0.8139790296554565,-9.442944526672363,1.9554840326309204
1749987945141716700,4.576716796875,-0.8148760199546814,-9.455570220947266,1.910277009010315
1749987945151730400,4.58673046875,-0.8176149725914001,-9.46798038482666,1.863468050956726
1749987945161744100,4.596744140625,-0.8218200206756592,-9.480232238769531,1.8151390552520752
1749987945171757800,4.6067578125,-0.8270829916000366,-9.492362976074219,1.7655960321426392
1749987945181771500,4.616771484375,-0.8330029845237732,-9.504372596740723,1.7154710292816162
1749987945191785500,4.626785400390625,-0.8397110104560852,-9.516164779663086,1.6652899980545044
1749987945201799200,4.636799072265625,-0.8490219712257385,-9.527427673339844,1.612982988357544
1749987945211812900,4.646812744140625,-0.858040988445282,-9.538148880004883,1.5614969730377197
1749987945221826800,4.656826904296875,-0.8684329986572266,-9.547942161560059,1.511551022529602
1749987945231840500,4.666840576171875,-0.878449022769928,-9.557689666748047,1.461035966873169
1749987945241854200,4.676854248046875,-0.8882750272750854,-9.567681312561035,1.4091620445251465
1749987945251868000,4.686867919921875,-0.8974230289459229,-9.576669692993164,1.358922004699707
1749987945261881900,4.6968818359375,-0.9053739905357361,-9.5847806930542,1.310276985168457
1749987945271895600,4.7068955078125,-0.9107999801635742,-9.592037200927734,1.263206958770752
1749987945281909200,4.7169091796875,-0.9125720262527466,-9.59837818145752,1.2177510261535645
1749987945291923200,4.726923095703125,-0.9103249907493591,-9.603813171386719,1.1745109558105469
1749987945301937000,4.73693701171875,-0.9049519896507263,-9.60844898223877,1.1347370147705078
1749987945311950600,4.74695068359375,-0.8980780243873596,-9.61241340637207,1.0990040302276611
1749987945321964300,4.75696435546875,-0.8913609981536865,-9.615796089172363,1.0669339895248413
1749987945331978200,4.766978271484375,-0.8864079713821411,-9.618616104125977,1.0376160144805908
1749987945341992000,4.776991943359375,-0.8844879865646362,-9.620881080627441,1.010040044784546
1749987945352005600,4.787005615234375,-0.8859530091285706,-9.622634887695312,0.9833769798278809
1749987945362019600,4.79701953125,-0.885565996170044,-9.624622344970703,0.9553750157356262
1749987945372033000,4.807032958984375,-0.8863750100135803,-9.626283645629883,0.9275829792022705
1749987945382047000,4.817046875,-0.8828690052032471,-9.627581596374512,0.9017869830131531
1749987945392060700,4.827060791015625,-0.8794159889221191,-9.628686904907227,0.8763300180435181
1749987945402074600,4.83707470703125,-0.8761690258979797,-9.62955379486084,0.8513249754905701
1749987945412088000,4.847088134765625,-0.8730559945106506,-9.630157470703125,0.8269339799880981
1749987945422102000,4.85710205078125,-0.8728479743003845,-9.630575180053711,0.8067950010299683
1749987945432115700,4.86711572265625,-0.8722440004348755,-9.630881309509277,0.7886660099029541
1749987945442129700,4.877129638671875,-0.8716650009155273,-9.631122589111328,0.7736939787864685
1749987945452143000,4.88714306640625,-0.8717920184135437,-9.63131332397461,0.7628070116043091
1749987945462157000,4.897156982421875,-0.8737019896507263,-9.631382942199707,0.7563660144805908
1749987945472170800,4.907170654296875,-0.8779860138893127,-9.631204605102539,0.753832995891571
1749987945482184400,4.917184326171875,-0.8847709894180298,-9.630627632141113,0.754459023475647
1749987945492198100,4.9271982421875,-0.8938800096511841,-9.629520416259766,0.757876992225647
1749987945502211800,4.9372119140625,-0.9050379991531372,-9.627801895141602,0.7640789747238159
1749987945512225800,4.947225830078125,-0.917934000492096,-9.625436782836914,0.7731469869613647
1749987945522239500,4.957239501953125,-0.9323059916496277,-9.622422218322754,0.7852060198783875
1749987945532253200,4.967253173828125,-0.9478219747543335,-9.618783950805664,0.8005579710006714
1749987945552280600,4.987280517578125,-0.9810960292816162,-9.609861373901367,0.84238201379776
1749987945562294500,4.99729443359375,-0.998540997505188,-9.604708671569824,0.8690919876098633
1749987945572308200,5.00730810546875,-1.012110948562622,-9.600561141967773,0.8975039720535278
1749987945582322000,5.017322021484375,-1.0259159803390503,-9.59615707397461,0.9293490052223206
1749987945592335600,5.027335693359375,-1.039849042892456,-9.591510772705078,0.9640169739723206
1749987945602349600,5.037349609375,-1.0536530017852783,-9.586627006530762,1.000458002090454
1749987945612363300,5.04736328125,-1.0666179656982422,-9.581558227539062,1.0373070240020752
1749987945622377000,5.057376953125,-1.0777959823608398,-9.576472282409668,1.0727349519729614
1749987945632391000,5.067390869140625,-1.0862679481506348,-9.571721076965332,1.1045809984207153
1749987945642404400,5.077404296875,-1.0873750448226929,-9.56808853149414,1.1293799877166748
1749987945652418300,5.087418212890625,-1.0850239992141724,-9.565645217895508,1.1475590467453003
1749987945662432000,5.097431884765625,-1.0799349546432495,-9.564536094665527,1.1584479808807373
1749987945672445700,5.10744580078125,-1.0730609893798828,-9.564778327941895,1.1618789434432983
1749987945682459400,5.11745947265625,-1.0650540590286255,-9.566328048706055,1.1580610275268555
1749987945692473000,5.12747314453125,-1.0562560558319092,-9.56910514831543,1.1473850011825562
1749987945702486800,5.13748681640625,-1.0467699766159058,-9.573002815246582,1.1303540468215942
1749987945712500700,5.147500732421875,-1.0365060567855835,-9.57792854309082,1.1075299978256226
1749987945722514400,5.157514404296875,-1.0252209901809692,-9.583806037902832,1.0795899629592896
1749987945732528000,5.167528076171875,-1.0083509683609009,-9.590813636779785,1.0530439615249634
1749987945742541800,5.177541748046875,-0.9903439879417419,-9.598623275756836,1.023110032081604
1749987945752555500,5.187555419921875,-0.975944995880127,-9.605236053466797,0.9932249784469604
1749987945762569200,5.1975693359375,-0.9609339833259583,-9.61247444152832,0.9605709910392761
1749987945772583200,5.207583251953125,-0.9467340111732483,-9.620271682739258,0.9251149892807007
1749987945782596900,5.217596923828125,-0.9353410005569458,-9.628525733947754,0.8867560029029846
1749987945792610600,5.227610595703125,-0.9276610016822815,-9.63717269897461,0.8455179929733276
1749987945802624300,5.237624267578125,-0.9232959747314453,-9.646163940429688,0.8016989827156067
1749987945812638000,5.247637939453125,-0.9223620295524597,-9.655228614807129,0.7562209963798523
1749987945822652000,5.25765185546875,-0.925320029258728,-9.6637544631958,0.7109370231628418
1749987945832665300,5.267665283203125,-0.9311969876289368,-9.671022415161133,0.6685400009155273
1749987945842679300,5.27767919921875,-0.9387339949607849,-9.676962852478027,0.6303690075874329
1749987945852693000,5.28769287109375,-0.9454460144042969,-9.68178653717041,0.5968999862670898
1749987945862706700,5.297706787109375,-0.9485780000686646,-9.68574047088623,0.5678070187568665
1749987945872720400,5.307720458984375,-0.9462900161743164,-9.689031600952148,0.5422390103340149
1749987945882734300,5.317734375,-0.9380789995193481,-9.69178295135498,0.5196859836578369
1749987945892748000,5.327748046875,-0.9245479702949524,-9.694082260131836,0.5000590085983276
1749987945902761700,5.33776171875,-0.9104179739952087,-9.696063041687012,0.4810029864311218
1749987945912775400,5.347775390625,-0.8952199816703796,-9.697724342346191,0.46441298723220825
1749987945922789000,5.3577890625,-0.8844699859619141,-9.699128150939941,0.44848400354385376
1749987945932803000,5.367802978515625,-0.8745930194854736,-9.700239181518555,0.43286699056625366
1749987945942816500,5.37781640625,-0.8667550086975098,-9.701047897338867,0.41774600744247437
1749987945952830500,5.38783056640625,-0.8601729869842529,-9.701581954956055,0.40287598967552185
1749987945962844200,5.39784423828125,-0.854062020778656,-9.701882362365723,0.3880450129508972
1749987945972857900,5.40785791015625,-0.8454549908638,-9.702227592468262,0.3747729957103729
1749987945982871800,5.417871826171875,-0.8350759744644165,-9.702643394470215,0.36387699842453003
1749987945992885500,5.427885498046875,-0.8241810202598572,-9.702878952026367,0.3517000079154968
1749987946002899200,5.437899169921875,-0.8115730285644531,-9.703067779541016,0.34123700857162476
1749987946012913000,5.447912841796875,-0.7996839880943298,-9.703229904174805,0.3308219909667969
1749987946022926800,5.4579267578125,-0.7896630167961121,-9.703462600708008,0.32161399722099304
1749987946032940300,5.467940185546875,-0.7827240228652954,-9.703720092773438,0.3147119879722595
1749987946042954200,5.477954345703125,-0.7801250219345093,-9.703825950622559,0.3109300136566162
1749987946052968200,5.48796826171875,-0.782148003578186,-9.703656196594238,0.31515398621559143
1749987946062981600,5.497981689453125,-0.7899019718170166,-9.70280647277832,0.32316499948501587
1749987946072995600,5.50799560546875,-0.804066002368927,-9.70105266571045,0.33528101444244385
1749987946083009000,5.518009033203125,-0.8245800137519836,-9.698278427124023,0.35183200240135193
1749987946093023000,5.52802294921875,-0.8506619930267334,-9.694398880004883,0.37244099378585815
1749987946103036700,5.53803662109375,-0.8808779716491699,-9.689217567443848,0.3961850106716156
1749987946113050600,5.548050537109375,-0.9137489795684814,-9.682497024536133,0.422544002532959
1749987946123064300,5.558064208984375,-0.9482079744338989,-9.674103736877441,0.45152199268341064
1749987946133078000,5.568078125,-0.9835690259933472,-9.663966178894043,0.48358601331710815
1749987946143091700,5.578091796875,-1.0192060470581055,-9.652080535888672,0.5194129943847656
1749987946153105400,5.58810546875,-1.0543700456619263,-9.638557434082031,0.559660017490387
1749987946163119000,5.598119140625,-1.0883790254592896,-9.623601913452148,0.6045989990234375
1749987946173133000,5.608133056640625,-1.1207449436187744,-9.607536315917969,0.6539520025253296
1749987946183146800,5.618146728515625,-1.1546709537506104,-9.590585708618164,0.7082560062408447
1749987946193160400,5.628160400390625,-1.1864479780197144,-9.573579788208008,0.7652369737625122
1749987946203174100,5.638174072265625,-1.2160110473632812,-9.557056427001953,0.8241339921951294
1749987946213187800,5.648187744140625,-1.243414044380188,-9.541356086730957,0.8844619989395142
1749987946223201800,5.658201904296875,-1.2656619548797607,-9.526543617248535,0.9425299763679504
1749987946233215200,5.66821533203125,-1.285423994064331,-9.51246452331543,1.0009219646453857
1749987946243229200,5.678229248046875,-1.3018569946289062,-9.498702049255371,1.0590909719467163
1749987946253242600,5.68824267578125,-1.314774990081787,-9.484842300415039,1.1160869598388672
1749987946263256300,5.69825634765625,-1.3246879577636719,-9.470823287963867,1.1707119941711426
1749987946273270300,5.708270263671875,-1.3327120542526245,-9.456872940063477,1.2219220399856567
1749987946283284000,5.718283935546875,-1.3411959409713745,-9.445384979248047,1.2640739679336548
1749987946293297700,5.728297607421875,-1.349079966545105,-9.436567306518555,1.29682195186615
1749987946303311400,5.738311279296875,-1.357239007949829,-9.428300857543945,1.325355052947998
1749987946313325000,5.748324951171875,-1.3659240007400513,-9.420587539672852,1.3499300479888916
1749987946323338800,5.7583388671875,-1.375169038772583,-9.413423538208008,1.370779037475586
1749987946333352700,5.768352783203125,-1.3850510120391846,-9.406789779663086,1.3879510164260864
1749987946343366400,5.778366455078125,-1.395719051361084,-9.400649070739746,1.4014610052108765
1749987946353380000,5.788380126953125,-1.4072749614715576,-9.394952774047852,1.4114240407943726
1749987946363393800,5.798393798828125,-1.4198739528656006,-9.389666557312012,1.4179500341415405
1749987946373407500,5.808407470703125,-1.4380489587783813,-9.383404731750488,1.423105001449585
1749987946383421200,5.818421142578125,-1.4578750133514404,-9.377492904663086,1.4247349500656128
1749987946393435000,5.828434814453125,-1.479485034942627,-9.371986389160156,1.422705054283142
1749987946403448600,5.838448486328125,-1.5028539896011353,-9.366913795471191,1.4170429706573486
1749987946413462300,5.848462158203125,-1.5280879735946655,-9.362234115600586,1.4079630374908447
1749987946423476200,5.858476318359375,-1.555317997932434,-9.357796669006348,1.396083950996399
1749987946433490000,5.868489990234375,-1.5844999551773071,-9.353351593017578,1.3825470209121704
1749987946443503600,5.878503662109375,-1.615020990371704,-9.348851203918457,1.368353009223938
1749987946453517300,5.888517333984375,-1.64491605758667,-9.344857215881348,1.3530319929122925
1749987946463531300,5.89853125,-1.6714370250701904,-9.34188461303711,1.3357360363006592
1749987946473544700,5.908544677734375,-1.6926440000534058,-9.33989143371582,1.3170830011367798
1749987946483558700,5.91855859375,-1.709017038345337,-9.338374137878418,1.2999999523162842
1749987946493572000,5.928572021484375,-1.7215930223464966,-9.337084770202637,1.2864949703216553
1749987946503586000,5.9385859375,-1.7316739559173584,-9.3358736038208,1.2776050567626953
1749987946513599700,5.948599853515625,-1.7407649755477905,-9.33458137512207,1.2737829685211182
1749987946523613400,5.958613525390625,-1.7485320568084717,-9.333322525024414,1.2762110233306885
1749987946533627100,5.968627197265625,-1.7618860006332397,-9.33149528503418,1.276669979095459
1749987946543640800,5.978640869140625,-1.7771179676055908,-9.32922077178955,1.2800379991531372
1749987946553654500,5.988654541015625,-1.789816975593567,-9.327552795410156,1.2835880517959595
1749987946563668500,5.99866845703125,-1.8038890361785889,-9.32569408416748,1.2885559797286987
1749987946573682000,6.008681884765625,-1.8170020580291748,-9.32402515411377,1.2938129901885986
1749987946583696000,6.01869580078125,-1.8276760578155518,-9.322699546813965,1.2983169555664062
1749987946593709300,6.028709228515625,-1.8359509706497192,-9.32170581817627,1.3012109994888306
1749987946603723300,6.03872314453125,-1.8427120447158813,-9.320953369140625,1.301651954650879
1749987946613737000,6.048737060546875,-1.8465379476547241,-9.320539474487305,1.2985399961471558
1749987946623750700,6.058750732421875,-1.8449779748916626,-9.320486068725586,1.291672945022583
1749987946633764400,6.068764404296875,-1.839082956314087,-9.320569038391113,1.2823460102081299
1749987946643778000,6.078778076171875,-1.833338975906372,-9.320569038391113,1.2713899612426758
1749987946653791700,6.088791748046875,-1.8313319683074951,-9.320322036743164,1.2594679594039917
1749987946663805700,6.0988056640625,-1.834643006324768,-9.319734573364258,1.2476420402526855
1749987946673819400,6.1088193359375,-1.843526005744934,-9.318799018859863,1.236873984336853
1749987946683833000,6.1188330078125,-1.857522964477539,-9.317605972290039,1.2275429964065552
1749987946693846800,6.1288466796875,-1.8757760524749756,-9.31624698638916,1.2193739414215088
1749987946703860500,6.138860595703125,-1.896996021270752,-9.314746856689453,1.2116669416427612
1749987946713874200,6.148874267578125,-1.9162230491638184,-9.313265800476074,1.2009609937667847
1749987946723887900,6.158887939453125,-1.9318339824676514,-9.311535835266113,1.1913319826126099
1749987946733901600,6.168901611328125,-1.9478269815444946,-9.309617042541504,1.1828609704971313
1749987946743915300,6.178915283203125,-1.9629449844360352,-9.307573318481445,1.175318956375122
1749987946753929000,6.188928955078125,-1.9775669574737549,-9.30547046661377,1.1689039468765259
1749987946763942700,6.198942626953125,-1.9921070337295532,-9.303346633911133,1.1636079549789429
1749987946773956400,6.208956298828125,-2.0071520805358887,-9.301082611083984,1.1553809642791748
1749987946783970300,6.21897021484375,-2.022658109664917,-9.298551559448242,1.1430779695510864
1749987946793983700,6.228983642578125,-2.0376789569854736,-9.295963287353516,1.1303340196609497
1749987946803997700,6.238997802734375,-2.0519299507141113,-9.293310165405273,1.117048978805542
1749987946814011400,6.249011474609375,-2.063900947570801,-9.29061508178711,1.1028759479522705
1749987946824025000,6.259025146484375,-2.0719199180603027,-9.287837028503418,1.0868829488754272
1749987946834038800,6.269038818359375,-2.0763049125671387,-9.284969329833984,1.0687060356140137
1749987946844052500,6.279052490234375,-2.076267957687378,-9.282123565673828,1.0476809740066528
1749987946854066200,6.289066162109375,-2.071950912475586,-9.279363632202148,1.0188100337982178
1749987946864080100,6.299080078125,-2.0627028942108154,-9.277044296264648,0.9862059950828552
1749987946874093600,6.309093505859375,-2.0484418869018555,-9.275362968444824,0.9496679902076721
1749987946884107300,6.319107177734375,-2.0292580127716064,-9.274494171142578,0.9090719819068909
1749987946894121000,6.329120849609375,-2.004757881164551,-9.274681091308594,0.8647570013999939
1749987946904134700,6.339134765625,-1.9751499891281128,-9.276161193847656,0.8168990015983582
1749987946914148400,6.3491484375,-1.9404089450836182,-9.279187202453613,0.7656329870223999
1749987946924162000,6.359162109375,-1.9006229639053345,-9.283921241760254,0.7111570239067078
1749987946934175700,6.36917578125,-1.8563439846038818,-9.290275573730469,0.6526709794998169
1749987946944189400,6.379189453125,-1.8080450296401978,-9.298267364501953,0.5898969769477844
1749987946954203400,6.389203369140625,-1.7565189599990845,-9.307774543762207,0.522491991519928
1749987946964216800,6.399216796875,-1.7026230096817017,-9.318561553955078,0.45036599040031433
1749987946974230800,6.409230712890625,-1.6471329927444458,-9.330252647399902,0.37386101484298706
1749987946984244200,6.419244140625,-1.5912460088729858,-9.342802047729492,0.2952919900417328
1749987946994258200,6.429258056640625,-1.5358879566192627,-9.35559368133545,0.21571099758148193
1749987947004271600,6.439271728515625,-1.4821009635925293,-9.368082046508789,0.13602599501609802
1749987947014285600,6.44928564453125,-1.4298100471496582,-9.37928581237793,0.05494900047779083
1749987947024299300,6.45929931640625,-1.3796980381011963,-9.389026641845703,-0.02730800025165081
1749987947034313000,6.46931298828125,-1.3346960544586182,-9.398481369018555,-0.1082959994673729
1749987947044326700,6.47932666015625,-1.2964149713516235,-9.408164024353027,-0.18890200555324554
1749987947054340400,6.48934033203125,-1.2608280181884766,-9.417532920837402,-0.2717190086841583
1749987947064354000,6.49935400390625,-1.2268379926681519,-9.42691707611084,-0.3562690019607544
1749987947074368000,6.509367919921875,-1.1933599710464478,-9.436453819274902,-0.44165098667144775
1749987947084381400,6.51938134765625,-1.157405972480774,-9.443991661071777,-0.5218480229377747
1749987947094395100,6.52939501953125,-1.1201030015945435,-9.449566841125488,-0.5958349704742432
1749987947104409000,6.5394091796875,-1.0840669870376587,-9.45617961883545,-0.666130006313324
1749987947114422800,6.5494228515625,-1.048097014427185,-9.463703155517578,-0.7319660186767578
1749987947124436500,6.5594365234375,-1.0125839710235596,-9.471467971801758,-0.7957779765129089
1749987947134450200,6.5694501953125,-0.977545976638794,-9.479371070861816,-0.8575350046157837
1749987947144464000,6.5794638671875,-0.942799985408783,-9.487380027770996,-0.9172000288963318
1749987947154477600,6.5894775390625,-0.9082580208778381,-9.4955415725708,-0.9745810031890869
1749987947164491300,6.5994912109375,-0.8740140199661255,-9.503931999206543,-1.0291370153427124
1749987947174505000,6.6095048828125,-0.8403019905090332,-9.512618064880371,-1.0799880027770996
1749987947184518700,6.6195185546875,-0.8074120283126831,-9.521607398986816,-1.1260839700698853
1749987947194532400,6.629532470703125,-0.7756419777870178,-9.530794143676758,-1.1665250062942505
1749987947204546000,6.639546142578125,-0.7443209886550903,-9.540264129638672,-1.198330044746399
1749987947214559700,6.649559814453125,-0.7149360179901123,-9.549416542053223,-1.2236380577087402
1749987947224573400,6.659573486328125,-0.6879289746284485,-9.55798625946045,-1.2424010038375854
1749987947234587100,6.669587158203125,-0.6636809706687927,-9.565686225891113,-1.254673957824707
1749987947244600800,6.679600830078125,-0.6428790092468262,-9.572046279907227,-1.2603590488433838
1749987947254614500,6.689614501953125,-0.6270139813423157,-9.576227188110352,-1.2583589553833008
1749987947264628200,6.699628173828125,-0.6175209879875183,-9.577726364135742,-1.2477209568023682
1749987947274642200,6.70964208984375,-0.6146289706230164,-9.576852798461914,-1.229354977607727
1749987947284655600,6.719655517578125,-0.6165220141410828,-9.574422836303711,-1.2065969705581665
1749987947294669600,6.729669677734375,-0.6212769746780396,-9.570975303649902,-1.1817220449447632
1749987947304683000,6.73968310546875,-0.6271259784698486,-9.566886901855469,-1.155951976776123
1749987947314697000,6.749697021484375,-0.6324219703674316,-9.562479019165039,-1.1299899816513062
1749987947324710400,6.75971044921875,-0.6376510262489319,-9.557735443115234,-1.1055070161819458
1749987947334724400,6.769724365234375,-0.6406180262565613,-9.553060531616211,-1.080772042274475
1749987947344737800,6.77973779296875,-0.63577800989151,-9.550217628479004,-1.0583070516586304
1749987947354751700,6.789751708984375,-0.6283339858055115,-9.547845840454102,-1.0363140106201172
1749987947364765200,6.79976513671875,-0.6156139969825745,-9.546515464782715,-1.0170509815216064
1749987947374779100,6.809779052734375,-0.6028370261192322,-9.544767379760742,-0.9963260293006897
1749987947384792600,6.81979248046875,-0.593982994556427,-9.542964935302734,-0.9760569930076599
1749987947394806500,6.829806640625,-0.5859649777412415,-9.540685653686523,-0.9525229930877686
1749987947404820200,6.8398203125,-0.5819010138511658,-9.53838062286377,-0.927960991859436
1749987947414834000,6.849833984375,-0.5815659761428833,-9.535392761230469,-0.8982160091400146
1749987947424848000,6.859847900390625,-0.5873410105705261,-9.531709671020508,-0.8634920120239258
1749987947434861300,6.869861328125,-0.5985350012779236,-9.52757740020752,-0.8258090019226074
1749987947444875300,6.879875244140625,-0.6111040115356445,-9.523240089416504,-0.7868779897689819
1749987947454888700,6.889888671875,-0.6223300099372864,-9.518865585327148,-0.7479289770126343
1749987947464902700,6.899902587890625,-0.6316059827804565,-9.514573097229004,-0.7099210023880005
1749987947474916000,6.909916015625,-0.6392170190811157,-9.510451316833496,-0.6732310056686401
1749987947484930000,6.919929931640625,-0.6455159783363342,-9.506567001342773,-0.6379380226135254
1749987947494943500,6.929943603515625,-0.6506800055503845,-9.502985954284668,-0.6039170026779175
1749987947504957400,6.93995751953125,-0.6546819806098938,-9.499794960021973,-0.5708820223808289
1749987947514971000,6.949970947265625,-0.6603959798812866,-9.496889114379883,-0.535664975643158
1749987947524984800,6.95998486328125,-0.6643610000610352,-9.494598388671875,-0.5011460185050964
1749987947534998300,6.969998291015625,-0.6662390232086182,-9.493003845214844,-0.46750301122665405
1749987947545012000,6.980011962890625,-0.665814995765686,-9.492143630981445,-0.4349749982357025
1749987947555025700,6.990025634765625,-0.6619970202445984,-9.492776870727539,-0.4085890054702759
1749987947565039400,7.000039306640625,-0.655655026435852,-9.49403190612793,-0.3836100101470947
1749987947575053000,7.010052978515625,-0.6493650078773499,-9.495710372924805,-0.35800400376319885
1749987947585066800,7.020066650390625,-0.6434869766235352,-9.497774124145508,-0.3319909870624542
1749987947595080400,7.03008056640625,-0.6386420130729675,-9.500143051147461,-0.30557700991630554
1749987947605094100,7.04009423828125,-0.6350560188293457,-9.50274658203125,-0.2788819968700409
1749987947615107800,7.05010791015625,-0.6325629949569702,-9.505485534667969,-0.2524249851703644
1749987947625121500,7.06012158203125,-0.6309930086135864,-9.508344650268555,-0.22625699639320374
1749987947635135200,7.07013525390625,-0.6288110017776489,-9.511357307434082,-0.2004539966583252
1749987947645149000,7.08014892578125,-0.6261150240898132,-9.514520645141602,-0.17430000007152557
1749987947655162600,7.09016259765625,-0.6229050159454346,-9.517854690551758,-0.1470319926738739
1749987947665176300,7.10017626953125,-0.6190569996833801,-9.521368026733398,-0.11819499731063843
1749987947675190000,7.11018994140625,-0.6117159724235535,-9.525075912475586,-0.08765500038862228
1749987947685203700,7.12020361328125,-0.6014159917831421,-9.528846740722656,-0.05725400149822235
1749987947695217400,7.130217529296875,-0.5903189778327942,-9.532510757446289,-0.0254139993339777
1749987947705231000,7.140231201171875,-0.578361988067627,-9.535948753356934,0.006756999995559454
1749987947715244800,7.150244873046875,-0.5658230185508728,-9.539118766784668,0.03823300078511238
1749987947725258500,7.160258544921875,-0.5531579852104187,-9.542036056518555,0.06850899755954742
1749987947735272200,7.170272216796875,-0.5409709811210632,-9.544994354248047,0.09841399639844894
1749987947745286000,7.180285888671875,-0.5308060050010681,-9.548210144042969,0.12823599576950073
1749987947755299600,7.190299560546875,-0.524124026298523,-9.55189323425293,0.1581369936466217
1749987947765313300,7.200313232421875,-0.5218989849090576,-9.556151390075684,0.1882459968328476
1749987947775327000,7.210326904296875,-0.5241420269012451,-9.560973167419434,0.21879400312900543
1749987947785340700,7.220340576171875,-0.5263029932975769,-9.565576553344727,0.2484460026025772
1749987947795354400,7.230354248046875,-0.5312520265579224,-9.570184707641602,0.27756500244140625
1749987947805368000,7.2403681640625,-0.5386040210723877,-9.574727058410645,0.3060239851474762
1749987947815381800,7.2503818359375,-0.5490469932556152,-9.579767227172852,0.335411012172699
1749987947825395500,7.2603955078125,-0.562263011932373,-9.585305213928223,0.3655099868774414
1749987947835409200,7.2704091796875,-0.5755940079689026,-9.59025764465332,0.3934740126132965
1749987947845422800,7.2804228515625,-0.5855839848518372,-9.594343185424805,0.41608500480651855
1749987947855436500,7.2904365234375,-0.5967770218849182,-9.5987548828125,0.43932199478149414
1749987947865450200,7.3004501953125,-0.608066976070404,-9.603357315063477,0.46324700117111206
1749987947875464000,7.3104638671875,-0.6181100010871887,-9.6079740524292,0.48777899146080017
1749987947885477600,7.3204775390625,-0.6267780065536499,-9.612540245056152,0.5124850273132324
1749987947895491300,7.3304912109375,-0.6320329904556274,-9.616727828979492,0.5351229906082153
1749987947905505000,7.340505126953125,-0.6305710077285767,-9.619698524475098,0.5544630289077759
1749987947915518700,7.350518798828125,-0.6234850287437439,-9.621573448181152,0.5707520246505737
1749987947925532400,7.360532470703125,-0.6103640198707581,-9.622932434082031,0.5865340232849121
1749987947935546000,7.370546142578125,-0.5913329720497131,-9.623688697814941,0.6009929776191711
1749987947945559800,7.380559814453125,-0.5671409964561462,-9.623761177062988,0.613510012626648
1749987947955573500,7.390573486328125,-0.5392959713935852,-9.623225212097168,0.6238170266151428
1749987947965587200,7.400587158203125,-0.5068039894104004,-9.621774673461914,0.6321989893913269
1749987947975600600,7.4106005859375,-0.4703730046749115,-9.619256973266602,0.6370840072631836
1749987947985614600,7.420614501953125,-0.43141698837280273,-9.615888595581055,0.6373440027236938
1749987947995628300,7.430628173828125,-0.39088699221611023,-9.612016677856445,0.6327199935913086
1749987948005642000,7.44064208984375,-0.3533700108528137,-9.608924865722656,0.6240100264549255
1749987948015655700,7.45065576171875,-0.3148469924926758,-9.606107711791992,0.6107209920883179
1749987948025669400,7.46066943359375,-0.275285005569458,-9.603854179382324,0.5929269790649414
1749987948035683000,7.47068310546875,-0.23439200222492218,-9.602373123168945,0.5706459879875183
1749987948045696800,7.48069677734375,-0.19175800681114197,-9.601774215698242,0.5439490079879761
1749987948055710500,7.49071044921875,-0.14711199700832367,-9.60209846496582,0.5130919814109802
1749987948065724000,7.500723876953125,-0.10052900016307831,-9.603272438049316,0.4785119891166687
1749987948075737600,7.510737548828125,-0.05239599943161011,-9.605108261108398,0.4407309889793396
1749987948085751300,7.520751220703125,-0.0024429999757558107,-9.607526779174805,0.40172499418258667
1749987948095765000,7.530764892578125,0.048826999962329865,-9.61018180847168,0.3602069914340973
1749987948105778700,7.54077880859375,0.10140399634838104,-9.612885475158691,0.3161979913711548
1749987948115792400,7.55079248046875,0.15460899472236633,-9.615571975708008,0.26970601081848145
1749987948125806000,7.56080615234375,0.20722700655460358,-9.61835765838623,0.2210710048675537
1749987948135819800,7.57081982421875,0.2582629919052124,-9.621408462524414,0.17091700434684753
1749987948145833500,7.58083349609375,0.29667899012565613,-9.624469757080078,0.12450200319290161
1749987948155847200,7.59084716796875,0.3277829885482788,-9.626615524291992,0.08006200194358826
1749987948165860900,7.60086083984375,0.35261601209640503,-9.628079414367676,0.0381769984960556
1749987948175874600,7.61087451171875,0.37508100271224976,-9.629939079284668,-0.004548000171780586
1749987948185888300,7.62088818359375,0.3992289900779724,-9.631701469421387,-0.04533199965953827
1749987948195902000,7.63090185546875,0.42256900668144226,-9.63381290435791,-0.08708599954843521
1749987948205915600,7.64091552734375,0.44821199774742126,-9.635870933532715,-0.12654399871826172
1749987948215929300,7.650929443359375,0.4739310145378113,-9.6384859085083,-0.16642600297927856
1749987948225943000,7.660943115234375,0.4994490146636963,-9.64177417755127,-0.2058670073747635
1749987948235956700,7.670956787109375,0.5241429805755615,-9.645767211914062,-0.2438330054283142
1749987948245970400,7.680970458984375,0.5475029945373535,-9.650362014770508,-0.27941200137138367
1749987948255983900,7.69098388671875,0.5693569779396057,-9.655349731445312,-0.3119350075721741
1749987948265997600,7.70099755859375,0.5898579955101013,-9.660505294799805,-0.3408769965171814
1749987948276011300,7.71101123046875,0.6091949939727783,-9.665613174438477,-0.3658069968223572
1749987948286025200,7.721025146484375,0.6272940039634705,-9.670465469360352,-0.38646799325942993
1749987948296039000,7.731038818359375,0.6438210010528564,-9.674869537353516,-0.4028699994087219
1749987948306052400,7.74105224609375,0.6583499908447266,-9.67867374420166,-0.415365993976593
1749987948316066000,7.751066162109375,0.6706129908561707,-9.681779861450195,-0.42448699474334717
1749987948326080000,7.761080078125,0.6806120276451111,-9.684157371520996,-0.43070200085639954
1749987948336093400,7.771093505859375,0.6886069774627686,-9.68584156036377,-0.4343790113925934
1749987948346107100,7.781107177734375,0.6951190233230591,-9.686918258666992,-0.43577998876571655
1749987948356120800,7.791120849609375,0.6999179720878601,-9.686735153198242,-0.4301089942455292
1749987948366134500,7.801134521484375,0.7047020196914673,-9.686206817626953,-0.42198801040649414
1749987948376148200,7.811148193359375,0.7103099822998047,-9.685385704040527,-0.41113200783729553
1749987948386162000,7.821161865234375,0.7174860239028931,-9.684320449829102,-0.3974680006504059
1749987948396175600,7.831175537109375,0.7232800126075745,-9.683256149291992,-0.38298800587654114
1749987948406189300,7.841189208984375,0.7299759984016418,-9.68210220336914,-0.36658498644828796
1749987948416203000,7.851203125,0.7363100051879883,-9.680906295776367,-0.3488920032978058
1749987948426216700,7.861216796875,0.7413420081138611,-9.679730415344238,-0.3306240141391754
1749987948436230100,7.871230224609375,0.7447789907455444,-9.6786470413208,-0.3126809895038605
1749987948446244000,7.881244140625,0.7466109991073608,-9.677717208862305,-0.29620999097824097
1749987948456257500,7.891257568359375,0.7469040155410767,-9.676983833312988,-0.2824000120162964
1749987948466271500,7.901271484375,0.745710015296936,-9.676469802856445,-0.272146999835968
1749987948476285000,7.911284912109375,0.7403280138969421,-9.67615795135498,-0.26603299379348755
1749987948486299000,7.921298828125,0.731328010559082,-9.676115036010742,-0.2626180052757263
1749987948496312600,7.9313125,0.7174959778785706,-9.676178932189941,-0.2628619968891144
1749987948506326300,7.941326171875,0.6981539726257324,-9.67625617980957,-0.26669299602508545
1749987948516340000,7.951340087890625,0.6770099997520447,-9.676470756530762,-0.273842990398407
1749987948526353700,7.961353759765625,0.6545860171318054,-9.676712036132812,-0.2836590111255646
1749987948536367400,7.971367431640625,0.6317960023880005,-9.676817893981934,-0.2959820032119751
1749987948546381000,7.981381103515625,0.6101570129394531,-9.676549911499023,-0.3107430040836334
1749987948556394500,7.99139453125,0.5911399722099304,-9.675728797912598,-0.3276669979095459
1749987948566408200,8.001408203125,0.5757219791412354,-9.674299240112305,-0.34643399715423584
1749987948576422000,8.011421875,0.5639479756355286,-9.672378540039062,-0.3667120039463043
1749987948586435600,8.021435546875,0.5517529845237732,-9.670374870300293,-0.3881239891052246
1749987948596449300,8.03144921875,0.5443339943885803,-9.669074058532715,-0.4055509865283966
1749987948606463000,8.041462890625,0.5400480031967163,-9.667594909667969,-0.4237250089645386
1749987948616476700,8.0514765625,0.5335379838943481,-9.665979385375977,-0.44279998540878296
1749987948626490400,8.061490478515625,0.5293300151824951,-9.664382934570312,-0.4615269899368286
1749987948636504000,8.071504150390625,0.5254279971122742,-9.662808418273926,-0.4798479974269867
1749987948646517800,8.081517822265624,0.5188210010528564,-9.661487579345703,-0.4939430058002472
1749987948656531500,8.091531494140625,0.5106030106544495,-9.660247802734375,-0.5070880055427551
1749987948666545200,8.101545166015624,0.5013819932937622,-9.659055709838867,-0.5195170044898987
1749987948676558600,8.11155859375,0.49271801114082336,-9.657971382141113,-0.5312560200691223
1749987948686572500,8.121572509765626,0.48441800475120544,-9.657106399536133,-0.5415449738502502
1749987948696586000,8.1315859375,0.47454801201820374,-9.65673542022705,-0.5480380058288574
1749987948706600000,8.141599853515626,0.4669080078601837,-9.656869888305664,-0.5511659979820251
1749987948716613400,8.15161328125,0.4576669931411743,-9.657418251037598,-0.5523229837417603
1749987948726627000,8.161626953125,0.4488599896430969,-9.65788459777832,-0.5560500025749207
1749987948736640800,8.171640869140624,0.4376479983329773,-9.658857345581055,-0.5585870146751404
1749987948746654200,8.181654296875,0.42410099506378174,-9.660348892211914,-0.5603020191192627
1749987948756668200,8.191668212890624,0.409168004989624,-9.66215705871582,-0.5618299841880798
1749987948766681600,8.201681640625,0.39151498675346375,-9.664444923400879,-0.5642579793930054
1749987948776695600,8.211695556640626,0.3718140125274658,-9.667238235473633,-0.5667359828948975
1749987948786709000,8.221708984375,0.35163500905036926,-9.67026138305664,-0.568809986114502
1749987948796723000,8.231722900390626,0.33191999793052673,-9.673247337341309,-0.5706189870834351
1749987948806736400,8.241736328125,0.3159730136394501,-9.67487907409668,-0.5752990245819092
1749987948816750300,8.251750244140625,0.3006719946861267,-9.676372528076172,-0.5794900059700012
1749987948826763800,8.261763671875,0.2860110104084015,-9.677801132202148,-0.5826730132102966
1749987948836777700,8.27177783203125,0.27167999744415283,-9.679289817810059,-0.5842840075492859
1749987948846791200,8.281791259765624,0.2571370005607605,-9.680978775024414,-0.5837579965591431
1749987948856804900,8.291804931640625,0.23741799592971802,-9.683255195617676,-0.5788800120353699
1749987948866818600,8.301818603515626,0.2117139995098114,-9.685669898986816,-0.5708770155906677
1749987948876832300,8.311832275390625,0.1843779981136322,-9.68829345703125,-0.559457004070282
1749987948886845700,8.321845703125,0.15439100563526154,-9.690947532653809,-0.5459740161895752
1749987948896859600,8.331859619140625,0.12157399952411652,-9.693755149841309,-0.5289360284805298
1749987948906873000,8.341873046875,0.08535899966955185,-9.696699142456055,-0.5084890127182007
1749987948916886800,8.35188671875,0.04588399827480316,-9.699666023254395,-0.48485898971557617
1749987948926900500,8.361900390625,0.0038950000889599323,-9.702375411987305,-0.4584810137748718
1749987948936914200,8.3719140625,-0.03996700048446655,-9.704507827758789,-0.4299069941043854
1749987948946927900,8.381927978515625,-0.0800739973783493,-9.704529762268066,-0.40191200375556946
1749987948956941600,8.391941650390624,-0.12124600261449814,-9.703618049621582,-0.37240999937057495
1749987948966955000,8.401955078125,-0.1631460040807724,-9.701777458190918,-0.34147998690605164
1749987948976968700,8.41196875,-0.20543299615383148,-9.699132919311523,-0.3090899884700775
1749987948986982400,8.421982421875,-0.24332499504089355,-9.697220802307129,-0.27772799134254456
1749987948996996000,8.43199609375,-0.2805800139904022,-9.69491195678711,-0.2447510063648224
1749987949007009800,8.442009765625,-0.31635698676109314,-9.692347526550293,-0.21044999361038208
1749987949017023200,8.452023193359375,-0.34947898983955383,-9.689693450927734,-0.1757030040025711
1749987949027037200,8.462037109375,-0.3785240054130554,-9.687071800231934,-0.1417810022830963
1749987949037050600,8.472050537109375,-0.40208700299263,-9.68455696105957,-0.10995200276374817
1749987949047064300,8.482064208984376,-0.41925299167633057,-9.68226432800293,-0.08143399655818939
1749987949057078000,8.492078125,-0.42972201108932495,-9.680952072143555,-0.06132199987769127
1749987949067091700,8.502091796875,-0.43612200021743774,-9.680221557617188,-0.049240998923778534
1749987949077105400,8.51210546875,-0.4380140006542206,-9.679925918579102,-0.04398399963974953
1749987949087119000,8.522119140625,-0.43669500946998596,-9.680061340332031,-0.046222999691963196
1749987949097132800,8.5321328125,-0.43353599309921265,-9.680588722229004,-0.05607999861240387
1749987949107146200,8.542146240234375,-0.4295569956302643,-9.68140983581543,-0.073123998939991
1749987949117160200,8.55216015625,-0.4252769947052002,-9.682356834411621,-0.09654100239276886
1749987949127173600,8.562173583984375,-0.42083999514579773,-9.683246612548828,-0.1253660023212433
1749987949137187300,8.572187255859374,-0.41625699400901794,-9.68392562866211,-0.15865400433540344
1749987949147201300,8.582201171875,-0.41161400079727173,-9.684286117553711,-0.19543400406837463
1749987949157214700,8.592214599609376,-0.4072830080986023,-9.684281349182129,-0.23479700088500977
1749987949167228400,8.602228515625,-0.4038189947605133,-9.683955192565918,-0.2760840058326721
1749987949177242000,8.6122421875,-0.40158799290657043,-9.683414459228516,-0.31888601183891296
1749987949187255800,8.622255859375,-0.3986159861087799,-9.683341979980469,-0.36015599966049194
1749987949197269500,8.63226953125,-0.39259201288223267,-9.683575630187988,-0.3976520001888275
1749987949207283200,8.642283203125,-0.38561001420021057,-9.683797836303711,-0.4354810118675232
1749987949217297000,8.652296875,-0.38212499022483826,-9.683859825134277,-0.4743250012397766
1749987949227310600,8.662310546875,-0.3769089877605438,-9.683839797973633,-0.5122950077056885
1749987949237324300,8.67232421875,-0.3710300028324127,-9.683602333068848,-0.5493199825286865
1749987949247337700,8.682337646484376,-0.36539000272750854,-9.683086395263672,-0.5850009918212891
1749987949257351400,8.692351318359375,-0.36077600717544556,-9.682283401489258,-0.6185830235481262
1749987949267365000,8.702365234375,-0.35729900002479553,-9.681193351745605,-0.6493930220603943
1749987949277378800,8.71237890625,-0.35396701097488403,-9.679792404174805,-0.6772779822349548
1749987949287392500,8.722392578125,-0.34907999634742737,-9.678010940551758,-0.7026529908180237
1749987949297406200,8.73240625,-0.34024399518966675,-9.6760835647583,-0.7262549996376038
1749987949307420000,8.742419921875,-0.3278239965438843,-9.674409866333008,-0.7460730075836182
1749987949317433600,8.75243359375,-0.3155139982700348,-9.673043251037598,-0.7606409788131714
1749987949327447300,8.762447265625,-0.30370399355888367,-9.672114372253418,-0.7699990272521973
1749987949337461000,8.7724609375,-0.29085299372673035,-9.670909881591797,-0.7787539958953857
1749987949347474400,8.782474365234375,-0.27912798523902893,-9.670088768005371,-0.7841969728469849
1749987949357488400,8.79248828125,-0.2686449885368347,-9.66954231262207,-0.7874280214309692
1749987949367501800,8.802501708984375,-0.25941500067710876,-9.669143676757812,-0.7894449830055237
1749987949377515500,8.812515625,-0.25137001276016235,-9.668758392333984,-0.7910900115966797
1749987949387529200,8.822529296875,-0.2442609965801239,-9.668306350708008,-0.7928079962730408
1749987949397542700,8.832542724609375,-0.2400050014257431,-9.66683292388916,-0.7997459769248962
1749987949407556400,8.842556396484374,-0.23767299950122833,-9.665397644042969,-0.8066040277481079
1749987949417570000,8.852570068359375,-0.23285700380802155,-9.664175033569336,-0.8123540282249451
1749987949427583700,8.862583740234374,-0.23047900199890137,-9.663192749023438,-0.8172730207443237
1749987949437597400,8.872597412109375,-0.22886300086975098,-9.662576675415039,-0.820559024810791
1749987949447611100,8.882611083984376,-0.22734500467777252,-9.662324905395508,-0.8220419883728027
1749987949457624800,8.892624755859375,-0.22802899777889252,-9.662437438964844,-0.8211960196495056
1749987949467638500,8.902638427734376,-0.22943800687789917,-9.662758827209473,-0.8185290098190308
1749987949477652000,8.91265185546875,-0.2335900068283081,-9.663125991821289,-0.8142520189285278
1749987949487666000,8.922666015625,-0.24078400433063507,-9.663331985473633,-0.8092899918556213
1749987949497679400,8.932679443359374,-0.2513220012187958,-9.663209915161133,-0.804485023021698
1749987949507693000,8.942693115234375,-0.2692919969558716,-9.662641525268555,-0.8006920218467712
1749987949517706800,8.952706787109374,-0.29109400510787964,-9.66163444519043,-0.7975199818611145
1749987949527720400,8.962720458984375,-0.319023996591568,-9.660684585571289,-0.7904189825057983
1749987949537734100,8.972734130859376,-0.35041099786758423,-9.659314155578613,-0.7821639776229858
1749987949547747600,8.98274755859375,-0.3850710093975067,-9.657560348510742,-0.7716420292854309
1749987949557761300,8.99276123046875,-0.4228160083293915,-9.655444145202637,-0.7580549716949463
1749987949567775000,9.00277490234375,-0.46338900923728943,-9.652956008911133,-0.7410579919815063
1749987949577788700,9.01278857421875,-0.5065039992332458,-9.650083541870117,-0.7207769751548767
1749987949587802000,9.022802001953124,-0.5518460273742676,-9.646860122680664,-0.697629988193512
1749987949597816000,9.032816162109375,-0.5988050103187561,-9.643331527709961,-0.6722819805145264
1749987949607829500,9.04282958984375,-0.6419609785079956,-9.640984535217285,-0.6486629843711853
1749987949617843500,9.052843505859375,-0.6849259734153748,-9.638402938842773,-0.6250309944152832
1749987949627857000,9.06285693359375,-0.7270879745483398,-9.635576248168945,-0.6026610136032104
1749987949637870600,9.07287060546875,-0.7677350044250488,-9.632580757141113,-0.5826860070228577
1749987949647884300,9.08288427734375,-0.8059989809989929,-9.62956714630127,-0.5657830238342285
1749987949657898000,9.09289794921875,-0.8364670276641846,-9.626455307006836,-0.5541710257530212
1749987949667911700,9.10291162109375,-0.8575950264930725,-9.623964309692383,-0.5469729900360107
1749987949677925000,9.112925048828124,-0.8727179765701294,-9.622196197509766,-0.5451369881629944
1749987949687938800,9.122938720703125,-0.8804150223731995,-9.621174812316895,-0.5493549704551697
1749987949697952500,9.132952392578124,-0.8800920248031616,-9.620689392089844,-0.5597730278968811
1749987949707966200,9.14296630859375,-0.8730999827384949,-9.620402336120605,-0.5762330293655396
1749987949717980000,9.15297998046875,-0.8616809844970703,-9.620092391967773,-0.5986629724502563
1749987949727993300,9.162993408203125,-0.8474379777908325,-9.619710922241211,-0.6268519759178162
1749987949738007000,9.173007080078126,-0.8310660123825073,-9.619321823120117,-0.6603090167045593
1749987949748020700,9.183020751953125,-0.8125540018081665,-9.619083404541016,-0.6982889771461487
1749987949758034400,9.193034423828125,-0.7916960120201111,-9.61919116973877,-0.7399129867553711
1749987949768048000,9.203048095703124,-0.768330991268158,-9.619794845581055,-0.7843090295791626
1749987949778061800,9.213061767578125,-0.7421950101852417,-9.620939254760742,-0.8308650255203247
1749987949788075300,9.2230751953125,-0.7172110080718994,-9.621225357055664,-0.876505970954895
1749987949798089200,9.233089111328125,-0.6895290017127991,-9.621938705444336,-0.923009991645813
1749987949808102700,9.2431025390625,-0.6611340045928955,-9.623046875,-0.9696879982948303
1749987949818116400,9.253116455078125,-0.6344460248947144,-9.624363899230957,-1.0160759687423706
1749987949828130000,9.263130126953126,-0.6108070015907288,-9.625631332397461,-1.0617820024490356
1749987949838143500,9.2731435546875,-0.5909349918365479,-9.626620292663574,-1.1066830158233643
1749987949848157200,9.2831572265625,-0.5758699774742126,-9.627102851867676,-1.1509360074996948
1749987949858171000,9.2931708984375,-0.5661190152168274,-9.62629508972168,-1.1904850006103516
1749987949868184600,9.3031845703125,-0.5593460202217102,-9.62465763092041,-1.2262660264968872
1749987949878198000,9.313197998046874,-0.5560380220413208,-9.622430801391602,-1.2597659826278687
1749987949888212000,9.3232119140625,-0.5543180108070374,-9.619749069213867,-1.290349006652832
1749987949898225700,9.3332255859375,-0.5521029829978943,-9.61673355102539,-1.3178620338439941
1749987949908239400,9.3432392578125,-0.5475800037384033,-9.613463401794434,-1.3425229787826538
1749987949918253000,9.353253173828126,-0.5397689938545227,-9.610101699829102,-1.364338994026184
1749987949928266800,9.363266845703125,-0.5290700197219849,-9.606889724731445,-1.3830490112304688
1749987949938280200,9.3732802734375,-0.5164049863815308,-9.60407829284668,-1.3983190059661865
1749987949948294000,9.3832939453125,-0.5026969909667969,-9.601774215698242,-1.410181999206543
1749987949958307600,9.3933076171875,-0.4888150095939636,-9.5999116897583,-1.41920804977417
1749987949968321300,9.4033212890625,-0.4755859971046448,-9.598337173461914,-1.4262919425964355
1749987949978334700,9.413334716796875,-0.46375200152397156,-9.59689712524414,-1.4322830438613892
1749987949988348700,9.4233486328125,-0.45559701323509216,-9.594942092895508,-1.4405759572982788
1749987949998362000,9.433362060546875,-0.4497919976711273,-9.592534065246582,-1.4516830444335938
1749987950008375800,9.443375732421876,-0.446382999420166,-9.590253829956055,-1.4625259637832642
1749987950018389500,9.453389404296875,-0.4402030110359192,-9.588361740112305,-1.4712879657745361
1749987950028403200,9.4634033203125,-0.43620601296424866,-9.586883544921875,-1.4784929752349854
1749987950038416600,9.473416748046875,-0.4334290027618408,-9.586006164550781,-1.4829920530319214
1749987950048430600,9.4834306640625,-0.4311389923095703,-9.585777282714844,-1.4841289520263672
1749987950058444000,9.493444091796874,-0.428725004196167,-9.586116790771484,-1.4818719625473022
1749987950068458000,9.5034580078125,-0.42630401253700256,-9.586901664733887,-1.4764490127563477
1749987950078471400,9.513471435546874,-0.42535600066185,-9.588050842285156,-1.4678490161895752
1749987950088485000,9.523485107421875,-0.42831501364707947,-9.589578628540039,-1.4557230472564697
1749987950098498800,9.533498779296876,-0.4355179965496063,-9.591353416442871,-1.4408040046691895
1749987950108512300,9.54351220703125,-0.4462040066719055,-9.593017578125,-1.4248019456863403
1749987950118526000,9.55352587890625,-0.46015501022338867,-9.594315528869629,-1.408903956413269
1749987950128539600,9.56353955078125,-0.4770149886608124,-9.595152854919434,-1.3934619426727295
1749987950138553300,9.57355322265625,-0.49813899397850037,-9.596283912658691,-1.3741519451141357
1749987950148567000,9.583567138671874,-0.5209140181541443,-9.59712028503418,-1.3538730144500732
1749987950158580700,9.593580810546875,-0.5448150038719177,-9.597835540771484,-1.3317519426345825
1749987950168594200,9.60359423828125,-0.5696489810943604,-9.598562240600586,-1.3072220087051392
1749987950178607900,9.61360791015625,-0.5954629778862,-9.59937858581543,-1.2800999879837036
1749987950188621600,9.62362158203125,-0.6223800182342529,-9.600292205810547,-1.2506530284881592
1749987950198635000,9.633635009765625,-0.650305986404419,-9.601279258728027,-1.2195320129394531
1749987950208649000,9.64364892578125,-0.6780629754066467,-9.602310180664062,-1.187796950340271
1749987950218662400,9.653662353515625,-0.7040910124778748,-9.603357315063477,-1.1569559574127197
1749987950228676400,9.66367626953125,-0.7274489998817444,-9.604410171508789,-1.1288069486618042
1749987950238689800,9.673689697265624,-0.7473419904708862,-9.605443000793457,-1.104923963546753
1749987950248703500,9.683703369140625,-0.7627270221710205,-9.606393814086914,-1.0864640474319458
1749987950258717200,9.69371728515625,-0.7703369855880737,-9.607129096984863,-1.0747109651565552
1749987950268730600,9.703730712890625,-0.7724469900131226,-9.607600212097168,-1.069262981414795
1749987950278744300,9.713744384765626,-0.7700099945068359,-9.607657432556152,-1.0698720216751099
1749987950288758000,9.723758056640625,-0.7639979720115662,-9.607271194458008,-1.0758769512176514
1749987950298771700,9.733771728515626,-0.7545819878578186,-9.606532096862793,-1.0864169597625732
1749987950308785200,9.74378515625,-0.7412829995155334,-9.605581283569336,-1.100635051727295
1749987950318798800,9.753798828125,-0.7234280109405518,-9.604567527770996,-1.1177760362625122
1749987950328812500,9.7638125,-0.7006099820137024,-9.603652954101562,-1.1371829509735107
1749987950338826200,9.773826171875,-0.6726920008659363,-9.602972030639648,-1.158460021018982
1749987950348840000,9.78383984375,-0.6398730278015137,-9.602659225463867,-1.1813730001449585
1749987950358853600,9.793853515625,-0.6027640104293823,-9.60290813446045,-1.2055590152740479
1749987950368867000,9.8038671875,-0.5621060132980347,-9.603973388671875,-1.230370044708252
1749987950378881000,9.813881103515625,-0.5190359950065613,-9.606046676635742,-1.2551250457763672
1749987950388894500,9.82389453125,-0.4753339886665344,-9.609115600585938,-1.2798540592193604
1749987950398908200,9.833908203125,-0.43258699774742126,-9.612958908081055,-1.3049739599227905
1749987950408921900,9.843921875,-0.3958519995212555,-9.615837097167969,-1.3275680541992188
1749987950418935600,9.853935546875,-0.3601599931716919,-9.618943214416504,-1.3501110076904297
1749987950428949200,9.86394921875,-0.32513201236724854,-9.622098922729492,-1.3721990585327148
1749987950438962700,9.873962646484374,-0.2909739911556244,-9.625120162963867,-1.393394947052002
1749987950448976400,9.883976318359375,-0.2578609883785248,-9.627760887145996,-1.4137580394744873
1749987950458990000,9.893989990234376,-0.22484199702739716,-9.629618644714355,-1.4341180324554443
1749987950469003800,9.904003662109375,-0.19282299280166626,-9.630338668823242,-1.454606056213379
1749987950479017500,9.914017578125,-0.16540400683879852,-9.629899978637695,-1.4742599725723267
1749987950489031000,9.924031005859375,-0.1431410014629364,-9.629222869873047,-1.4880709648132324
1749987950499044600,9.934044677734375,-0.1251170039176941,-9.628213882446289,-1.4975310564041138
1749987950509058300,9.944058349609374,-0.1116119995713234,-9.62705135345459,-1.5047320127487183
1749987950519072000,9.954072021484375,-0.10227599740028381,-9.6262788772583,-1.5089119672775269
1749987950529085700,9.964085693359374,-0.09524700045585632,-9.625969886779785,-1.5103440284729004
1749987950539099100,9.97409912109375,-0.08917500078678131,-9.626082420349121,-1.5096009969711304
1749987950549113000,9.984113037109376,-0.08342800289392471,-9.626526832580566,-1.5073280334472656
1749987950559126500,9.99412646484375,-0.07773099839687347,-9.627172470092773,-1.5041890144348145
1749987950569140500,10.004140380859376,-0.07214999943971634,-9.627870559692383,-1.5008139610290527
1749987950579154000,10.01415380859375,-0.06729499995708466,-9.628520965576172,-1.4975719451904297
1749987950589167600,10.024167724609375,-0.06431999802589417,-9.629081726074219,-1.4947190284729004
1749987950599181000,10.03418115234375,-0.06380199640989304,-9.629490852355957,-1.492771029472351
1749987950609194800,10.04419482421875,-0.06926900148391724,-9.630535125732422,-1.488057017326355
1749987950619208400,10.05420849609375,-0.07926800101995468,-9.631898880004883,-1.480180025100708
1749987950629222000,10.064221923828125,-0.09337300062179565,-9.633270263671875,-1.468845009803772
1749987950639235800,10.07423583984375,-0.11161000281572342,-9.63438892364502,-1.4534109830856323
1749987950649249300,10.084249267578125,-0.13343800604343414,-9.635013580322266,-1.4326070547103882
1749987950659263000,10.094262939453126,-0.15537500381469727,-9.635517120361328,-1.4087519645690918
1749987950669276700,10.104276611328125,-0.17765900492668152,-9.63587760925293,-1.3811509609222412
1749987950679290400,10.114290283203125,-0.20080499351024628,-9.636001586914062,-1.3495700359344482
1749987950689303800,10.1243037109375,-0.22578099370002747,-9.635750770568848,-1.3141939640045166
1749987950699317500,10.1343173828125,-0.25337299704551697,-9.635055541992188,-1.2752269506454468
1749987950709331200,10.144331298828124,-0.28423699736595154,-9.633949279785156,-1.2327519655227661
1749987950719344600,10.1543447265625,-0.3188380002975464,-9.63243293762207,-1.1872750520706177
1749987950729358600,10.164358642578126,-0.35695499181747437,-9.630382537841797,-1.139765977859497
1749987950739372000,10.1743720703125,-0.3981199860572815,-9.627616882324219,-1.0911920070648193
1749987950749385700,10.1843857421875,-0.44172099232673645,-9.624101638793945,-1.0420639514923096
1749987950759399400,10.1943994140625,-0.4869300127029419,-9.619974136352539,-0.9923310279846191
1749987950769413000,10.2044130859375,-0.5328930020332336,-9.615407943725586,-0.9415460228919983
1749987950779426600,10.214426513671874,-0.5790150165557861,-9.610475540161133,-0.8891310095787048
1749987950789440500,10.2244404296875,-0.6250450015068054,-9.605183601379395,-0.8346459865570068
1749987950799454000,10.234453857421874,-0.6708340048789978,-9.599470138549805,-0.7780659794807434
1749987950809467600,10.244467529296875,-0.7124850153923035,-9.595524787902832,-0.7245569825172424
1749987950819481300,10.2544814453125,-0.7528749704360962,-9.591218948364258,-0.6706119775772095
1749987950829494800,10.264494873046875,-0.7912740111351013,-9.586735725402832,-0.6180369853973389
1749987950839508500,10.274508544921876,-0.8272449970245361,-9.582319259643555,-0.5689359903335571
1749987950849522200,10.284522216796875,-0.860621988773346,-9.578177452087402,-0.5251709818840027
1749987950859536000,10.294535888671875,-0.8912799954414368,-9.574498176574707,-0.4880630075931549
1749987950869549300,10.30454931640625,-0.9188439846038818,-9.571488380432129,-0.4584670066833496
1749987950879563000,10.31456298828125,-0.9422500133514404,-9.569302558898926,-0.4367769956588745
1749987950889576700,10.32457666015625,-0.9607449769973755,-9.567804336547852,-0.4224250018596649
1749987950899590400,10.33459033203125,-0.9751039743423462,-9.566629409790039,-0.41463199257850647
1749987950909603800,10.344603759765626,-0.9864609837532043,-9.5654935836792,-0.412539005279541
1749987950919617500,10.354617431640625,-0.9952750205993652,-9.564310073852539,-0.41513898968696594
1749987950929631000,10.364630859375,-1.0012710094451904,-9.563175201416016,-0.42143499851226807
1749987950939644700,10.374644775390625,-1.0039080381393433,-9.562248229980469,-0.4307999908924103
1749987950949658400,10.384658447265625,-1.0029189586639404,-9.561617851257324,-0.4430350065231323
1749987950959672000,10.394672119140624,-0.9985449910163879,-9.561304092407227,-0.4577150046825409
1749987950969685800,10.404685791015625,-0.9913070201873779,-9.56135368347168,-0.4738200008869171
1749987950979699500,10.414699462890624,-0.9814680218696594,-9.561857223510742,-0.4901989996433258
1749987950989713000,10.424712890625,-0.9692379832267761,-9.562850952148438,-0.5059980154037476
1749987950999726600,10.4347265625,-0.9556769728660583,-9.564188957214355,-0.520995020866394
1749987951009740300,10.444740234375,-0.9428359866142273,-9.565574645996094,-0.5352640151977539
1749987951019754000,10.45475390625,-0.9326000213623047,-9.566686630249023,-0.5485889911651611
1749987951029767400,10.464767333984375,-0.926006019115448,-9.567296981811523,-0.5601840019226074
1749987951039781000,10.474781005859375,-0.9238680005073547,-9.56726360321045,-0.5694620013237
1749987951049794800,10.484794921875,-0.9263129830360413,-9.566617012023926,-0.5761010050773621
1749987951059808300,10.494808349609375,-0.9322649836540222,-9.565622329711914,-0.5805169939994812
1749987951069822200,10.504822265625,-0.9386569857597351,-9.564788818359375,-0.5833629965782166
1749987951079835600,10.514835693359375,-0.9446589946746826,-9.564427375793457,-0.5830349922180176
1749987951089849300,10.524849365234376,-0.9515669941902161,-9.564613342285156,-0.5782570242881775
1749987951099862800,10.53486279296875,-0.959568977355957,-9.565378189086914,-0.5689780116081238
1749987951109876500,10.54487646484375,-0.9692580103874207,-9.566641807556152,-0.5558140277862549
1749987951119890200,10.55489013671875,-0.979777991771698,-9.568056106567383,-0.5439590215682983
1749987951129903900,10.56490380859375,-0.9936969876289368,-9.569592475891113,-0.5313320159912109
1749987951139917600,10.57491748046875,-1.0108269453048706,-9.571066856384277,-0.5195490121841431
1749987951149931300,10.58493115234375,-1.030748963356018,-9.57231330871582,-0.5097770094871521
1749987951159944700,10.59494482421875,-1.0527269840240479,-9.573136329650879,-0.5028420090675354
1749987951169958400,10.60495849609375,-1.075909972190857,-9.573328971862793,-0.4994699954986572
1749987951179972000,10.61497216796875,-1.0991250276565552,-9.572742462158203,-0.500137984752655
1749987951189985500,10.624985595703125,-1.120635986328125,-9.571405410766602,-0.5043929815292358
1749987951199999500,10.63499951171875,-1.1390459537506104,-9.5695161819458,-0.5111250281333923
1749987951210013000,10.645012939453125,-1.1541130542755127,-9.567283630371094,-0.519478976726532
1749987951220026600,10.655026611328125,-1.1666189432144165,-9.56482982635498,-0.5291460156440735
1749987951230040300,10.665040283203124,-1.1772650480270386,-9.562288284301758,-0.5395749807357788
1749987951240054000,10.675053955078125,-1.1866029500961304,-9.559833526611328,-0.5499190092086792
1749987951250067500,10.6850673828125,-1.1955349445343018,-9.557733535766602,-0.5589029788970947
1749987951260081200,10.6950810546875,-1.2064239978790283,-9.55639362335205,-0.5644599795341492
1749987951270094800,10.7050947265625,-1.2237980365753174,-9.556756973266602,-0.5592749714851379
1749987951280108500,10.715108642578125,-1.2421590089797974,-9.557788848876953,-0.5489519834518433
1749987951290122200,10.725122314453126,-1.2627739906311035,-9.558465957641602,-0.5379109978675842
1749987951300136000,10.735135986328125,-1.2874280214309692,-9.558992385864258,-0.524865984916687
1749987951310149400,10.7451494140625,-1.3149659633636475,-9.559405326843262,-0.508305013179779
1749987951320163000,10.7551630859375,-1.3440669775009155,-9.559239387512207,-0.4895020127296448
1749987951330176800,10.7651767578125,-1.375478982925415,-9.558319091796875,-0.4688340127468109
1749987951340190200,10.775190185546874,-1.4100819826126099,-9.556490898132324,-0.44650998711586
1749987951350204000,10.785203857421875,-1.448462963104248,-9.553600311279297,-0.4226810038089752
1749987951360217600,10.795217529296876,-1.4909039735794067,-9.549539566040039,-0.39739200472831726
1749987951370231300,10.805231201171875,-1.537358045578003,-9.544282913208008,-0.37059301137924194
1749987951380244700,10.81524462890625,-1.587486982345581,-9.537878036499023,-0.34225600957870483
1749987951390258700,10.8252587890625,-1.6407320499420166,-9.530390739440918,-0.3124310076236725
1749987951400272100,10.835272216796875,-1.6905499696731567,-9.524395942687988,-0.2828649878501892
1749987951410285600,10.84528564453125,-1.7375030517578125,-9.51673698425293,-0.2561289966106415
1749987951420299300,10.85529931640625,-1.7810709476470947,-9.507842063903809,-0.232574000954628
1749987951430313000,10.86531298828125,-1.820449948310852,-9.4983491897583,-0.21224600076675415
1749987951440326700,10.87532666015625,-1.8544659614562988,-9.48908519744873,-0.19541500508785248
1749987951450340000,10.885340087890626,-1.8815879821777344,-9.481069564819336,-0.1828480064868927
1749987951460353800,10.895353759765625,-1.9034579992294312,-9.47471809387207,-0.17222300171852112
1749987951470367500,10.905367431640625,-1.91805899143219,-9.470669746398926,-0.1647530049085617
1749987951480381000,10.915380859375,-1.923190951347351,-9.469289779663086,-0.1610639989376068
1749987951490394600,10.92539453125,-1.9188079833984375,-9.4701509475708,-0.161204993724823
1749987951500408300,10.935408203125,-1.908521056175232,-9.472428321838379,-0.16560900211334229
1749987951510422000,10.945422119140625,-1.8957380056381226,-9.47563362121582,-0.17468400299549103
1749987951520435500,10.955435546875,-1.8823120594024658,-9.479475021362305,-0.18853899836540222
1749987951530449200,10.96544921875,-1.868811011314392,-9.483757972717285,-0.20699000358581543
1749987951540462800,10.975462890625,-1.8550349473953247,-9.488401412963867,-0.22972699999809265
1749987951550476500,10.9854765625,-1.8409889936447144,-9.493334770202637,-0.2559399902820587
1749987951560490000,10.995489990234375,-1.8268489837646484,-9.498505592346191,-0.28484800457954407
1749987951570503700,11.005503662109374,-1.8123329877853394,-9.503999710083008,-0.3159619867801666
1749987951580517400,11.015517333984375,-1.7967510223388672,-9.510050773620605,-0.34880998730659485
1749987951590530800,11.02553076171875,-1.7795000076293945,-9.516878128051758,-0.38284799456596375
1749987951600544500,11.03554443359375,-1.7606099843978882,-9.524526596069336,-0.4176119863986969
1749987951610558200,11.04555810546875,-1.7444020509719849,-9.530582427978516,-0.4480760097503662
1749987951620571600,11.055571533203125,-1.728417992591858,-9.536873817443848,-0.4783090054988861
1749987951630585600,11.065585693359376,-1.7163159847259521,-9.54249095916748,-0.508072018623352
1749987951640599300,11.075599365234375,-1.7028909921646118,-9.54791259765625,-0.5372689962387085
1749987951650612700,11.08561279296875,-1.6902209520339966,-9.552606582641602,-0.562686026096344
1749987951660626400,11.09562646484375,-1.6785730123519897,-9.55638599395752,-0.5837500095367432
1749987951670640000,11.10564013671875,-1.6686450242996216,-9.559107780456543,-0.6001899838447571
1749987951680653600,11.115653564453124,-1.6610219478607178,-9.56076431274414,-0.6121050119400024
1749987951690667500,11.12566748046875,-1.6557079553604126,-9.561615943908691,-0.6203410029411316
1749987951700681000,11.135680908203126,-1.6517380475997925,-9.562071800231934,-0.6256359815597534
1749987951710694700,11.145694580078125,-1.648190975189209,-9.562433242797852,-0.6286529898643494
1749987951720708000,11.1557080078125,-1.6412639617919922,-9.563122749328613,-0.6313830018043518
1749987951730721800,11.1657216796875,-1.6298500299453735,-9.564146041870117,-0.6336870193481445
1749987951740735500,11.175735595703125,-1.6161710023880005,-9.565261840820312,-0.635004997253418
1749987951750749000,11.1857490234375,-1.6031229496002197,-9.566225051879883,-0.635765016078949
1749987951760763000,11.195762939453125,-1.5908269882202148,-9.566993713378906,-0.636277973651886
1749987951770776300,11.2057763671875,-1.5789190530776978,-9.567564964294434,-0.6369900107383728
1749987951780790000,11.2157900390625,-1.5680060386657715,-9.567915916442871,-0.6382899880409241
1749987951790803700,11.2258037109375,-1.558948040008545,-9.568007469177246,-0.6408129930496216
1749987951800817200,11.235817138671875,-1.551453948020935,-9.567895889282227,-0.6448310017585754
1749987951810830800,11.245830810546876,-1.5441360473632812,-9.567712783813477,-0.6500890254974365
1749987951820844500,11.255844482421875,-1.5324050188064575,-9.567217826843262,-0.6591160297393799
1749987951830858000,11.26585791015625,-1.515956997871399,-9.566389083862305,-0.6713830232620239
1749987951840871700,11.27587158203125,-1.4949729442596436,-9.565169334411621,-0.6865710020065308
1749987951850885400,11.285885498046875,-1.470654010772705,-9.563455581665039,-0.7042999863624573
1749987951860898800,11.29589892578125,-1.4454050064086914,-9.561078071594238,-0.7235509753227234
1749987951870912500,11.30591259765625,-1.4228739738464355,-9.558289527893066,-0.7413340210914612
1749987951880926200,11.31592626953125,-1.4029209613800049,-9.5549898147583,-0.7595199942588806
1749987951890940000,11.32593994140625,-1.3828099966049194,-9.55113410949707,-0.7800289988517761
1749987951900953300,11.335953369140626,-1.3614610433578491,-9.546838760375977,-0.8028510212898254
1749987951910967000,11.345967041015625,-1.3384439945220947,-9.542219161987305,-0.8275629878044128
1749987951920980700,11.355980712890625,-1.315345048904419,-9.537576675415039,-0.8495140075683594
1749987951930994200,11.365994140625,-1.2901240587234497,-9.532805442810059,-0.8716229796409607
1749987951941008000,11.3760078125,-1.2631889581680298,-9.527935028076172,-0.8930910229682922
1749987951951021300,11.386021240234374,-1.2348480224609375,-9.523031234741211,-0.9132949709892273
1749987951961035000,11.396034912109375,-1.2051689624786377,-9.518230438232422,-0.9316930174827576
1749987951971048700,11.406048583984376,-1.1743240356445312,-9.513671875,-0.9479209780693054
1749987951981062100,11.416062255859375,-1.1430039405822754,-9.508763313293457,-0.9639480113983154
1749987951991075800,11.426075927734376,-1.1114050149917603,-9.503450393676758,-0.9798480272293091
1749987952001089500,11.436089599609375,-1.0796489715576172,-9.497659683227539,-0.9957810044288635
1749987952011103000,11.44610302734375,-1.0477880239486694,-9.491317749023438,-1.011950969696045
1749987952021116700,11.45611669921875,-1.015887975692749,-9.484343528747559,-1.0285450220108032
1749987952031130400,11.46613037109375,-0.9839379787445068,-9.476617813110352,-1.0458999872207642
1749987952041144000,11.47614404296875,-0.9534549713134766,-9.469756126403809,-1.0613529682159424
1749987952051157500,11.486157470703125,-0.9245529770851135,-9.463645935058594,-1.0757249593734741
1749987952061171500,11.49617138671875,-0.8973619937896729,-9.458198547363281,-1.0899319648742676
1749987952071185000,11.506184814453125,-0.8648059964179993,-9.45091438293457,-1.114035964012146
1749987952081198600,11.516198486328125,-0.8304870128631592,-9.442898750305176,-1.1423640251159668
1749987952091212300,11.52621240234375,-0.7946640253067017,-9.434615135192871,-1.1745920181274414
1749987952101225700,11.536225830078125,-0.757731020450592,-9.426538467407227,-1.2100720405578613
1749987952111239200,11.5462392578125,-0.7196869850158691,-9.419050216674805,-1.2480759620666504
1749987952121252900,11.5562529296875,-0.6803510189056396,-9.412466049194336,-1.287909984588623
1749987952131266600,11.5662666015625,-0.6396290063858032,-9.407057762145996,-1.3289669752120972
1749987952141280300,11.5762802734375,-0.5975469946861267,-9.403068542480469,-1.3707369565963745
1749987952151294000,11.5862939453125,-0.5541229844093323,-9.400702476501465,-1.4128129482269287
1749987952161307400,11.596307373046875,-0.5092729926109314,-9.400086402893066,-1.4548840522766113
1749987952171321000,11.606321044921875,-0.46305200457572937,-9.401328086853027,-1.4965920448303223
1749987952181334800,11.616334716796874,-0.41586899757385254,-9.404501914978027,-1.5374540090560913
1749987952191348200,11.62634814453125,-0.3682030141353607,-9.409575462341309,-1.57710599899292
1749987952201362200,11.636362060546874,-0.32624199986457825,-9.413898468017578,-1.6137679815292358
1749987952211375600,11.646375732421875,-0.2847670018672943,-9.419687271118164,-1.6487820148468018
1749987952221389000,11.65638916015625,-0.24445700645446777,-9.42671012878418,-1.681939959526062
1749987952231402800,11.66640283203125,-0.20627300441265106,-9.434542655944824,-1.713168978691101
1749987952241416200,11.676416259765626,-0.17139999568462372,-9.442557334899902,-1.7423909902572632
1749987952251430000,11.686429931640625,-0.14113500714302063,-9.449975967407227,-1.76937997341156
1749987952261443600,11.696443603515625,-0.11668100208044052,-9.456050872802734,-1.7936919927597046
1749987952271457000,11.70645703125,-0.09937000274658203,-9.460190773010254,-1.814869999885559
1749987952281470700,11.716470703125,-0.09076300263404846,-9.462137222290039,-1.8327490091323853
1749987952291484400,11.726484375,-0.0902710035443306,-9.462454795837402,-1.847430944442749
1749987952301498000,11.736498046875,-0.09386300295591354,-9.462065696716309,-1.8583780527114868
1749987952311511600,11.746511474609376,-0.09800100326538086,-9.46150016784668,-1.8648569583892822
1749987952321525200,11.756525146484375,-0.10086700320243835,-9.461038589477539,-1.8662840127944946
1749987952331538700,11.76653857421875,-0.10194399952888489,-9.46084213256836,-1.8624199628829956
1749987952341552600,11.776552734375,-0.10162799805402756,-9.46093463897705,-1.8534040451049805
1749987952351566000,11.786566162109375,-0.10047899931669235,-9.461248397827148,-1.8402270078659058
1749987952361579800,11.796579833984374,-0.09912600368261337,-9.461633682250977,-1.8240779638290405
1749987952371593200,11.80659326171875,-0.09854699671268463,-9.461837768554688,-1.8058830499649048
1749987952381607200,11.816607177734374,-0.09983599931001663,-9.461572647094727,-1.7865070104599
1749987952391620600,11.82662060546875,-0.10378599911928177,-9.46063232421875,-1.7667609453201294
1749987952401634000,11.836634033203126,-0.10756900161504745,-9.45970344543457,-1.7484110593795776
1749987952411647700,11.846647705078125,-0.11076100170612335,-9.458846092224121,-1.7317249774932861
1749987952421661400,11.856661376953125,-0.11238300055265427,-9.458230018615723,-1.7169640064239502
1749987952431675100,11.866675048828125,-0.10856299847364426,-9.458489418029785,-1.7035200595855713
1749987952441688600,11.8766884765625,-0.10407499969005585,-9.458819389343262,-1.6903959512710571
1749987952451702500,11.88670263671875,-0.09681999683380127,-9.459446907043457,-1.6800309419631958
1749987952461716000,11.896716064453125,-0.08718500286340714,-9.460298538208008,-1.6725529432296753
1749987952471729700,11.906729736328124,-0.07550700008869171,-9.461315155029297,-1.667726993560791
1749987952481743000,11.9167431640625,-0.06508400291204453,-9.462190628051758,-1.661025047302246
1749987952491756800,11.9267568359375,-0.056095998734235764,-9.462903022766113,-1.651695966720581
1749987952501770500,11.9367705078125,-0.04812400043010712,-9.463518142700195,-1.6393580436706543
1749987952511784000,11.946783935546875,-0.040571000427007675,-9.464127540588379,-1.6239559650421143
1749987952521797600,11.956797607421874,-0.03360399976372719,-9.46496295928955,-1.6097840070724487
1749987952531811300,11.966811279296875,-0.02830599993467331,-9.465784072875977,-1.5978870391845703
1749987952541825000,11.976824951171874,-0.0228899996727705,-9.466485977172852,-1.5893369913101196
1749987952551838500,11.98683837890625,-0.0150950001552701,-9.466975212097168,-1.5838040113449097
1749987952561852200,11.99685205078125,-0.005059999879449606,-9.46702766418457,-1.5812480449676514
1749987952571865600,12.006865478515625,0.007176999934017658,-9.466405868530273,-1.5818760395050049
1749987952581879600,12.016879638671876,0.02258799970149994,-9.464844703674316,-1.5860559940338135
1749987952591893000,12.02689306640625,0.04234499856829643,-9.462137222290039,-1.5935829877853394
1749987952601906700,12.03690673828125,0.06700900197029114,-9.458111763000488,-1.6040430068969727
1749987952611920100,12.046920166015624,0.0958079993724823,-9.452766418457031,-1.6171770095825195
1749987952621934000,12.05693408203125,0.12636199593544006,-9.446844100952148,-1.6266900300979614
1749987952631947500,12.066947509765624,0.15627099573612213,-9.440847396850586,-1.6333940029144287
1749987952641961200,12.076961181640625,0.18365000188350677,-9.4354248046875,-1.6375470161437988
1749987952651974700,12.086974609375,0.20861299335956573,-9.430853843688965,-1.63898503780365
1749987952661988400,12.09698828125,0.2321619987487793,-9.427179336547852,-1.6374410390853882
1749987952672002000,12.107001953125,0.2553650140762329,-9.423879623413086,-1.6345210075378418
1749987952682015500,12.117015380859375,0.2787170112133026,-9.420980453491211,-1.6297310590744019
1749987952692029200,12.127029296875,0.3021309971809387,-9.41850471496582,-1.6228660345077515
1749987952702042600,12.137042724609374,0.3253670036792755,-9.416220664978027,-1.6146939992904663
1749987952712056300,12.147056396484375,0.34834399819374084,-9.414005279541016,-1.6056640148162842
1749987952722070000,12.157070068359374,0.37098899483680725,-9.411911010742188,-1.5957989692687988
1749987952732083500,12.16708349609375,0.3931010067462921,-9.410102844238281,-1.5848939418792725
1749987952742097200,12.17709716796875,0.41505199670791626,-9.40894889831543,-1.5708609819412231
1749987952752110800,12.18711083984375,0.43732500076293945,-9.407906532287598,-1.555649995803833
1749987952762124300,12.197124267578126,0.4603649973869324,-9.406641006469727,-1.5398260354995728
1749987952772138000,12.207137939453125,0.48394399881362915,-9.404949188232422,-1.5242480039596558
1749987952782151400,12.2171513671875,0.5081809759140015,-9.403379440307617,-1.5075160264968872
1749987952792165000,12.2271650390625,0.5335180163383484,-9.401649475097656,-1.4899059534072876
1749987952802178800,12.2371787109375,0.559211015701294,-9.39991283416748,-1.471716046333313
1749987952812192300,12.247192138671876,0.5836750268936157,-9.398870468139648,-1.4525530338287354
1749987952822206000,12.2572060546875,0.6059389710426331,-9.399079322814941,-1.431710958480835
1749987952832219400,12.267219482421876,0.625773012638092,-9.400708198547363,-1.408882975578308
1749987952842233000,12.277233154296875,0.6451889872550964,-9.401912689208984,-1.3873109817504883
1749987952852246800,12.287246826171875,0.664717972278595,-9.402525901794434,-1.3672709465026855
1749987952862260200,12.29726025390625,0.6850339770317078,-9.402385711669922,-1.3490619659423828
1749987952872274000,12.30727392578125,0.7035290002822876,-9.403160095214844,-1.329342007637024
1749987952882287600,12.31728759765625,0.720645010471344,-9.404670715332031,-1.3083490133285522
1749987952892301000,12.327301025390625,0.7371630072593689,-9.406648635864258,-1.2864090204238892
1749987952902314800,12.337314697265626,0.7538419961929321,-9.408846855163574,-1.2638369798660278
1749987952912328200,12.347328125,0.7708969712257385,-9.41089916229248,-1.242537021636963
1749987952922342000,12.357341796875,0.7888849973678589,-9.412693977355957,-1.222424030303955
1749987952932355600,12.36735546875,0.8087419867515564,-9.414297103881836,-1.2021520137786865
1749987952942369000,12.377369140625,0.8314499855041504,-9.415521621704102,-1.1816940307617188
1749987952952382700,12.3873828125,0.8577479720115662,-9.416200637817383,-1.161105990409851
1749987952962396400,12.397396484375,0.8877890110015869,-9.416207313537598,-1.1406049728393555
1749987952972410000,12.40741015625,0.921563982963562,-9.415177345275879,-1.1216709613800049
1749987952982423600,12.417423583984375,0.9594799876213074,-9.412728309631348,-1.1052579879760742
1749987952992437200,12.427437255859376,1.0018999576568604,-9.408576011657715,-1.0920469760894775
1749987953002450700,12.43745068359375,1.0485349893569946,-9.402700424194336,-1.0826900005340576
1749987953012464400,12.44746435546875,1.098446011543274,-9.395340919494629,-1.0781079530715942
1749987953022477800,12.457477783203124,1.150527000427246,-9.386896133422852,-1.0792219638824463
1749987953032491500,12.467491455078125,1.204190969467163,-9.377687454223633,-1.0864109992980957
1749987953042505200,12.477505126953124,1.259155035018921,-9.367972373962402,-1.0995279550552368
1749987953052518700,12.4875185546875,1.3148720264434814,-9.35807991027832,-1.1180299520492554
1749987953062532600,12.49753271484375,1.3702069520950317,-9.348432540893555,-1.1411609649658203
1749987953072546000,12.507546142578125,1.4240700006484985,-9.339305877685547,-1.1681710481643677
1749987953082559700,12.517559814453126,1.475965976715088,-9.330738067626953,-1.1984740495681763
1749987953092573200,12.5275732421875,1.52577805519104,-9.32271957397461,-1.2313690185546875
1749987953102587000,12.5375869140625,1.5735859870910645,-9.31524658203125,-1.2662359476089478
1749987953112600600,12.5476005859375,1.6197940111160278,-9.30825424194336,-1.3027939796447754
1749987953122614000,12.557614013671875,1.6650619506835938,-9.301641464233398,-1.3409769535064697
1749987953132627700,12.567627685546874,1.7100839614868164,-9.295289039611816,-1.3808610439300537
1749987953142641400,12.577641357421875,1.7553019523620605,-9.289122581481934,-1.4225150346755981
1749987953152655000,12.587655029296876,1.8009099960327148,-9.283163070678711,-1.4657889604568481
1749987953162668500,12.59766845703125,1.8470269441604614,-9.277446746826172,-1.5104360580444336
1749987953172682200,12.60768212890625,1.8937159776687622,-9.272026062011719,-1.55623197555542
1749987953182695700,12.61769580078125,1.941046953201294,-9.266950607299805,-1.6030369997024536
1749987953192709400,12.62770947265625,1.9891459941864014,-9.262260437011719,-1.650771975517273
1749987953202722800,12.637722900390624,2.035275936126709,-9.25724983215332,-1.698179006576538
1749987953212736800,12.64773681640625,2.079932928085327,-9.251970291137695,-1.7450740337371826
1749987953222750200,12.657750244140624,2.1232540607452393,-9.246389389038086,-1.7909749746322632
1749987953232764000,12.667763916015625,2.1649279594421387,-9.240488052368164,-1.8352199792861938
1749987953242777300,12.67777734375,2.2045509815216064,-9.234292984008789,-1.8769899606704712
1749987953252791000,12.687791015625,2.242124080657959,-9.227930068969727,-1.9152990579605103
1749987953262804700,12.6978046875,2.278093099594116,-9.221505165100098,-1.9493999481201172
1749987953272818200,12.707818115234375,2.314239025115967,-9.214212417602539,-1.981173038482666
1749987953282832000,12.717831787109375,2.353266954421997,-9.206263542175293,-2.014770030975342
1749987953292845300,12.72784521484375,2.3942320346832275,-9.197795867919922,-2.0506510734558105
1749987953302859000,12.73785888671875,2.4361679553985596,-9.189021110534668,-2.0889759063720703
1749987953312872700,12.747872802734374,2.4727940559387207,-9.181723594665527,-2.1293880939483643
1749987953322886100,12.75788623046875,2.5059139728546143,-9.174184799194336,-2.1657791137695312
1749987953332899800,12.76789990234375,2.5341410636901855,-9.166836738586426,-2.1981260776519775
1749987953342913300,12.777913330078125,2.552963972091675,-9.161726951599121,-2.2225329875946045
1749987953352927000,12.787927001953125,2.566096067428589,-9.157380104064941,-2.2424259185791016
1749987953362940700,12.797940673828125,2.5734000205993652,-9.154000282287598,-2.2579920291900635
1749987953372954000,12.8079541015625,2.575798988342285,-9.152411460876465,-2.265894889831543
1749987953382967800,12.8179677734375,2.573982000350952,-9.152429580688477,-2.267076015472412
1749987953392981500,12.8279814453125,2.566955089569092,-9.154279708862305,-2.2614080905914307
