time,seconds_elapsed,z,y,x
1749987940685575000,0.120574951171875,2.3340625762939453,2.886399984359741,2.5470499992370605
1749987940695588900,0.1305888671875,1.9218374490737915,1.71875,2.4010250568389893
1749987940705602600,0.1406025390625,1.1591249704360962,0.9134125113487244,2.0974249839782715
1749987940715616500,0.150616455078125,0.39531248807907104,0.5150749683380127,1.9941624402999878
1749987940725630200,0.160630126953125,-0.2971374988555908,0.38403749465942383,2.0655250549316406
1749987940735644200,0.17064404296875,-0.9128624796867371,0.03891250118613243,2.0964624881744385
1749987940745657600,0.18065771484375,-1.4040124416351318,-0.2529999911785126,2.0922000408172607
1749987940755671800,0.190671875,-1.8375500440597534,-0.3638249933719635,2.1337249279022217
1749987940765685200,0.200685302734375,-2.2145750522613525,-0.4745124876499176,2.2071499824523926
1749987940775699200,0.21069921875,-2.5383875370025635,-0.9315624833106995,2.3201749324798584
1749987940785713200,0.220713134765625,-2.7919375896453857,-1.8167874813079834,2.468125104904175
1749987940795726800,0.230726806640625,-2.977287530899048,-2.9992873668670654,2.597100019454956
1749987940805740800,0.24074072265625,-3.103100061416626,-4.252049922943115,2.680150032043457
1749987940815754500,0.25075439453125,-3.1872498989105225,-5.465350151062012,2.556537389755249
1749987940825768400,0.2607685546875,-3.468437433242798,-4.356412410736084,1.649999976158142
1749987940835782100,0.2707822265625,-3.66863751411438,-2.842674970626831,0.8511250019073486
1749987940845795800,0.2807958984375,-3.310724973678589,-1.3215124607086182,0.318450003862381
1749987940855809800,0.290809814453125,-2.120800018310547,-1.303362488746643,-0.06283749639987946
1749987940865823500,0.300823486328125,-0.47616249322891235,-0.4489375054836273,-0.3643749952316284
1749987940875837400,0.31083740234375,0.9246875047683716,-0.34031251072883606,-0.3558500111103058
1749987940885851100,0.32085107421875,1.4520000219345093,-0.6003249883651733,-0.3441624939441681
1749987940895865000,0.330864990234375,1.2560625076293945,-0.9795500040054321,-0.45058751106262207
1749987940905878800,0.340878662109375,0.7297124862670898,-1.2010624408721924,-0.7020750045776367
1749987940915892700,0.350892822265625,0.3057999908924103,-1.4279375076293945,-1.023687481880188
1749987940925906200,0.36090625,0.0906125009059906,-1.7305749654769897,-1.314637541770935
1749987940935920400,0.37092041015625,-0.06283749639987946,-2.0671749114990234,-1.565987467765808
1749987940945934000,0.38093408203125,-0.16609999537467957,-2.5880250930786133,-1.748175024986267
1749987940955947800,0.39094775390625,-0.1970375031232834,-3.203749895095825,-1.8525375127792358
1749987940965961700,0.400961669921875,-0.07232499867677689,-3.768325090408325,-1.8823750019073486
1749987940975975400,0.410975341796875,0.2503874897956848,-4.375524997711182,-1.8130749464035034
1749987940985989400,0.4209892578125,0.7467625141143799,-5.024250030517578,-1.6447750329971313
1749987940996003000,0.431003173828125,1.2273249626159668,-5.449399948120117,-1.5063124895095825
1749987941006017000,0.44101708984375,1.6629250049591064,-5.627187252044678,-1.4136375188827515
1749987941016030700,0.45103076171875,2.084774971008301,-5.517462253570557,-1.390262484550476
1749987941026044700,0.461044677734375,2.455475091934204,-5.2564873695373535,-1.3945250511169434
1749987941036058000,0.47105810546875,2.7420248985290527,-4.835737705230713,-1.179337501525879
1749987941046072000,0.481072021484375,2.922149896621704,-4.3073248863220215,-0.8458999991416931
1749987941056086300,0.491086181640625,2.940162420272827,-3.796099901199341,-0.48688748478889465
1749987941066099700,0.501099609375,2.779287576675415,-3.2943625450134277,0.0042624999769032
1749987941076113700,0.51111376953125,2.5119874477386475,-2.7520625591278076,0.4772624969482422
1749987941086127400,0.52112744140625,2.1646625995635986,-2.355787515640259,0.8639125227928162
1749987941096141300,0.531141357421875,1.7663249969482422,-2.2738375663757324,1.1686124801635742
1749987941106155000,0.541155029296875,1.2399749755859375,-2.3770999908447266,1.3954875469207764
1749987941116169000,0.5511689453125,0.7926874756813049,-2.777637481689453,1.4359124898910522
1749987941126182700,0.5611826171875,0.9789999723434448,-3.463624954223633,1.2878249883651733
1749987941136196400,0.5711962890625,1.437150001525879,-4.254112243652344,1.1089375019073486
1749987941146210300,0.581210205078125,1.9122124910354614,-4.966774940490723,0.9810624718666077
1749987941156224000,0.59122412109375,2.318112373352051,-5.393987655639648,1.034274935722351
1749987941166238000,0.601238037109375,2.600399971008301,-5.690162658691406,1.214400053024292
1749987941176252000,0.611251953125,2.9156875610351562,-5.898887634277344,1.373075008392334
1749987941186265600,0.621265625,3.2172250747680664,-5.9542999267578125,1.465749979019165
1749987941196279600,0.631279541015625,3.4579875469207764,-5.836050033569336,1.482800006866455
1749987941206293200,0.641293212890625,3.674137592315674,-5.6698126792907715,1.465749979019165
1749987941216307000,0.651306884765625,3.951200008392334,-5.5037126541137695,1.4679499864578247
1749987941236334800,0.6713349609375,4.884274959564209,-4.802737236022949,1.1877249479293823
1749987941246348500,0.6813486328125,5.325375080108643,-4.5651373863220215,0.9767999649047852
1749987941256362500,0.691362548828125,5.590612411499023,-4.1901750564575195,0.9363750219345093
1749987941276390100,0.71139013671875,5.297599792480469,-3.2528374195098877,0.9597499966621399
1749987941286403800,0.72140380859375,4.9163126945495605,-2.764849901199341,0.9629124999046326
1749987941296417500,0.73141748046875,4.52209997177124,-2.110762596130371,0.9662125110626221
1749987941306431500,0.741431396484375,4.225924968719482,-1.3363624811172485,0.8841249942779541
1749987941316445200,0.751445068359375,4.039612293243408,-0.632224977016449,0.7232499718666077
1749987941326459100,0.761459228515625,3.883962392807007,-0.06655000150203705,0.5187875032424927
1749987941336472800,0.771472900390625,3.7465999126434326,0.382937490940094,0.303600013256073
1749987941346486800,0.78148681640625,3.566612482070923,0.768625020980835,0.16513749957084656
1749987941356500500,0.79150048828125,3.291749954223633,1.0594375133514404,0.15661250054836273
1749987941366514400,0.801514404296875,2.964637517929077,1.2297999858856201,0.30250000953674316
1749987941376528000,0.81152783203125,2.688812494277954,1.2874125242233276,0.544362485408783
1749987941386541800,0.821541748046875,2.486412525177002,1.3087249994277954,0.7851250171661377
1749987941396555500,0.831555419921875,2.258437395095825,1.192537546157837,0.8744999766349792
1749987941406569500,0.841569580078125,1.979312539100647,1.045549988746643,0.7712374925613403
1749987941416583200,0.851583251953125,1.721500039100647,0.9219374656677246,0.5773624777793884
1749987941426597000,0.86159716796875,1.4488375186920166,0.8101499676704407,0.30250000953674316
1749987941436610800,0.87161083984375,1.1847000122070312,0.7930999994277954,-0.08098749816417694
1749987941446624800,0.881624755859375,0.9439374804496765,0.8974624872207642,-0.44536250829696655
1749987941456638700,0.891638671875,0.6104999780654907,0.9869750142097473,-0.6690750122070312
1749987941466652400,0.90165234375,0.32065001130104065,1.018875002861023,-0.6562874913215637
1749987941476666400,0.911666259765625,0.08002500236034393,1.2373625040054321,-0.5539875030517578
1749987941486680000,0.92168017578125,-0.009487500414252281,1.7305749654769897,-0.7158250212669373
1749987941496694000,0.931694091796875,-0.08511249721050262,1.8636749982833862,-0.6839249730110168
1749987941506707700,0.941707763671875,-0.18947499990463257,1.468500018119812,-0.21408750116825104
1749987941516721400,0.951721435546875,-0.1629374921321869,1.0529749393463135,0.34718748927116394
1749987941526735400,0.9617353515625,-0.05431250110268593,0.7654625177383423,0.5208500027656555
1749987941536749000,0.9717490234375,-0.03396249935030937,0.42666250467300415,0.24172499775886536
1749987941546763000,0.981762939453125,-0.13942499458789825,-0.07507500052452087,-0.002199999988079071
1749987941556777000,0.99177685546875,-0.38871249556541443,-0.6012874841690063,0.2246749997138977
1749987941566790700,1.001790771484375,-0.42707499861717224,-1.1743874549865723,0.8766999840736389
1749987941576804400,1.011804443359375,-0.21834999322891235,-1.5302374362945557,1.5956875085830688
1749987941586818300,1.021818359375,0.04166249930858612,-1.4993000030517578,2.0931625366210938
1749987941596832300,1.031832275390625,0.21312500536441803,-1.2414875030517578,2.201925039291382
1749987941606846000,1.041845947265625,0.2983750104904175,-0.9890375137329102,2.1624624729156494
1749987941616859600,1.051859619140625,0.1929125040769577,-0.6791124939918518,2.0165750980377197
1749987941626873600,1.06187353515625,-0.027637500315904617,-0.19126249849796295,1.6064125299453735
1749987941636887300,1.07188720703125,-0.28008750081062317,0.3180375099182129,0.9693750143051147
1749987941646901200,1.0819013671875,-0.6124249696731567,0.7675250172615051,0.2470874935388565
1749987941656915000,1.0919150390625,-0.6945124864578247,1.2458875179290771,-0.5358374714851379
1749987941666929000,1.101928955078125,-0.7562500238418579,1.5217125415802002,-1.2346124649047852
1749987941676942600,1.111942626953125,-0.8883875012397766,1.4909124374389648,-1.6160374879837036
1749987941686956500,1.12195654296875,-1.0757999420166016,1.3289375305175781,-1.7076125144958496
1749987941696970200,1.13197021484375,-1.5115374326705933,1.277787446975708,-1.6990875005722046
1749987941706984200,1.141984130859375,-1.8299875259399414,1.0742875337600708,-1.5595250129699707
1749987941716998100,1.151998046875,-1.7533999681472778,0.7046874761581421,-1.4168000221252441
1749987941727011800,1.16201171875,-1.4689124822616577,0.46818751096725464,-1.3667500019073486
1749987941737025800,1.17202587890625,-1.1695749759674072,0.30195000767707825,-1.3454375267028809
1749987941747039500,1.18203955078125,-1.0950499773025513,-0.15289999544620514,-1.214400053024292
1749987941757053200,1.19205322265625,-1.2324124574661255,-0.6961625218391418,-0.8820624947547913
1749987941767067100,1.202067138671875,-1.400712490081787,-1.2522125244140625,-0.4591124951839447
1749987941777080800,1.212080810546875,-1.4625874757766724,-1.9830249547958374,-0.26633748412132263
1749987941787094800,1.2220947265625,-1.5263874530792236,-2.6082375049591064,-0.27059999108314514
1749987941797108500,1.2321083984375,-1.706512451171875,-2.969449996948242,-0.3877499997615814
1749987941807122400,1.242122314453125,-1.9845374822616577,-2.99818754196167,-0.5678749680519104
1749987941817136000,1.25213623046875,-2.108150005340576,-2.660487413406372,-0.7041375041007996
1749987941827150000,1.262150146484375,-1.8939249515533447,-2.061812400817871,-0.7319124937057495
1749987941837163800,1.272163818359375,-1.530650019645691,-1.47056245803833,-0.7063375115394592
1749987941847177700,1.282177734375,-1.1780999898910522,-0.9219374656677246,-0.6221874952316284
1749987941857191700,1.292191650390625,-0.9788625240325928,-0.5097125172615051,-0.5667750239372253
1749987941867205400,1.302205322265625,-1.066312551498413,-0.19868749380111694,-0.6264500021934509
1749987941877219300,1.31221923828125,-1.347499966621399,0.09748750180006027,-0.5944125056266785
1749987941887233300,1.3222333984375,-1.7437750101089478,0.5790125131607056,-0.6231499910354614
1749987941897246700,1.332246826171875,-2.246612548828125,0.9497125148773193,-0.9747374653816223
1749987941907260700,1.3422607421875,-2.553375005722046,0.30098751187324524,-1.455162525177002
1749987941917274600,1.352274658203125,-2.0899999141693115,-0.18273749947547913,-2.0794124603271484
1749987941927288300,1.362288330078125,-1.180299997329712,0.16458749771118164,-2.572624921798706
1749987941937302300,1.37230224609375,-0.6848874688148499,-0.0952875018119812,-2.572624921798706
1749987941947316000,1.38231591796875,-0.4441249966621399,-0.4212999939918518,-1.780074954032898
1749987941957330000,1.392329833984375,-0.25244998931884766,-0.030387500301003456,-0.8149625062942505
1749987941967343600,1.402343505859375,0.04592499881982803,-0.010174999944865704,-0.1023000031709671
1749987941977357600,1.412357666015625,0.47093749046325684,-0.29768750071525574,0.2535499930381775
1749987941987371300,1.422371337890625,0.7543249726295471,-0.6556000113487244,0.3291749954223633
1749987941997385200,1.43238525390625,0.8725749850273132,-1.110587477684021,0.2886124849319458
1749987942007399200,1.442399169921875,0.892787516117096,-1.536562442779541,0.20019999146461487
1749987942017412600,1.45241259765625,0.9044749736785889,-1.794374942779541,0.0042624999769032
1749987942027426600,1.462426513671875,0.9417374730110168,-1.9606125354766846,-0.22907499969005585
1749987942037440300,1.472440185546875,0.9704750180244446,-2.110762596130371,-0.39531248807907104
1749987942047454200,1.4824541015625,0.8064374923706055,-2.2705373764038086,-0.46447500586509705
1749987942057468200,1.49246826171875,0.654087483882904,-2.443237543106079,-0.36643749475479126
1749987942067481900,1.50248193359375,0.469837486743927,-1.958412528038025,0.15015000104904175
1749987942077495600,1.51249560546875,0.19717499613761902,-1.4023624658584595,0.9245499968528748
1749987942087509500,1.522509521484375,-0.11604999750852585,-1.5493500232696533,1.4859625101089478
1749987942097523500,1.5325234375,-0.4302375018596649,-2.461250066757202,1.5765750408172607
1749987942107537200,1.542537109375,-0.5368000268936157,-3.6958625316619873,1.5126374959945679
1749987942117551000,1.552551025390625,-0.5101249814033508,-4.532137393951416,1.7161375284194946
1749987942127564800,1.562564697265625,-0.5964750051498413,-4.391475200653076,2.027162551879883
1749987942137578500,1.57257861328125,-0.9139624834060669,-3.378512382507324,2.3031249046325684
1749987942147592400,1.582592529296875,-1.4987499713897705,-2.6466000080108643,2.5374250411987305
1749987942157606100,1.592606201171875,-2.1730499267578125,-2.6593875885009766,2.7121875286102295
1749987942167620000,1.6026201171875,-2.9187123775482178,-2.628587484359741,2.883650064468384
1749987942177633800,1.6126337890625,-3.364074945449829,-2.172637462615967,3.076425075531006
1749987942187647700,1.622647705078125,-3.5483250617980957,-1.9541499614715576,3.038062572479248
1749987942197661400,1.632661376953125,-3.615424871444702,-1.71875,2.8740248680114746
1749987942207675400,1.64267529296875,-3.3726000785827637,-1.4364625215530396,2.3797125816345215
1749987942217689000,1.652689208984375,-2.183774948120117,-0.035612501204013824,0.5410624742507935
1749987942227703000,1.662703125,-1.272974967956543,-0.06544999778270721,-0.9821624755859375
1749987942237717000,1.672717041015625,-0.9362375140190125,-0.7206375002861023,-1.473312497138977
1749987942247730700,1.682730712890625,-0.47932499647140503,-0.5469750165939331,-1.565987467765808
1749987942257744600,1.69274462890625,0.38032498955726624,-0.09638749808073044,-1.530787467956543
1749987942267758600,1.702758544921875,1.3667500019073486,0.023924998939037323,-1.346537470817566
1749987942277772000,1.71277197265625,2.279749870300293,-0.3232625126838684,-1.066312551498413
1749987942287786000,1.722785888671875,2.9987375736236572,-0.7004249691963196,-0.9204249978065491
1749987942297800000,1.732800048828125,3.4621124267578125,-0.5278624892234802,-0.8777999877929688
1749987942307813600,1.742813720703125,3.6678125858306885,0.9102500081062317,-0.39201250672340393
1749987942317827600,1.75282763671875,3.683762550354004,2.4176623821258545,0.4676375091075897
1749987942327841300,1.76284130859375,3.7061750888824463,1.9168875217437744,1.0268499851226807
1749987942337855200,1.772855224609375,3.791287422180176,0.9602999687194824,1.558424949645996
1749987942347869000,1.782868896484375,3.634812593460083,2.5251874923706055,1.1131999492645264
1749987942357883000,1.7928828125,3.058412551879883,3.992037534713745,-0.13323749601840973
1749987942367896600,1.802896484375,2.9657375812530518,1.7710000276565552,-0.3782624900341034
1749987942377910500,1.81291064453125,2.881587505340576,0.898562490940094,-0.36643749475479126
1749987942387924200,1.82292431640625,2.654712438583374,0.8718875050544739,-0.40796250104904175
1749987942397938000,1.83293798828125,2.4906749725341797,0.9304624795913696,-0.47519999742507935
1749987942407952000,1.842951904296875,2.537562370300293,0.6716874837875366,-0.5209875106811523
1749987942417965600,1.852965576171875,2.8411624431610107,0.28600001335144043,-0.48042500019073486
1749987942427979500,1.8629794921875,3.255587577819824,-0.0494999997317791,-0.3601124882698059
1749987942437993200,1.8729931640625,3.572937488555908,-0.4394499957561493,-0.2737624943256378
1749987942448007200,1.883007080078125,3.7903249263763428,-0.2433750033378601,-0.05857500061392784
1749987942458020900,1.893020751953125,3.855225086212158,-0.12086249887943268,0.304562509059906
1749987942468034800,1.903034912109375,3.5634500980377197,-0.7312250137329102,0.5964750051498413
1749987942478048500,1.913048583984375,3.156450033187866,-1.0136499404907227,0.9096999764442444
1749987942488062500,1.9230625,2.926412582397461,-1.0412875413894653,1.207937479019165
1749987942498076200,1.933076171875,2.8602750301361084,-0.8687250018119812,1.4168000221252441
1749987942508089900,1.94308984375,2.775024890899658,-0.5128750205039978,1.4850000143051147
1749987942518103800,1.953103759765625,2.6089251041412354,-0.08249999582767487,1.3624874353408813
1749987942528117500,1.963117431640625,2.3500125408172607,0.4096125066280365,1.0183249711990356
1749987942538131500,1.97313134765625,2.06992506980896,0.816474974155426,0.5282750129699707
1749987942548145200,1.983145263671875,1.8919999599456787,0.9145125150680542,0.11178749799728394
1749987942558159000,1.9931591796875,1.82173752784729,0.8036875128746033,-0.09803749620914459
1749987942568172800,2.0031728515625,1.9207375049591064,0.5043500065803528,-0.13956250250339508
1749987942578186800,2.013186767578125,2.02620005607605,0.13695000112056732,-0.07356250286102295
1749987942588200700,2.02320068359375,1.988937497138977,0.015399999916553497,0.07026249915361404
1749987942598214400,2.03321435546875,1.9016250371932983,0.07301250100135803,0.22893749177455902
1749987942608228400,2.043228271484375,1.8078500032424927,0.3104749917984009,0.3760625123977661
1749987942618242000,2.053241943359375,1.7151750326156616,0.8431500196456909,0.5421624779701233
1749987942628255700,2.063255859375,1.5915625095367432,1.5409624576568604,0.6572499871253967
1749987942638269700,2.073269775390625,1.3166999816894531,2.2290124893188477,0.6646749973297119
1749987942648283400,2.083283447265625,0.7808625102043152,2.4133999347686768,0.5762624740600586
1749987942658297300,2.09329736328125,0.09707500040531158,2.0266125202178955,0.304562509059906
1749987942668311000,2.10331103515625,-0.5688375234603882,1.775262475013733,-0.2737624943256378
1749987942678325000,2.113324951171875,-1.014062523841858,1.950024962425232,-0.9641500115394592
1749987942688338700,2.123338623046875,-1.2196249961853027,1.9381999969482422,-1.4455374479293823
1749987942698352400,2.133352294921875,-1.308037519454956,1.4386625289916992,-1.7300249338150024
1749987942708366600,2.14336669921875,-1.356024980545044,0.9997624754905701,-1.9472750425338745
1749987942718380000,2.153380126953125,-1.4060750007629395,0.8112499713897705,-2.1720874309539795
1749987942728394000,2.16339404296875,-1.392187476158142,0.5651249885559082,-2.372425079345703
1749987942738407700,2.17340771484375,-1.2388750314712524,0.19978749752044678,-2.4756875038146973
1749987942748421600,2.183421630859375,-0.9970124959945679,-0.043175000697374344,-2.442687511444092
1749987942758435300,2.193435302734375,-0.8255500197410583,0.005912499967962503,-2.173187494277954
1749987942768449300,2.20344921875,-0.7391999959945679,0.07617499679327011,-1.822700023651123
1749987942778463200,2.213463134765625,-0.6465250253677368,0.07081250101327896,-1.5042500495910645
1749987942788476700,2.2234765625,-0.582587480545044,0.2424124926328659,-1.1825000047683716
1749987942798490600,2.23349072265625,-0.5506874918937683,0.6077499985694885,-0.8447999954223633
1749987942808504300,2.24350439453125,-0.4441249966621399,1.0679625272750854,-0.469837486743927
1749987942818518300,2.253518310546875,-0.28008750081062317,1.6132874488830566,-0.12677499651908875
1749987942828532000,2.263531982421875,-0.1597750037908554,2.041599988937378,0.13199999928474426
1749987942838546000,2.2735458984375,-0.16073749959468842,2.3185250759124756,0.3004375100135803
1749987942848559900,2.283559814453125,-0.11604999750852585,2.2290124893188477,0.3951750099658966
1749987942858573600,2.293573486328125,-0.002062499988824129,1.4227124452590942,0.4111250042915344
1749987942868587500,2.30358740234375,0.18328750133514404,0.685575008392334,0.3590124845504761
1749987942878601200,2.313601318359375,0.46777498722076416,0.04743750020861626,0.3718000054359436
1749987942888615000,2.323614990234375,0.5988125205039978,-0.3339875042438507,0.46447500586509705
1749987942898628900,2.33362890625,0.6434999704360962,-0.6503750085830688,0.5400999784469604
1749987942908642600,2.343642578125,0.7350749969482422,-0.9081875085830688,0.5827249884605408
1749987942918656300,2.35365625,0.7595499753952026,-0.981612503528595,0.6433625221252441
1749987942928670200,2.363670166015625,0.7702749967575073,-0.9293624758720398,0.7275124788284302
1749987942938684000,2.373683837890625,0.8447999954223633,-0.7174749970436096,0.8042374849319458
1749987942948697900,2.38369775390625,0.9822999835014343,-0.6066499948501587,0.7797625064849854
1749987942958711600,2.393711669921875,1.115399956703186,-0.5235999822616577,0.7009750008583069
1749987942968725500,2.4037255859375,1.1537624597549438,-0.3936625123023987,0.6402000188827515
1749987942978739200,2.4137392578125,1.1261249780654907,-0.23594999313354492,0.5997750163078308
1749987942988753200,2.423753173828125,0.9524624943733215,-0.004812499973922968,0.5219500064849854
1749987942998766800,2.433766845703125,0.7574874758720398,-0.043175000697374344,0.4366999864578247
1749987943008780500,2.443780517578125,0.7009750008583069,-0.3254624903202057,0.5123249888420105
1749987943018794500,2.45379443359375,0.8309124708175659,-0.5086125135421753,0.6902499794960022
1749987943028808400,2.463808349609375,1.1037124395370483,-0.5288249850273132,0.8414999842643738
1749987943038822000,2.47382177734375,1.3615249395370483,-0.6663249731063843,1.0183249711990356
1749987943048835800,2.4838359375,1.5233625173568726,-1.037024974822998,1.21646249294281
1749987943058849500,2.493849609375,1.474412441253662,-1.4566749334335327,1.1930874586105347
1749987943068863500,2.503863525390625,1.1697125434875488,-2.0223500728607178,0.9085999727249146
1749987943078877200,2.513877197265625,0.5284125208854675,-2.5155625343322754,0.5262125134468079
1749987943088891100,2.52389111328125,-0.2886124849319458,-2.874574899673462,0.19071249663829803
1749987943098905000,2.533905029296875,-0.9085999727249146,-3.210212469100952,-0.06187500059604645
1749987943108918800,2.543918701171875,-1.2346124649047852,-3.2751123905181885,-0.3143250048160553
1749987943118932500,2.553932373046875,-1.3037749528884888,-2.7765374183654785,-0.691349983215332
1749987943128946400,2.563946533203125,-1.0598499774932861,-1.9733999967575073,-1.0961500406265259
1749987943138960100,2.573960205078125,-0.6411625146865845,-1.570662498474121,-1.2357125282287598
1749987943148974000,2.58397412109375,-0.304562509059906,-1.8913124799728394,-0.892787516117096
1749987943158987800,2.59398779296875,-0.18205000460147858,-2.3131625652313232,-0.2535499930381775
1749987943169001700,2.604001708984375,-0.28971248865127563,-2.70847487449646,0.4142875075340271
1749987943179015400,2.614015380859375,-0.4452250003814697,-2.7765374183654785,0.8351749777793884
1749987943189029400,2.624029296875,-0.5421624779701233,-1.9254125356674194,0.7414000034332275
1749987943199042800,2.634042724609375,-0.4483875036239624,-1.0614999532699585,0.44632500410079956
1749987943209056800,2.644056884765625,-0.23003749549388885,-0.5895999670028687,0.4452250003814697
1749987943219070700,2.65407080078125,-0.2129874974489212,-0.18369999527931213,0.6476249694824219
1749987943229084400,2.66408447265625,-0.46860000491142273,0.5460125207901001,0.561412513256073
1749987943239098000,2.67409814453125,-0.6954749822616577,1.4940749406814575,0.13103750348091125
1749987943249112000,2.684112060546875,-0.6263124942779541,2.112962484359741,-0.1704999953508377
1749987943259125800,2.694125732421875,-0.27898749709129333,2.3739373683929443,-0.23539999127388
1749987943269139500,2.704139404296875,0.10986249893903732,2.4133999347686768,-0.10656250268220901
1749987943279153400,2.7141533203125,0.41346248984336853,2.2599499225616455,0.05431250110268593
1749987943289167000,2.7241669921875,0.6381375193595886,2.085325002670288,0.22687499225139618
1749987943299181000,2.73418115234375,0.8149625062942505,2.0288124084472656,0.3983374834060669
1749987943309194800,2.74419482421875,0.9076374769210815,2.2332749366760254,0.5293750166893005
1749987943319208700,2.754208740234375,0.8959500193595886,2.657325029373169,0.5890499949455261
1749987943329222100,2.76422216796875,0.8266500234603882,3.0674874782562256,0.5836874842643738
1749987943339236000,2.774236083984375,0.7213249802589417,3.156862497329712,0.5486249923706055
1749987943349249800,2.784249755859375,0.5007749795913696,2.96408748626709,0.516587495803833
1749987943359263700,2.794263671875,0.20569999516010284,2.592287540435791,0.5517874956130981
1749987943369277400,2.80427734375,-0.07136250287294388,2.18322491645813,0.6029375195503235
1749987943379291400,2.81429150390625,-0.2502500116825104,2.0054373741149902,0.5197499990463257
1749987943389305000,2.82430517578125,-0.37812501192092896,2.4176623821258545,0.08621250092983246
1749987943399318800,2.83431884765625,-0.4782249927520752,2.27067494392395,-0.5358374714851379
1749987943409332700,2.844332763671875,-0.4750624895095825,1.3704625368118286,-0.9087374806404114
1749987943419346400,2.854346435546875,-0.3546124994754791,0.4661250114440918,-1.0077375173568726
1749987943429360000,2.864360107421875,-0.3195500075817108,-0.37661248445510864,-1.1686124801635742
1749987943439374000,2.8743740234375,-0.5176874995231628,-0.7408499717712402,-1.529687523841858
1749987943449388000,2.884387939453125,-0.8148249983787537,-0.779212474822998,-1.9227999448776245
1749987943459401500,2.8944013671875,-1.0993125438690186,-0.7462124824523926,-2.126300096511841
1749987943469415400,2.90441552734375,-1.2122000455856323,-0.779212474822998,-2.0623624324798584
1749987943479429000,2.91442919921875,-1.0535249710083008,-0.5917999744415283,-1.8673875331878662
1749987943489443000,2.924443115234375,-0.6476249694824219,-0.07823749631643295,-1.6171374320983887
1749987943499456800,2.934456787109375,-0.14698749780654907,0.4096125066280365,-1.3934249877929688
1749987943509470700,2.944470703125,0.17476250231266022,0.620537519454956,-1.2484999895095825
1749987943519484400,2.954484375,0.2961750030517578,0.7067499756813049,-1.1515624523162842
1749987943529498000,2.964498046875,0.2525874972343445,0.9380249977111816,-1.0748374462127686
1749987943539512000,2.974511962890625,0.2153249979019165,1.0657625198364258,-0.9448999762535095
1749987943549525800,2.98452587890625,0.2227499932050705,1.1499124765396118,-0.819225013256073
1749987943559539700,2.994539794921875,0.19181250035762787,1.4066250324249268,-0.8724374771118164
1749987943569553400,3.004553466796875,0.26963749527931213,1.5739624500274658,-1.040737509727478
1749987943579567400,3.0145673828125,0.3867875039577484,1.7050000429153442,-1.2303500175476074
1749987943589581000,3.0245810546875,0.27912500500679016,1.7230124473571777,-1.299649953842163
1749987943599594800,3.0345947265625,0.1321374922990799,1.360837459564209,-1.1131999492645264
1749987943609608400,3.0446083984375,0.09281250089406967,1.4386625289916992,-1.013100028038025
1749987943619622400,3.054622314453125,0.3675374984741211,1.7571125030517578,-1.0727750062942505
1749987943629636400,3.06463623046875,0.9321125149726868,1.600637435913086,-0.3152875006198883
1749987943639650000,3.074650146484375,1.5884000062942505,1.137125015258789,0.5091624855995178
1749987943649663700,3.084663818359375,1.8323249816894531,0.768625020980835,0.9884874820709229
1749987943659677700,3.094677734375,1.5884000062942505,0.28600001335144043,1.1109999418258667
1749987943669691400,3.10469140625,1.041837453842163,-0.22852499783039093,1.022587537765503
1749987943679705300,3.114705322265625,0.5593500137329102,-0.6215000152587891,0.8073999881744385
1749987943689719000,3.124718994140625,0.30799999833106995,-0.7919999957084656,0.5666375160217285
1749987943699732700,3.134732666015625,0.30469998717308044,-0.6396499872207642,0.4409624934196472
1749987943709746400,3.144746337890625,0.47203749418258667,-0.27857500314712524,0.5347374677658081
1749987943719760400,3.154760498046875,0.7052375078201294,0.07301250100135803,0.7519875168800354
1749987943729774300,3.1647744140625,0.9363750219345093,0.25946250557899475,0.9426999688148499
1749987943739788000,3.1747880859375,1.1250250339508057,0.2924624979496002,1.0546250343322754
1749987943749802000,3.184802001953125,1.2890625,0.23058749735355377,1.1174625158309937
1749987943759815400,3.1948154296875,1.4669874906539917,0.1592250019311905,1.0694749355316162
1749987943769829400,3.204829345703125,1.6416125297546387,0.04743750020861626,0.9480624794960022
1749987943779843000,3.214843017578125,1.786537528038025,-0.11343749612569809,0.8670749664306641
1749987943789857000,3.22485693359375,1.8567999601364136,-0.32752498984336853,0.8436999917030334
1749987943799870700,3.23487060546875,1.914412498474121,-0.6045874953269958,0.7221499681472778
1749987943809884700,3.244884765625,1.9569000005722046,-0.7143124938011169,0.37070000171661377
1749987943819898000,3.254898193359375,1.6916625499725342,-0.4883999824523926,0.1106875017285347
1749987943829912000,3.264912109375,1.1708124876022339,-0.5640249848365784,0.2737624943256378
1749987943839925800,3.27492578125,0.5465624928474426,-1.0700249671936035,0.598675012588501
1749987943849939700,3.284939697265625,-0.08084999769926071,-1.7474875450134277,0.7766000032424927
1749987943859953400,3.294953369140625,-0.6113250255584717,-2.612499952316284,0.6754000186920166
1749987943869967000,3.304967041015625,-0.9054374694824219,-3.177074909210205,0.04895000159740448
1749987943879981000,3.31498095703125,-0.6135249733924866,-3.4530375003814697,-0.6956124901771545
1749987943889994800,3.324994873046875,-0.17682500183582306,-3.01523756980896,-1.1046749353408813
1749987943900008400,3.335008544921875,0.06393750011920929,-2.042562484741211,-1.0386749505996704
1749987943910022400,3.3450224609375,0.19827499985694885,-1.4227124452590942,-0.7660124897956848
1749987943920036000,3.3550361328125,0.27486249804496765,-1.2661000490188599,-0.6040375232696533
1749987943930049800,3.3650498046875,0.2685374915599823,-1.5078250169754028,-0.3782624900341034
1749987943940063700,3.375063720703125,0.12361250072717667,-1.551550030708313,-0.16197499632835388
1749987943950077400,3.385077392578125,-0.23430000245571136,-0.7078499794006348,0.03189999982714653
1749987943960091100,3.395091064453125,-0.7519875168800354,0.7462124824523926,0.2513499855995178
1749987943970104800,3.405104736328125,-1.0374374389648438,1.616587519645691,0.5176874995231628
1749987943980118800,3.415118896484375,-0.9447624683380127,1.9915499687194824,0.8735374808311462
1749987943990132500,3.425132568359375,-0.7062000036239624,2.2951500415802,1.197350025177002
1749987944000146400,3.435146484375,-0.43779999017715454,2.257887601852417,1.2324124574661255
1749987944010160000,3.44516015625,-0.1288374960422516,1.9617124795913696,1.1015125513076782
1749987944030187800,3.465187744140625,0.4357374906539917,1.2373625040054321,0.9213874936103821
1749987944040201500,3.475201416015625,0.7159624695777893,0.8303624987602234,0.8073999881744385
1749987944050215400,3.48521533203125,0.9704750180244446,0.8399875164031982,0.5475249886512756
1749987944060229000,3.49522900390625,1.0781375169754028,0.8815125226974487,0.39311251044273376
1749987944070243000,3.5052431640625,0.8757374882698059,0.8357250094413757,0.3590124845504761
1749987944080256800,3.5152568359375,0.6168249845504761,0.7504749894142151,0.23856249451637268
1749987944090270500,3.5252705078125,0.5018749833106995,0.612012505531311,0.05431250110268593
1749987944100284200,3.5352841796875,0.49857500195503235,0.45333749055862427,-0.09171249717473984
1749987944110298000,3.545298095703125,0.5284125208854675,0.34677499532699585,-0.14066250622272491
1749987944120311800,3.555311767578125,0.5230500102043152,0.2924624979496002,-0.1214125007390976
1749987944130325500,3.565325439453125,0.38788750767707825,0.35530000925064087,-0.08318749815225601
1749987944140339500,3.57533935546875,0.08855000138282776,0.6140750050544739,-0.10862500220537186
1749987944150353200,3.585353271484375,-0.4025999903678894,1.027400016784668,-0.3143250048160553
1749987944160367000,3.5953671875,-0.9447624683380127,1.2692625522613525,-0.5966125130653381
1749987944170380500,3.605380615234375,-1.3261874914169312,1.227737545967102,-0.8118000030517578
1749987944180394500,3.61539453125,-1.523224949836731,1.2149499654769897,-0.9897249937057495
1749987944190408400,3.625408447265625,-1.649999976158142,1.2714624404907227,-1.1697125434875488
1749987944200422100,3.635422119140625,-1.805512547492981,1.2405250072479248,-1.3198624849319458
1749987944210435800,3.645435791015625,-2.0356874465942383,1.1350624561309814,-1.4690500497817993
1749987944220449800,3.65544970703125,-2.2625625133514404,1.0125499963760376,-1.6266249418258667
1749987944230463500,3.66546337890625,-2.4351248741149902,0.7739874720573425,-1.7587624788284302
1749987944240477200,3.675477294921875,-2.5480124950408936,0.35103750228881836,-1.8088124990463257
1749987944250491000,3.685490966796875,-2.5650625228881836,-0.030387500301003456,-1.712975025177002
1749987944260504600,3.695504638671875,-2.5139124393463135,-0.4329875111579895,-1.4605250358581543
1749987944270518500,3.7055185546875,-2.388237476348877,-0.4585624933242798,-1.181399941444397
1749987944280532200,3.7155322265625,-2.0835375785827637,-0.12196250259876251,-0.7915874719619751
1749987944290546200,3.725546142578125,-1.6542625427246094,0.6791124939918518,-0.41442498564720154
1749987944300560000,3.735559814453125,-1.181262493133545,1.7698999643325806,0.023375000804662704
1749987944310573800,3.74557373046875,-0.6806250214576721,2.4463999271392822,0.5486249923706055
1749987944320587500,3.75558740234375,-0.18205000460147858,2.389887571334839,1.0822625160217285
1749987944330601200,3.765601318359375,0.20996250212192535,1.8881499767303467,1.4455374479293823
1749987944340615200,3.775615234375,0.4101625084877014,1.284250020980835,1.4594249725341797
1749987944350628900,3.78562890625,0.41126251220703125,0.8260999917984009,1.2101374864578247
1749987944360642800,3.795642822265625,0.3143250048160553,0.6791124939918518,0.8744999766349792
1749987944370656500,3.805656494140625,0.25148749351501465,0.7334250211715698,0.6370375156402588
1749987944380670500,3.81567041015625,0.2961750030517578,0.9145125150680542,0.570900022983551
1749987944390684200,3.82568408203125,0.4772624969482422,1.2479499578475952,0.6507874727249146
1749987944400697900,3.83569775390625,0.8405374884605408,1.462037444114685,0.7391999959945679
1749987944410711800,3.8457119140625,1.2868624925613403,1.3096874952316284,0.7306749820709229
1749987944420725500,3.8557255859375,1.7524374723434448,0.8399875164031982,0.6061000227928162
1749987944430739200,3.8657392578125,2.111449956893921,0.41813749074935913,0.340862512588501
1749987944440753200,3.875753173828125,2.2637999057769775,0.18479999899864197,0.15867500007152557
1749987944450766800,3.885766845703125,2.2265374660491943,0.2125750035047531,0.2928749918937683
1749987944460780800,3.89578076171875,2.145550012588501,0.22536249458789825,0.3429250121116638
1749987944470794200,3.905794189453125,2.236025094985962,-0.6726499795913696,0.15757499635219574
1749987944480808200,3.91580810546875,2.4000625610351562,-2.175800085067749,-0.15771250426769257
1749987944490822000,3.92582177734375,2.4608376026153564,-3.4467124938964844,-0.44852501153945923
1749987944500835800,3.9358359375,2.476787567138672,-4.034662246704102,-0.6733375191688538
1749987944510849300,3.945849365234375,2.3926374912261963,-3.9664623737335205,-0.7137625217437744
1749987944520863200,3.95586328125,2.1476125717163086,-3.3965249061584473,-0.38885000348091125
1749987944530877000,3.965876953125,1.7928625345230103,-2.3887875080108643,0.3227125108242035
1749987944540890600,3.975890625,1.4264249801635742,-1.1734249591827393,1.041837453842163
1749987944550904600,3.985904541015625,1.106874942779541,-0.46598750352859497,1.298550009727478
1749987944560918300,3.995918212890625,0.8086374998092651,-1.085012435913086,0.9799624681472778
1749987944570932000,4.005931884765625,0.6201249957084656,-1.8722000122070312,0.26633748412132263
1749987944580946000,4.01594580078125,0.634975016117096,-1.545087456703186,-0.24502499401569366
1749987944590959600,4.025959716796875,0.7500625252723694,-0.935824990272522,-0.045787498354911804
1749987944600973300,4.035973388671875,0.9662125110626221,0.14973749220371246,0.5293750166893005
1749987944610987000,4.045987060546875,1.1847000122070312,1.0648000240325928,1.0119999647140503
1749987944621000700,4.056000732421875,1.3231624364852905,1.3480499982833862,1.291124939918518
1749987944631014700,4.0660146484375,1.4306875467300415,1.4961374998092651,1.2229249477386475
1749987944641028400,4.0760283203125,1.4584624767303467,1.4673999547958374,1.0162625312805176
1749987944651042300,4.086042236328125,1.2698124647140503,0.15399999916553497,0.5592125058174133
1749987944661055700,4.0960556640625,0.9300500154495239,-0.97308748960495,0.2194499969482422
1749987944671069700,4.106069580078125,0.29301249980926514,-0.5193374752998352,-0.16830000281333923
1749987944681083600,4.116083740234375,-0.25341248512268066,0.035750001668930054,-0.44206249713897705
1749987944691097300,4.126097412109375,-0.32807499170303345,-0.13901250064373016,-0.5389999747276306
1749987944701110800,4.13611083984375,0.04908749833703041,-0.5927624702453613,-0.4857875108718872
1749987944711124700,4.146124755859375,0.5028374791145325,-0.8857749700546265,-0.4974749982357025
1749987944721138700,4.156138671875,0.8970500230789185,-1.027400016784668,-0.5219500064849854
1749987944731152400,4.16615234375,1.206012487411499,-1.1530749797821045,-0.4815250039100647
1749987944741166300,4.176166259765625,1.398787498474121,-1.2820500135421753,-0.340862512588501
1749987944751179800,4.1861796875,1.4957250356674194,-1.2713249921798706,-0.12251249700784683
1749987944761193700,4.19619384765625,1.5255625247955322,-1.0412875413894653,0.1714625060558319
1749987944771207400,4.20620751953125,1.4690500497817993,-0.5693874955177307,0.5273125171661377
1749987944781221400,4.216221435546875,1.2666499614715576,0.13791249692440033,0.8744999766349792
1749987944791235000,4.226235107421875,0.8575875163078308,1.100962519645691,1.098212480545044
1749987944801249000,4.2362490234375,0.20569999516010284,2.161912441253662,1.0683749914169312
1749987944811262500,4.246262451171875,-0.6624749898910522,2.6636500358581543,0.7178875207901001
1749987944821276400,4.2562763671875,-1.6627874374389648,2.4314124584198,0.13420000672340393
1749987944831290000,4.2662900390625,-2.5161125659942627,1.98618745803833,-0.5432624816894531
1749987944841303800,4.2763037109375,-2.93892502784729,1.633637547492981,-1.1100374460220337
1749987944851317500,4.2863173828125,-3.1008999347686768,1.2362624406814575,-1.464787483215332
1749987944861331200,4.296331298828125,-3.1370625495910645,0.898562490940094,-1.622362494468689
1749987944871345200,4.30634521484375,-3.0401248931884766,0.6961625218391418,-1.7001874446868896
1749987944881358800,4.31635888671875,-2.8569750785827637,0.36162498593330383,-1.7672874927520752
1749987944891372500,4.32637255859375,-2.6577374935150146,-0.037812501192092896,-1.756700038909912
1749987944901386500,4.336386474609375,-2.4479124546051025,-0.24227499961853027,-1.6139750480651855
1749987944911400000,4.34639990234375,-2.249774932861328,-0.13048750162124634,-1.373212456703186
1749987944921414100,4.3564140625,-2.0664875507354736,0.02502499893307686,-1.0813000202178955
1749987944931427600,4.366427490234375,-1.9100124835968018,-0.01223750039935112,-0.720087468624115
1749987944941441500,4.376441650390625,-1.772512435913086,-0.25189998745918274,-0.2770625054836273
1749987944951455000,4.386455078125,-1.7181999683380127,-0.30524998903274536,0.12457499653100967
1749987944961469000,4.396468994140625,-1.7213624715805054,0.3041499853134155,0.28228750824928284
1749987944971482600,4.406482666015625,-1.7287875413894653,1.1413874626159668,0.49953749775886536
1749987944981496300,4.416496337890625,-1.740612506866455,1.7241125106811523,0.8670749664306641
1749987944991510300,4.42651025390625,-1.713937520980835,1.8583124876022339,1.2324124574661255
1749987945001524000,4.43652392578125,-1.4805999994277954,1.7698999643325806,1.6286875009536743
1749987945011537700,4.44653759765625,-0.7966749668121338,1.717787504196167,2.025099992752075
1749987945021551400,4.45655126953125,0.56045001745224,1.4045624732971191,2.2434499263763428
1749987945031565300,4.4665654296875,2.4395248889923096,0.420199990272522,2.022900104522705
1749987945041579000,4.4765791015625,3.075462579727173,-0.12306249886751175,1.5723124742507935
1749987945051592700,4.4865927734375,3.191649913787842,-1.0029250383377075,0.6572499871253967
1749987945061606700,4.496606689453125,3.1447625160217285,-2.01286244392395,-0.3834874927997589
1749987945071620400,4.506620361328125,3.014824867248535,-2.876775026321411,-1.1495000123977661
1749987945081634000,4.516634033203125,2.885849952697754,-3.4541375637054443,-1.446637511253357
1749987945091647700,4.526647705078125,2.719749927520752,-3.609649896621704,-1.3954875469207764
1749987945101661700,4.53666162109375,2.457674980163574,-3.380574941635132,-1.0525624752044678
1749987945111675400,4.54667529296875,2.080512523651123,-3.1036500930786133,-0.45058751106262207
1749987945121689000,4.556689208984375,1.712975025177002,-3.128124952316284,0.10752499848604202
1749987945131702800,4.566702880859375,1.4499374628067017,-3.393362522125244,0.4047999978065491
1749987945141716700,4.576716796875,1.3092750310897827,-3.6949000358581543,0.3973749876022339
1749987945151730400,4.58673046875,1.2560625076293945,-3.5670249462127686,0.2055625021457672
1749987945161744100,4.596744140625,1.198449969291687,-2.7935874462127686,0.04688749834895134
1749987945171757800,4.6067578125,1.0067750215530396,-1.6708999872207642,0.10546249896287918
1749987945181771500,4.616771484375,0.645562469959259,-0.4894999861717224,0.39943748712539673
1749987945191785500,4.626785400390625,0.39214998483657837,-0.3254624903202057,0.49953749775886536
1749987945201799200,4.636799072265625,0.3291749954223633,-0.147537499666214,0.27486249804496765
1749987945211812900,4.646812744140625,0.3452624976634979,0.5651249885559082,0.006324999965727329
1749987945221826800,4.656826904296875,0.4049375057220459,0.7717875242233276,-0.22055000066757202
1749987945231840500,4.666840576171875,0.514662504196167,-0.29878750443458557,-0.06393750011920929
1749987945241854200,4.676854248046875,0.5912500023841858,-1.3565750122070312,0.4366999864578247
1749987945251868000,4.686867919921875,0.5945500135421753,-1.2479499578475952,0.8852249979972839
1749987945261881900,4.6968818359375,0.681862473487854,-0.08470000326633453,1.3795374631881714
1749987945271895600,4.7068955078125,0.9044749736785889,1.3545124530792236,2.0186374187469482
1749987945281909200,4.7169091796875,1.0579249858856201,1.645324945449829,2.178412437438965
1749987945291923200,4.726923095703125,0.6520249843597412,0.8101499676704407,1.8247624635696411
1749987945301937000,4.73693701171875,-0.2769249975681305,-0.12086249887943268,0.7467625141143799
1749987945311950600,4.74695068359375,-0.7584499716758728,-1.3150500059127808,-0.5582500100135803
1749987945321964300,4.75696435546875,-0.6954749822616577,-2.451624870300293,-1.4062124490737915
1749987945331978200,4.766978271484375,-0.40039998292922974,-2.884200096130371,-1.7417124509811401
1749987945341992000,4.776991943359375,-0.06710000336170197,-2.589124917984009,-1.778975009918213
1749987945352005600,4.787005615234375,0.2387000024318695,-1.9967750310897827,-1.6512374877929688
1749987945362019600,4.79701953125,0.43367499113082886,-1.5078250169754028,-1.4232624769210815
1749987945372033000,4.807032958984375,0.4996750056743622,-1.2075250148773193,-1.114300012588501
1749987945382047000,4.817046875,0.49857500195503235,-1.019974946975708,-0.7510250210762024
1749987945392060700,4.827060791015625,0.49761250615119934,-0.8516749739646912,-0.28022500872612
1749987945402074600,4.83707470703125,0.5315750241279602,-0.5161749720573425,0.33550000190734863
1749987945412088000,4.847088134765625,0.5860249996185303,0.22110000252723694,1.042799949645996
1749987945422102000,4.85710205078125,0.47946250438690186,1.8327374458312988,1.69798743724823
1749987945432115700,4.86711572265625,-0.020212499424815178,4.462975025177002,1.9589624404907227
1749987945442129700,4.877129638671875,-0.9171249866485596,5.464250087738037,1.4051125049591064
1749987945452143000,4.88714306640625,-1.888700008392334,3.8355624675750732,0.1331000030040741
1749987945462157000,4.897156982421875,-2.5522749423980713,1.8497874736785889,-1.2677500247955322
1749987945472170800,4.907170654296875,-2.8026623725891113,0.9997624754905701,-2.148712396621704
1749987945482184400,4.917184326171875,-2.7909750938415527,0.5673249959945679,-2.516249895095825
1749987945492198100,4.9271982421875,-2.570425033569336,0.4096125066280365,-2.4906749725341797
1749987945502211800,4.9372119140625,-2.181575059890747,0.23594999313354492,-2.2423501014709473
1749987945512225800,4.947225830078125,-1.8375500440597534,-0.15070000290870667,-1.979312539100647
1749987945522239500,4.957239501953125,-1.6084749698638916,-0.5310249924659729,-1.7428125143051147
1749987945532253200,4.967253173828125,-1.4816999435424805,-0.22426250576972961,-1.4625874757766724
1749987945552280600,4.987280517578125,-1.4220249652862549,0.7536374926567078,-0.7936499714851379
1749987945562294500,4.99729443359375,-1.4379750490188599,0.8016250133514404,-0.3910500109195709
1749987945572308200,5.00730810546875,-1.4529625177383423,0.7398874759674072,0.09377499669790268
1749987945582322000,5.017322021484375,-1.4774374961853027,0.6705874800682068,0.5592125058174133
1749987945592335600,5.027335693359375,-1.4177625179290771,0.8729875087738037,0.7723374962806702
1749987945602349600,5.037349609375,-1.1780999898910522,1.3565750122070312,0.7638124823570251
1749987945612363300,5.04736328125,-0.8969125151634216,1.6484874486923218,0.8905875086784363
1749987945622377000,5.057376953125,-0.4217124879360199,1.434399962425232,1.1780999898910522
1749987945632391000,5.067390869140625,0.4208875000476837,0.6961625218391418,1.5083750486373901
1749987945642404400,5.077404296875,1.4169374704360962,-0.02928750030696392,1.7426749467849731
1749987945652418300,5.087418212890625,2.2254374027252197,-0.3712500035762787,1.5626875162124634
1749987945662432000,5.097431884765625,2.7240123748779297,-0.927299976348877,0.9150624871253967
1749987945672445700,5.10744580078125,2.910325050354004,-1.73580002784729,0.1714625060558319
1749987945682459400,5.11745947265625,2.8869500160217285,-2.5390748977661133,-0.38885000348091125
1749987945692473000,5.12747314453125,2.7505500316619873,-3.142012596130371,-0.7126625180244446
1749987945702486800,5.13748681640625,2.5225749015808105,-3.49676251411438,-0.7489625215530396
1749987945712500700,5.147500732421875,2.196700096130371,-3.702324867248535,-0.49431249499320984
1749987945722514400,5.157514404296875,1.7672874927520752,-3.8322625160217285,-0.05431250110268593
1749987945732528000,5.167528076171875,1.2762750387191772,-3.8354249000549316,0.3834874927997589
1749987945742541800,5.177541748046875,0.8725749850273132,-3.7864749431610107,0.7797625064849854
1749987945752555500,5.187555419921875,0.5966125130653381,-3.424299955368042,0.9235875010490417
1749987945762569200,5.1975693359375,0.45925000309944153,-2.00323748588562,0.9139624834060669
1749987945772583200,5.207583251953125,0.3643749952316284,-1.792312502861023,0.19813749194145203
1749987945782596900,5.217596923828125,0.2994749844074249,-2.688124895095825,-0.8703749775886536
1749987945792610600,5.227610595703125,0.26001250743865967,-3.104749917984009,-1.2027125358581543
1749987945802624300,5.237624267578125,0.22055000066757202,-3.596862554550171,-0.524150013923645
1749987945812638000,5.247637939453125,0.14602500200271606,-3.4476749897003174,-0.27059999108314514
1749987945822652000,5.25765185546875,0.004399999976158142,-2.760587453842163,-0.5678749680519104
1749987945832665300,5.267665283203125,-0.32807499170303345,-2.4048750400543213,-0.3398999869823456
1749987945842679300,5.27767919921875,-0.7221499681472778,-1.8796249628067017,0.09803749620914459
1749987945852693000,5.28769287109375,-0.8179875016212463,-0.6098124980926514,1.0034749507904053
1749987945862706700,5.297706787109375,-0.3727625012397766,1.3991999626159668,1.9791749715805054
1749987945872720400,5.307720458984375,0.3324750065803528,2.9129374027252197,2.5522749423980713
1749987945882734300,5.317734375,0.6605499982833862,2.9683499336242676,2.638624906539917
1749987945892748000,5.327748046875,0.5955125093460083,1.7741625308990479,2.295562505722046
1749987945902761700,5.33776171875,0.39214998483657837,0.2956250011920929,1.4348125457763672
1749987945912775400,5.347775390625,0.3419624865055084,-0.5193374752998352,-0.027775000780820847
1749987945922789000,5.3577890625,0.6051374673843384,-1.0316624641418457,-1.324125051498413
1749987945932803000,5.367802978515625,0.9470999836921692,-1.7252124547958374,-1.8163750171661377
1749987945942816500,5.37781640625,1.2038124799728394,-2.1502249240875244,-1.6757124662399292
1749987945952830500,5.38783056640625,1.3209625482559204,-1.9287124872207642,-1.1760375499725342
1749987945962844200,5.39784423828125,1.3860000371932983,-1.1829124689102173,-0.5730999708175659
1749987945972857900,5.40785791015625,1.4860999584197998,-0.22206249833106995,0.025575000792741776
1749987945982871800,5.417871826171875,1.5702500343322754,0.6439124941825867,0.5964750051498413
1749987945992885500,5.427885498046875,1.4786750078201294,1.4375624656677246,1.0045750141143799
1749987946002899200,5.437899169921875,1.0525624752044678,2.5720748901367188,0.7775624990463257
1749987946012913000,5.447912841796875,0.24928750097751617,3.063225030899048,-0.3217499852180481
1749987946022926800,5.4579267578125,-0.6402000188827515,1.7902499437332153,-1.6011874675750732
1749987946032940300,5.467940185546875,-1.3304499387741089,0.2998875081539154,-2.5587375164031982
1749987946042954200,5.477954345703125,-1.847037434577942,-0.3755125105381012,-3.115887403488159
1749987946052968200,5.48796826171875,-2.254037380218506,-0.6364874839782715,-3.2746999263763428
1749987946062981600,5.497981689453125,-2.543750047683716,-1.0210750102996826,-3.2960124015808105
1749987946072995600,5.50799560546875,-2.7962000370025635,-1.469462513923645,-3.229875087738037
1749987946083009000,5.518009033203125,-3.0156500339508057,-1.7252124547958374,-3.006162405014038
1749987946093023000,5.52802294921875,-3.1073625087738037,-1.5834499597549438,-2.676024913787842
1749987946103036700,5.53803662109375,-3.2042999267578125,-1.0401874780654907,-2.582249879837036
1749987946113050600,5.548050537109375,-3.2841875553131104,-0.9198749661445618,-2.6461875438690186
1749987946123064300,5.558064208984375,-3.3331375122070312,-1.1754875183105469,-2.538525104522705
1749987946133078000,5.568078125,-3.44712495803833,-1.1552749872207642,-2.2999625205993652
1749987946143091700,5.578091796875,-3.5792624950408936,-0.7397499680519104,-1.9036874771118164
1749987946153105400,5.58810546875,-3.6719374656677246,-0.1518000066280365,-1.280537486076355
1749987946163119000,5.598119140625,-3.5824248790740967,0.31693750619888306,-0.5784624814987183
1749987946173133000,5.608133056640625,-3.18931245803833,0.5917999744415283,0.10436250269412994
1749987946183146800,5.618146728515625,-2.4723875522613525,0.7195374965667725,0.7605124711990356
1749987946193160400,5.628160400390625,-1.5723124742507935,0.7867749929428101,1.4370124340057373
1749987946203174100,5.638174072265625,-0.8724374771118164,0.7398874759674072,2.198625087738037
1749987946213187800,5.648187744140625,-0.5197499990463257,0.5000874996185303,2.985949993133545
1749987946223201800,5.658201904296875,-0.4366999864578247,0.16885000467300415,3.663412570953369
1749987946233215200,5.66821533203125,-0.6018375158309937,0.2433750033378601,4.104374885559082
1749987946243229200,5.678229248046875,-0.950124979019165,0.9294999837875366,3.8828625679016113
1749987946253242600,5.68824267578125,-1.1514250040054321,0.5608624815940857,2.951849937438965
1749987946263256300,5.69825634765625,-0.9981124997138977,-1.1169124841690063,1.8673875331878662
1749987946273270300,5.708270263671875,-0.5868499875068665,-2.991724967956543,0.8436999917030334
1749987946283284000,5.718283935546875,-0.18108749389648438,-4.321212291717529,0.03189999982714653
1749987946293297700,5.728297607421875,0.07150000333786011,-4.924149990081787,-0.48372501134872437
1749987946303311400,5.738311279296875,0.22481249272823334,-5.024250030517578,-0.7436000108718872
1749987946313325000,5.748324951171875,0.3441624939441681,-4.882625102996826,-0.8436999917030334
1749987946323338800,5.7583388671875,0.43793749809265137,-4.566237449645996,-0.856487512588501
1749987946333352700,5.768352783203125,0.5103999972343445,-4.1167497634887695,-0.8064374923706055
1749987946343366400,5.778366455078125,0.5081999897956848,-3.569087505340576,-0.7126625180244446
1749987946353380000,5.788380126953125,0.45925000309944153,-3.0376498699188232,-0.5869874954223633
1749987946363393800,5.798393798828125,0.45278748869895935,-2.594487428665161,-0.44536250829696655
1749987946373407500,5.808407470703125,0.5273125171661377,-2.2875874042510986,-0.3143250048160553
1749987946383421200,5.818421142578125,0.6637125015258789,-2.131112575531006,-0.1938749998807907
1749987946393435000,5.828434814453125,0.8203250169754028,-2.0873875617980957,-0.07356250286102295
1749987946403448600,5.838448486328125,0.9641500115394592,-2.066075086593628,0.03506249934434891
1749987946413462300,5.848462158203125,1.0674124956130981,-1.968037486076355,0.11178749799728394
1749987946423476200,5.858476318359375,1.121862530708313,-1.8156875371932983,0.18851250410079956
1749987946433490000,5.868489990234375,1.1026124954223633,-1.8295749425888062,0.3377000093460083
1749987946443503600,5.878503662109375,0.9183624982833862,-2.98856258392334,1.0588874816894531
1749987946453517300,5.888517333984375,0.8288499712944031,-6.8789873123168945,2.879387378692627
1749987946463531300,5.89853125,1.3220624923706055,-9.893674850463867,4.394225120544434
1749987946473544700,5.908544677734375,1.6267625093460083,-9.252374649047852,4.647775173187256
1749987946483558700,5.91855859375,0.9908249974250793,-3.444512367248535,3.278825044631958
1749987946493572000,5.928572021484375,0.2909500002861023,0.8889374732971191,2.0803749561309814
1749987946503586000,5.9385859375,-0.35887500643730164,2.7851998805999756,1.0247875452041626
1749987946513599700,5.948599853515625,-0.8798624873161316,3.5191750526428223,0.07562500238418579
1749987946523613400,5.958613525390625,-1.0172250270843506,3.25600004196167,-0.49431249499320984
1749987946533627100,5.968627197265625,-0.9149249792098999,2.327049970626831,-0.8160625100135803
1749987946543640800,5.978640869140625,-0.8606125116348267,1.9211499691009521,-1.0759375095367432
1749987946553654500,5.988654541015625,-0.74566251039505,1.7241125106811523,-1.1089375019073486
1749987946563668500,5.99866845703125,-0.44302499294281006,0.8218374848365784,-0.3260124921798706
1749987946573682000,6.008681884765625,0.13433749973773956,-0.5821750164031982,0.9884874820709229
1749987946583696000,6.01869580078125,0.9098374843597412,-1.1126500368118286,1.1473000049591064
1749987946593709300,6.028709228515625,1.5585625171661377,-1.6985374689102173,0.7936499714851379
1749987946603723300,6.03872314453125,2.1199750900268555,-2.881999969482422,0.7499250173568726
1749987946613737000,6.048737060546875,2.7462875843048096,-4.7718000411987305,2.0942625999450684
1749987946623750700,6.058750732421875,2.774062395095825,-5.624024868011475,3.6229875087738037
1749987946633764400,6.068764404296875,1.7726500034332275,-2.1778624057769775,3.0604748725891113
1749987946643778000,6.078778076171875,0.8544250130653381,1.4227124452590942,0.07672499865293503
1749987946653791700,6.088791748046875,0.1013374999165535,1.293737530708313,-1.9569000005722046
1749987946663805700,6.0988056640625,-0.5655375123023987,-0.1060125008225441,-2.356337547302246
1749987946673819400,6.1088193359375,-0.7925499677658081,-1.085012435913086,-2.0304625034332275
1749987946683833000,6.1188330078125,-0.7616124749183655,-1.469462513923645,-1.5947250127792358
1749987946693846800,6.1288466796875,-0.5219500064849854,-1.2735249996185303,-1.2474000453948975
1749987946703860500,6.138860595703125,-0.08084999769926071,-0.7260000109672546,-1.0364749431610107
1749987946713874200,6.148874267578125,0.3409999907016754,-0.4170374870300293,-0.9619500041007996
1749987946723887900,6.158887939453125,0.49857500195503235,-0.6876375079154968,-1.0386749505996704
1749987946733901600,6.168901611328125,0.3942124843597412,-1.3054250478744507,-1.122825026512146
1749987946743915300,6.178915283203125,0.19717499613761902,-2.01286244392395,-1.106874942779541
1749987946753929000,6.188928955078125,0.07039999961853027,-2.5251874923706055,-0.9619500041007996
1749987946763942700,6.198942626953125,0.07356250286102295,-2.7170000076293945,-0.7478625178337097
1749987946773956400,6.208956298828125,0.16197499632835388,-2.677537441253662,-0.5688375234603882
1749987946783970300,6.21897021484375,0.26317501068115234,-2.5146000385284424,-0.4516874849796295
1749987946793983700,6.228983642578125,0.32491248846054077,-2.347262382507324,-0.3867875039577484
1749987946803997700,6.238997802734375,0.33880001306533813,-2.2184250354766846,-0.3398999869823456
1749987946814011400,6.249011474609375,0.29411250352859497,-2.1885874271392822,-0.29727500677108765
1749987946824025000,6.259025146484375,0.2461249977350235,-2.3057374954223633,-0.2311374992132187
1749987946834038800,6.269038818359375,0.24296249449253082,-2.4644124507904053,-0.13750000298023224
1749987946844052500,6.279052490234375,0.3026374876499176,-2.623224973678589,-0.05004999786615372
1749987946854066200,6.289066162109375,0.38885000348091125,-2.7275874614715576,0.02227500081062317
1749987946864080100,6.299080078125,0.47093749046325684,-2.7691125869750977,0.09583749622106552
1749987946874093600,6.309093505859375,0.5252500176429749,-2.772274971008301,0.1821874976158142
1749987946884107300,6.319107177734375,0.552887499332428,-2.764849901199341,0.281187504529953
1749987946894121000,6.329120849609375,0.551925003528595,-2.750962495803833,0.36959999799728394
1749987946904134700,6.339134765625,0.5178250074386597,-2.7563250064849854,0.43779999017715454
1749987946914148400,6.3491484375,0.4857875108718872,-2.789324998855591,0.4974749982357025
1749987946924162000,6.359162109375,0.48688748478889465,-2.839512586593628,0.545324981212616
1749987946934175700,6.36917578125,0.5380374789237976,-2.9066123962402344,0.5879499912261963
1749987946944189400,6.379189453125,0.6232874989509583,-2.970412492752075,0.635937511920929
1749987946954203400,6.389203369140625,0.7222874760627747,-2.99818754196167,0.6924499869346619
1749987946964216800,6.399216796875,0.8032749891281128,-2.9822375774383545,0.7605124711990356
1749987946974230800,6.409230712890625,0.8522250056266785,-2.9140374660491943,0.8329749703407288
1749987946984244200,6.419244140625,0.8650124669075012,-2.7755749225616455,0.9065374732017517
1749987946994258200,6.429258056640625,0.8533250093460083,-2.5570874214172363,0.9853249788284302
1749987947004271600,6.439271728515625,0.8309124708175659,-2.2312123775482178,1.0705749988555908
1749987947014285600,6.44928564453125,0.7884249687194824,-1.734837532043457,1.1695749759674072
1749987947024299300,6.45929931640625,0.7052375078201294,-0.9602999687194824,1.2931874990463257
1749987947034313000,6.46931298828125,0.5817624926567078,0.11990000307559967,1.439074993133545
1749987947044326700,6.47932666015625,0.4474250078201294,1.5111249685287476,1.5509999990463257
1749987947054340400,6.48934033203125,0.26001250743865967,3.2751123905181885,1.4816999435424805
1749987947064354000,6.49935400390625,0.005362499970942736,5.0701751708984375,1.1195249557495117
1749987947074368000,6.509367919921875,-0.21931250393390656,6.170587539672852,0.5368000268936157
1749987947084381400,6.51938134765625,-0.1788875013589859,4.113587379455566,0.2087250053882599
1749987947094395100,6.52939501953125,-0.17352500557899475,1.5472874641418457,-0.4772624969482422
1749987947104409000,6.5394091796875,-0.21615000069141388,0.7024874687194824,-1.4275250434875488
1749987947114422800,6.5494228515625,-0.18535000085830688,1.0828125476837158,-2.1379873752593994
1749987947124436500,6.5594365234375,-0.1214125007390976,0.9560375213623047,-2.4501125812530518
1749987947134450200,6.5694501953125,-0.07562500238418579,0.20721249282360077,-2.367062568664551
1749987947144464000,6.5794638671875,-0.1970375031232834,-0.3392125070095062,-2.019737482070923
1749987947154477600,6.5894775390625,-0.5219500064849854,-0.28283751010894775,-1.6149375438690186
1749987947164491300,6.5994912109375,-1.066312551498413,0.26042500138282776,-1.290024995803833
1749987947174505000,6.6095048828125,-1.7628874778747559,0.9209749698638916,-1.1281875371932983
1749987947184518700,6.6195185546875,-2.515012502670288,1.0818500518798828,-1.181399941444397
1749987947194532400,6.629532470703125,-3.1253750324249268,0.6364874839782715,-1.363587498664856
1749987947204546000,6.639546142578125,-3.5003373622894287,0.03355000168085098,-1.604349970817566
1749987947214559700,6.649559814453125,-3.6899499893188477,-0.42336249351501465,-1.8738499879837036
1749987947224573400,6.659573486328125,-3.7666749954223633,-0.6385499835014343,-2.0933001041412354
1749987947234587100,6.669587158203125,-3.7560875415802,-0.6439124941825867,-2.2232375144958496
1749987947244600800,6.679600830078125,-3.609099864959717,-0.5054500102996826,-2.2328624725341797
1749987947254614500,6.689614501953125,-3.2808873653411865,-0.28283751010894775,-2.104987382888794
1749987947264628200,6.699628173828125,-2.766362428665161,0.05486249923706055,-1.8013875484466553
1749987947274642200,6.70964208984375,-2.16768741607666,0.48743748664855957,-1.3050124645233154
1749987947284655600,6.719655517578125,-1.7202625274658203,0.649275004863739,-0.8596500158309937
1749987947294669600,6.729669677734375,-1.558424949645996,0.594962477684021,-0.4357374906539917
1749987947304683000,6.73968310546875,-1.6031124591827393,0.43408748507499695,0.011687500402331352
1749987947314697000,6.749697021484375,-1.7437750101089478,0.16568750143051147,0.5410624742507935
1749987947324710400,6.75971044921875,-1.854599952697754,-0.29026249051094055,1.0748374462127686
1749987947334724400,6.769724365234375,-1.8598250150680542,-1.0210750102996826,1.4998500347137451
1749987947344737800,6.77973779296875,-1.805512547492981,-1.9168875217437744,1.7906625270843506
1749987947354751700,6.789751708984375,-1.6702125072479248,-2.8309874534606934,1.9461749792099
1749987947364765200,6.79976513671875,-1.4689124822616577,-3.626699924468994,2.0165750980377197
1749987947374779100,6.809779052734375,-1.263350009918213,-4.2146501541137695,2.005850076675415
1749987947384792600,6.81979248046875,-1.1621500253677368,-4.276525020599365,1.649037480354309
1749987947394806500,6.829806640625,-1.198312520980835,-3.717175006866455,0.8841249942779541
1749987947404820200,6.8398203125,-1.2761374711990356,-3.27305006980896,0.16830000281333923
1749987947414834000,6.849833984375,-1.2931874990463257,-3.322000026702881,-0.22481249272823334
1749987947424848000,6.859847900390625,-1.2142624855041504,-3.545712471008301,-0.37716248631477356
1749987947434861300,6.869861328125,-1.0374374389648438,-3.7204749584198,-0.38032498955726624
1749987947444875300,6.879875244140625,-0.8042374849319458,-3.774787425994873,-0.2780250012874603
1749987947454888700,6.889888671875,-0.5794249773025513,-3.6937999725341797,-0.0906125009059906
1749987947464902700,6.899902587890625,-0.3834874927997589,-3.562762498855591,0.09583749622106552
1749987947474916000,6.909916015625,-0.19167499244213104,-3.4296624660491943,0.22577500343322754
1749987947484930000,6.919929931640625,-0.005224999971687794,-3.22189998626709,0.33233749866485596
1749987947494943500,6.929943603515625,0.16733749210834503,-2.9618875980377197,0.4409624934196472
1749987947504957400,6.93995751953125,0.3623124957084656,-2.674375057220459,0.5581125020980835
1749987947514971000,6.949970947265625,0.5923500061035156,-2.375999927520752,0.7136250138282776
1749987947524984800,6.95998486328125,0.8075374960899353,-2.137437582015991,0.9065374732017517
1749987947534998300,6.969998291015625,0.9715750217437744,-2.0745999813079834,1.132312536239624
1749987947545012000,6.980011962890625,1.0855624675750732,-2.2301125526428223,1.4060750007629395
1749987947555025700,6.990025634765625,1.196387529373169,-2.5251874923706055,1.706512451171875
1749987947565039400,7.000039306640625,1.3476375341415405,-2.7179625034332275,1.9185374975204468
1749987947575053000,7.010052978515625,1.5159374475479126,-2.5146000385284424,1.8290250301361084
1749987947585066800,7.020066650390625,1.5691499710083008,-1.904099941253662,1.2399749755859375
1749987947595080400,7.03008056640625,1.3828375339508057,-1.387512445449829,0.5273125171661377
1749987947605094100,7.04009423828125,1.1941875219345093,-0.8463125228881836,0.20666250586509705
1749987947615107800,7.05010791015625,1.1665500402450562,-0.03355000168085098,0.3877499997615814
1749987947625121500,7.06012158203125,1.113337516784668,0.6674249768257141,0.7211874723434448
1749987947635135200,7.07013525390625,0.7904874682426453,0.6930000185966492,0.8883875012397766
1749987947645149000,7.08014892578125,0.22907499969005585,0.21463750302791595,0.94159996509552
1749987947655162600,7.09016259765625,-0.33660000562667847,-0.1742125004529953,1.0461000204086304
1749987947665176300,7.10017626953125,-0.6487249732017517,-0.30841249227523804,1.2462999820709229
1749987947675190000,7.11018994140625,-0.8520874977111816,-0.5245624780654907,1.5424749851226807
1749987947685203700,7.12020361328125,-0.9788625240325928,-0.9880750179290771,1.9142749309539795
1749987947695217400,7.130217529296875,-0.7541875243186951,-1.3406250476837158,2.2358875274658203
1749987947705231000,7.140231201171875,-0.1256749927997589,-1.192537546157837,2.2679250240325928
1749987947715244800,7.150244873046875,0.5625125169754028,-0.9688249826431274,2.0175375938415527
1749987947725258500,7.160258544921875,0.9811999797821045,-1.435362458229065,1.6340500116348267
1749987947735272200,7.170272216796875,1.056825041770935,-2.344099998474121,0.9022749662399292
1749987947745286000,7.180285888671875,0.9289500117301941,-2.8213624954223633,-0.3100624978542328
1749987947755299600,7.190299560546875,0.8703749775886536,-3.2122750282287598,-1.4530999660491943
1749987947765313300,7.200313232421875,0.7319124937057495,-3.138849973678589,-2.183774948120117
1749987947775327000,7.210326904296875,0.4538874924182892,-2.8276875019073486,-2.125200033187866
1749987947785340700,7.220340576171875,0.10339999943971634,-2.6391749382019043,-1.5978875160217285
1749987947795354400,7.230354248046875,-0.18851250410079956,-2.240837574005127,-1.2251249551773071
1749987947805368000,7.2403681640625,-0.2652375102043152,-1.5749249458312988,-1.0909249782562256
1749987947815381800,7.2503818359375,-0.17352500557899475,-0.8889374732971191,-0.9747374653816223
1749987947825395500,7.2603955078125,-0.02447500079870224,-0.42336249351501465,-0.7840250134468079
1749987947835409200,7.2704091796875,0.13007499277591705,-0.2689499855041504,-0.5571500062942505
1749987947845422800,7.2804228515625,0.20886249840259552,-0.26785001158714294,-0.39957499504089355
1749987947855436500,7.2904365234375,0.19607499241828918,-0.3936625123023987,-0.33660000562667847
1749987947865450200,7.3004501953125,0.16513749957084656,-0.6908000111579895,-0.2546499967575073
1749987947875464000,7.3104638671875,0.15138749778270721,-1.221274971961975,-0.05335000157356262
1749987947885477600,7.3204775390625,0.2611125111579895,-1.6974375247955322,0.2012999951839447
1749987947895491300,7.3304912109375,0.4081000089645386,-2.0543875694274902,0.3536500036716461
1749987947905505000,7.340505126953125,0.4218499958515167,-2.3387374877929688,0.4591124951839447
1749987947915518700,7.350518798828125,0.25148749351501465,-2.46771240234375,0.6242499947547913
1749987947925532400,7.360532470703125,0.02241249941289425,-2.4250874519348145,0.8744999766349792
1749987947935546000,7.370546142578125,-0.005224999971687794,-2.3941500186920166,1.2271875143051147
1749987947945559800,7.380559814453125,0.19827499985694885,-2.317425012588501,1.6286875009536743
1749987947955573500,7.390573486328125,0.478362500667572,-1.9563499689102173,2.044212579727173
1749987947965587200,7.400587158203125,0.7117000222206116,-0.869825005531311,2.4341623783111572
1749987947975600600,7.4106005859375,0.7638124823570251,1.468500018119812,2.201925039291382
1749987947985614600,7.420614501953125,0.5550875067710876,2.8586249351501465,1.1728750467300415
1749987947995628300,7.430628173828125,0.28558748960494995,2.333512544631958,0.21615000069141388
1749987948005642000,7.44064208984375,0.14066250622272491,1.0679625272750854,-0.5059999823570251
1749987948015655700,7.45065576171875,0.10876250267028809,0.020762499421834946,-1.0514625310897827
1749987948025669400,7.46066943359375,0.13103750348091125,-0.5864375233650208,-1.3422750234603882
1749987948035683000,7.47068310546875,0.19607499241828918,-0.853737473487854,-1.2826000452041626
1749987948045696800,7.48069677734375,0.28132501244544983,-0.824999988079071,-0.9459999799728394
1749987948055710500,7.49071044921875,0.32491248846054077,-0.4787749946117401,-0.5252500176429749
1749987948065724000,7.500723876953125,0.3345375061035156,0.06655000150203705,-0.1555124968290329
1749987948075737600,7.510737548828125,0.31968748569488525,0.6088500022888184,0.17036250233650208
1749987948085751300,7.520751220703125,0.27816250920295715,0.9934374690055847,0.5240125060081482
1749987948095765000,7.530764892578125,0.2162874937057495,1.1904749870300293,0.9640125036239624
1749987948105778700,7.54077880859375,0.14918750524520874,1.3971375226974487,1.4093749523162842
1749987948115792400,7.55079248046875,-0.04675000160932541,1.9361374378204346,1.3954875469207764
1749987948125806000,7.56080615234375,-0.4111250042915344,2.2493624687194824,0.8414999842643738
1749987948135819800,7.57081982421875,-0.7360374927520752,2.038437604904175,0.18535000085830688
1749987948145833500,7.58083349609375,-0.8318749666213989,1.610124945640564,-0.3984749913215637
1749987948155847200,7.59084716796875,-0.7669749855995178,1.4045624732971191,-0.8212875127792358
1749987948165860900,7.60086083984375,-0.6422625184059143,1.4130874872207642,-0.9246875047683716
1749987948175874600,7.61087451171875,-0.46970000863075256,1.4205124378204346,-0.7990124821662903
1749987948185888300,7.62088818359375,-0.30882498621940613,1.369362473487854,-0.6125624775886536
1749987948195902000,7.63090185546875,-0.2428250014781952,1.3906749486923218,-0.4846875071525574
1749987948205915600,7.64091552734375,-0.3823874890804291,1.6112250089645386,-0.5007749795913696
1749987948215929300,7.650929443359375,-0.7519875168800354,1.9606125354766846,-0.6733375191688538
1749987948225943000,7.660943115234375,-1.3315500020980835,2.3526248931884766,-1.1037124395370483
1749987948235956700,7.670956787109375,-1.9194999933242798,2.6658499240875244,-1.6831375360488892
1749987948245970400,7.680970458984375,-2.3264999389648438,2.688262462615967,-2.074049949645996
1749987948255983900,7.69098388671875,-2.553375005722046,2.4389750957489014,-2.0868375301361084
1749987948265997600,7.70099755859375,-2.7302000522613525,2.234375,-1.8121124505996704
1749987948276011300,7.71101123046875,-2.855875015258789,2.3568875789642334,-1.556362509727478
1749987948286025200,7.721025146484375,-2.869762420654297,2.547600030899048,-1.528725028038025
1749987948296039000,7.731038818359375,-2.7099874019622803,2.2951500415802,-1.6768125295639038
1749987948306052400,7.74105224609375,-2.2944624423980713,1.461074948310852,-1.8121124505996704
1749987948316066000,7.751066162109375,-1.7373124361038208,0.5000874996185303,-1.7183375358581543
1749987948326080000,7.761080078125,-1.2409374713897705,-0.13158750534057617,-1.382699966430664
1749987948336093400,7.771093505859375,-0.8276125192642212,-0.4170374870300293,-0.8650124669075012
1749987948346107100,7.781107177734375,-0.494174987077713,-0.4394499957561493,-0.15234999358654022
1749987948356120800,7.791120849609375,-0.2971374988555908,-0.12828749418258667,0.7275124788284302
1749987948366134500,7.801134521484375,-0.28325000405311584,0.5150749683380127,1.5626875162124634
1749987948376148200,7.811148193359375,-0.37386250495910645,1.2084875106811523,2.122037410736084
1749987948386162000,7.821161865234375,-0.48042500019073486,1.6506874561309814,2.153937578201294
1749987948396175600,7.831175537109375,-0.4899125099182129,1.461074948310852,1.621262550354004
1749987948406189300,7.841189208984375,-0.2854500114917755,0.6631624698638916,0.8181250095367432
1749987948416203000,7.851203125,0.10876250267028809,-0.21353749930858612,0.12677499651908875
1749987948426216700,7.861216796875,0.5741999745368958,-0.7814124822616577,-0.2162874937057495
1749987948436230100,7.871230224609375,0.9811999797821045,-1.0583374500274658,-0.26001250743865967
1749987948446244000,7.881244140625,1.3774750232696533,-1.360837459564209,-0.18535000085830688
1749987948456257500,7.891257568359375,1.7811750173568726,-1.7730624675750732,0.0031624999828636646
1749987948466271500,7.901271484375,2.1817123889923096,-2.2397375106811523,0.25671249628067017
1749987948476285000,7.911284912109375,2.55887508392334,-2.6956875324249268,0.4633750021457672
1749987948486299000,7.921298828125,2.876224994659424,-3.120699882507324,0.5464249849319458
1749987948496312600,7.9313125,3.0413625240325928,-3.473249912261963,0.5154874920845032
1749987948506326300,7.941326171875,3.032837390899658,-3.679912567138672,0.46117499470710754
1749987948516340000,7.951340087890625,2.9167873859405518,-3.700124979019165,0.4057624936103821
1749987948526353700,7.961353759765625,2.764437437057495,-3.555337429046631,0.34718748927116394
1749987948536367400,7.971367431640625,2.620612382888794,-3.2304248809814453,0.304562509059906
1749987948546381000,7.981381103515625,2.427837371826172,-2.643437385559082,0.3419624865055084
1749987948556394500,7.99139453125,2.184875011444092,-1.8264124393463135,0.4846875071525574
1749987948566408200,8.001408203125,1.8994250297546387,-0.9954999685287476,0.6657750010490417
1749987948576422000,8.011421875,1.4712499380111694,-0.3414124846458435,0.8692749738693237
1749987948586435600,8.021435546875,0.9737749695777893,0.08579999953508377,0.9970124959945679
1749987948596449300,8.03144921875,0.5869874954223633,0.2157374918460846,1.0961500406265259
1749987948606463000,8.041462890625,0.2578125,-0.7473124861717224,1.3890249729156494
1749987948616476700,8.0514765625,-0.258774995803833,-2.066075086593628,1.6755750179290771
1749987948626490400,8.061490478515625,-0.3312374949455261,-0.27211248874664307,1.0674124956130981
1749987948636504000,8.071504150390625,-0.2246749997138977,1.2362624406814575,-0.09913749992847443
1749987948646517800,8.081517822265624,-0.4259749948978424,0.4235000014305115,-1.0813000202178955
1749987948656531500,8.091531494140625,-0.6188874840736389,-1.0572375059127808,-1.8184374570846558
1749987948666545200,8.101545166015624,-0.5176874995231628,-2.353724956512451,-1.4147374629974365
1749987948676558600,8.11155859375,-0.5006374716758728,-1.01791250705719,0.31418749690055847
1749987948686572500,8.121572509765626,-0.9447624683380127,2.51666259765625,0.9469624757766724
1749987948696586000,8.1315859375,-1.3464000225067139,3.5499749183654785,1.116362452507019
1749987948706600000,8.141599853515626,-1.4966875314712524,2.6371123790740967,1.2707749605178833
1749987948716613400,8.15161328125,-1.3528624773025513,1.4279375076293945,0.9799624681472778
1749987948726627000,8.161626953125,-0.7732999920845032,0.2891624867916107,0.635937511920929
1749987948736640800,8.171640869140624,0.08635000139474869,-0.7942000031471252,0.4111250042915344
1749987948746654200,8.181654296875,0.8203250169754028,-1.376787543296814,0.23856249451637268
1749987948756668200,8.191668212890624,1.2623875141143799,-1.4759249687194824,0.13956250250339508
1749987948766681600,8.201681640625,1.364687442779541,-1.4205124378204346,0.057475000619888306
1749987948776695600,8.211695556640626,1.2347500324249268,-1.4077249765396118,0.04895000159740448
1749987948786709000,8.221708984375,1.0014125108718872,-1.21274995803833,0.13420000672340393
1749987948796723000,8.231722900390626,0.6722375154495239,-0.4351874887943268,0.1555124968290329
1749987948806736400,8.241736328125,0.1821874976158142,0.7089499831199646,-0.010724999941885471
1749987948816750300,8.251750244140625,-0.40796250104904175,1.4460874795913696,-0.2503874897956848
1749987948826763800,8.261763671875,-0.94159996509552,1.635699987411499,-0.43353748321533203
1749987948836777700,8.27177783203125,-1.3762375116348267,1.7305749654769897,-0.598675012588501
1749987948846791200,8.281791259765624,-1.7352499961853027,1.9381999969482422,-0.7106000185012817
1749987948856804900,8.291804931640625,-1.98027503490448,2.271637439727783,-0.7766000032424927
1749987948866818600,8.301818603515626,-2.122999906539917,2.577437400817871,-0.8916875123977661
1749987948876832300,8.311832275390625,-2.232724905014038,2.7691125869750977,-1.0685124397277832
1749987948886845700,8.321845703125,-2.3072500228881836,2.736112594604492,-1.2751749753952026
1749987948896859600,8.331859619140625,-2.2901999950408936,2.3931875228881836,-1.4977874755859375
1749987948906873000,8.341873046875,-2.1869375705718994,2.038437604904175,-1.623462438583374
1749987948916886800,8.35188671875,-2.0633249282836914,1.8647749423980713,-1.6607249975204468
1749987948926900500,8.361900390625,-1.9685875177383423,1.7806249856948853,-1.6863000392913818
1749987948936914200,8.3719140625,-1.890762448310852,1.4951750040054321,-1.788599967956543
1749987948946927900,8.381927978515625,-1.8214625120162964,0.9198749661445618,-1.9122124910354614
1749987948956941600,8.391941650390624,-1.7533999681472778,0.3073124885559082,-1.9239000082015991
1749987948966955000,8.401955078125,-1.647937536239624,-0.026124998927116394,-1.7161375284194946
1749987948976968700,8.41196875,-1.531749963760376,-0.0644875019788742,-1.299649953842163
1749987948986982400,8.421982421875,-1.44760000705719,0.14547500014305115,-0.764912486076355
1749987948996996000,8.43199609375,-1.338974952697754,0.5043500065803528,-0.19813749194145203
1749987949007009800,8.442009765625,-1.123787522315979,1.019974946975708,0.3770250082015991
1749987949017023200,8.452023193359375,-0.6487249732017517,1.569700002670288,1.0461000204086304
1749987949027037200,8.462037109375,-0.1564749926328659,1.736899971961975,1.7331874370574951
1749987949037050600,8.472050537109375,0.2578125,1.819949984550476,2.2966625690460205
1749987949047064300,8.482064208984376,0.764912486076355,2.0011749267578125,2.669562578201294
1749987949057078000,8.492078125,1.363587498664856,1.6933125257492065,2.814349889755249
1749987949067091700,8.502091796875,2.0336248874664307,0.6012874841690063,2.6908750534057617
1749987949077105400,8.51210546875,2.664337396621704,-0.8815125226974487,2.2274999618530273
1749987949087119000,8.522119140625,3.1415998935699463,-2.100174903869629,1.308174967765808
1749987949097132800,8.5321328125,3.374799966812134,-2.7286875247955322,0.04358749836683273
1749987949107146200,8.542146240234375,3.4313125610351562,-2.9726123809814453,-1.0375750064849854
1749987949117160200,8.55216015625,3.335474967956543,-3.0749125480651855,-1.5520999431610107
1749987949127173600,8.562173583984375,3.060612440109253,-3.0172998905181885,-1.5105749368667603
1749987949137187300,8.572187255859374,2.7079250812530518,-2.9661500453948975,-1.1356124877929688
1749987949147201300,8.582201171875,2.2402875423431396,-2.9822375774383545,-0.5858874917030334
1749987949157214700,8.592214599609376,1.6703499555587769,-2.9097750186920166,-0.02447500079870224
1749987949167228400,8.602228515625,1.114300012588501,-2.6860625743865967,0.4483875036239624
1749987949177242000,8.6122421875,0.690387487411499,-2.399512529373169,0.8457624912261963
1749987949187255800,8.622255859375,0.4218499958515167,-2.1800625324249268,1.2132999897003174
1749987949197269500,8.63226953125,0.2162874937057495,-1.8977749347686768,1.4188624620437622
1749987949207283200,8.642283203125,-0.0009624999947845936,-1.6410624980926514,1.465749979019165
1749987949217297000,8.652296875,-0.21408750116825104,-1.8423625230789185,1.3762375116348267
1749987949227310600,8.662310546875,-0.11811249703168869,-0.9124500155448914,0.9437999725341797
1749987949237324300,8.67232421875,0.2227499932050705,1.4449875354766846,0.3590124845504761
1749987949247337700,8.682337646484376,0.31226250529289246,1.462037444114685,-0.33137500286102295
1749987949257351400,8.692351318359375,0.13007499277591705,-0.037812501192092896,-1.0653499364852905
1749987949267365000,8.702365234375,-0.009487500414252281,-1.6069624423980713,-1.1708124876022339
1749987949277378800,8.71237890625,0.24832500517368317,-2.4697749614715576,-0.2694999873638153
1749987949287392500,8.722392578125,0.9513624906539917,-1.1606374979019165,1.4935250282287598
1749987949297406200,8.73240625,0.6967124938964844,2.4932875633239746,1.9845374822616577
1749987949307420000,8.742419921875,-0.46970000863075256,3.8780500888824463,1.4040124416351318
1749987949317433600,8.75243359375,-1.2014750242233276,2.7073750495910645,0.9256500005722046
1749987949327447300,8.762447265625,-1.3154624700546265,1.276687502861023,0.38032498955726624
1749987949337461000,8.7724609375,-0.8542875051498413,0.5267624855041504,-0.0681999996304512
1749987949347474400,8.782474365234375,-0.15441249310970306,0.05376249924302101,-0.2546499967575073
1749987949357488400,8.79248828125,0.46351251006126404,-0.26688748598098755,-0.32381248474121094
1749987949367501800,8.802501708984375,0.9609875082969666,-0.5267624855041504,-0.303600013256073
1749987949377515500,8.812515625,1.2102749347686768,-0.8133124709129333,-0.21312500536441803
1749987949387529200,8.822529296875,1.0835000276565552,-1.120074987411499,-0.03519999980926514
1749987949397542700,8.832542724609375,0.6978124976158142,-0.8505749702453613,0.2172500044107437
1749987949407556400,8.842556396484374,0.12581250071525574,1.1691625118255615,0.18851250410079956
1749987949417570000,8.852570068359375,-0.5229125022888184,2.881037473678589,-0.11935000121593475
1749987949427583700,8.862583740234374,-1.124887466430664,2.852299928665161,-0.28984999656677246
1749987949437597400,8.872597412109375,-1.6361124515533447,2.5453999042510986,-0.4250124990940094
1749987949447611100,8.882611083984376,-1.95579993724823,2.530550003051758,-0.7669749855995178
1749987949457624800,8.892624755859375,-1.998425006866455,2.44103741645813,-1.0918874740600586
1749987949467638500,8.902638427734376,-1.8748124837875366,2.144862413406372,-1.346537470817566
1749987949477652000,8.91265185546875,-1.6957875490188599,1.819949984550476,-1.5702500343322754
1749987949487666000,8.922666015625,-1.4464999437332153,1.6805249452590942,-1.7353874444961548
1749987949497679400,8.932679443359374,-1.1536250114440918,1.4130874872207642,-1.963362455368042
1749987949507693000,8.942693115234375,-0.9063999652862549,0.779212474822998,-2.1689250469207764
1749987949517706800,8.952706787109374,-0.7892500162124634,0.1518000066280365,-2.2999625205993652
1749987949527720400,8.962720458984375,-0.8020374774932861,-0.0835999995470047,-2.3574373722076416
1749987949537734100,8.972734130859376,-0.9000750184059143,0.10711249709129333,-2.3542749881744385
1749987949547747600,8.98274755859375,-1.058750033378601,0.43408748507499695,-2.2988624572753906
1749987949557761300,8.99276123046875,-1.263350009918213,0.5332249999046326,-2.229562520980835
1749987949567775000,9.00277490234375,-1.4933874607086182,0.345674991607666,-2.109250068664551
1749987949577788700,9.01278857421875,-1.6169999837875366,0.01966249942779541,-1.8770124912261963
1749987949587802000,9.022802001953124,-1.6042125225067139,-0.33178749680519104,-1.5446749925613403
1749987949597816000,9.032816162109375,-1.4273874759674072,-0.6589000225067139,-1.122825026512146
1749987949607829500,9.04282958984375,-1.041700005531311,-0.853737473487854,-0.6796625256538391
1749987949617843500,9.052843505859375,-0.5026999711990356,-0.678012490272522,-0.340862512588501
1749987949627857000,9.06285693359375,0.20350000262260437,-0.08676250278949738,-0.04688749834895134
1749987949637870600,9.07287060546875,0.9087374806404114,0.6173750162124634,0.3770250082015991
1749987949647884300,9.08288427734375,1.216599941253662,1.0381250381469727,0.9895874857902527
1749987949657898000,9.09289794921875,1.231587529182434,0.7430499792098999,1.7480374574661255
1749987949667911700,9.10291162109375,1.4126750230789185,-0.058024998754262924,2.6439874172210693
1749987949677925000,9.112925048828124,1.82173752784729,-1.0594375133514404,3.6836249828338623
1749987949687938800,9.122938720703125,2.214712381362915,-1.6686999797821045,4.638149738311768
1749987949697952500,9.132952392578124,2.4501125812530518,-1.3193124532699585,4.94064998626709
1749987949707966200,9.14296630859375,2.547187566757202,-0.32120001316070557,3.8242874145507812
1749987949717980000,9.15297998046875,2.6322999000549316,0.10711249709129333,2.044212579727173
1749987949727993300,9.162993408203125,2.5429248809814453,-0.037812501192092896,0.7243499755859375
1749987949738007000,9.173007080078126,2.230799913406372,-0.7601000070571899,-0.05967500060796738
1749987949748020700,9.183020751953125,1.7417124509811401,-1.8913124799728394,-0.4357374906539917
1749987949758034400,9.193034423828125,1.1697125434875488,-2.8586249351501465,-0.5593500137329102
1749987949768048000,9.203048095703124,0.6179249882698059,-3.3550000190734863,-0.3877499997615814
1749987949778061800,9.213061767578125,0.2611125111579895,-3.3955624103546143,0.2246749997138977
1749987949788075300,9.2230751953125,-0.038224998861551285,-2.836212396621704,1.2665125131607056
1749987949798089200,9.233089111328125,-0.6806250214576721,-1.285212516784668,1.8396124839782715
1749987949808102700,9.2431025390625,-1.171774983406067,0.07727500051259995,1.1578874588012695
1749987949818116400,9.253116455078125,-1.1675125360488892,-0.13048750162124634,-0.13323749601840973
1749987949828130000,9.263130126953126,-0.9629124999046326,-1.1914374828338623,-0.7350749969482422
1749987949838143500,9.2731435546875,-0.6198499798774719,-1.4833500385284424,-0.7904874682426453
1749987949848157200,9.2831572265625,-0.002062499988824129,-0.19442500174045563,-0.9982500076293945
1749987949858171000,9.2931708984375,0.5380374789237976,0.6237000226974487,-0.9608500003814697
1749987949868184600,9.3031845703125,0.7756375074386597,0.5438125133514404,-0.8692749738693237
1749987949878198000,9.313197998046874,0.847962498664856,-0.16885000467300415,-0.7265499830245972
1749987949888212000,9.3232119140625,0.8234875202178955,-0.8346250057220459,-0.28022500872612
1749987949898225700,9.3332255859375,0.9428374767303467,-0.7004249691963196,0.24598750472068787
1749987949908239400,9.3432392578125,1.206012487411499,-0.04207500070333481,0.8991125226020813
1749987949918253000,9.353253173828126,1.1378124952316284,0.8431500196456909,1.5265250205993652
1749987949928266800,9.363266845703125,0.6434999704360962,1.4375624656677246,1.4998500347137451
1749987949938280200,9.3732802734375,-0.0009624999947845936,1.5419249534606934,1.2366750240325928
1749987949948294000,9.3832939453125,-0.44632500410079956,1.3374625444412231,1.0524250268936157
1749987949958307600,9.3933076171875,-0.5527499914169312,0.9838125109672546,0.8522250056266785
1749987949968321300,9.4033212890625,-0.3866499960422516,0.6396499872207642,0.5506874918937683
1749987949978334700,9.413334716796875,-0.1256749927997589,0.25519999861717224,0.20666250586509705
1749987949988348700,9.4233486328125,0.08635000139474869,-0.014299999922513962,-0.005362499970942736
1749987949998362000,9.433362060546875,0.03946249932050705,0.19442500174045563,-0.047987498342990875
1749987950008375800,9.443375732421876,-0.31308749318122864,0.9986624717712402,-0.02241249941289425
1749987950018389500,9.453389404296875,-0.8841249942779541,1.9617124795913696,-0.04372499883174896
1749987950028403200,9.4634033203125,-1.5445375442504883,2.4250874519348145,-0.16733749210834503
1749987950038416600,9.473416748046875,-2.1048500537872314,2.316462516784668,-0.40053749084472656
1749987950048430600,9.4834306640625,-2.524637460708618,2.1214873790740967,-0.5784624814987183
1749987950058444000,9.493444091796874,-2.718512535095215,2.289787530899048,-0.589187502861023
1749987950068458000,9.5034580078125,-2.621574878692627,2.1917500495910645,-0.5997750163078308
1749987950078471400,9.513471435546874,-2.3285624980926514,1.5057624578475952,-0.9013124704360962
1749987950088485000,9.523485107421875,-1.9311875104904175,0.7035874724388123,-1.4573625326156616
1749987950098498800,9.533498779296876,-1.5615874528884888,0.04427500069141388,-1.95579993724823
1749987950108512300,9.54351220703125,-1.2761374711990356,-0.4010874927043915,-2.1891374588012695
1749987950118526000,9.55352587890625,-1.0694749355316162,-0.6257625222206116,-2.2541749477386475
1749987950128539600,9.56353955078125,-0.940500020980835,-0.5501375198364258,-2.2328624725341797
1749987950138553300,9.57355322265625,-0.8841249942779541,-0.3073124885559082,-2.04325008392334
1749987950148567000,9.583567138671874,-0.9469624757766724,0.0016499999910593033,-1.6191999912261963
1749987950158580700,9.593580810546875,-1.0374374389648438,0.2050125002861023,-1.1995500326156616
1749987950168594200,9.60359423828125,-1.0183249711990356,0.22632500529289246,-0.9726749658584595
1749987950178607900,9.61360791015625,-0.9512249827384949,0.12732499837875366,-0.8607500195503235
1749987950188621600,9.62362158203125,-0.8904500007629395,0.020762499421834946,-0.7126625180244446
1749987950198635000,9.633635009765625,-0.7328749895095825,-0.0016499999910593033,-0.432574987411499
1749987950208649000,9.64364892578125,-0.296037495136261,0.18479999899864197,0.057475000619888306
1749987950218662400,9.653662353515625,0.3942124843597412,0.2870999872684479,0.6626124978065491
1749987950228676400,9.66367626953125,1.198449969291687,-0.045237500220537186,1.307075023651123
1749987950238689800,9.673689697265624,1.8376874923706055,-0.7706875205039978,1.9322874546051025
1749987950248703500,9.683703369140625,2.3607375621795654,-1.4407249689102173,2.4649624824523926
1749987950258717200,9.69371728515625,2.8187499046325684,-1.617550015449524,2.869762420654297
1749987950268730600,9.703730712890625,3.1255125999450684,-1.2916749715805054,2.7781875133514404
1749987950278744300,9.713744384765626,3.1382999420166016,-0.7738500237464905,1.8651875257492065
1749987950288758000,9.723758056640625,2.834699869155884,-0.927299976348877,0.9065374732017517
1749987950298771700,9.733771728515626,2.4054250717163086,-1.6740624904632568,0.4441249966621399
1749987950308785200,9.74378515625,1.9963624477386475,-2.4879250526428223,0.5197499990463257
1749987950318798800,9.753798828125,1.5884000062942505,-2.97371244430542,0.8607500195503235
1749987950328812500,9.7638125,1.1196625232696533,-3.052500009536743,1.1100374460220337
1749987950338826200,9.773826171875,0.7117000222206116,-2.860687494277954,1.2431374788284302
1749987950348840000,9.78383984375,0.31968748569488525,-2.333512544631958,1.2409374713897705
1749987950358853600,9.793853515625,-0.24062499403953552,-1.3246749639511108,1.041837453842163
1749987950368867000,9.8038671875,-1.0087000131607056,-0.5938624739646912,0.7349374890327454
1749987950378881000,9.813881103515625,-1.5871624946594238,-0.7845749855041504,-0.0031624999828636646
1749987950388894500,9.82389453125,-1.4370124340057373,-0.8175749778747559,-1.1461999416351318
1749987950398908200,9.833908203125,-0.8446624875068665,-0.31693750619888306,-1.9579999446868896
1749987950408921900,9.843921875,-0.41538751125335693,-0.14011250436306,-1.9867374897003174
1749987950418935600,9.853935546875,-0.32903748750686646,-0.6428124904632568,-1.314637541770935
1749987950428949200,9.86394921875,-0.14368750154972076,-0.7994250059127808,-0.727649986743927
1749987950438962700,9.873962646484374,-0.012649999931454659,-1.0008624792099,-0.5039374828338623
1749987950448976400,9.883976318359375,0.22907499969005585,-1.3821499347686768,-0.11715000122785568
1749987950458990000,9.893989990234376,1.0440374612808228,-1.801937460899353,1.3283874988555908
1749987950469003800,9.904003662109375,1.481837511062622,1.0785499811172485,1.9867374897003174
1749987950479017500,9.914017578125,1.1719125509262085,4.106024742126465,0.7052375078201294
1749987950489031000,9.924031005859375,0.5167250037193298,2.5794999599456787,-0.2535499930381775
1749987950499044600,9.934044677734375,0.006462499964982271,0.2529999911785126,-0.8095999956130981
1749987950509058300,9.944058349609374,0.030937500298023224,-0.8474124670028687,-1.3667500019073486
1749987950519072000,9.954072021484375,0.2110625058412552,-1.1701250076293945,-1.6202999353408813
1749987950529085700,9.964085693359374,0.32394999265670776,-1.0902374982833862,-1.3763749599456787
1749987950539099100,9.97409912109375,0.4666749835014343,-0.6300249695777893,-0.8309124708175659
1749987950549113000,9.984113037109376,0.5113624930381775,-0.10807500034570694,-0.3419624865055084
1749987950559126500,9.99412646484375,0.5007749795913696,0.11453749984502792,0.047849997878074646
1749987950569140500,10.004140380859376,0.4729999899864197,0.2529999911785126,0.33233749866485596
1749987950579154000,10.01415380859375,0.3910500109195709,0.5673249959945679,0.5273125171661377
1749987950589167600,10.024167724609375,0.23333749175071716,1.194737434387207,0.608162522315979
1749987950599181000,10.03418115234375,-0.026537500321865082,1.910562515258789,0.4846875071525574
1749987950609194800,10.04419482421875,-0.3482874929904938,2.4006125926971436,0.22687499225139618
1749987950619208400,10.05420849609375,-0.6422625184059143,2.5859625339508057,-0.027775000780820847
1749987950629222000,10.064221923828125,-0.8425999879837036,2.50181245803833,-0.35048750042915344
1749987950639235800,10.07423583984375,-0.9884874820709229,2.3792998790740967,-0.7052375078201294
1749987950649249300,10.084249267578125,-1.2196249961853027,2.4453001022338867,-0.9747374653816223
1749987950659263000,10.094262939453126,-1.5541625022888184,2.577437400817871,-1.1558250188827515
1749987950669276700,10.104276611328125,-1.871649980545044,2.5709750652313232,-1.30611252784729
1749987950679290400,10.114290283203125,-2.028125047683716,2.2801625728607178,-1.5020500421524048
1749987950689303800,10.1243037109375,-1.964324951171875,1.8167874813079834,-1.7491375207901
1749987950699317500,10.1343173828125,-1.7554625272750854,1.3704625368118286,-1.9111125469207764
1749987950709331200,10.144331298828124,-1.4976500272750854,1.0125499963760376,-1.9515374898910522
1749987950719344600,10.1543447265625,-1.1919875144958496,0.7271000146865845,-1.9281624555587769
1749987950729358600,10.164358642578126,-0.9128624796867371,0.45333749055862427,-1.915374994277954
1749987950739372000,10.1743720703125,-0.8051999807357788,0.17201249301433563,-1.7917624711990356
1749987950749385700,10.1843857421875,-0.893750011920929,-0.0611874982714653,-1.3710124492645264
1749987950759399400,10.1943994140625,-1.0939500331878662,-0.14959999918937683,-0.7499250173568726
1749987950769413000,10.2044130859375,-1.3028124570846558,-0.06228749826550484,-0.23966249823570251
1749987950779426600,10.214426513671874,-1.5019124746322632,0.11563749611377716,-0.012787500396370888
1749987950789440500,10.2244404296875,-1.6425750255584717,0.25189998745918274,0.025575000792741776
1749987950799454000,10.234453857421874,-1.647937536239624,0.4244624972343445,0.013749999925494194
1749987950809467600,10.244467529296875,-1.3879250288009644,0.8314625024795532,0.05211250111460686
1749987950819481300,10.2544814453125,-0.8265125155448914,1.1882749795913696,0.303600013256073
1749987950829494800,10.264494873046875,0.00013749999925494194,0.9997624754905701,0.7530875205993652
1749987950839508500,10.274508544921876,0.9800999760627747,0.23058749735355377,1.1280499696731567
1749987950849522200,10.284522216796875,1.7683874368667603,-1.001824975013733,1.4242249727249146
1749987950859536000,10.294535888671875,2.3255374431610107,-2.347262382507324,1.7511999607086182
1749987950869549300,10.30454931640625,2.7974374294281006,-3.748112440109253,2.2412500381469727
1749987950879563000,10.31456298828125,3.2352375984191895,-4.7473249435424805,2.886812448501587
1749987950889576700,10.32457666015625,3.4824624061584473,-3.448775053024292,2.7472500801086426
1749987950899590400,10.33459033203125,3.4760000705718994,-2.19284987449646,1.4838999509811401
1749987950909603800,10.344603759765626,3.080825090408325,-2.2471625804901123,0.2535499930381775
1749987950919617500,10.354617431640625,2.3755874633789062,-2.9800374507904053,-0.28654998540878296
1749987950929631000,10.364630859375,1.5520999431610107,-3.8780500888824463,-0.18328750133514404
1749987950939644700,10.374644775390625,1.005674958229065,-4.4479875564575195,0.32161250710487366
1749987950949658400,10.384658447265625,0.8266500234603882,-4.187012672424316,0.9245499968528748
1749987950959672000,10.394672119140624,0.551925003528595,-3.138849973678589,1.2229249477386475
1749987950969685800,10.404685791015625,-0.05857500061392784,-1.6132874488830566,1.1930874586105347
1749987950979699500,10.414699462890624,-0.8073999881744385,-0.6311249732971191,1.2112375497817993
1749987950989713000,10.424712890625,-1.4763374328613281,-1.303362488746643,1.116362452507019
1749987950999726600,10.4347265625,-1.5530624389648438,-2.2397375106811523,0.45058751106262207
1749987951009740300,10.444740234375,-1.0087000131607056,-1.1435874700546265,-0.6221874952316284
1749987951019754000,10.45475390625,-0.3375625014305115,1.1499124765396118,-1.381737470626831
1749987951029767400,10.464767333984375,-0.1331000030040741,0.8964999914169312,-1.6277250051498413
1749987951039781000,10.474781005859375,0.010724999941885471,-0.3073124885559082,-1.7694875001907349
1749987951049794800,10.484794921875,0.14918750524520874,-1.744325041770935,-1.4232624769210815
1749987951059808300,10.494808349609375,0.7117000222206116,-3.2964248657226562,-0.21834999322891235
1749987951069822200,10.504822265625,1.5947250127792358,-2.815999984741211,2.246612548828125
1749987951079835600,10.514835693359375,0.892787516117096,3.0556623935699463,2.614150047302246
1749987951089849300,10.524849365234376,-0.3844499886035919,4.524712562561035,0.7808625102043152
1749987951099862800,10.53486279296875,-1.081162452697754,1.965975046157837,0.002062499988824129
1749987951109876500,10.54487646484375,-1.2122000455856323,-0.5406500101089478,-0.46873748302459717
1749987951119890200,10.55489013671875,-0.6667374968528748,-1.6740624904632568,-1.1217249631881714
1749987951129903900,10.56490380859375,0.23223750293254852,-2.3088998794555664,-1.3113374710083008
1749987951139917600,10.57491748046875,1.0514625310897827,-2.667912483215332,-1.1089375019073486
1749987951149931300,10.58493115234375,1.6000875234603882,-2.5273873805999756,-0.9002124667167664
1749987951159944700,10.59494482421875,1.788599967956543,-2.1735999584198,-0.7137625217437744
1749987951169958400,10.60495849609375,1.697024941444397,-1.904099941253662,-0.4772624969482422
1749987951179972000,10.61497216796875,1.5361499786376953,-1.6197500228881836,-0.18535000085830688
1749987951189985500,10.624985595703125,1.3763749599456787,-1.0689250230789185,0.20336249470710754
1749987951199999500,10.63499951171875,1.1847000122070312,-0.18700000643730164,0.6337375044822693
1749987951210013000,10.645012939453125,1.0036125183105469,0.6524375081062317,0.9725375175476074
1749987951220026600,10.655026611328125,0.8458999991416931,0.9571374654769897,1.1610499620437622
1749987951230040300,10.665040283203124,0.5860249996185303,1.202162504196167,1.264449954032898
1749987951240054000,10.675053955078125,0.05444999784231186,1.9478249549865723,1.2505625486373901
1749987951250067500,10.6850673828125,-0.7508875131607056,2.454925060272217,1.0652124881744385
1749987951260081200,10.6950810546875,-1.6872625350952148,2.347262382507324,0.5699374675750732
1749987951270094800,10.7050947265625,-2.439387559890747,1.4961374998092651,-0.13846249878406525
1749987951280108500,10.715108642578125,-2.883650064468384,0.2572624981403351,-0.892787516117096
1749987951290122200,10.725122314453126,-3.0028624534606934,-0.6023874878883362,-1.4573625326156616
1749987951300136000,10.735135986328125,-2.8154499530792236,-1.3565750122070312,-1.871649980545044
1749987951310149400,10.7451494140625,-2.5213375091552734,-2.1874876022338867,-2.345750093460083
1749987951320163000,10.7551630859375,-2.191200017929077,-2.6828999519348145,-2.7909750938415527
1749987951330176800,10.7651767578125,-1.8492374420166016,-2.75,-3.157412528991699
1749987951340190200,10.775190185546874,-1.539175033569336,-2.47293758392334,-3.415225028991699
1749987951350204000,10.785203857421875,-1.3059749603271484,-1.9637750387191772,-3.521787405014038
1749987951360217600,10.795217529296876,-1.1695749759674072,-1.3821499347686768,-3.4333748817443848
1749987951370231300,10.805231201171875,-1.141937494277954,-0.9475125074386597,-3.161674976348877
1749987951380244700,10.81524462890625,-1.2303500175476074,-0.8079500198364258,-2.7611374855041504
1749987951390258700,10.8252587890625,-1.3932875394821167,-0.8868749737739563,-2.341487407684326
1749987951400272100,10.835272216796875,-1.5434374809265137,-1.0296000242233276,-1.906849980354309
1749987951410285600,10.84528564453125,-1.623324990272522,-1.103024959564209,-1.4957250356674194
1749987951420299300,10.85529931640625,-1.6692500114440918,-1.0390875339508057,-1.0705749988555908
1749987951430313000,10.86531298828125,-1.6542625427246094,-0.8442500233650208,-0.4016374945640564
1749987951440326700,10.87532666015625,-1.4018124341964722,-0.3339875042438507,0.5773624777793884
1749987951450340000,10.885340087890626,-1.0374374389648438,-0.11453749984502792,1.907812476158142
1749987951460353800,10.895353759765625,-0.5805249810218811,-0.4894999861717224,3.419487476348877
1749987951470367500,10.905367431640625,0.023512499406933784,-0.8229374885559082,5.047212600708008
1749987951480381000,10.915380859375,0.6573874950408936,-0.14011250436306,6.614162445068359
1749987951490394600,10.92539453125,1.2080750465393066,1.6847875118255615,6.17636251449585
1749987951500408300,10.935408203125,1.595824956893921,0.657800018787384,3.0710625648498535
1749987951510422000,10.945422119140625,1.8525375127792358,-2.0649750232696533,0.3610749840736389
1749987951520435500,10.955435546875,2.046412467956543,-3.7534749507904053,-1.1526625156402588
1749987951530449200,10.96544921875,2.100724935531616,-4.244487285614014,-1.7289249897003174
1749987951540462800,10.975462890625,2.021937370300293,-3.937725067138672,-1.5819374322891235
1749987951550476500,10.9854765625,1.5500375032424927,-2.595449924468994,-1.2357125282287598
1749987951560490000,10.995489990234375,1.0813000202178955,-0.8144124746322632,-0.720087468624115
1749987951570503700,11.005503662109374,0.6434999704360962,0.14121249318122864,0.08524999767541885
1749987951580517400,11.015517333984375,0.03203750029206276,0.2722499966621399,0.9193249940872192
1749987951590530800,11.02553076171875,-0.644462525844574,0.01759999990463257,1.463687539100647
1749987951600544500,11.03554443359375,-1.0993125438690186,-0.09102500230073929,1.456125020980835
1749987951610558200,11.04555810546875,-1.1855249404907227,0.5011875033378601,0.9671750068664551
1749987951620571600,11.055571533203125,-1.0385375022888184,1.817887544631958,0.4292750060558319
1749987951630585600,11.065585693359376,-0.9245499968528748,3.0674874782562256,0.2129874974489212
1749987951640599300,11.075599365234375,-0.9191874861717224,3.056762456893921,0.40053749084472656
1749987951650612700,11.08561279296875,-0.8307750225067139,2.24180006980896,0.607200026512146
1749987951660626400,11.09562646484375,-0.5368000268936157,1.610124945640564,0.4729999899864197
1749987951670640000,11.10564013671875,-0.13089999556541443,0.6609625220298767,0.2470874935388565
1749987951680653600,11.115653564453124,0.31542500853538513,-0.9571374654769897,0.4409624934196472
1749987951690667500,11.12566748046875,0.7777000069618225,-2.1396374702453613,0.5634750127792358
1749987951700681000,11.135680908203126,1.0929875373840332,-2.4495625495910645,0.24076250195503235
1749987951710694700,11.145694580078125,1.232550024986267,-2.51886248588562,-0.18535000085830688
1749987951720708000,11.1557080078125,1.3103749752044678,-2.7691125869750977,-0.37070000171661377
1749987951730721800,11.1657216796875,1.4019500017166138,-3.626699924468994,0.07768750190734863
1749987951740735500,11.175735595703125,1.1771374940872192,-4.095437526702881,0.4398624897003174
1749987951750749000,11.1857490234375,0.8299499750137329,-3.947350025177002,0.3909125030040741
1749987951760763000,11.195762939453125,0.6594499945640564,-3.6884374618530273,0.5134249925613403
1749987951770776300,11.2057763671875,0.256850004196167,-2.3909873962402344,0.7595499753952026
1749987951780790000,11.2157900390625,-0.2609750032424927,-0.4212999939918518,0.4111250042915344
1749987951790803700,11.2258037109375,-0.35791251063346863,0.35420000553131104,-0.22165000438690186
1749987951800817200,11.235817138671875,-0.1597750037908554,-0.27541249990463257,-0.654087483882904
1749987951810830800,11.245830810546876,0.07672499865293503,-1.219212532043457,-0.819225013256073
1749987951820844500,11.255844482421875,0.20143750309944153,-1.6229125261306763,-0.8170250058174133
1749987951830858000,11.26585791015625,0.24722500145435333,-1.8519874811172485,-0.7020750045776367
1749987951840871700,11.27587158203125,0.33563750982284546,-2.152287483215332,-0.507099986076355
1749987951850885400,11.285885498046875,0.4879874885082245,-2.297212600708008,-0.340862512588501
1749987951860898800,11.29589892578125,0.6914874911308289,-2.22694993019104,-0.23539999127388
1749987951870912500,11.30591259765625,0.8991125226020813,-1.96693754196167,-0.21738749742507935
1749987951880926200,11.31592626953125,1.0557249784469604,-1.645324945449829,-0.28558748960494995
1749987951890940000,11.32593994140625,1.1281875371932983,-1.4077249765396118,-0.34306249022483826
1749987951900953300,11.335953369140626,1.0844625234603882,-1.3352625370025635,-0.28132501244544983
1749987951910967000,11.345967041015625,0.9822999835014343,-1.3363624811172485,-0.15771250426769257
1749987951920980700,11.355980712890625,0.9374749660491943,-1.302262544631958,-0.07246249914169312
1749987951930994200,11.365994140625,1.0344125032424927,-1.1957000494003296,-0.021312499418854713
1749987951941008000,11.3760078125,1.2953875064849854,-1.0157124996185303,0.04468749836087227
1749987951951021300,11.386021240234374,1.6108125448226929,-0.8101499676704407,0.11715000122785568
1749987951961035000,11.396034912109375,1.815274953842163,-0.7504749894142151,0.16087499260902405
1749987951971048700,11.406048583984376,1.8589999675750732,-0.8931999802589417,0.16183750331401825
1749987951981062100,11.416062255859375,1.7907999753952026,-1.1339625120162964,0.1597750037908554
1749987951991075800,11.426075927734376,1.6693874597549438,-1.3704625368118286,0.19813749194145203
1749987952001089500,11.436089599609375,1.546875,-1.5419249534606934,0.26413750648498535
1749987952011103000,11.44610302734375,1.4764750003814697,-1.5941749811172485,0.3291749954223633
1749987952021116700,11.45611669921875,1.4530999660491943,-1.4727624654769897,0.4142875075340271
1749987952031130400,11.46613037109375,1.4297250509262085,-1.159537434577942,0.5805249810218811
1749987952041144000,11.47614404296875,1.3615249395370483,-0.7653250098228455,0.7275124788284302
1749987952051157500,11.486157470703125,1.2293875217437744,-0.4255625009536743,0.7936499714851379
1749987952061171500,11.49617138671875,1.0749750137329102,-0.2157374918460846,0.8617125153541565
1749987952071185000,11.506184814453125,0.910937488079071,-0.24873749911785126,0.820187509059906
1749987952081198600,11.516198486328125,0.7031750082969666,-0.4628250002861023,0.39201250672340393
1749987952091212300,11.52621240234375,0.4516874849796295,-0.7951624989509583,-0.4666749835014343
1749987952101225700,11.536225830078125,0.26743748784065247,-1.211787462234497,-1.3774750232696533
1749987952111239200,11.5462392578125,0.15234999358654022,-1.5728625059127808,-2.002687454223633
1749987952121252900,11.5562529296875,0.04166249930858612,-1.6505500078201294,-2.3574373722076416
1749987952131266600,11.5662666015625,-0.0873124971985817,-1.3906749486923218,-2.5779874324798584
1749987952141280300,11.5762802734375,-0.24598750472068787,-0.9965999722480774,-2.717550039291382
1749987952151294000,11.5862939453125,-0.45058751106262207,-0.7078499794006348,-2.7121875286102295
1749987952161307400,11.596307373046875,-0.7073000073432922,-0.5917999744415283,-2.466062545776367
1749987952171321000,11.606321044921875,-1.105637550354004,-0.28600001335144043,-2.0858750343322754
1749987952181334800,11.616334716796874,-1.6275874376296997,0.19978749752044678,-1.8375500440597534
1749987952191348200,11.62634814453125,-2.0175375938415527,0.4064500033855438,-1.7513375282287598
1749987952201362200,11.636362060546874,-2.2625625133514404,0.29672500491142273,-1.7630250453948975
1749987952211375600,11.646375732421875,-2.5107500553131104,0.0719124972820282,-1.8684874773025513
1749987952221389000,11.65638916015625,-2.7237374782562256,-0.08043749630451202,-2.063462495803833
1749987952231402800,11.66640283203125,-2.8324999809265137,-0.17627499997615814,-2.2402875423431396
1749987952241416200,11.676416259765626,-2.865499973297119,-0.21889999508857727,-2.2754874229431152
1749987952251430000,11.686429931640625,-2.8154499530792236,-0.3221625089645386,-2.094399929046631
1749987952261443600,11.696443603515625,-2.676987409591675,-0.6470749974250793,-1.7076125144958496
1749987952271457000,11.70645703125,-2.480912446975708,-1.159537434577942,-1.2666499614715576
1749987952281470700,11.716470703125,-2.2934999465942383,-1.4972374439239502,-0.8766999840736389
1749987952291484400,11.726484375,-2.056999921798706,-1.5558124780654907,-0.5432624816894531
1749987952301498000,11.736498046875,-1.8353500366210938,-1.3906749486923218,-0.31212499737739563
1749987952311511600,11.746511474609376,-1.7287875413894653,-1.0636999607086182,-0.2162874937057495
1749987952321525200,11.756525146484375,-1.71503746509552,-0.8197749853134155,-0.2120250016450882
1749987952331538700,11.76653857421875,-1.7298874855041504,-0.8069875240325928,-0.24502499401569366
1749987952341552600,11.776552734375,-1.7352499961853027,-1.0668624639511108,-0.2919124960899353
1749987952351566000,11.786566162109375,-1.696887493133545,-1.5674999952316284,-0.34622499346733093
1749987952361579800,11.796579833984374,-1.6340500116348267,-2.144862413406372,-0.37716248631477356
1749987952371593200,11.80659326171875,-1.6095750331878662,-2.6615874767303467,-0.39531248807907104
1749987952381607200,11.816607177734374,-1.6159000396728516,-3.0130374431610107,-0.43037500977516174
1749987952391620600,11.82662060546875,-1.613837480545044,-3.115337371826172,-0.4846875071525574
1749987952401634000,11.836634033203126,-1.5530624389648438,-3.0876998901367188,-0.5486249923706055
1749987952411647700,11.846647705078125,-1.4924249649047852,-3.0024499893188477,-0.6231499910354614
1749987952421661400,11.856661376953125,-1.4464999437332153,-2.8958873748779297,-0.6572499871253967
1749987952431675100,11.866675048828125,-1.4124000072479248,-2.747799873352051,-0.5656750202178955
1749987952441688600,11.8766884765625,-1.390125036239624,-2.78410005569458,-0.41222500801086426
1749987952451702500,11.88670263671875,-1.3506624698638916,-3.1685500144958496,-0.36643749475479126
1749987952461716000,11.896716064453125,-1.290024995803833,-3.5573999881744385,-0.4016374945640564
1749987952471729700,11.906729736328124,-1.2494624853134155,-3.6884374618530273,-0.44536250829696655
1749987952481743000,11.9167431640625,-1.2505625486373901,-3.6107499599456787,-0.4548499882221222
1749987952491756800,11.9267568359375,-1.2707749605178833,-3.47971248626709,-0.41222500801086426
1749987952501770500,11.9367705078125,-1.2537250518798828,-3.383737564086914,-0.32381248474121094
1749987952511784000,11.946783935546875,-1.1675125360488892,-3.3114125728607178,-0.1896124929189682
1749987952521797600,11.956797607421874,-1.033174991607666,-3.2548999786376953,-0.018149999901652336
1749987952531811300,11.966811279296875,-0.8766999840736389,-3.1846375465393066,0.1788875013589859
1749987952541825000,11.976824951171874,-0.7243499755859375,-3.1099750995635986,0.3940750062465668
1749987952551838500,11.98683837890625,-0.6028000116348267,-3.0929250717163086,0.5955125093460083
1749987952561852200,11.99685205078125,-0.49211248755455017,-3.0971875190734863,0.7669749855995178
1749987952571865600,12.006865478515625,-0.36959999799728394,-3.1099750995635986,0.9426999688148499
1749987952581879600,12.016879638671876,-0.23539999127388,-3.22189998626709,1.1706750392913818
1749987952591893000,12.02689306640625,-0.09679999947547913,-3.4285624027252197,1.4764750003814697
1749987952601906700,12.03690673828125,0.07782500237226486,-3.662862539291382,1.8779749870300293
1749987952611920100,12.046920166015624,0.3452624976634979,-3.8908374309539795,2.3989624977111816
1749987952621934000,12.05693408203125,0.6967124938964844,-4.113450050354004,2.782449960708618
1749987952631947500,12.066947509765624,1.0163999795913696,-3.1505374908447266,0.98642498254776
1749987952641961200,12.076961181640625,1.0866625308990479,-2.4814624786376953,-0.7084000110626221
1749987952651974700,12.086974609375,1.0631500482559204,-2.8489999771118164,-1.2698124647140503
1749987952661988400,12.09698828125,0.956725001335144,-3.544612407684326,-1.2431374788284302
1749987952672002000,12.107001953125,0.6690750122070312,-3.905824899673462,-0.9619500041007996
1749987952682015500,12.117015380859375,0.2961750030517578,-3.4476749897003174,-0.5411999821662903
1749987952692029200,12.127029296875,0.0010999999940395355,-2.1949124336242676,-0.02241249941289425
1749987952702042600,12.137042724609374,-0.17036250233650208,-0.9805124998092651,0.49101248383522034
1749987952712056300,12.147056396484375,-0.2928749918937683,-0.13901250064373016,0.7467625141143799
1749987952722070000,12.157070068359374,-0.49101248383522034,0.6216375231742859,0.7232499718666077
1749987952732083500,12.16708349609375,-0.636900007724762,1.100962519645691,0.508062481880188
1749987952742097200,12.17709716796875,-0.6689375042915344,1.393975019454956,0.5836874842643738
1749987952752110800,12.18711083984375,-0.6391000151634216,1.5281749963760376,1.2207249402999878
1749987952762124300,12.197124267578126,-0.4111250042915344,1.3300374746322632,1.7087124586105347
1749987952772138000,12.207137939453125,-0.05321250110864639,1.1126500368118286,1.5712125301361084
1749987952782151400,12.2171513671875,0.21848750114440918,1.129699945449829,1.3719749450683594
1749987952792165000,12.2271650390625,0.45704999566078186,0.632224977016449,1.8173375129699707
1749987952802178800,12.2371787109375,0.6296125054359436,0.41497498750686646,1.271875023841858
1749987952812192300,12.247192138671876,0.6701750159263611,-0.8238999843597412,-0.3260124921798706
1749987952822206000,12.2572060546875,0.49334999918937683,-2.052187442779541,-1.4232624769210815
1749987952832219400,12.267219482421876,0.38885000348091125,-2.524087429046631,-1.6703499555587769
1749987952842233000,12.277233154296875,0.4965125024318695,-3.1377499103546143,-1.5585625171661377
1749987952852246800,12.287246826171875,0.5806624889373779,-3.177074909210205,-1.4850000143051147
1749987952862260200,12.29726025390625,0.5945500135421753,-3.018399953842163,-1.4040124416351318
1749987952872274000,12.30727392578125,0.5699374675750732,-2.993925094604492,-1.280537486076355
1749987952882287600,12.31728759765625,0.5315750241279602,-3.069550037384033,-1.2357125282287598
1749987952892301000,12.327301025390625,0.506137490272522,-3.139812469482422,-1.2698124647140503
1749987952902314800,12.337314697265626,0.5189250111579895,-3.1781749725341797,-1.3348499536514282
1749987952912328200,12.347328125,0.5539875030517578,-3.169650077819824,-1.3784375190734863
1749987952922342000,12.357341796875,0.5656750202178955,-3.159062385559082,-1.3209625482559204
1749987952932355600,12.36735546875,0.5284125208854675,-3.1792750358581543,-1.0301499366760254
1749987952942369000,12.377369140625,0.42294999957084656,-3.2048499584198,-0.4676375091075897
1749987952952382700,12.3873828125,0.2535499930381775,-2.953362464904785,0.12031249701976776
1749987952962396400,12.397396484375,0.05115000158548355,-2.357987403869629,0.5656750202178955
1749987952972410000,12.40741015625,-0.1256749927997589,-1.6889125108718872,0.9288125038146973
1749987952982423600,12.417423583984375,-0.24488750100135803,-1.219212532043457,1.2846624851226807
1749987952992437200,12.427437255859376,-0.32381248474121094,-0.9858750104904175,1.6372125148773193
1749987953002450700,12.43745068359375,-0.3546124994754791,-0.7515749931335449,1.9578624963760376
1749987953012464400,12.44746435546875,-0.3067624866962433,-0.23485000431537628,2.2583000659942627
1749987953022477800,12.457477783203124,-0.1671999990940094,0.6290624737739563,2.496999979019165
1749987953032491500,12.467491455078125,-0.004124999977648258,1.461074948310852,2.5587375164031982
1749987953042505200,12.477505126953124,0.13750000298023224,1.7604124546051025,2.422337532043457
1749987953052518700,12.4875185546875,0.24076250195503235,1.3651000261306763,2.122999906539917
1749987953062532600,12.49753271484375,0.32711249589920044,0.5534374713897705,1.6149375438690186
1749987953072546000,12.507546142578125,0.4442625045776367,-0.2849000096321106,0.8969125151634216
1749987953082559700,12.517559814453126,0.6307125091552734,-0.9624999761581421,0.13529999554157257
1749987953092573200,12.5275732421875,0.8427374958992004,-1.4236749410629272,-0.47519999742507935
1749987953102587000,12.5375869140625,0.9832624793052673,-1.6282750368118286,-0.8394374847412109
1749987953112600600,12.5476005859375,1.0238250494003296,-1.6484874486923218,-0.9662125110626221
1749987953122614000,12.557614013671875,1.005674958229065,-1.5791875123977661,-0.9076374769210815
1749987953132627700,12.567627685546874,0.9789999723434448,-1.5025999546051025,-0.737137496471405
1749987953142641400,12.577641357421875,0.9704750180244446,-1.4279375076293945,-0.5550875067710876
1749987953152655000,12.587655029296876,0.9609875082969666,-1.3630374670028687,-0.432574987411499
1749987953162668500,12.59766845703125,0.9343125224113464,-1.3182125091552734,-0.35791251063346863
1749987953172682200,12.60768212890625,0.910937488079071,-1.2991000413894653,-0.29727500677108765
1749987953182695700,12.61769580078125,0.9013124704360962,-1.2916749715805054,-0.2503874897956848
1749987953192709400,12.62770947265625,0.902412474155426,-1.2979999780654907,-0.1896124929189682
1749987953202722800,12.637722900390624,0.9140999913215637,-1.3044625520706177,-0.0789249986410141
1749987953212736800,12.64773681640625,0.9237250089645386,-1.3011624813079834,0.11715000122785568
1749987953222750200,12.657750244140624,0.902412474155426,-1.2959375381469727,0.4025999903678894
1749987953232764000,12.667763916015625,0.8149625062942505,-1.2798500061035156,0.7519875168800354
1749987953242777300,12.67777734375,0.6509249806404114,-1.2457499504089355,1.1217249631881714
1749987953252791000,12.687791015625,0.42941248416900635,-1.0902374982833862,1.482800006866455
1749987953262804700,12.6978046875,0.19181250035762787,-0.6961625218391418,1.8364499807357788
1749987953272818200,12.707818115234375,-0.05857500061392784,0.4010874927043915,2.2690250873565674
1749987953282832000,12.717831787109375,-0.37386250495910645,2.862887382507324,2.611949920654297
1749987953292845300,12.72784521484375,-0.6070625185966492,4.8390374183654785,2.339287519454956
