time,seconds_elapsed,z,y,x
1749912581189902300,0.12690234375,-0.36176249384880066,1.1241999864578247,0.935824990272522
1749912581199915800,0.136915771484375,-0.7474499940872192,0.2964499890804291,0.862262487411499
1749912581209929000,0.146928955078125,-1.4408625364303589,-0.7815499901771545,0.3190000057220459
1749912581219942400,0.1569423828125,-1.5783624649047852,-0.9029625058174133,-0.12196250259876251
1749912581229955800,0.166955810546875,-1.3375999927520752,-0.4395875036716461,-0.39902499318122864
1749912581239969300,0.17696923828125,-1.1042624711990356,-0.2297624945640564,-0.6173750162124634
1749912581249982500,0.186982421875,-0.8720250129699707,-0.12113749980926514,-0.8175749778747559
1749912581259996000,0.196995849609375,-0.29686251282691956,0.195250004529953,-1.211787462234497
1749912581270009300,0.20700927734375,0.21449999511241913,0.025849999859929085,-1.2128875255584717
1749912581280022800,0.217022705078125,0.3423750102519989,0.0812624990940094,-1.4077249765396118
1749912581290036200,0.2270361328125,0.22522500157356262,-0.035887498408555984,-1.4279375076293945
1749912581300049700,0.237049560546875,0.11646249890327454,-0.6441875100135803,-1.0892750024795532
1749912581310063000,0.24706298828125,0.11123749613761902,-1.274762511253357,-0.5119125247001648
1749912581320076500,0.25707666015625,0.13144999742507935,-1.939574956893921,0.03987500071525574
1749912581330090000,0.267090087890625,0.18039999902248383,-2.5669875144958496,0.4031499922275543
1749912581340103400,0.277103515625,0.17407499253749847,-3.1795499324798584,0.48413750529289246
1749912581350116600,0.28711669921875,0.14423750340938568,-3.728174924850464,0.3392125070095062
1749912581360130000,0.297130126953125,0.142037495970726,-4.117987632751465,0.12086249887943268
1749912581370143700,0.307143798828125,0.1494625061750412,-4.2052998542785645,-0.05912499874830246
1749912581380157000,0.317156982421875,0.17407499253749847,-4.166937351226807,-0.14643749594688416
1749912581390170400,0.32717041015625,0.20913749933242798,-3.911324977874756,-0.24557499587535858
1749912581400183800,0.337183837890625,0.2539624869823456,-3.3456499576568604,-0.5469750165939331
1749912581420210400,0.35721044921875,0.26028749346733093,-1.8298499584197998,-1.5079624652862549
1749912581430224000,0.367223876953125,0.1601874977350235,-1.0788249969482422,-1.8370000123977661
1749912581440237300,0.3772373046875,0.10587500035762787,-0.638824999332428,-1.9381999969482422
1749912581450250800,0.387250732421875,-0.008112499490380287,-0.6249374747276306,-1.692212462425232
1749912581460264200,0.39726416015625,-0.1966249942779541,-0.6899750232696533,-1.4077249765396118
1749912581470277600,0.407277587890625,-0.18603749573230743,-0.9233124852180481,-1.153212547302246
1749912581480291000,0.417291015625,-0.16898749768733978,-1.5379375219345093,-0.7111499905586243
1749912581490304500,0.427304443359375,0.06751249730587006,-2.2196624279022217,-0.32436248660087585
1749912581500317700,0.437317626953125,0.46158748865127563,-2.982374906539917,0.03987500071525574
1749912581510331100,0.4473310546875,0.6182000041007996,-3.7057623863220215,0.29878750443458557
1749912581520344600,0.457344482421875,0.7386500239372253,-4.047725200653076,0.3232625126838684
1749912581530358000,0.46735791015625,0.8557999730110168,-4.132975101470947,0.2689499855041504
1749912581540371500,0.477371337890625,0.9751499891281128,-4.181924819946289,0.23485000431537628
1749912581550384600,0.487384521484375,1.1221375465393066,-4.011425018310547,0.24227499961853027
1749912581560398300,0.4973984375,1.2669249773025513,-3.634399890899658,0.27431249618530273
1749912581570411500,0.50741162109375,1.2925000190734863,-3.1965999603271484,0.382937490940094
1749912581580425000,0.517425048828125,1.3947999477386475,-3.095400094985962,0.4127750098705292
1749912581590438700,0.527438720703125,1.737862467765808,-3.2529749870300293,0.3786749839782715
1749912581600451800,0.537451904296875,2.125612497329712,-3.4511125087738037,0.29452499747276306
1749912581610465300,0.54746533203125,2.4153249263763428,-3.6407248973846436,0.23278750479221344
1749912581620478700,0.557478759765625,2.6284499168395996,-3.8229124546051025,0.29878750443458557
1749912581630492200,0.5674921875,2.724287509918213,-4.086087703704834,0.5363875031471252
1749912581640505300,0.57750537109375,2.7253875732421875,-4.420487403869629,0.9454500079154968
1749912581650518800,0.587518798828125,2.7296500205993652,-4.798749923706055,1.4396250247955322
1749912581660532500,0.597532470703125,2.758387565612793,-5.0682501792907715,1.8147250413894653
1749912581670545700,0.607545654296875,2.812700033187866,-5.014900207519531,1.9915499687194824
1749912581680559000,0.61755908203125,2.8766374588012695,-4.629350185394287,2.007499933242798
1749912581690572500,0.627572509765625,2.920224905014038,-4.049787521362305,1.9617124795913696
1749912581700586000,0.6375859375,2.8564250469207764,-3.4692625999450684,1.919087529182434
1749912581710599400,0.647599365234375,2.751924991607666,-3.1454498767852783,1.9381999969482422
1749912581720612900,0.65761279296875,2.6560873985290527,-3.0633625984191895,2.044762372970581
1749912581730626300,0.667626220703125,2.631612539291382,-3.1517748832702637,2.2866249084472656
1749912581740639700,0.6776396484375,2.627350091934204,-3.2828125953674316,2.582662582397461
1749912581750653200,0.687653076171875,2.500575065612793,-3.480949878692627,2.7798373699188232
1749912581760666400,0.697666259765625,2.293912410736084,-3.614187479019165,2.9555625915527344
1749912581770679800,0.7076796875,2.1202499866485596,-3.5725250244140625,3.1121749877929688
1749912581780693500,0.717693603515625,1.9551124572753906,-3.3488125801086426,3.1622250080108643
1749912581790706700,0.727706787109375,1.711187481880188,-2.908950090408325,3.0024499893188477
1749912581800720100,0.73772021484375,1.395900011062622,-2.159987449645996,2.684962511062622
1749912581810733600,0.747733642578125,0.9378874897956848,-1.2993749380111694,2.1598498821258545
1749912581820747000,0.7577470703125,0.3679499924182892,-0.509987473487854,1.3810499906539917
1749912581830760400,0.767760498046875,-0.21271249651908875,0.10147500038146973,0.5160375237464905
1749912581840774000,0.77777392578125,-0.6590374708175659,0.5148000121116638,-0.21683749556541443
1749912581850787300,0.787787353515625,-0.9466875195503235,0.7119749784469604,-0.6844750046730042
1749912581860800800,0.79780078125,-1.0903749465942383,0.6916249990463257,-0.7984625101089478
1749912581870814200,0.807814208984375,-1.043624997138977,0.4487999975681305,-0.6429499983787537
1749912581880827600,0.81782763671875,-0.8614374995231628,0.03753750026226044,-0.41071251034736633
1749912581890840800,0.8278408203125,-0.7176125049591064,-0.3139125108718872,-0.24557499587535858
1749912581900854300,0.837854248046875,-0.768762469291687,-0.6462500095367432,-0.25616249442100525
1749912581910867700,0.84786767578125,-0.9083250164985657,-0.9711624979972839,-0.4320249855518341
1749912581920881200,0.857881103515625,-1.0988999605178833,-1.1981749534606934,-0.7206375002861023
1749912581930894600,0.86789453125,-1.4302749633789062,-1.2354375123977661,-1.0051250457763672
1749912581940908000,0.877907958984375,-2.031012535095215,-1.3077625036239624,-0.8548374772071838
1749912581950921500,0.88792138671875,-2.5040125846862793,-1.5698374509811401,-0.29672500491142273
1749912581960935000,0.897934814453125,-2.5744125843048096,-1.7509249448776245,0.05486249923706055
1749912581970948400,0.9079482421875,-2.4380125999450684,-1.6636124849319458,0.2540999948978424
1749912581980961500,0.91796142578125,-2.043799877166748,-1.476199984550476,0.2934249937534332
1749912581990975200,0.927975341796875,-1.6699374914169312,-1.6647125482559204,0.2615250051021576
1749912582000988700,0.93798876953125,-1.5144250392913818,-1.725350022315979,0.45649999380111694
1749912582011001900,0.948001953125,-1.378024935722351,-1.956624984741211,0.6428124904632568
1749912582021015300,0.958015380859375,-1.1500500440597534,-2.387962579727173,0.769587516784668
1749912582031029000,0.968029052734375,-0.8646000027656555,-2.734187602996826,1.0051250457763672
1749912582041042200,0.978042236328125,-0.37564998865127563,-3.0314624309539795,0.9634624719619751
1749912582051055600,0.9880556640625,0.05582499876618385,-2.6692874431610107,0.6631624698638916
1749912582061069000,0.998069091796875,0.20061250030994415,-1.726449966430664,0.3008500039577484
1749912582071082500,1.00808251953125,0.1368124932050705,-0.5631999969482422,-0.007974999956786633
1749912582081095700,1.018095703125,0.023787500336766243,0.6287875175476074,-0.18053749203681946
1749912582091109000,1.028109130859375,-0.11357499659061432,1.6791499853134155,-0.2572624981403351
1749912582101122800,1.038122802734375,-0.17434999346733093,2.0796875953674316,-0.4916999936103821
1749912582111136000,1.048135986328125,-0.08910000324249268,2.0455875396728516,-0.8655624985694885
1749912582121149400,1.0581494140625,0.17503750324249268,1.6823124885559082,-1.1819499731063843
1749912582131163000,1.068162841796875,0.724762499332428,1.1092125177383423,-1.3576749563217163
1749912582141176300,1.07817626953125,1.6792874336242676,0.5553625226020813,-1.228837490081787
1749912582151189800,1.088189697265625,2.0553500652313232,0.26124998927116394,-0.9880750179290771
1749912582161203200,1.098203125,1.4331624507904053,0.3166624903678894,-0.9007624983787537
1749912582171216600,1.108216552734375,0.08662500232458115,0.8450750112533569,-0.869825005531311
1749912582181229800,1.118229736328125,-1.2799874544143677,1.4607999324798584,-0.7195374965667725
1749912582191243300,1.1282431640625,-1.8350750207901,1.6439499855041504,-0.36918750405311584
1749912582201257000,1.138257080078125,-1.6284124851226807,1.5417875051498413,-0.045237500220537186
1749912582211270100,1.148270263671875,-0.8955374956130981,1.2157750129699707,0.19442500174045563
1749912582221283600,1.15828369140625,0.07177499681711197,0.7151374816894531,0.5832750201225281
1749912582231297000,1.168297119140625,0.8057500123977661,0.09831249713897705,0.8452125191688538
1749912582241310500,1.178310546875,1.0826749801635742,-0.610087513923645,1.0509124994277954
1749912582251323600,1.18832373046875,1.1221375465393066,-0.8838499784469604,1.2831499576568604
1749912582261337300,1.19833740234375,1.2318625450134277,-0.7027624845504761,1.6314375400543213
1749912582271350800,1.208350830078125,1.187037467956543,-0.30855000019073486,2.0362374782562256
1749912582281364000,1.218364013671875,1.3404874801635742,0.057887498289346695,2.25885009765625
1749912582291377400,1.22837744140625,1.4981999397277832,0.2560249865055084,2.20770001411438
1749912582301390800,1.238390869140625,1.5258375406265259,0.050324998795986176,1.809362530708313
1749912582311404300,1.248404296875,1.5034250020980835,-0.1658249944448471,1.1862125396728516
1749912582321417700,1.258417724609375,1.5951374769210815,0.07590000331401825,0.6087124943733215
1749912582331431200,1.26843115234375,1.8816875219345093,0.6810374855995178,0.19126249849796295
1749912582341444600,1.278444580078125,2.2299749851226807,1.4596999883651733,-0.17311249673366547
1749912582351458000,1.2884580078125,2.2054998874664307,1.979587435722351,-0.44577500224113464
1749912582361471200,1.29847119140625,0.9495750069618225,2.170300006866455,-0.7121124863624573
1749912582371484700,1.308484619140625,-1.4047000408172607,2.563275098800659,-1.0071874856948853
1749912582381498000,1.318498046875,-2.9280624389648438,2.9574875831604004,-1.220312476158142
1749912582391511600,1.328511474609375,-2.9536375999450684,3.032012462615967,-1.3661999702453613
1749912582401525000,1.33852490234375,-1.984262466430664,3.043837547302246,-1.6559125185012817
1749912582411538400,1.348538330078125,-1.0775874853134155,2.878700017929077,-2.02028751373291
1749912582421551900,1.3585517578125,-0.3702875077724457,2.3960750102996826,-2.0714375972747803
1749912582431565000,1.36856494140625,0.415800005197525,1.472487449645996,-1.5558124780654907
1749912582441578500,1.37857861328125,1.1263999938964844,0.171875,-0.8218374848365784
1749912582451592000,1.388592041015625,1.5567749738693237,-1.0467875003814697,-0.359562486410141
1749912582461605400,1.39860546875,1.7964375019073486,-1.5773999691009521,-0.4235000014305115
1749912582471618800,1.408618896484375,1.968999981880188,-1.024512529373169,-0.779212474822998
1749912582481632300,1.41863232421875,2.119149923324585,0.17710000276565552,-0.9699249863624573
1749912582491645700,1.428645751953125,2.2075624465942383,0.9068124890327454,-0.852774977684021
1749912582501659000,1.438658935546875,2.216087579727173,0.651199996471405,-0.7526749968528748
1749912582511672600,1.448672607421875,2.21512508392334,-0.30002498626708984,-0.6344249844551086
1749912582521686000,1.45868603515625,1.9498875141143799,-1.1789250373840332,-0.11990000307559967
1749912582531699200,1.46869921875,1.5662624835968018,-1.6539875268936157,0.5992249846458435
1749912582541713000,1.478712890625,1.4405875205993652,-1.707337498664856,1.0008624792099
1749912582551726300,1.488726318359375,1.286175012588501,-1.2886500358581543,1.0859750509262085
1749912582561739500,1.498739501953125,0.5373499989509583,-0.48977500200271606,1.0423874855041504
1749912582571753000,1.5087529296875,-0.4609000086784363,0.4338124990463257,0.8996624946594238
1749912582581766400,1.518766357421875,-1.120212435722351,1.0443124771118164,0.8868749737739563
1749912582591779800,1.52877978515625,-1.128737449645996,1.1358875036239624,1.0092500448226929
1749912582601793300,1.538793212890625,-0.777287483215332,0.8791750073432922,1.0594375133514404
1749912582611806700,1.548806640625,-0.4054875075817108,0.6117374897003174,0.9752874970436096
1749912582621820200,1.558820068359375,0.12072499841451645,0.6384124755859375,0.8665249943733215
1749912582631833600,1.56883349609375,0.6385499835014343,0.9281250238418579,0.9113500118255615
1749912582641847000,1.578846923828125,0.641712486743927,0.7779750227928162,0.9347249865531921
1749912582651860200,1.588860107421875,-0.015537500381469727,0.5531625151634216,0.7781124711036682
1749912582661874000,1.5988740234375,-0.5300624966621399,0.8365499973297119,0.511775016784668
1749912582671887400,1.608887451171875,-0.7900750041007996,1.1720499992370605,0.11343749612569809
1749912582681900500,1.618900634765625,-0.7101874947547913,1.1006875038146973,-0.2796750068664551
1749912582691914000,1.6289140625,-0.28503748774528503,0.6703125238418579,-0.6109125018119812
1749912582701927400,1.638927490234375,0.6395124793052673,0.14093749225139618,-0.9198749661445618
1749912582711940900,1.64894091796875,1.6387250423431396,-0.2915000021457672,-1.2064249515533447
1749912582721954300,1.658954345703125,2.2928125858306885,-0.1722874939441681,-1.5910124778747559
1749912582731967700,1.6689677734375,2.683724880218506,0.34017500281333923,-1.8977749347686768
1749912582741981200,1.678981201171875,2.941537380218506,0.9186375141143799,-1.8466249704360962
1749912582751994400,1.688994384765625,3.0182623863220215,0.8226624727249146,-1.7220499515533447
1749912582762007800,1.6990078125,2.7626500129699707,0.7726125121116638,-1.6421624422073364
1749912582772021200,1.709021240234375,2.304500102996826,1.452275037765503,-1.6794250011444092
1749912582782034700,1.71903466796875,1.6079249382019043,2.474862575531006,-1.6506874561309814
1749912582792048000,1.729048095703125,0.7312250137329102,3.0842623710632324,-1.4492499828338623
1749912582802061600,1.7390615234375,-0.20624999701976776,2.8307125568389893,-1.2351624965667725
1749912582812075000,1.749074951171875,-0.6536750197410583,1.7899750471115112,-0.9167125225067139
1749912582822088400,1.75908837890625,-0.7079874873161316,0.864187479019165,-0.6599999666213989
1749912582832102000,1.769101806640625,-0.630299985408783,0.5116375088691711,-0.5534374713897705
1749912582842115300,1.779115234375,-0.43642500042915344,0.4636499881744385,-0.4692874848842621
1749912582852128800,1.789128662109375,-0.29782500863075256,0.4328500032424927,-0.25519999861717224
1749912582862142200,1.79914208984375,-0.3287625014781952,0.08552499860525131,0.07081250101327896
1749912582872155400,1.8091552734375,-0.5513749718666077,0.0471624992787838,0.4553999900817871
1749912582882168800,1.8191689453125,-0.880549967288971,-0.1424500048160553,0.7365875244140625
1749912582892182300,1.829182373046875,-1.0456874370574951,-0.48977500200271606,0.7951624989509583
1749912582902195700,1.83919580078125,-1.0137875080108643,-0.7294374704360962,0.7099124789237976
1749912582912209200,1.849209228515625,-0.83160001039505,-0.9403625130653381,0.6470749974250793
1749912582922222600,1.85922265625,-0.5333625078201294,-1.1138875484466553,0.6737499833106995
1749912582932236000,1.869236083984375,-0.09872499853372574,-1.2502875328063965,0.8005250096321106
1749912582942249500,1.87924951171875,0.39448750019073486,-1.1789250373840332,0.9613999724388123
1749912582952263000,1.889262939453125,0.7812749743461609,-0.7752249836921692,1.194737434387207
1749912582962276400,1.8992763671875,1.0049874782562256,-0.34264999628067017,1.4151500463485718
1749912582972289800,1.909289794921875,1.0698875188827515,-0.31817498803138733,1.5280375480651855
1749912582982303200,1.91930322265625,1.1892374753952026,-0.30855000019073486,1.47798752784729
1749912582992316400,1.92931640625,1.4289000034332275,-0.2862749993801117,1.4396250247955322
1749912583002329900,1.939329833984375,1.5087875127792358,-0.4651624858379364,1.2746249437332153
1749912583012343300,1.94934326171875,1.2830125093460083,-0.20418749749660492,0.9283999800682068
1749912583022356700,1.959356689453125,0.7449749708175659,0.172837495803833,0.4138749837875366
1749912583032370200,1.9693701171875,0.22192500531673431,0.2250874936580658,-0.4212999939918518
1749912583042383600,1.979383544921875,0.25286251306533813,0.6074749827384949,-0.7504749894142151
1749912583052397000,1.98939697265625,0.6363499760627747,0.7438749670982361,-0.99013751745224
1749912583062410500,1.999410400390625,1.1529375314712524,0.7023500204086304,-1.2553750276565552
1749912583072424000,2.009423828125,1.7250750064849854,0.9611250162124634,-1.3576749563217163
1749912583082437400,2.019437255859375,1.8902125358581543,1.2680250406265259,-0.980650007724762
1749912583092450600,2.029450439453125,1.8507499694824219,0.9952250123023987,-0.9508125185966492
1749912583102464000,2.039464111328125,1.5662624835968018,0.6671500205993652,-0.8197749853134155
1749912583112477400,2.0494775390625,1.1710875034332275,0.37207499146461487,-0.7408499717712402
1749912583122491000,2.059490966796875,0.9101125001907349,0.1153625026345253,-0.9209749698638916
1749912583132504300,2.06950439453125,0.8706499934196472,0.07067500054836273,-1.2649999856948853
1749912583142517500,2.079517578125,0.9601625204086304,-0.07535000145435333,-1.717787504196167
1749912583152531000,2.089531005859375,1.0507750511169434,-0.4353249967098236,-2.2428998947143555
1749912583162544400,2.09954443359375,1.146612524986267,-0.5313000082969666,-2.5976500511169434
1749912583172557800,2.109557861328125,0.9974250197410583,-0.7155500054359436,-2.6178624629974365
1749912583182571300,2.1195712890625,0.1835625022649765,-1.0308375358581543,-2.691425085067749
1749912583192584700,2.129584716796875,-0.57378751039505,-0.989312469959259,-2.8298873901367188
1749912583202598100,2.13959814453125,-1.0755250453948975,-0.81454998254776,-2.8287875652313232
1749912583212611600,2.149611572265625,-1.1340999603271484,-0.7283374667167664,-2.7488999366760254
1749912583222624800,2.159624755859375,-0.6931374669075012,-0.7602375149726868,-2.6030125617980957
1749912583232638500,2.169638427734375,0.010999999940395355,-0.8540124893188477,-2.426187515258789
1749912583242651600,2.179651611328125,0.658762514591217,-1.3557499647140503,-2.178962469100952
1749912583252665000,2.1896650390625,0.871749997138977,-2.3304874897003174,-1.8286124467849731
1749912583262678800,2.1996787109375,0.5383124947547913,-3.2561373710632324,-1.3331999778747559
1749912583272692000,2.20969189453125,-0.4512749910354614,-3.528937578201294,-0.8377875089645386
1749912583282705400,2.219705322265625,-1.650825023651123,-3.191237449645996,-0.45333749055862427
1749912583292718800,2.22971875,-2.408174991607666,-2.9877374172210693,-0.3436124920845032
1749912583302732300,2.239732177734375,-2.755500078201294,-2.9834749698638916,-0.5256624817848206
1749912583312745700,2.249745849609375,-2.926962375640869,-2.645775079727173,-0.7612000107765198
1749912583322759000,2.259759033203125,-3.120837450027466,-2.273974895477295,-0.890037477016449
1749912583332772600,2.269772705078125,-3.3935000896453857,-1.6113624572753906,-0.9497125148773193
1749912583342785800,2.279785888671875,-3.1858749389648438,0.07493750005960464,-0.9261999726295471
1749912583352799200,2.28979931640625,-2.5753750801086426,2.731712579727173,-0.41167500615119934
1749912583362812700,2.299812744140625,-1.8414000272750854,2.890387535095215,-0.058024998754262924
1749912583372826000,2.309826171875,-1.009524941444397,1.7835124731063843,0.3232625126838684
1749912583382839600,2.319839599609375,-0.5631999969482422,0.8056125044822693,0.4937624931335449
1749912583392853200,2.329853271484375,-0.5002250075340271,0.0471624992787838,0.49912500381469727
1749912583402866400,2.339866455078125,-0.8879749774932861,-0.7613375186920166,0.2529999911785126
1749912583412880000,2.3498798828125,-1.209725022315979,-1.3440624475479126,-0.01966249942779541
1749912583422893000,2.35989306640625,-1.2523499727249146,-1.8478624820709229,-0.03671250119805336
1749912583432906800,2.36990673828125,-1.1426249742507935,-2.3475375175476074,0.19648750126361847
1749912583442920000,2.379919921875,-1.052150011062622,-2.6149749755859375,0.4596624970436096
1749912583452933400,2.389933349609375,-1.101099967956543,-2.6255624294281006,0.5938624739646912
1749912583462947000,2.399947021484375,-1.2460249662399292,-2.504149913787842,0.5267624855041504
1749912583472960300,2.409960205078125,-1.460112452507019,-2.1675500869750977,0.3073124885559082
1749912583482973700,2.4199736328125,-1.6209875345230103,-1.7679749727249146,0.10064999759197235
1749912583492987100,2.429987060546875,-1.4558500051498413,-1.634874939918518,-0.03891250118613243
1749912583503000600,2.44000048828125,-0.9583749771118164,-1.6913875341415405,-0.07411249727010727
1749912583513014000,2.450013916015625,-0.43312498927116394,-1.7712750434875488,0.0057749999687075615
1749912583523027500,2.46002734375,-0.13062499463558197,-1.576300024986267,0.19126249849796295
1749912583533041000,2.470041015625,-0.09652499854564667,-1.152250051498413,0.43188750743865967
1749912583543054300,2.480054443359375,-0.17215000092983246,-0.8690000176429749,0.6140750050544739
1749912583553067500,2.490067626953125,-0.21793749928474426,-0.9531499743461609,0.6333249807357788
1749912583563081000,2.5000810546875,-0.2073500007390976,-1.016950011253357,0.6162750124931335
1749912583573094400,2.510094482421875,-0.04867500066757202,-0.9637374877929688,0.5779125094413757
1749912583583107600,2.520107666015625,0.26138749718666077,-0.9307374954223633,0.4670875072479248
1749912583593121000,2.53012109375,0.6437749862670898,-0.8732625246047974,0.3306874930858612
1749912583603134700,2.540134765625,0.9590625166893005,-0.7794874906539917,0.22632500529289246
1749912583613148200,2.550148193359375,1.1445499658584595,-0.6718249917030334,0.1699499934911728
1749912583623161600,2.56016162109375,1.2159124612808228,-0.4769875109195709,0.17943750321865082
1749912583633175000,2.570175048828125,1.1519750356674194,-0.12113749980926514,0.3115749955177307
1749912583643188200,2.580188232421875,1.0144749879837036,0.1387374997138977,0.4628250002861023
1749912583653201700,2.59020166015625,0.8685874938964844,0.17077499628067017,0.6385499835014343
1749912583663215000,2.600215087890625,0.7727500200271606,-0.02199999988079071,0.8570374846458435
1749912583673228500,2.610228515625,0.7077124714851379,-0.29260000586509705,1.0742875337600708
1749912583683241700,2.62024169921875,0.6363499760627747,-0.5802500247955322,1.2372249364852905
1749912583693255400,2.63025537109375,0.5542625188827515,-0.8903124928474426,1.2798500061035156
1749912583703268900,2.640268798828125,0.48826250433921814,-1.1811250448226929,1.1308000087738037
1749912583713282000,2.650281982421875,0.5926250219345093,-1.0372999906539917,0.8579999804496765
1749912583723295500,2.66029541015625,0.7983250021934509,-0.5450500249862671,0.6759499907493591
1749912583733309000,2.670308837890625,0.9037874937057495,-0.16802500188350677,0.7643625140190125
1749912583743322400,2.680322265625,0.9399499893188477,0.09624999761581421,0.9944000244140625
1749912583753335600,2.69033544921875,1.011312484741211,0.179299995303154,1.1265374422073364
1749912583763349200,2.700349365234375,1.1614625453948975,-0.05609999969601631,1.1712249517440796
1749912583773362700,2.71036279296875,1.3265999555587769,-0.47052499651908875,1.221274971961975
1749912583783376000,2.7203759765625,1.4257375001907349,-0.813587486743927,1.3331999778747559
1749912583793389300,2.730389404296875,1.3831125497817993,-0.933899998664856,1.477025032043457
1749912583803403000,2.740403076171875,1.2626625299453735,-0.8795874714851379,1.6197500228881836
1749912583813416400,2.75041650390625,1.1477124691009521,-0.7635374665260315,1.7389625310897827
1749912583823430000,2.760429931640625,1.0411499738693237,-0.6282374858856201,1.817887544631958
1749912583833443300,2.770443359375,0.9570000171661377,-0.4375250041484833,1.8605124950408936
1749912583843456500,2.78045654296875,0.9218000173568726,-0.2180749922990799,1.8913124799728394
1749912583853470000,2.790469970703125,0.9442124962806702,-0.03162499889731407,1.9201874732971191
1749912583863483400,2.8004833984375,1.1147124767303467,0.11219999939203262,1.9733999967575073
1749912583873496800,2.810496826171875,1.4396250247955322,0.202674999833107,2.078862428665161
1749912583883510300,2.82051025390625,1.7560124397277832,0.1451999992132187,2.127812385559082
1749912583893523500,2.8305234375,1.9817874431610107,0.02474999986588955,2.0745999813079834
1749912583903537000,2.840536865234375,2.1691999435424805,-0.14354999363422394,1.8977749347686768
1749912583913550300,2.85055029296875,2.3300750255584717,-0.24901250004768372,1.6590750217437744
1749912583923563800,2.860563720703125,2.493149995803833,-0.260699987411499,1.459975004196167
1749912583933577500,2.870577392578125,2.6635124683380127,-0.1999250054359436,1.3810499906539917
1749912583943590700,2.880590576171875,2.797712564468384,-0.04235000163316727,1.4631375074386597
1749912583953603800,2.890603759765625,2.854224920272827,0.3731749951839447,1.7050000429153442
1749912583963617500,2.900617431640625,2.803075075149536,1.019837498664856,1.9882500171661377
1749912583973631000,2.910630859375,2.6284499168395996,1.7239749431610107,2.1704375743865967
1749912583983644200,2.92064404296875,2.3641750812530518,2.477062463760376,2.1939499378204346
1749912583993657600,2.93065771484375,2.038300037384033,3.219562530517578,2.097975015640259
1749912584003671000,2.940671142578125,1.7069250345230103,3.87681245803833,1.9296749830245972
1749912584013684500,2.9506845703125,1.369225025177002,4.30498743057251,1.7560124397277832
1749912584023698000,2.960697998046875,1.085837483406067,4.311450004577637,1.6644375324249268
1749912584033711400,2.97071142578125,0.9751499891281128,3.9375874996185303,1.6570124626159668
1749912584043724800,2.980724853515625,1.0891374349594116,3.460325002670288,1.6303374767303467
1749912584053738000,2.990738037109375,1.1753499507904053,3.0778000354766846,1.4929749965667725
1749912584063751700,3.000751708984375,1.0496749877929688,3.0395750999450684,1.2138500213623047
1749912584073764900,3.010764892578125,0.9590625166893005,2.7636125087738037,0.9283999800682068
1749912584083778600,3.020778564453125,0.9143750071525574,2.119149923324585,0.6769124865531921
1749912584093792000,3.0307919921875,0.8419125080108643,1.4096499681472778,0.4372499883174896
1749912584103805200,3.04080517578125,0.780174970626831,0.6821374893188477,0.26042500138282776
1749912584113818600,3.050818603515625,0.7279250025749207,0.10477499663829803,0.1592250019311905
1749912584123832000,3.06083203125,0.7418124675750732,-0.2404875010251999,0.08249999582767487
1749912584133845500,3.070845458984375,0.8578624725341797,-0.48551249504089355,0.03671250119805336
1749912584143859000,3.08085888671875,0.9601625204086304,-0.7016624808311462,0.04839999973773956
1749912584153872400,3.090872314453125,1.1360249519348145,-0.9275749921798706,0.08153750002384186
1749912584163885800,3.1008857421875,1.3756874799728394,-1.1022000312805176,0.0644875019788742
1749912584173899300,3.110899169921875,1.6409250497817993,-1.1618750095367432,0.0037124999798834324
1749912584183912700,3.12091259765625,1.894474983215332,-1.2247124910354614,-0.052799999713897705
1749912584193926100,3.130926025390625,2.1234123706817627,-1.4089624881744385,-0.07727500051259995
1749912584203939300,3.140939208984375,2.2651751041412354,-1.5134625434875488,-0.11027500033378601
1749912584213952800,3.150952880859375,2.0690999031066895,-0.36822500824928284,-0.4596624970436096
1749912584223966200,3.16096630859375,1.6674624681472778,1.5960999727249146,-0.8303624987602234
1749912584233979600,3.170979736328125,1.3063875436782837,2.4483249187469482,-0.8186749815940857
1749912584243993000,3.1809931640625,0.9868375062942505,1.9966374635696411,-0.6173750162124634
1749912584254006500,3.191006591796875,0.6991875171661377,1.2072499990463257,-0.44261249899864197
1749912584264020000,3.20102001953125,0.4487999975681305,0.6725124716758728,-0.31267499923706055
1749912584274033200,3.211033203125,0.27527499198913574,0.3913249969482422,-0.1933249980211258
1749912584284046600,3.221046630859375,0.05898749828338623,0.18039999902248383,-0.0644875019788742
1749912584294060300,3.231060302734375,-0.1508374959230423,-0.0518375001847744,0.05692499876022339
1749912584304073500,3.241073486328125,-0.2957625091075897,-0.2788499891757965,0.17627499997615814
1749912584314087200,3.251087158203125,-0.3745499849319458,-0.35337498784065247,0.3147374987602234
1749912584324100400,3.261100341796875,-0.4160749912261963,-0.18081249296665192,0.46818751096725464
1749912584334113800,3.27111376953125,-0.43738749623298645,0.18892499804496765,0.5960624814033508
1749912584344127200,3.281127197265625,-0.2722499966621399,0.5403749942779541,0.6939625144004822
1749912584354140700,3.291140625,0.164450004696846,0.5883625149726868,0.7834749817848206
1749912584364154000,3.301154052734375,0.6639875173568726,0.3774375021457672,0.9102500081062317
1749912584374167300,3.311167236328125,1.0305625200271606,-0.02736249938607216,1.0594375133514404
1749912584384181000,3.321180908203125,1.252074956893921,-0.6547750234603882,1.2670625448226929
1749912584394194400,3.3311943359375,1.3319624662399292,-0.9466875195503235,1.4663000106811523
1749912584404207600,3.34120751953125,1.18607497215271,-0.07315000146627426,1.4364625215530396
1749912584414221000,3.351220947265625,0.9112125039100647,1.0719499588012695,0.9048874974250793
1749912584424234500,3.361234375,0.5649874806404114,1.2498749494552612,0.19552500545978546
1749912584434248000,3.371248046875,0.16651250422000885,0.8376500010490417,-0.36272498965263367
1749912584444261400,3.381261474609375,-0.20308749377727509,0.5403749942779541,-0.7249000072479248
1749912584454274800,3.39127490234375,-0.4927999973297119,0.559624969959259,-0.9741874933242798
1749912584464288300,3.401288330078125,-0.7889750003814697,0.5841000080108643,-1.154175043106079
1749912584474301400,3.411301513671875,-1.1692999601364136,0.5138375163078308,-1.3150500059127808
1749912584484315000,3.42131494140625,-1.5655750036239624,0.4754749834537506,-1.4983375072479248
1749912584494328300,3.431328369140625,-1.9223874807357788,0.5638874769210815,-1.6942750215530396
1749912584504341800,3.441341796875,-2.2409749031066895,0.6949250102043152,-1.8530875444412231
1749912584514355200,3.451355224609375,-2.5455374717712402,0.7288874983787537,-1.9457625150680542
1749912584524368600,3.46136865234375,-2.7256624698638916,0.6703125238418579,-1.965975046157837
1749912584534382000,3.471382080078125,-2.738450050354004,0.47011250257492065,-1.9478249549865723
1749912584544395500,3.4813955078125,-2.7191998958587646,0.23993749916553497,-1.9361374378204346
1749912584554409000,3.491408935546875,-2.6606249809265137,0.09831249713897705,-1.965975046157837
1749912584564422400,3.50142236328125,-2.5445749759674072,0.13667500019073486,-2.0299124717712402
1749912584574435600,3.511435546875,-2.366650104522705,0.3965499997138977,-2.083124876022339
1749912584584449000,3.521448974609375,-2.147200107574463,0.7609249949455261,-2.1161251068115234
1749912584594462500,3.53146240234375,-1.8776999711990356,0.9559000134468079,-2.103337526321411
1749912584604476000,3.541475830078125,-1.5932124853134155,0.929224967956543,-2.0564498901367188
1749912584614489300,3.5514892578125,-1.4057999849319458,0.8408125042915344,-2.007499933242798
1749912584624502800,3.561502685546875,-1.3919124603271484,0.7853999733924866,-1.9372375011444092
1749912584634516200,3.57151611328125,-1.4792250394821167,0.734250009059906,-1.7689374685287476
1749912584644529700,3.58152978515625,-1.5741000175476074,0.7853999733924866,-1.551550030708313
1749912584654543000,3.591543212890625,-1.6273125410079956,0.8888000249862671,-1.3545124530792236
1749912584664556500,3.601556640625,-1.682724952697754,1.0080125331878662,-1.2383249998092651
1749912584674570000,3.611570068359375,-1.7870874404907227,1.1486749649047852,-1.210687518119812
1749912584684583400,3.62158349609375,-1.967212438583374,1.2850749492645264,-1.2214125394821167
1749912584694596900,3.631596923828125,-2.2078375816345215,1.4394874572753906,-1.267199993133545
1749912584704610300,3.6416103515625,-2.490262508392334,1.61947500705719,-1.3150500059127808
1749912584714623700,3.651623779296875,-2.775712490081787,1.6834124326705933,-1.3437875509262085
1749912584724637000,3.661636962890625,-2.996262550354004,1.5012249946594238,-1.3480499982833862
1749912584734650400,3.671650390625,-3.0665249824523926,1.1464749574661255,-1.2746249437332153
1749912584744664000,3.6816640625,-2.9664249420166016,0.6991875171661377,-1.1413874626159668
1749912584754677200,3.69167724609375,-2.7095749378204346,0.254925012588501,-1.01048743724823
1749912584764690700,3.701690673828125,-2.3506999015808105,-0.09336250275373459,-0.9198749661445618
1749912584774704000,3.7117041015625,-1.9564875364303589,-0.44811248779296875,-0.8837124705314636
1749912584784717600,3.721717529296875,-1.607100009918213,-0.8753250241279602,-0.878350019454956
1749912584794731000,3.73173095703125,-1.3481874465942383,-1.3088624477386475,-0.8709250092506409
1749912584804744400,3.741744384765625,-1.1543124914169312,-1.59871244430542,-0.8590999841690063
1749912584814758000,3.7517578125,-1.0010000467300415,-1.6891875267028809,-0.8516749739646912
1749912584824771000,3.76177099609375,-0.860337495803833,-1.5816625356674194,-0.8453499674797058
1749912584834784500,3.771784423828125,-0.7144500017166138,-1.3216500282287598,-0.8260999917984009
1749912584844798200,3.781798095703125,-0.5461499691009521,-1.0126874446868896,-0.7834749817848206
1749912584854811400,3.791811279296875,-0.35749998688697815,-0.7528125047683716,-0.7004249691963196
1749912584864824800,3.801824951171875,-0.15729999542236328,-0.5813499689102173,-0.5704874992370605
1749912584874838300,3.81183837890625,0.05472499877214432,-0.4684624969959259,-0.41497498750686646
1749912584884851700,3.821851806640625,0.2699125111103058,-0.37578749656677246,-0.26688748598098755
1749912584894865000,3.831864990234375,0.46488749980926514,-0.2532750070095062,-0.14973749220371246
1749912584904878600,3.841878662109375,0.6235625147819519,-0.09019999951124191,-0.043175000697374344
1749912584914892000,3.85189208984375,0.7662875056266785,0.10683749616146088,0.09844999760389328
1749912584924905200,3.8619052734375,0.9047499895095825,0.2858625054359436,0.3051125109195709
1749912584934918700,3.871918701171875,1.0476125478744507,0.3848625123500824,0.5651249885559082
1749912584944932000,3.88193212890625,1.19350004196167,0.49678748846054077,0.8324249982833862
1749912584954945500,3.891945556640625,1.3213750123977661,0.734250009059906,1.093537449836731
1749912584964959000,3.901958984375,1.4320625066757202,0.9931625127792358,1.320412516593933
1749912584974972400,3.911972412109375,1.5300999879837036,1.2317249774932861,1.4588749408721924
1749912584984985900,3.92198583984375,1.563099980354309,1.6984000205993652,1.5291374921798706
1749912584994999000,3.9319990234375,1.5588375329971313,2.3406624794006348,1.6132874488830566
1749912585005012700,3.9420126953125,1.6472499370574951,2.545262575149536,1.6292375326156616
1749912585015026200,3.952026123046875,1.8368624448776245,1.9753249883651733,1.68464994430542
1749912585025039400,3.962039306640625,1.9721624851226807,1.3255000114440918,1.800837516784668
1749912585035052800,3.972052734375,1.812387466430664,1.1379499435424805,1.7144874334335327
1749912585045066500,3.98206640625,1.3277000188827515,1.3255000114440918,1.4183125495910645
1749912585055079700,3.99207958984375,0.7770124673843384,1.5492124557495117,1.0518749952316284
1749912585065093400,4.00209326171875,0.5542625188827515,1.627037525177002,0.806850016117096
1749912585075106600,4.0121064453125,0.6875,1.3820124864578247,0.8388875126838684
1749912585085120000,4.0221201171875,0.8888000249862671,0.8684499859809875,0.9549375176429749
1749912585095133400,4.032133544921875,1.103987455368042,0.1270499974489212,1.0220375061035156
1749912585105147000,4.04214697265625,1.3543750047683716,-0.7965375185012817,1.0487124919891357
1749912585115160300,4.052160400390625,1.5823500156402588,-1.6380374431610107,1.0412875413894653
1749912585125173500,4.062173583984375,1.7250750064849854,-2.067312479019165,1.0253374576568604
1749912585135187000,4.07218701171875,1.6898750066757202,-2.0535624027252197,1.0253374576568604
1749912585145200400,4.082200439453125,1.4928375482559204,-1.7892874479293823,1.0092500448226929
1749912585155213800,4.0922138671875,1.2307624816894531,-1.4441624879837036,0.9592000246047974
1749912585165227300,4.102227294921875,0.9922000169754028,-1.1842875480651855,0.8835750222206116
1749912585175241000,4.112240966796875,0.8057500123977661,-1.0862499475479126,0.8058875203132629
1749912585185254100,4.122254150390625,0.7108749747276306,-1.0510499477386475,0.7312250137329102
1749912585195267600,4.132267578125,0.7002875208854675,-0.9668999910354614,0.6769124865531921
1749912585205281000,4.142281005859375,0.7386500239372253,-0.7826499938964844,0.6598625183105469
1749912585215294500,4.15229443359375,0.7875999808311462,-0.518512487411499,0.669487476348877
1749912585225307600,4.1623076171875,0.8089125156402588,-0.260699987411499,0.6748499870300293
1749912585235321300,4.1723212890625,0.7875999808311462,-0.05087500065565109,0.6481750011444092
1749912585245334800,4.182334716796875,0.7481374740600586,0.1153625026345253,0.5757125020027161
1749912585255348000,4.192347900390625,0.7119749784469604,0.26551249623298645,0.4713499844074249
1749912585265361400,4.202361328125,0.7077124714851379,0.430649995803833,0.3562625050544739
1749912585275374800,4.212374755859375,0.7449749708175659,0.6395124793052673,0.2626250088214874
1749912585285388300,4.22238818359375,0.8142749667167664,0.8780750036239624,0.20184999704360962
1749912585295401500,4.2324013671875,0.8802750110626221,1.139050006866455,0.17201249301433563
1749912585305415000,4.242414794921875,0.9314249753952026,1.3925999402999878,0.16238750517368317
1749912585315428600,4.2524287109375,0.9516375064849854,1.601462483406067,0.1592250019311905
1749912585325441800,4.26244189453125,0.9473749995231628,1.7408875226974487,0.14533749222755432
1749912585335455200,4.272455322265625,0.9336249828338623,1.8101874589920044,0.11659999936819077
1749912585345468400,4.282468505859375,0.8930624723434448,1.8166500329971313,0.07397499680519104
1749912585355482000,4.292482177734375,0.8227999806404114,1.7579374313354492,0.03244999796152115
1749912585365495600,4.30249560546875,0.7897999882698059,1.6589374542236328,0.007974999956786633
1749912585375508700,4.3125087890625,0.8163374662399292,1.510849952697754,0.020762499421834946
1749912585385522200,4.322522216796875,0.8877000212669373,1.3201375007629395,0.08249999582767487
1749912585395535600,4.33253564453125,0.9718499779701233,1.1103124618530273,0.17847499251365662
1749912585405549000,4.342549072265625,1.0166749954223633,0.8812375068664551,0.27541249990463257
1749912585415562200,4.352562255859375,1.0081499814987183,0.6500999927520752,0.34347498416900635
1749912585425576000,4.362575927734375,0.9388499855995178,0.4754749834537506,0.3786749839782715
1749912585435589400,4.37258935546875,0.8409500122070312,0.41263750195503235,0.405349999666214
1749912585445602600,4.3826025390625,0.7737125158309937,0.4380750060081482,0.4778124988079071
1749912585455616000,4.392615966796875,0.7503374814987183,0.5691124796867371,0.612012505531311
1749912585465629700,4.402629638671875,0.7523999810218811,0.7939249873161316,0.7536374926567078
1749912585475643000,4.412642822265625,0.7088124752044678,1.0495375394821167,0.8229374885559082
1749912585485656600,4.422656494140625,0.5883625149726868,1.3297624588012695,0.7717875242233276
1749912585495669800,4.432669677734375,0.40411248803138733,1.554574966430664,0.5970249772071838
1749912585505683500,4.442683349609375,0.21876250207424164,1.6077874898910522,0.3147374987602234
1749912585515697000,4.45269677734375,0.07067500054836273,1.4246374368667603,-0.03244999796152115
1749912585525710000,4.4627099609375,-0.03904999792575836,1.0357874631881714,-0.39902499318122864
1749912585535723500,4.4727236328125,-0.116737499833107,0.5435374975204468,-0.7249000072479248
1749912585545737000,4.482737060546875,-0.20418749749660492,0.06104999780654907,-0.9326624870300293
1749912585555750400,4.49275048828125,-0.33096250891685486,-0.357637494802475,-0.9710249900817871
1749912585565764000,4.50276416015625,-0.5044875144958496,-0.7442874908447266,-0.8496124744415283
1749912585575777300,4.51277734375,-0.7059249877929688,-1.1012375354766846,-0.6535375118255615
1749912585585790700,4.522790771484375,-0.8879749774932861,-1.3077625036239624,-0.5087500214576721
1749912585595804400,4.532804443359375,-1.026574969291687,-1.2641749382019043,-0.4778124988079071
1749912585605817600,4.542817626953125,-1.1490875482559204,-0.9455875158309937,-0.5640249848365784
1749912585615830800,4.552830810546875,-1.2992374897003174,-0.3959999978542328,-0.7408499717712402
1749912585625844200,4.56284423828125,-1.5164874792099,0.2591874897480011,-0.9624999761581421
1749912585635858000,4.57285791015625,-1.7796624898910522,0.8504375219345093,-1.193637490272522
1749912585645871000,4.58287109375,-2.0395374298095703,1.253037452697754,-1.4162499904632568
1749912585655884500,4.592884521484375,-2.2313499450683594,1.5023249387741089,-1.5888124704360962
1749912585665898000,4.60289794921875,-2.370912551879883,1.61947500705719,-1.6473875045776367
1749912585675911400,4.612911376953125,-2.52848744392395,1.6046249866485596,-1.6026999950408936
1749912585685924900,4.6229248046875,-2.7373499870300293,1.452275037765503,-1.4929749965667725
1749912585695938300,4.632938232421875,-2.9546000957489014,1.4926999807357788,-1.2714624404907227
1749912585705951700,4.64295166015625,-3.033524990081787,1.628000020980835,-0.8922374844551086
1749912585715965000,4.65296484375,-2.9536375999450684,1.1156749725341797,-0.5938624739646912
1749912585725978400,4.662978271484375,-2.7640249729156494,0.0013749999925494194,-0.43092501163482666
1749912585735992000,4.672991943359375,-2.5412750244140625,-1.3003374338150024,-0.33508750796318054
1749912585746005200,4.683005126953125,-2.332550048828125,-2.405012369155884,-0.34031251072883606
1749912585756018700,4.693018798828125,-2.173875093460083,-3.119874954223633,-0.5150749683380127
1749912585766032100,4.7030322265625,-2.0534250736236572,-3.298762559890747,-0.8090500235557556
1749912585776045600,4.713045654296875,-1.9714750051498413,-2.889699935913086,-1.120212435722351
1749912585786059000,4.72305908203125,-1.9629499912261963,-2.067312479019165,-1.342824935913086
1749912585796072200,4.733072265625,-2.0545248985290527,-1.3375999927520752,-1.3246749639511108
1749912585806086000,4.7430859375,-2.177037477493286,-0.8412249684333801,-1.0722249746322632
1749912585816099000,4.75309912109375,-2.2515625953674316,-0.5483499765396118,-0.73232501745224
1749912585826112500,4.763112548828125,-2.2452375888824463,-0.48977500200271606,-0.45649999380111694
1749912585836126000,4.7731259765625,-2.1833624839782715,-0.5450500249862671,-0.2689499855041504
1749912585846139400,4.783139404296875,-2.111999988555908,-0.647350013256073,-0.13158750534057617
1749912585856152800,4.79315283203125,-2.0395374298095703,-0.805062472820282,-0.03148749843239784
1749912585866166300,4.803166259765625,-1.9544249773025513,-0.978725016117096,0.016499999910593033
1749912585876179500,4.813179443359375,-1.8414000272750854,-1.0851500034332275,0.01223750039935112
1749912585886193200,4.823193115234375,-1.691249966621399,-1.0234124660491943,-0.018699999898672104
1749912585896206300,4.833206298828125,-1.5175875425338745,-0.805062472820282,-0.043175000697374344
1749912585906219800,4.8432197265625,-1.3259124755859375,-0.5205749869346619,-0.04001250118017197
1749912585916233200,4.853233154296875,-1.109624981880188,-0.2638624906539917,0.011137500405311584
1749912585926246700,4.86324658203125,-0.8668000102043152,-0.09872499853372574,0.12828749418258667
1749912585936260000,4.873260009765625,-0.6004624962806702,-0.04441250115633011,0.30937498807907104
1749912585946273500,4.8832734375,-0.32670000195503235,-0.0976250022649765,0.5395500063896179
1749912585956287000,4.893286865234375,-0.035887498408555984,-0.17338749766349792,0.7781124711036682
1749912585966300400,4.903300537109375,0.2901250123977661,-0.18081249296665192,0.9890375137329102
1749912585976313600,4.913313720703125,0.6565625071525574,-0.1424500048160553,1.1669625043869019
1749912585986327300,4.923327392578125,1.0826749801635742,-0.1264999955892563,1.2916749715805054
1749912585996340500,4.933340576171875,1.543987512588501,-0.09129999577999115,1.3619375228881836
1749912586006354000,4.94335400390625,1.9934749603271484,0.1377750039100647,1.3917750120162964
1749912586016367400,4.953367431640625,2.3632125854492188,0.6671500205993652,1.4557124376296997
1749912586026380800,4.963380859375,2.586787462234497,1.445812463760376,1.6601749658584595
1749912586036394000,4.97339404296875,2.6305124759674072,2.360874891281128,1.9925124645233154
1749912586046407700,4.98340771484375,2.3333749771118164,3.7852375507354736,2.061812400817871
1749912586056421000,4.993421142578125,1.5503125190734863,4.82061243057251,1.8401625156402588
1749912586066434600,5.0034345703125,0.762024998664856,3.62862491607666,1.692212462425232
1749912586076448000,5.013447998046875,0.3529624938964844,2.311924934387207,0.8835750222206116
1749912586086461200,5.023461181640625,0.34759998321533203,1.7143499851226807,-0.1443749964237213
1749912586096475000,5.033474853515625,0.6406124830245972,1.3446124792099,-0.33178749680519104
1749912586106488000,5.043488037109375,0.9399499893188477,0.5275874733924866,0.07823749631643295
1749912586116501500,5.05350146484375,1.1317625045776367,-0.5131499767303467,0.34031251072883606
1749912586126515000,5.063514892578125,1.3426874876022339,-1.3707374334335327,0.46502500772476196
1749912586136528100,5.073528076171875,1.5758874416351318,-1.9108375310897827,0.558662474155426
1749912586146541800,5.083541748046875,1.7825499773025513,-2.249500036239624,0.6461125016212463
1749912586156555300,5.09355517578125,1.902999997138977,-2.5019500255584717,0.7269625067710876
1749912586166568700,5.103568603515625,1.9135874509811401,-2.5957250595092773,0.7430499792098999
1749912586176582100,5.11358203125,1.8092249631881714,-2.397587537765503,0.6535375118255615
1749912586186595600,5.123595703125,1.6046249866485596,-1.7957500219345093,0.5097125172615051
1749912586196608800,5.13360888671875,1.3723875284194946,-0.9702000021934509,0.34677499532699585
1749912586206622500,5.14362255859375,1.1923999786376953,-0.31185001134872437,0.1699499934911728
1749912586216635600,5.1536357421875,1.0922999382019043,0.03657500073313713,0.050599999725818634
1749912586226649000,5.163649169921875,1.085837483406067,0.18562500178813934,0.058024998754262924
1749912586236662500,5.17366259765625,1.1657249927520752,0.2858625054359436,0.18479999899864197
1749912586246676000,5.183676025390625,1.2722874879837036,0.36355000734329224,0.3605250120162964
1749912586256689400,5.193689453125,1.343649983406067,0.3848625123500824,0.5202999711036682
1749912586276716300,5.21371630859375,1.3351249694824219,0.40191251039505005,0.7195374965667725
1749912586286729500,5.2237294921875,1.2637624740600586,0.49678748846054077,0.7493749856948853
1749912586296743000,5.233742919921875,1.1764500141143799,0.6384124755859375,0.7260000109672546
1749912586306756600,5.243756591796875,1.102887511253357,0.7907624840736389,0.6418499946594238
1749912586316769800,5.253769775390625,1.0582000017166138,0.9218000173568726,0.5097125172615051
1749912586326783200,5.263783203125,1.0422500371932983,1.054900050163269,0.3531000018119812
1749912586336796700,5.273796630859375,1.0517375469207764,1.2265000343322754,0.20295000076293945
1749912586346810000,5.28381005859375,1.0869375467300415,1.4224375486373901,0.07823749631643295
1749912586356823600,5.293823486328125,1.1167750358581543,1.6066875457763672,-0.01223750039935112
1749912586366837000,5.3038369140625,1.1178749799728394,1.754775047302246,-0.05596249923110008
1749912586376850400,5.313850341796875,1.0773124694824219,1.8251750469207764,-0.05376249924302101
1749912586386863600,5.323863525390625,0.9879375100135803,1.7792500257492065,-0.03355000168085098
1749912586396877000,5.333876953125,0.8728500008583069,1.5992624759674072,-0.018699999898672104
1749912586406890800,5.343890869140625,0.7684875130653381,1.3457125425338745,-0.015399999916553497
1749912586416904000,5.353904052734375,0.6895624995231628,1.0921624898910522,-0.016499999910593033
1749912586426917400,5.36391748046875,0.6363499760627747,0.8973249793052673,0.0037124999798834324
1749912586436930600,5.3739306640625,0.5979874730110168,0.7459374666213989,0.05486249923706055
1749912586446944300,5.3839443359375,0.5638874769210815,0.6107749938964844,0.11027500033378601
1749912586456957400,5.39395751953125,0.5255249738693237,0.4604874849319458,0.14643749594688416
1749912586466971000,5.403970947265625,0.46488749980926514,0.30717501044273376,0.15496249496936798
1749912586476984600,5.413984619140625,0.40837499499320984,0.17710000276565552,0.14533749222755432
1749912586486997800,5.423997802734375,0.39448750019073486,0.11110000312328339,0.133650004863739
1749912586497011200,5.43401123046875,0.4371125102043152,0.10903749614953995,0.13791249692440033
1749912586507024600,5.444024658203125,0.511775016784668,0.12168750166893005,0.16032500565052032
1749912586517038000,5.4540380859375,0.5841000080108643,0.08868750184774399,0.20074999332427979
1749912586527051500,5.464051513671875,0.6065124869346619,0.002474999986588955,0.26468750834465027
1749912586537064700,5.474064697265625,0.5755749940872192,-0.021037500351667404,0.3669874966144562
1749912586547078400,5.484078369140625,0.49252501130104065,0.1685750037431717,0.511775016784668
1749912586557091600,5.494091552734375,0.3572250008583069,0.5638874769210815,0.6247999668121338
1749912586567105000,5.50410498046875,0.20913749933242798,1.046375036239624,0.5938624739646912
1749912586577118500,5.514118408203125,0.06435000151395798,1.4309624433517456,0.3030500113964081
1749912586587132000,5.5241318359375,-0.11893749982118607,1.538487434387207,-0.2540999948978424
1749912586597145300,5.534145263671875,-0.344712495803833,1.3371875286102295,-0.8889374732971191
1749912586607158800,5.54415869140625,-0.5769500136375427,0.9526000022888184,-1.3886125087738037
1749912586617172200,5.554172119140625,-0.8123499751091003,0.5553625226020813,-1.6570124626159668
1749912586627185700,5.564185546875,-1.0701625347137451,0.25808748602867126,-1.645324945449829
1749912586637199000,5.57419921875,-1.3620749711990356,0.08442500233650208,-1.403462529182434
1749912586647212500,5.584212646484375,-1.615625023841858,-0.05609999969601631,-1.129699945449829
1749912586657225700,5.594225830078125,-1.80840003490448,-0.14451250433921814,-0.9624999761581421
1749912586667239200,5.6042392578125,-1.9980125427246094,0.002474999986588955,-0.9039250016212463
1749912586677252900,5.6142529296875,-2.170574903488159,0.36465001106262207,-0.9039250016212463
1749912586687266000,5.62426611328125,-2.213200092315674,0.7321875095367432,-0.9283999800682068
1749912586697279500,5.634279541015625,-2.1620500087738037,1.0091124773025513,-0.927299976348877
1749912586707293000,5.64429296875,-2.1290500164031982,1.2328250408172607,-0.8601999878883362
1749912586717306400,5.654306396484375,-2.181299924850464,1.4596999883651733,-0.7174749970436096
1749912586727319800,5.66431982421875,-2.366650104522705,1.5321625471115112,-0.5256624817848206
1749912586737333200,5.674333251953125,-2.686199903488159,1.3744499683380127,-0.3712500035762787
1749912586747346700,5.6843466796875,-3.0005249977111816,1.0986249446868896,-0.3777124881744385
1749912586757360000,5.694360107421875,-3.099524974822998,0.6213625073432922,-0.5076500177383423
1749912586767373600,5.70437353515625,-2.944012403488159,-0.20418749749660492,-0.5704874992370605
1749912586777387000,5.714386962890625,-2.6510000228881836,-1.4537874460220337,-0.41497498750686646
1749912586787400400,5.724400390625,-2.366650104522705,-2.8524374961853027,-0.09748750180006027
1749912586797414000,5.734413818359375,-2.1546249389648438,-3.8985373973846436,0.133650004863739
1749912586807427000,5.744427001953125,-1.9969124794006348,-4.314062595367432,0.09955000132322311
1749912586817440500,5.7544404296875,-1.9160624742507935,-4.031774997711182,-0.23485000431537628
1749912586827454000,5.764453857421875,-1.891450047492981,-3.015512466430664,-0.7728874683380127
1749912586837467400,5.77446728515625,-1.9255499839782715,-1.5464625358581543,-1.1990000009536743
1749912586847480800,5.784480712890625,-2.0343124866485596,-0.49720001220703125,-1.193637490272522
1749912586857494300,5.794494384765625,-2.153524875640869,-0.02419999986886978,-0.8729875087738037
1749912586867507700,5.8045078125,-2.181299924850464,-0.014574999921023846,-0.47561249136924744
1749912586877521200,5.814521240234375,-2.0864250659942627,-0.3394874930381775,-0.17201249301433563
1749912586887534300,5.824534423828125,-1.926650047302246,-0.7954375147819519,0.01759999990463257
1749912586897548000,5.834548095703125,-1.7583500146865845,-1.2056000232696533,0.12828749418258667
1749912586907561200,5.844561279296875,-1.5985749959945679,-1.4367375373840332,0.15070000290870667
1749912586917574700,5.85457470703125,-1.4654749631881714,-1.3153250217437744,0.09748750180006027
1749912586927588400,5.86458837890625,-1.3600125312805176,-0.8497499823570251,0.01966249942779541
1749912586937601500,5.8746015625,-1.2608749866485596,-0.28737500309944153,-0.020762499421834946
1749912586947614700,5.88461474609375,-1.1405625343322754,0.13021250069141388,0.007974999956786633
1749912586957628200,5.894628173828125,-0.9924749732017517,0.2858625054359436,0.10064999759197235
1749912586967641900,5.904641845703125,-0.8262374997138977,0.1676124930381775,0.23278750479221344
1749912586977655000,5.914655029296875,-0.6451500058174133,-0.1264999955892563,0.3755125105381012
1749912586987668700,5.924668701171875,-0.43642500042915344,-0.4641999900341034,0.511775016784668
1749912586997682200,5.93468212890625,-0.1732500046491623,-0.7251750230789185,0.6215000152587891
1749912587007695400,5.9446953125,0.142037495970726,-0.8358625173568726,0.7067499756813049
1749912587017708800,5.954708740234375,0.48510000109672546,-0.7869125008583069,0.769587516784668
1749912587027722200,5.96472216796875,0.8205999732017517,-0.6175125241279602,0.8196374773979187
1749912587037735700,5.974735595703125,1.1338249444961548,-0.42473748326301575,0.870787501335144
1749912587047749000,5.9847490234375,1.4396250247955322,-0.2106499969959259,0.9645624756813049
1749912587057762600,5.994762451171875,1.7729250192642212,0.18246249854564667,1.1478500366210938
1749912587067776000,6.00477587890625,2.119149923324585,0.7193999886512756,1.4194124937057495
1749912587077789200,6.0147890625,2.4056999683380127,1.0708500146865845,1.7720999717712402
1749912587087802600,6.024802734375,2.566575050354004,1.4767500162124634,1.98618745803833
1749912587097816300,6.03481640625,2.4536874294281006,3.175837516784668,1.7166874408721924
1749912587107829500,6.04482958984375,2.0340375900268555,4.179312705993652,1.5142874717712402
1749912587117843000,6.054843017578125,1.628137469291687,3.382499933242798,1.3960374593734741
1749912587127856400,6.0648564453125,1.4055249691009521,2.659250020980835,0.9091500043869019
1749912587137869800,6.074869873046875,1.2372249364852905,2.666675090789795,0.13791249692440033
1749912587147883300,6.08488330078125,0.9772124886512756,3.0012125968933105,-0.2615250051021576
1749912587157896700,6.094896728515625,0.7354875206947327,2.2309374809265137,-0.11137499660253525
1749912587167910100,6.10491015625,0.8419125080108643,0.6489999890327454,0.009074999950826168
1749912587177923600,6.114923583984375,1.1562374830245972,-0.6868125200271606,-0.0037124999798834324
1749912587187936800,6.124936767578125,1.4502124786376953,-1.4643750190734863,0.030387500301003456
1749912587197950200,6.1349501953125,1.6642999649047852,-1.883062481880188,0.1742125004529953
1749912587207963600,6.144963623046875,1.7793874740600586,-2.1962873935699463,0.3638249933719635
1749912587217977000,6.15497705078125,1.7474875450134277,-2.5766124725341797,0.4745124876499176
1749912587227990500,6.164990478515625,1.5982999801635742,-2.931225061416626,0.4404124915599823
1749912587238004000,6.17500390625,1.4607999324798584,-3.061300039291382,0.2732124924659729
1749912587248017200,6.18501708984375,1.3649624586105347,-2.8589000701904297,0.018562499433755875
1749912587258030800,6.19503076171875,1.2595000267028809,-2.251699924468994,-0.2391124963760376
1749912587268044000,6.2050439453125,1.1477124691009521,-1.2491874694824219,-0.3531000018119812
1749912587278057500,6.215057373046875,1.0869375467300415,-0.34264999628067017,-0.30098751187324524
1749912587288071000,6.22507080078125,1.0911999940872192,0.01732499897480011,-0.1859000027179718
1749912587298084400,6.23508447265625,1.1349250078201294,-0.045512501150369644,-0.01966249942779541
1749912587308097800,6.245097900390625,1.2265000343322754,-0.20528750121593475,0.21147499978542328
1749912587318111000,6.255111083984375,1.3681249618530273,-0.2116124927997589,0.4692874848842621
1749912587328124700,6.265124755859375,1.5067249536514282,-0.07644999772310257,0.6939625144004822
1749912587338138000,6.27513818359375,1.5833125114440918,0.07493750005960464,0.8335250020027161
1749912587348151300,6.2851513671875,1.562000036239624,0.17613749206066132,0.870787501335144
1749912587358164700,6.295164794921875,1.4607999324798584,0.23141250014305115,0.8292624950408936
1749912587368178400,6.305178466796875,1.3171124458312988,0.2751374840736389,0.7482749819755554
1749912587378191600,6.315191650390625,1.1753499507904053,0.37950000166893005,0.6631624698638916
1749912587388205000,6.325205078125,1.0645250082015991,0.5979874730110168,0.5917999744415283
1749912587398218500,6.335218505859375,1.0144749879837036,0.8397125005722046,0.521399974822998
1749912587408232000,6.34523193359375,1.0144749879837036,1.0230000019073486,0.4404124915599823
1749912587418245000,6.3552451171875,1.0400500297546387,1.1347874402999878,0.36162498593330383
1749912587428258600,6.365258544921875,1.0592999458312988,1.2009249925613403,0.3073124885559082
1749912587438272000,6.37527197265625,1.046512484550476,1.2476749420166016,0.2891624867916107
1749912587448285400,6.385285400390625,1.0081499814987183,1.2626625299453735,0.30937498807907104
1749912587458299000,6.395298828125,0.9336249828338623,1.229662537574768,0.35420000553131104
1749912587468312300,6.405312255859375,0.8089125156402588,1.1422125101089478,0.39682498574256897
1749912587478325800,6.41532568359375,0.65972501039505,0.9952250123023987,0.43408748507499695
1749912587488339200,6.425339111328125,0.5297874808311462,0.853600025177002,0.49582499265670776
1749912587498352400,6.435352294921875,0.43188750743865967,0.7790749669075012,0.567187488079071
1749912587508366000,6.445365966796875,0.35089999437332153,0.7225624918937683,0.620537519454956
1749912587518379300,6.455379150390625,0.2773374915122986,0.6276875138282776,0.612975001335144
1749912587528392700,6.465392822265625,0.2134000062942505,0.5116375088691711,0.5480750203132629
1749912587538406100,6.47540625,0.16224999725818634,0.47437500953674316,0.4883999824523926
1749912587548419600,6.485419677734375,0.1335124969482422,0.6437749862670898,0.4692874848842621
1749912587558433000,6.49543310546875,0.10477499663829803,1.0005874633789062,0.46598750352859497
1749912587568446500,6.505446533203125,0.0728750005364418,1.3169749975204468,0.41593748331069946
1749912587578460000,6.5154599609375,0.06641250103712082,1.4320625066757202,0.2849000096321106
1749912587588473000,6.52547314453125,0.08882500231266022,1.3468124866485596,0.10175000131130219
1749912587598486800,6.53548681640625,0.13571250438690186,1.1688874959945679,-0.0835999995470047
1749912587608500200,6.545500244140625,0.19318750500679016,0.9878000020980835,-0.24873749911785126
1749912587618513400,6.555513427734375,0.25066250562667847,0.8152375221252441,-0.37014999985694885
1749912587628527000,6.565527099609375,0.30717501044273376,0.6182000041007996,-0.43092501163482666
1749912587638540300,6.575540283203125,0.35612499713897705,0.4008125066757202,-0.44261249899864197
1749912587648554000,6.585553955078125,0.35089999437332153,0.16541250050067902,-0.4468750059604645
1749912587658567400,6.5955673828125,0.28380000591278076,-0.08703749626874924,-0.4735499918460846
1749912587668580600,6.60558056640625,0.12828749418258667,-0.3502124845981598,-0.520437479019165
1749912587678594000,6.615593994140625,-0.11151249706745148,-0.6015625,-0.557699978351593
1749912587688607500,6.625607421875,-0.4012250006198883,-0.8124874830245972,-0.5332249999046326
1749912587698621000,6.635620849609375,-0.7059249877929688,-0.9583749771118164,-0.4351874887943268
1749912587708634000,6.645634033203125,-0.9849125146865845,-1.0202499628067017,-0.29782500863075256
1749912587718647800,6.655647705078125,-1.1873124837875366,-0.9744625091552734,-0.19442500174045563
1749912587728661000,6.665660888671875,-1.3194500207901,-0.7975000143051147,-0.17737500369548798
1749912587738674400,6.67567431640625,-1.4238125085830688,-0.4620000123977661,-0.2998875081539154
1749912587748688000,6.68568798828125,-1.541100025177002,0.057887498289346695,-0.5843750238418579
1749912587758701300,6.695701416015625,-1.717924952507019,0.7012500166893005,-0.989175021648407
1749912587768714800,6.70571484375,-1.966112494468689,1.3840750455856323,-1.4003000259399414
1749912587778728200,6.715728271484375,-2.2100374698638916,2.0179500579833984,-1.7146250009536743
1749912587788741600,6.72574169921875,-2.369812488555908,2.4824249744415283,-1.8508875370025635
1749912587798755000,6.735755126953125,-2.459325075149536,2.814762592315674,-1.8136249780654907
1749912587808768300,6.745768310546875,-2.5264248847961426,3.1044750213623047,-1.625112533569336
1749912587818781700,6.75578173828125,-2.618000030517578,3.248300075531006,-1.2979999780654907
1749912587828795400,6.76579541015625,-2.727725028991699,2.9979124069213867,-0.9092875123023987
1749912587838808600,6.77580859375,-2.7885000705718994,2.367337465286255,-0.6173750162124634
1749912587848822000,6.785822021484375,-2.7160375118255615,1.5492124557495117,-0.5853375196456909
1749912587858835500,6.79583544921875,-2.532749891281128,0.6395124793052673,-0.7706875205039978
1749912587868849000,6.805848876953125,-2.3240249156951904,-0.39806249737739563,-0.9167125225067139
1749912587878862300,6.8158623046875,-2.140737533569336,-1.4111624956130981,-0.8889374732971191
1749912587888875500,6.82587548828125,-1.9735374450683594,-2.122725009918213,-0.7526749968528748
1749912587898889200,6.83588916015625,-1.8222874402999878,-2.3304874897003174,-0.649275004863739
1749912587908902400,6.84590234375,-1.7231500148773193,-1.9586875438690186,-0.6844750046730042
1749912587918915800,6.855915771484375,-1.717924952507019,-1.1032999753952026,-0.852774977684021
1749912587928929300,6.86592919921875,-1.8361749649047852,-0.1615625023841858,-1.0636999607086182
1749912587938942700,6.875942626953125,-2.023587465286255,0.4977499842643738,-1.2394249439239502
1749912587948956000,6.885955810546875,-2.188724994659424,0.8386124968528748,-1.2809499502182007
1749912587958969600,6.895969482421875,-2.270812511444092,0.8802750110626221,-1.1712249517440796
1749912587968983000,6.905983154296875,-2.2452375888824463,0.6000499725341797,-1.0019625425338745
1749912587978996500,6.91599658203125,-2.153524875640869,0.020487500354647636,-0.8442500233650208
1749912587989010000,6.926010009765625,-2.0417375564575195,-0.7048249840736389,-0.731362521648407
1749912587999023400,6.9360234375,-1.9309124946594238,-1.2524875402450562,-0.6535375118255615
1749912588009036500,6.94603662109375,-1.8020750284194946,-1.4430625438690186,-0.6162750124931335
1749912588019050200,6.95605029296875,-1.6465624570846558,-1.2812249660491943,-0.6162750124931335
1749912588029063400,6.9660634765625,-1.4782625436782837,-0.9233124852180481,-0.6450124979019165
1749912588039076900,6.976076904296875,-1.310925006866455,-0.5717250108718872,-0.6727874875068665
1749912588049090000,6.986090087890625,-1.1490875482559204,-0.3554374873638153,-0.6737499833106995
1749912588059103500,6.996103515625,-1.0126874446868896,-0.3170749843120575,-0.6364874839782715
1749912588069117200,7.0061171875,-0.9092875123023987,-0.4278999865055084,-0.5673249959945679
1749912588079130400,7.01613037109375,-0.8251374959945679,-0.6313999891281128,-0.48743748664855957
1749912588089143600,7.0261435546875,-0.7367249727249146,-0.8295375108718872,-0.4064500033855438
1749912588099157200,7.0361572265625,-0.619575023651123,-0.9327999949455261,-0.3041499853134155
1749912588109170700,7.046170654296875,-0.4449499845504761,-0.8827499747276306,-0.17201249301433563
1749912588119184000,7.056183837890625,-0.21051250398159027,-0.6962999701499939,-0.007974999956786633
1749912588129197300,7.066197265625,0.057887498289346695,-0.4193750023841858,0.17311249673366547
1749912588139210800,7.076210693359375,0.3316499888896942,-0.1307625025510788,0.34031251072883606
1749912588149224200,7.08622412109375,0.5852000117301941,0.1313125044107437,0.47244998812675476
1749912588159237600,7.096237548828125,0.8302249908447266,0.36465001106262207,0.5864375233650208
1749912588169250800,7.106250732421875,1.0678249597549438,0.5713124871253967,0.7260000109672546
1749912588179264300,7.11626416015625,1.287274956703186,0.7587249875068665,0.9059875011444092
1749912588189278000,7.12627783203125,1.4854124784469604,0.983537495136261,1.1083874702453613
1749912588199291100,7.136291015625,1.6568750143051147,1.2808125019073486,1.3107874393463135
1749912588209304300,7.14630419921875,1.7836500406265259,1.6504124402999878,1.468500018119812
1749912588219318000,7.156318115234375,1.7666000127792358,2.304500102996826,1.450350046157837
1749912588229331200,7.166331298828125,1.3308625221252441,3.3728749752044678,1.1819499731063843
1749912588239344600,7.1763447265625,0.443574994802475,4.447849750518799,0.8846749663352966
1749912588249358300,7.1863583984375,-0.1956624984741211,4.361499786376953,0.9912375211715698
1749912588259371500,7.19637158203125,0.060087498277425766,2.9117000102996826,0.8335250020027161
1749912588269385000,7.206385009765625,1.1455124616622925,1.3446124792099,0.13255000114440918
1749912588279398700,7.216398681640625,2.008462429046631,0.2751374840736389,0.006874999962747097
1749912588289411800,7.226411865234375,2.2171874046325684,-0.7900750041007996,0.6513375043869019
1749912588299425300,7.23642529296875,2.152287483215332,-2.0450375080108643,0.981612503528595
1749912588309438700,7.246438720703125,1.9988374710083008,-2.641512393951416,1.0008624792099
1749912588319452200,7.2564521484375,1.8581750392913818,-2.404049873352051,0.6567000150680542
1749912588329465600,7.266465576171875,1.7804875373840332,-1.34089994430542,0.2924624979496002
1749912588339479000,7.27647900390625,1.6909749507904053,-0.01677500084042549,0.20721249282360077
1749912588349492500,7.286492431640625,1.5940375328063965,0.6404749751091003,0.26358750462532043
1749912588359505700,7.296505615234375,1.5514124631881714,0.7140374779701233,0.3254624903202057
1749912588369519400,7.306519287109375,1.5556750297546387,0.6671500205993652,0.42239999771118164
1749912588379532500,7.316532470703125,1.5471500158309937,0.7981874942779541,0.6109125018119812
1749912588389546000,7.3265458984375,1.4948999881744385,1.1336874961853027,0.8590999841690063
1749912588399559700,7.3365595703125,1.436324954032898,1.3723875284194946,1.0466500520706177
1749912588409572900,7.34657275390625,1.4172124862670898,1.38833749294281,1.1169124841690063
1749912588419586300,7.35658642578125,1.45131254196167,1.2903000116348267,1.0711250305175781
1749912588429599700,7.366599853515625,1.5141500234603882,1.2189375162124634,0.9326624870300293
1749912588439613200,7.37661328125,1.570525050163269,1.1901999711990356,0.73232501745224
1749912588449626400,7.38662646484375,1.5844124555587769,1.111412525177002,0.5256624817848206
1749912588459639800,7.396639892578125,1.5482499599456787,0.9505375027656555,0.368087500333786
1749912588469653200,7.4066533203125,1.480049967765808,0.7182999849319458,0.2657875120639801
1749912588479666700,7.416666748046875,1.4086874723434448,0.47437500953674316,0.18479999899864197
1749912588489680000,7.426679931640625,1.3490124940872192,0.27197501063346863,0.1060125008225441
1749912588499693600,7.436693603515625,1.303225040435791,0.11426249891519547,0.03244999796152115
1749912588509707000,7.44670703125,1.2669249773025513,0.011962499469518661,-0.04097500070929527
1749912588519720200,7.45672021484375,1.2392874956130981,-0.03272499889135361,-0.13158750534057617
1749912588529733600,7.466733642578125,1.2062875032424927,-0.05939999967813492,-0.23278750479221344
1749912588539747000,7.4767470703125,1.1827750205993652,-0.06146249920129776,-0.31693750619888306
1749912588549760500,7.486760498046875,1.184975028038025,-0.04661250114440918,-0.34251248836517334
1749912588559774000,7.49677392578125,1.2105499505996704,-0.023099999874830246,-0.3041499853134155
1749912588569787400,7.506787353515625,1.2414875030517578,-0.045512501150369644,-0.22206249833106995
1749912588579800800,7.51680078125,1.2626625299453735,-0.0976250022649765,-0.11990000307559967
1749912588589814300,7.526814208984375,1.2509750127792358,-0.1381874978542328,-0.0037124999798834324
1749912588599827700,7.53682763671875,1.204087495803833,-0.19882500171661377,0.13255000114440918
1749912588609841000,7.5468408203125,1.112512469291687,-0.3235374987125397,0.28600001335144043
1749912588619854300,7.556854248046875,0.9985250234603882,-0.48124998807907104,0.4127750098705292
1749912588629867800,7.56686767578125,0.899524986743927,-0.6217749714851379,0.47987499833106995
1749912588639881200,7.576881103515625,0.8366875052452087,-0.7507500052452087,0.5150749683380127
1749912588649894700,7.586894775390625,0.8111125230789185,-0.7933750152587891,0.5543999671936035
1749912588659908000,7.596908203125,0.8120750188827515,-0.6601374745368958,0.6364874839782715
1749912588669921500,7.606921630859375,0.7875999808311462,-0.4045250117778778,0.7302625179290771
1749912588679934700,7.616934814453125,0.7088124752044678,-0.09129999577999115,0.7845749855041504
1749912588689948400,7.626948486328125,0.6150375008583069,0.23787499964237213,0.7462124824523926
1749912588699961600,7.636961669921875,0.5533000230789185,0.5053125023841858,0.6215000152587891
1749912588709975000,7.64697509765625,0.5425750017166138,0.64267498254776,0.4692874848842621
1749912588719988500,7.656988525390625,0.511775016784668,0.7279250025749207,0.3414124846458435
1749912588730002000,7.667001953125,0.4573250114917755,0.7907624840736389,0.27857500314712524
1749912588740015400,7.677015380859375,0.4254249930381775,0.9207000136375427,0.3104749917984009
1749912588750028800,7.68702880859375,0.35942500829696655,1.229662537574768,0.4511374831199646
1749912588760042200,7.697042236328125,0.2400749921798706,1.5097500085830688,0.612012505531311
1749912588770055400,7.707055419921875,0.12718750536441803,1.5034250020980835,0.7334250211715698
1749912588780069000,7.717069091796875,0.05472499877214432,1.2828749418258667,0.8186749815940857
1749912588790082600,7.72708251953125,0.03657500073313713,1.0517375469207764,0.8676249980926514
1749912588800095700,7.737095703125,0.06751249730587006,0.9153375029563904,0.8931999802589417
1749912588810109200,7.747109130859375,0.1036750003695488,0.8525000214576721,0.915612518787384
1749912588820122600,7.75712255859375,0.1143999993801117,0.8482375144958496,0.9293624758720398
1749912588830136000,7.767135986328125,0.09088750183582306,0.9281250238418579,0.9411875009536743
1749912588840149200,7.777149169921875,0.062150001525878906,1.0613625049591064,0.9219374656677246
1749912588850162700,7.78716259765625,0.05156249925494194,1.178512454032898,0.8494749665260315
1749912588860176100,7.797176025390625,0.048262499272823334,1.2999249696731567,0.6939625144004822
1749912588870189600,7.807189453125,0.037675000727176666,1.4383875131607056,0.420199990272522
1749912588880203000,7.817203125,0.020624998956918716,1.443750023841858,0.022824998944997787
1749912588890216400,7.827216552734375,-0.0006874999962747097,1.2200374603271484,-0.4170374870300293
1749912588900230000,7.83722998046875,-0.04647500067949295,0.8780750036239624,-0.7578999996185303
1749912588910243000,7.8472431640625,-0.10724999755620956,0.6234250068664551,-0.9486125111579895
1749912588920256800,7.8572568359375,-0.18809999525547028,0.5286874771118164,-1.0306999683380127
1749912588930270200,7.867270263671875,-0.31597501039505005,0.5724124908447266,-1.026437520980835
1749912588940283400,7.877283447265625,-0.48743748664855957,0.7151374816894531,-0.9571374654769897
1749912588950296800,7.887296875,-0.6696249842643738,0.966487467288971,-0.8357250094413757
1749912588960310300,7.897310302734375,-0.8038250207901001,1.2732499837875366,-0.6993250250816345
1749912588970323700,7.90732373046875,-0.8762875199317932,1.5853749513626099,-0.5992249846458435
1749912588980337000,7.9173369140625,-0.8784874677658081,1.9551124572753906,-0.6023874878883362
1749912588990350300,7.927350341796875,-0.8486499786376953,2.4344375133514404,-0.7973625063896179
1749912589000363800,7.93736376953125,-0.8625375032424927,2.8924500942230225,-1.1626999378204346
1749912589010377200,7.947377197265625,-0.9668999910354614,3.1257874965667725,-1.543025016784668
1749912589020391000,7.957390869140625,-1.1991374492645264,3.0384750366210938,-1.7954750061035156
1749912589030404000,7.967404052734375,-1.5463249683380127,2.6475625038146973,-1.8988749980926514
1749912589040417500,7.97741748046875,-1.9042375087738037,2.088212490081787,-1.8892500400543213
1749912589050431000,7.987430908203125,-2.147200107574463,1.5300999879837036,-1.8147250413894653
1749912589060444400,7.9974443359375,-2.2196624279022217,1.0986249446868896,-1.6794250011444092
1749912589070457600,8.00745751953125,-2.147200107574463,1.205187439918518,-1.4748250246047974
1749912589080471000,8.017470947265625,-1.9288499355316162,2.016849994659424,-1.1254374980926514
1749912589090484500,8.027484375,-1.7529875040054321,2.642199993133545,-0.7398874759674072
1749912589100498000,8.037497802734375,-1.7785625457763672,3.009737491607666,-0.391462504863739
1749912589110511400,8.047511474609376,-1.9980125427246094,3.1800999641418457,-0.1592250019311905
1749912589120524500,8.057524658203125,-2.2802999019622803,3.2036125659942627,-0.14973749220371246
1749912589130538000,8.0675380859375,-2.434849977493286,3.0353124141693115,-0.32010000944137573
1749912589140551400,8.077551513671875,-2.3974499702453613,2.484487533569336,-0.5150749683380127
1749912589150564900,8.08756494140625,-2.208937406539917,1.6344624757766724,-0.6844750046730042
1749912589160578300,8.097578369140624,-1.9277499914169312,0.6128374934196472,-0.8207374811172485
1749912589170591700,8.107591796875,-1.633774995803833,-0.4193750023841858,-0.9081875085830688
1749912589180605200,8.117605224609376,-1.4078625440597534,-1.2875499725341797,-0.8922374844551086
1749912589190618400,8.127618408203125,-1.2502875328063965,-1.9140000343322754,-0.8027250170707703
1749912589200631800,8.1376318359375,-1.1787874698638916,-2.263387441635132,-0.6833750009536743
1749912589210645200,8.147645263671874,-1.1991374492645264,-2.217599868774414,-0.5971624851226807
1749912589220658700,8.15765869140625,-1.2395625114440918,-1.825587511062622,-0.6589000225067139
1749912589230672100,8.167672119140626,-1.2992374897003174,-0.8349000215530396,-0.9624999761581421
1749912589240685600,8.177685546875,-1.4377000331878662,0.9207000136375427,-1.3886125087738037
1749912589250698800,8.18769873046875,-1.6028374433517456,2.4205498695373535,-1.6378999948501587
1749912589260712200,8.197712158203124,-1.6975749731063843,3.333549976348877,-1.7050000429153442
1749912589270725600,8.2077255859375,-1.6753000020980835,3.7031500339508057,-1.6740624904632568
1749912589280739000,8.217739013671874,-1.56021249294281,3.5763750076293945,-1.6229125261306763
1749912589290752500,8.22775244140625,-1.4121249914169312,3.0043749809265137,-1.5813875198364258
1749912589300765700,8.237765625,-1.2545499801635742,2.0913748741149902,-1.5760250091552734
1749912589310779100,8.247779052734375,-1.101099967956543,1.0261625051498413,-1.5995374917984009
1749912589320792600,8.25779248046875,-0.9689624905586243,-0.07218749821186066,-1.6399624347686768
1749912589330806000,8.267805908203124,-0.8497499823570251,-1.0117249488830566,-1.6538499593734741
1749912589340819500,8.2778193359375,-0.7346624732017517,-1.5773999691009521,-1.5793249607086182
1749912589350833000,8.2878330078125,-0.5971624851226807,-1.7115999460220337,-1.3971375226974487
1749912589360846000,8.29784619140625,-0.41084998846054077,-1.5262500047683716,-1.144687533378601
1749912589370859800,8.30785986328125,-0.17008750140666962,-1.1704000234603882,-0.8751875162124634
1749912589380873000,8.317873046875,0.10793749988079071,-0.7464874982833862,-0.649275004863739
1749912589390886400,8.327886474609375,0.39448750019073486,-0.32133749127388,-0.49912500381469727
1749912589400899600,8.337899658203124,0.6352499723434448,0.004537499975413084,-0.43092501163482666
1749912589410913300,8.347913330078125,0.8046500086784363,0.19744999706745148,-0.41923749446868896
1749912589420926700,8.3579267578125,0.9037874937057495,0.2677125036716461,-0.43834999203681946
1749912589430940000,8.36793994140625,0.9516375064849854,0.2677125036716461,-0.46076250076293945
1749912589440953300,8.377953369140625,0.9889000058174133,0.22824999690055847,-0.4575999975204468
1749912589450966800,8.387966796875,1.0507750511169434,0.171875,-0.41071251034736633
1749912589460980200,8.397980224609375,1.1571999788284302,0.142037495970726,-0.31267499923706055
1749912589470993400,8.407993408203126,1.3117499351501465,0.16651250422000885,-0.17201249301433563
1749912589481007000,8.418007080078125,1.4981999397277832,0.29864999651908875,0.01223750039935112
1749912589491020300,8.428020263671876,1.7080249786376953,0.6202625036239624,0.27541249990463257
1749912589501033700,8.43803369140625,1.9391624927520752,1.1071499586105347,0.6833750009536743
1749912589511047200,8.448047119140625,2.184187412261963,1.5790499448776245,1.1786500215530396
1749912589521060600,8.458060546875,2.401437520980835,1.9007999897003174,1.5654374361038208
1749912589531074000,8.468073974609375,2.4142251014709473,2.222412586212158,1.6686999797821045
1749912589541087200,8.478087158203126,1.9423249959945679,2.772137403488159,1.6868499517440796
1749912589551100700,8.4881005859375,1.1497750282287598,3.13004994392395,1.867937445640564
1749912589561114000,8.498114013671875,0.2667500078678131,3.0672125816345215,1.9211499691009521
1749912589571127600,8.50812744140625,-0.4768500030040741,3.0810999870300293,1.6538499593734741
1749912589581140700,8.518140625,-0.877387523651123,3.3452374935150146,1.1510125398635864
1749912589591154200,8.528154296875,-0.8102874755859375,3.815074920654297,0.4787749946117401
1749912589601168000,8.53816796875,-0.4842749834060669,4.199524879455566,-0.19978749752044678
1749912589611181000,8.54818115234375,-0.27761250734329224,4.015275001525879,-0.6109125018119812
1749912589621194500,8.558194580078125,-0.31913748383522034,3.2664499282836914,-0.6396499872207642
1749912589631208000,8.5682080078125,-0.41401249170303345,2.431274890899658,-0.390500009059906
1749912589641221400,8.578221435546874,-0.23292499780654907,1.768662452697754,-0.014437500387430191
1749912589651234800,8.58823486328125,0.1601874977350235,0.9079124927520752,0.20295000076293945
1749912589661248300,8.598248291015626,0.49994999170303345,-0.4599374830722809,-0.03464999794960022
1749912589671261400,8.608261474609375,0.641712486743927,-1.8521250486373901,-0.5480750203132629
1749912589681275000,8.61827490234375,0.444537490606308,-2.797024965286255,-0.9081875085830688
1749912589691288600,8.62828857421875,0.03657500073313713,-3.249812364578247,-0.935824990272522
1749912589701301800,8.6383017578125,-0.3830749988555908,-3.1944000720977783,-0.7100499868392944
1749912589711315200,8.648315185546876,-0.6994624733924866,-2.7906999588012695,-0.427762508392334
1749912589721328600,8.65832861328125,-0.8091874718666077,-2.3890624046325684,-0.2956250011920929
1749912589731342000,8.668342041015626,-0.677049994468689,-2.0535624027252197,-0.3669874966144562
1749912589741355500,8.67835546875,-0.35227498412132263,-1.733875036239624,-0.5651249885559082
1749912589751369000,8.688368896484375,0.07177499681711197,-1.467674970626831,-0.7877374887466431
1749912589761382100,8.698382080078124,0.42432498931884766,-1.2599124908447266,-0.9571374654769897
1749912589771395600,8.7083955078125,0.5863000154495239,-1.1107250452041626,-1.0818500518798828
1749912589781409000,8.718408935546876,0.5607249736785889,-0.9967374801635742,-1.1904749870300293
1749912589791422500,8.72842236328125,0.4020499885082245,-0.8977375030517578,-1.2905750274658203
1749912589801435600,8.738435546875,0.1835625022649765,-0.7965375185012817,-1.369362473487854
1749912589811449300,8.748449462890624,-0.05073750019073486,-0.740024983882904,-1.394937515258789
1749912589821462800,8.758462890625,-0.26592499017715454,-0.7081249952316284,-1.3417249917984009
1749912589831476000,8.76847607421875,-0.36602500081062317,-0.5631999969482422,-1.1510125398635864
1749912589841489400,8.778489501953125,-0.24997499585151672,-0.05609999969601631,-0.7356249690055847
1749912589851502800,8.7885029296875,0.0004124999977648258,0.7748125195503235,-0.19016249477863312
1749912589861516300,8.798516357421875,0.19634999334812164,1.6259374618530273,0.35103750228881836
1749912589871529700,8.80852978515625,0.35089999437332153,2.3449249267578125,0.8452125191688538
1749912589881543200,8.818543212890624,0.48083749413490295,2.8232874870300293,1.1776875257492065
1749912589891556600,8.828556640625,0.5533000230789185,3.1119000911712646,1.3267375230789185
1749912589901569800,8.83856982421875,0.6011499762535095,3.2323498725891113,1.3107874393463135
1749912589911583200,8.848583251953125,0.6630250215530396,3.1843624114990234,1.154175043106079
1749912589921596700,8.8585966796875,0.7523999810218811,3.0043749809265137,0.878350019454956
1749912589931610000,8.868610107421874,0.8568999767303467,2.748762369155884,0.5299249887466431
1749912589941623300,8.878623291015625,0.9644249677658081,2.4483249187469482,0.16238750517368317
1749912589951637000,8.888636962890626,1.0656249523162842,2.134000062942505,-0.17847499251365662
1749912589961650200,8.898650146484375,1.1647624969482422,1.8187124729156494,-0.46502500772476196
1749912589971663600,8.90866357421875,1.2754499912261963,1.487475037574768,-0.668524980545044
1749912589981677300,8.91867724609375,1.3916374444961548,1.13052499294281,-0.7825124859809875
1749912589991690500,8.9286904296875,1.4917374849319458,0.7492374777793884,-0.8133124709129333
1749912590001704000,8.938703857421874,1.5780874490737915,0.3166624903678894,-0.7612000107765198
1749912590011717400,8.94871728515625,1.628137469291687,-0.13598750531673431,-0.6109125018119812
1749912590021730800,8.958730712890626,1.619612455368042,-0.5174124836921692,-0.35530000925064087
1749912590031744000,8.968743896484375,1.5780874490737915,-0.7922750115394592,-0.03148749843239784
1749912590041757400,8.97875732421875,1.5226750373840332,-0.9915124773979187,0.3221625089645386
1749912590051771000,8.98877099609375,1.4757875204086304,-1.0287749767303467,0.6609625220298767
1749912590061784300,8.998784423828125,1.4641000032424927,-0.830637514591217,0.952875018119812
1749912590071797500,9.008797607421876,1.471524953842163,-0.4204750061035156,1.1914374828338623
1749912590081811000,9.01881103515625,1.4778499603271484,0.15056249499320984,1.375825047492981
1749912590091824400,9.028824462890626,1.4778499603271484,0.8706499934196472,1.525974988937378
1749912590101837800,9.038837890625,1.4746874570846558,1.7579374313354492,1.675162434577942
1749912590111851300,9.048851318359375,1.442787528038025,2.713562488555908,1.7912124395370483
1749912590121864700,9.05886474609375,1.3734874725341797,3.543375015258789,1.8156875371932983
1749912590131878100,9.068878173828125,1.277649998664856,4.117575168609619,1.744325041770935
1749912590141891300,9.078891357421876,1.1753499507904053,4.387074947357178,1.6132874488830566
1749912590151904800,9.08890478515625,1.0656249523162842,4.3338623046875,1.452412486076355
1749912590161918200,9.098918212890625,0.9814749956130981,4.031225204467773,1.3054250478744507
1749912590171931600,9.108931640625,0.953837513923645,3.6008498668670654,1.227737545967102
1749912590181945000,9.118945068359375,0.9729499816894531,3.285562515258789,1.303362488746643
1749912590191958500,9.12895849609375,1.046512484550476,3.367650032043457,1.578225016593933
1749912590201971700,9.1389716796875,1.1274999380111694,3.750037431716919,1.9211499691009521
1749912590211985200,9.148985107421876,1.1241999864578247,4.031225204467773,2.120387554168701
1749912590221998600,9.15899853515625,0.9293624758720398,4.099424839019775,2.100174903869629
1749912590232012000,9.169011962890625,0.5479375123977661,4.289037704467773,1.9328374862670898
1749912590242025500,9.179025390625,0.05678749829530716,4.930337429046631,1.645324945449829
1749912590252039000,9.189038818359375,-0.45980000495910645,5.742137432098389,1.0487124919891357
1749912590262052400,9.19905224609375,-0.8859124779701233,5.94453763961792,0.02708750031888485
1749912590272065500,9.2090654296875,-1.2640374898910522,5.035799980163574,-1.0114500522613525
1749912590282079200,9.219079345703125,-1.609162449836731,3.7415125370025635,-1.6772249937057495
1749912590292092400,9.229092529296874,-1.9032750129699707,2.6805624961853027,-1.9074000120162964
1749912590302105900,9.23910595703125,-2.159987449645996,2.012587547302246,-1.7987749576568604
1749912590312119300,9.249119384765624,-2.3996500968933105,1.6620999574661255,-1.479087471961975
1749912590322132700,9.2591328125,-2.6382124423980713,1.4756499528884888,-1.1574749946594238
1749912590332146200,9.269146240234376,-2.8300249576568604,1.370187520980835,-1.0136499404907227
1749912590342159600,9.27915966796875,-2.961062431335449,1.470425009727478,-1.0839124917984009
1749912590352173000,9.289173095703125,-3.0569000244140625,2.098937511444092,-1.4482874870300293
1749912590362186200,9.299186279296874,-3.1356875896453857,2.910599946975708,-2.0873875617980957
1749912590372199700,9.30919970703125,-3.296562433242798,3.199349880218506,-2.48476243019104
1749912590382213000,9.319213134765626,-3.6385250091552734,3.275937557220459,-2.5529625415802
1749912590392226600,9.3292265625,-4.13173770904541,3.450700044631958,-2.412299871444702
1749912590402239700,9.33923974609375,-4.595112323760986,3.6008498668670654,-2.1737375259399414
1749912590412253200,9.349253173828124,-4.808237552642822,3.5880625247955322,-1.958549976348877
1749912590422266600,9.3592666015625,-4.669775009155273,3.3984498977661133,-1.8434624671936035
1749912590432280000,9.369280029296876,-4.2297749519348145,3.219562530517578,-1.810462474822998
1749912590442293200,9.379293212890625,-3.6023623943328857,3.2078750133514404,-1.7539499998092651
1749912590452307000,9.389306884765626,-2.8780124187469482,3.3804373741149902,-1.6219500303268433
1749912590462320000,9.399320068359375,-2.2483999729156494,3.532787561416626,-1.4898124933242798
1749912590472333600,9.40933349609375,-1.864912509918213,3.3474373817443848,-1.434399962425232
1749912590482347000,9.419346923828124,-1.7018375396728516,2.744499921798706,-1.3630374670028687
1749912590492360400,9.4293603515625,-1.699774980545044,1.7877750396728516,-1.168062448501587
1749912590502374000,9.439373779296876,-1.8712375164031982,0.6810374855995178,-0.8590999841690063
1749912590512387000,9.449386962890625,-2.2174625396728516,-0.15950000286102295,-0.6311249732971191
1749912590522400500,9.459400390625,-2.6116750240325928,-0.5429875254631042,-0.6461125016212463
1749912590532413700,9.46941357421875,-2.8278250694274902,-0.7240750193595886,-0.7739874720573425
1749912590542427400,9.479427490234375,-2.755500078201294,-0.9935749769210815,-0.8655624985694885
1749912590552440600,9.489440673828126,-2.4721124172210693,-1.5347750186920166,-0.8953999876976013
1749912590562454000,9.4994541015625,-2.1216249465942383,-2.1994500160217285,-0.861299991607666
1749912590572467200,9.50946728515625,-1.8126624822616577,-2.679874897003174,-0.8090500235557556
1749912590582481000,9.51948095703125,-1.551687479019165,-2.7949624061584473,-0.7632625102996826
1749912590592494000,9.529494140625,-1.3311375379562378,-2.4987874031066895,-0.7493749856948853
1749912590602507500,9.539507568359374,-1.1383625268936157,-1.9586875438690186,-0.7697250247001648
1749912590612521200,9.549521240234375,-0.9626374840736389,-1.327012538909912,-0.779212474822998
1749912590622534400,9.559534423828126,-0.7878749966621399,-0.6879125237464905,-0.7419499754905701
1749912590632547800,9.5695478515625,-0.6078875064849854,-0.03382499888539314,-0.668524980545044
1749912590642561300,9.579561279296875,-0.4278999865055084,0.48922500014305115,-0.5853375196456909
1749912590652574700,9.58957470703125,-0.2307250052690506,0.817437469959259,-0.5128750205039978
1749912590662588000,9.599587890625,-0.029424998909235,0.9889000058174133,-0.4670875072479248
1749912590672601300,9.609601318359376,0.148499995470047,1.0751124620437622,-0.40424999594688416
1749912590682614800,9.61961474609375,0.24639999866485596,0.9653875231742859,-0.26372501254081726
1749912590692628200,9.629628173828126,0.3264249861240387,0.7193999886512756,-0.08786249905824661
1749912590702641700,9.6396416015625,0.4723125100135803,0.6182000041007996,0.04633750021457672
1749912590712655000,9.649655029296875,0.6545000076293945,0.8652874827384949,0.15289999544620514
1749912590722668300,9.659668212890624,0.7662875056266785,1.396862506866455,0.3190000057220459
1749912590732682000,9.669681884765625,0.733287513256073,1.9657000303268433,0.5597624778747559
1749912590742695400,9.6796953125,0.612975001335144,2.3417625427246094,0.7525374889373779
1749912590752708600,9.68970849609375,0.522362470626831,2.4620749950408936,0.7376874685287476
1749912590762722000,9.69972216796875,0.5479375123977661,2.4472250938415527,0.5330874919891357
1749912590772735500,9.709735595703124,0.7599624991416931,2.1456875801086426,0.38183748722076416
1749912590782749000,9.7197490234375,1.194599986076355,1.7484500408172607,0.5043500065803528
1749912590792762000,9.72976220703125,1.6654000282287598,1.9178500175476074,0.7738500237464905
1749912590802775600,9.739775634765625,1.7921749353408813,2.129737377166748,0.8846749663352966
1749912590812789000,9.7497890625,1.7996000051498413,2.2650375366210938,0.6791124939918518
1749912590822802400,9.759802490234375,2.087249994277954,1.8581750392913818,0.2849000096321106
1749912590832816000,9.769816162109375,2.352487564086914,0.3880249857902527,-0.05169999971985817
1749912590842829300,9.779829345703124,2.320587396621704,-1.4026374816894531,-0.1251250058412552
1749912590852842800,9.7898427734375,2.026474952697754,-2.7150750160217285,-0.06228749826550484
1749912590862856200,9.799856201171876,1.7069250345230103,-3.303025007247925,-0.037812501192092896
1749912590872869600,9.80986962890625,1.4821125268936157,-3.167725086212158,-0.10711249709129333
1749912590882882800,9.8198828125,1.4075875282287598,-2.346437454223633,-0.27114999294281006
1749912590892896300,9.829896240234374,1.4374250173568726,-1.136299967765808,-0.4926624894142151
1749912590902909700,9.83990966796875,1.552512526512146,-0.2777499854564667,-0.7601000070571899
1749912590912923100,9.849923095703126,1.6611374616622925,0.1036750003695488,-0.9763875007629395
1749912590922936600,9.8599365234375,1.7154500484466553,0.19634999334812164,-1.026437520980835
1749912590932950000,9.869949951171876,1.7261749505996704,0.15152500569820404,-0.8463125228881836
1749912590942963500,9.87996337890625,1.720812439918518,-0.06146249920129776,-0.4778124988079071
1749912590952976600,9.8899765625,1.7154500484466553,-0.4736874997615814,-0.045237500220537186
1749912590962990000,9.899989990234374,1.7186124324798584,-0.9605749845504761,0.35199999809265137
1749912590973003300,9.910003173828125,1.7133874893188477,-1.301437497138977,0.6641250252723694
1749912590983017000,9.920016845703126,1.6887749433517456,-1.385587453842163,0.8687250018119812
1749912590993030100,9.930030029296875,1.6292375326156616,-1.2960749864578247,0.9571374654769897
1749912591003043600,9.940043701171875,1.546049952507019,-1.1288750171661377,0.9389874935150146
1749912591013057000,9.95005712890625,1.4544750452041626,-0.9222124814987183,0.8388875126838684
1749912591023070200,9.9600703125,1.3575375080108643,-0.6973999738693237,0.6876375079154968
1749912591033083600,9.970083740234376,1.2702250480651855,-0.44811248779296875,0.5245624780654907
1749912591043096800,9.980096923828125,1.18607497215271,-0.15729999542236328,0.37661248445510864
1749912591053110300,9.9901103515625,1.110450029373169,0.1153625026345253,0.24763749539852142
1749912591063123700,10.000123779296874,1.0613625049591064,0.31776249408721924,0.13255000114440918
1749912591073137200,10.01013720703125,1.0411499738693237,0.44769999384880066,0.02928750030696392
1749912591083150600,10.020150634765624,1.0348249673843384,0.5297874808311462,-0.05912499874830246
1749912591093164000,10.0301640625,1.0326249599456787,0.5852000117301941,-0.12306249886751175
1749912591103177500,10.040177490234376,1.0315250158309937,0.6298875212669373,-0.16568750143051147
1749912591113190700,10.050190673828125,1.0220375061035156,0.6437749862670898,-0.2083124965429306
1749912591123204000,10.0602041015625,1.0135124921798706,0.6224625110626221,-0.2529999911785126
1749912591133217500,10.070217529296874,0.9931625127792358,0.5733749866485596,-0.2881999909877777
1749912591143230700,10.080230712890625,0.9612625241279602,0.49348750710487366,-0.3180375099182129
1749912591153244200,10.090244140625,0.9325249791145325,0.40191251039505005,-0.3371500074863434
1749912591163257300,10.10025732421875,0.9197375178337097,0.2910875082015991,-0.3436124920845032
1749912591173271000,10.11027099609375,0.909012496471405,0.1676124930381775,-0.3265624940395355
1749912591183284500,10.120284423828124,0.899524986743927,0.057887498289346695,-0.27541249990463257
1749912591193297700,10.130297607421875,0.8898999691009521,0.0013749999925494194,-0.17847499251365662
1749912591203311000,10.14031103515625,0.8824750185012817,0.016224998980760574,-0.01966249942779541
1749912591213324500,10.150324462890625,0.8621249794960022,0.10477499663829803,0.1816374957561493
1749912591223338000,10.160337890625,0.7972249984741211,0.23567499220371246,0.3723500072956085
1749912591233351200,10.17035107421875,0.7066124677658081,0.3231250047683716,0.5139750242233276
1749912591243364900,10.18036474609375,0.641712486743927,0.2932874858379364,0.6140750050544739
1749912591253378000,10.1903779296875,0.6342874765396118,0.18892499804496765,0.7067499756813049
1749912591263391500,10.2003916015625,0.6459749937057495,0.10999999940395355,0.8366875052452087
1749912591273405200,10.2104052734375,0.6554625034332275,0.15798750519752502,1.0594375133514404
1749912591283418400,10.22041845703125,0.6320874691009521,0.3806000053882599,1.3725249767303467
1749912591293431800,10.230431884765625,0.5713124871253967,0.7034500241279602,1.6964750289916992
1749912591303445200,10.2404453125,0.4978874921798706,1.119937539100647,1.9531874656677246
1749912591313458700,10.250458740234375,0.466949999332428,2.173462390899658,2.124650001525879
1749912591323472000,10.260471923828124,0.4712125062942505,3.983375072479248,1.8327374458312988
1749912591333485300,10.2704853515625,0.37111249566078186,4.998537540435791,0.6524375081062317
1749912591343498800,10.280498779296876,0.20817500352859497,4.293300151824951,-0.6844750046730042
1749912591353512200,10.29051220703125,0.037675000727176666,2.745462417602539,-1.5845500230789185
1749912591363525600,10.300525634765625,-0.11783749610185623,1.2743500471115112,-1.9552500247955322
1749912591373539000,10.3105390625,-0.27871251106262207,0.2910875082015991,-1.8327374458312988
1749912591383552300,10.32055224609375,-0.5354250073432922,-0.36932501196861267,-1.4407249689102173
1749912591393565700,10.330565673828126,-0.9050250053405762,-0.9211124777793884,-1.0114500522613525
1749912591403579100,10.3405791015625,-1.349287509918213,-1.3877874612808228,-0.669487476348877
1749912591413592600,10.350592529296875,-1.8126624822616577,-1.6604499816894531,-0.4064500033855438
1749912591423605800,10.360605712890624,-2.174837589263916,-1.6189249753952026,-0.21889999508857727
1749912591433619200,10.370619140625,-2.3336498737335205,-1.210824966430664,-0.1699499934911728
1749912591443632600,10.380632568359376,-2.2782375812530518,-0.36726251244544983,-0.4064500033855438
1749912591453646000,10.39064599609375,-2.1855623722076416,0.7151374816894531,-1.0221749544143677
1749912591463659300,10.4006591796875,-2.267512559890747,1.6057250499725342,-1.6549500226974487
1749912591473673000,10.4106728515625,-2.4443373680114746,2.1245124340057373,-2.0649750232696533
1749912591483686100,10.42068603515625,-2.608375072479248,2.3736624717712402,-2.2013750076293945
1749912591493699600,10.430699462890624,-2.7436749935150146,2.659250020980835,-2.0629124641418457
1749912591503713000,10.440713134765625,-2.8428125381469727,2.83813738822937,-1.6570124626159668
1749912591513726500,10.4507265625,-2.8885998725891113,2.5686373710632324,-1.102062463760376
1749912591523739600,10.46073974609375,-2.8566999435424805,1.8965375423431396,-0.5289624929428101
1749912591533753000,10.470753173828125,-2.7618250846862793,1.1464749574661255,-0.07617499679327011
1749912591543766300,10.480766357421874,-2.6648874282836914,0.5233250260353088,0.11976250261068344
1749912591553780000,10.490780029296875,-2.542375087738037,0.1387374997138977,0.10381250083446503
1749912591563793200,10.500793212890626,-2.398550033569336,-0.10944999754428864,-0.013337500393390656
1749912591573806600,10.510806640625,-2.247299909591675,-0.4012250006198883,-0.12416250258684158
1749912591583820000,10.520820068359376,-2.074737548828125,-0.7453874945640564,-0.1859000027179718
1749912591593833500,10.53083349609375,-1.8957124948501587,-1.08308744430542,-0.24873749911785126
1749912591603846700,10.5408466796875,-1.7423999309539795,-1.2982749938964844,-0.3158375024795532
1749912591613860000,10.550860107421874,-1.6284124851226807,-1.2428624629974365,-0.3030500113964081
1749912591623873800,10.560873779296875,-1.6039375066757202,-0.9361000061035156,-0.2040500044822693
1749912591633887000,10.570886962890626,-1.7221875190734863,-0.4162124991416931,-0.08043749630451202
1749912591643900400,10.580900390625,-1.9458999633789062,0.23567499220371246,0.007974999956786633
1749912591653913900,10.590913818359375,-2.1781375408172607,0.8311874866485596,0.05486249923706055
1749912591663927300,10.60092724609375,-2.2802999019622803,1.1549999713897705,0.10917499661445618
1749912591673940700,10.610940673828125,-2.1929874420166016,1.038949966430664,0.17943750321865082
1749912591683954200,10.6209541015625,-1.976699948310852,0.45086249709129333,0.25616249442100525
1749912591693967400,10.63096728515625,-1.7285125255584717,-0.4417875111103058,0.32120001316070557
1749912591703980500,10.64098046875,-1.485687494277954,-1.3173874616622925,0.3445749878883362
1749912591713994200,10.650994140625,-1.26829993724823,-1.88100004196167,0.31267499923706055
1749912591724007400,10.66100732421875,-1.0488499402999878,-2.008737564086914,0.23704999685287476
1749912591734021000,10.671021240234374,-0.8336625099182129,-1.7648124694824219,0.17737500369548798
1749912591744034600,10.68103466796875,-0.6366249918937683,-1.3205499649047852,0.16775000095367432
1749912591754047700,10.6910478515625,-0.4683249890804291,-0.9040625095367432,0.22522500157356262
1749912591764061200,10.701061279296875,-0.3170749843120575,-0.6047250032424927,0.359562486410141
1749912591774074600,10.71107470703125,-0.14135000109672546,-0.4395875036716461,0.5384500026702881
1749912591784087800,10.721087890625,0.09088750183582306,-0.41401249170303345,0.6887375116348267
1749912591794101200,10.731101318359375,0.3796375095844269,-0.5035250186920166,0.8238999843597412
1749912591804114400,10.741114501953126,0.7321875095367432,-0.6058250069618225,0.9421499967575073
1749912591814128000,10.751128173828125,1.130662441253662,-0.6047250032424927,1.0327625274658203
1749912591824141600,10.7611416015625,1.5503125190734863,-0.5057250261306763,1.109487533569336
1749912591834154800,10.77115478515625,1.9263750314712524,-0.2957625091075897,1.2329624891281128
1749912591844168200,10.781168212890625,2.204400062561035,0.08978749811649323,1.4588749408721924
1749912591854181600,10.791181640625,2.3641750812530518,0.6949250102043152,1.7465250492095947
1749912591864195000,10.801195068359375,2.3674750328063965,1.4042874574661255,1.9733999967575073
1749912591874208300,10.811208251953126,2.252387523651123,2.1649374961853027,1.9925124645233154
1749912591884221700,10.8212216796875,2.1319375038146973,2.9052374362945557,1.7954750061035156
1749912591894235100,10.831235107421875,2.1054000854492188,2.948962450027466,1.451449990272522
1749912591904248600,10.84124853515625,2.008462429046631,3.054425001144409,0.9230374693870544
1749912591914262000,10.851261962890625,1.6696624755859375,3.6935250759124756,0.428725004196167
1749912591924275500,10.861275390625,1.2339249849319458,3.6221625804901123,0.21353749930858612
1749912591934288600,10.87128857421875,0.891962468624115,1.8101874589920044,0.06655000150203705
1749912591944302000,10.881302001953125,0.9218000173568726,-0.4545750021934509,-0.30951249599456787
1749912591954315500,10.8913154296875,1.18607497215271,-2.0513625144958496,-0.6279624700546265
1749912591964329000,10.901328857421875,1.5195125341415405,-2.8972625732421875,-0.7334250211715698
1749912591974342100,10.911342041015626,1.8507499694824219,-3.219974994659424,-0.694100022315979
1749912591984355600,10.92135546875,2.094675064086914,-3.212549924850464,-0.6056874990463257
1749912591994369000,10.931369140625,2.1031999588012695,-3.0707874298095703,-0.5597624778747559
1749912592004382500,10.941382568359375,1.8891124725341797,-2.9217374324798584,-0.6290624737739563
1749912592014395600,10.951395751953125,1.609987497329712,-2.775712490081787,-0.8399875164031982
1749912592024409300,10.961409423828124,1.3756874799728394,-2.562725067138672,-1.1382249593734741
1749912592034422500,10.971422607421875,1.2009249925613403,-2.246337413787842,-1.3960374593734741
1749912592044436000,10.98143603515625,1.0656249523162842,-1.8287500143051147,-1.4823875427246094
1749912592054449400,10.991449462890625,1.011312484741211,-1.2545499801635742,-1.2874125242233276
1749912592064462800,11.001462890625,1.0687874555587769,-0.7592750191688538,-0.8953999876976013
1749912592074476000,11.01147607421875,1.16902494430542,-0.6249374747276306,-0.48317500948905945
1749912592084489500,11.021489501953125,1.2509750127792358,-0.7602375149726868,-0.1060125008225441
1749912592094503000,11.0315029296875,1.3362250328063965,-0.8806874752044678,0.21037499606609344
1749912592104516400,11.041516357421875,1.4374250173568726,-0.823074996471405,0.4351874887943268
1749912592114529500,11.051529541015626,1.5300999879837036,-0.6089875102043152,0.5693874955177307
1749912592124543000,11.06154296875,1.5908750295639038,-0.3278000056743622,0.6237000226974487
1749912592134556400,11.071556396484375,1.5823500156402588,-0.038087498396635056,0.6151750087738037
1749912592144569900,11.08156982421875,1.5013624429702759,0.21230000257492065,0.558662474155426
1749912592154583300,11.091583251953125,1.4012625217437744,0.3880249857902527,0.49486249685287476
1749912592164596700,11.1015966796875,1.3160125017166138,0.5670499801635742,0.45649999380111694
1749912592174610200,11.111610107421875,1.2435499429702759,0.807812511920929,0.46392500400543213
1749912592184623400,11.121623291015625,1.1679250001907349,1.094362497329712,0.49802500009536743
1749912592194636800,11.13163671875,1.0806125402450562,1.3425500392913818,0.5278624892234802
1749912592204650200,11.141650146484375,1.0007250308990479,1.4980624914169312,0.5267624855041504
1749912592214663700,11.15166357421875,0.9303249716758728,1.5598000288009644,0.4894999861717224
1749912592224676900,11.1616767578125,0.8611624836921692,1.5938999652862549,0.4351874887943268
1749912592234690300,11.171690185546876,0.7972249984741211,1.6396875381469727,0.38513749837875366
1749912592244703700,11.181703857421875,0.7577624917030334,1.7271374464035034,0.35420000553131104
1749912592254717000,11.191717041015625,0.7418124675750732,1.868762493133545,0.3414124846458435
1749912592264730600,11.201730712890624,0.7321875095367432,2.002000093460083,0.3445749878883362
1749912592274743800,11.211743896484375,0.7226999998092651,2.0796875953674316,0.35199999809265137
1749912592284757200,11.22175732421875,0.7108749747276306,1.9944374561309814,0.35199999809265137
1749912592294770400,11.2317705078125,0.7013875246047974,1.7441874742507935,0.3371500074863434
1749912592304784000,11.241783935546875,0.6980875134468079,1.3979624509811401,0.33178749680519104
1749912592314797300,11.25179736328125,0.7386500239372253,1.0911999940872192,0.3988874852657318
1749912592324810800,11.261810791015625,0.8238999843597412,0.9611250162124634,0.5917999744415283
1749912592334824200,11.27182421875,0.8739500045776367,1.0102125406265259,0.8826124668121338
1749912592344837600,11.281837646484375,0.8324249982833862,1.0975250005722046,1.176587462425232
1749912592354850800,11.291850830078126,0.7045499682426453,1.1710875034332275,1.4236749410629272
1749912592364864300,11.3018642578125,0.5288249850273132,1.3425500392913818,1.6112250089645386
1749912592374878000,11.3118779296875,0.3264249861240387,1.627037525177002,1.5046625137329102
1749912592384891100,11.32189111328125,0.1368124932050705,1.4841749668121338,0.6641250252723694
1749912592394904300,11.331904296875,-0.06558749824762344,0.5383124947547913,-0.21037499606609344
1749912592404918000,11.34191796875,-0.32023748755455017,-0.5450500249862671,-0.7057874798774719
1749912592414931200,11.35193115234375,-0.6206749677658081,-1.2854875326156616,-0.8485124707221985
1749912592424944600,11.361944580078125,-0.9305999875068665,-1.5805624723434448,-0.7376874685287476
1749912592434957800,11.371957763671874,-1.2395625114440918,-1.5868874788284302,-0.5449125170707703
1749912592444971500,11.381971435546875,-1.5186874866485596,-1.4889874458312988,-0.44151249527931213
1749912592454984700,11.391984619140626,-1.7572499513626099,-1.356850028038025,-0.4959625005722046
1749912592464998100,11.401998046875,-1.966112494468689,-1.174662470817566,-0.6844750046730042
1749912592475011300,11.41201123046875,-2.1482999324798584,-0.8690000176429749,-0.9261999726295471
1749912592485025000,11.42202490234375,-2.318662405014038,-0.4641999900341034,-1.1467499732971191
1749912592495038200,11.4320380859375,-2.4721124172210693,-0.02956249937415123,-1.2894749641418457
1749912592505051600,11.4420517578125,-2.5957250595092773,0.4456374943256378,-1.3534125089645386
1749912592515064800,11.45206494140625,-2.676574945449829,0.9409124851226807,-1.3321000337600708
1749912592525078500,11.46207861328125,-2.7021498680114746,1.4256000518798828,-1.1873124837875366
1749912592535092000,11.472092041015625,-2.6776750087738037,1.9645999670028687,-0.8996624946594238
1749912592545105200,11.482105224609375,-2.680837392807007,2.4728000164031982,-0.5182374715805054
1749912592555118600,11.49211865234375,-2.766087532043457,2.6677749156951904,-0.11453749984502792
1749912592565132000,11.502132080078125,-2.855599880218506,2.4589123725891113,0.19965000450611115
1749912592575145200,11.512145263671876,-2.8374500274658203,1.8975000381469727,0.27114999294281006
1749912592585158700,11.52215869140625,-2.641512393951416,1.1677875518798828,0.09955000132322311
1749912592595171800,11.532171875,-2.357024908065796,0.3348124921321869,-0.14121249318122864
1749912592605185500,11.542185546875,-2.1173624992370605,-0.6313999891281128,-0.3147374987602234
1749912592615198700,11.55219873046875,-1.9874249696731567,-1.5453624725341797,-0.3957250118255615
1749912592625212200,11.562212158203126,-1.9416375160217285,-2.10471248626709,-0.3755125105381012
1749912592635225600,11.5722255859375,-1.9629499912261963,-2.2196624279022217,-0.33605000376701355
1749912592645239000,11.582239013671876,-2.040637493133545,-1.8895249366760254,-0.36918750405311584
1749912592655252200,11.592252197265625,-2.169612407684326,-1.309962511062622,-0.4542999863624573
1749912592665265700,11.602265625,-2.3197624683380127,-0.7303999662399292,-0.5235999822616577
1749912592675279000,11.612279052734374,-2.4443373680114746,-0.3161124885082245,-0.5460125207901001
1749912592685292500,11.62229248046875,-2.4848999977111816,-0.16376249492168427,-0.5161749720573425
1749912592695305700,11.6323056640625,-2.423024892807007,-0.284074991941452,-0.43092501163482666
1749912592705319400,11.6423193359375,-2.284562587738037,-0.564300000667572,-0.2998875081539154
1749912592715332600,11.65233251953125,-2.087524890899658,-0.8486499786376953,-0.1592250019311905
1749912592725346000,11.662345947265624,-1.8702750205993652,-1.0319374799728394,-0.04097500070929527
1749912592735359200,11.672359130859375,-1.6710374355316162,-1.1032999753952026,0.015399999916553497
1749912592745373000,11.682373046875,-1.4984749555587769,-1.08308744430542,0.006874999962747097
1749912592755386000,11.69238623046875,-1.375962495803833,-0.9904124736785889,-0.06984999775886536
1749912592765399600,11.702399658203126,-1.3120249509811401,-0.8338000178337097,-0.1975875049829483
1749912592775413000,11.7124130859375,-1.2864500284194946,-0.6538124680519104,-0.3232625126838684
1749912592785426400,11.722426513671875,-1.2342000007629395,-0.5066875219345093,-0.3871999979019165
1749912592795439600,11.732439697265624,-1.127774953842163,-0.4119499921798706,-0.3531000018119812
1749912592805453000,11.742453125,-0.9530124664306641,-0.37894999980926514,-0.20514999330043793
1749912592815466200,11.75246630859375,-0.7048249840736389,-0.3639625012874603,0.030387500301003456
1749912592825480000,11.76247998046875,-0.4118124842643738,-0.297962486743927,0.2956250011920929
1749912592835493000,11.7724931640625,-0.13598750531673431,-0.13598750531673431,0.5086125135421753
1749912592845506300,11.78250634765625,0.09515000134706497,0.09515000134706497,0.6311249732971191
1749912592855520000,11.79252001953125,0.29438748955726624,0.34759998321533203,0.6939625144004822
1749912592865533400,11.802533447265626,0.5021499991416931,0.5605875253677368,0.7482749819755554
1749912592875546600,11.812546630859375,0.7429124712944031,0.6916249990463257,0.8292624950408936
1749912592885559800,11.822559814453125,1.0187374353408813,0.7492374777793884,0.9464125037193298
1749912592895573200,11.8325732421875,1.3074874877929688,0.7928249835968018,1.0785499811172485
1749912592905586700,11.842586669921875,1.6057250499725342,0.8428750038146973,1.2223750352859497
1749912592915600100,11.85260009765625,1.9082249402999878,0.929224967956543,1.3554749488830566
1749912592925613300,11.86261328125,2.1096625328063965,1.1017874479293823,1.3725249767303467
1749912592935627000,11.872626953125,2.1148874759674072,1.295662522315979,1.2755874395370483
1749912592945640200,11.88264013671875,2.067037582397461,1.4053875207901,1.294837474822998
1749912592955653600,11.892653564453125,2.011625051498413,1.4064874649047852,1.3182125091552734
1749912592965667000,11.9026669921875,1.9167499542236328,1.6493124961853027,1.1488125324249268
1749912592975680500,11.912680419921875,1.9104249477386475,1.7621999979019165,1.0092500448226929
1749912592985693700,11.922693603515626,1.9615750312805176,0.8823375105857849,0.8175749778747559
1749912592995707100,11.93270703125,1.7165499925613403,-0.3480125069618225,0.5341874957084656
1749912593005720600,11.942720458984375,1.1082500219345093,-1.4345375299453735,0.3051125109195709
1749912593015734000,11.952734130859374,0.6534000039100647,-2.1280875205993652,0.05596249923110008
1749912593025747200,11.962747314453125,0.6204000115394592,-2.1792376041412354,-0.07727500051259995
1749912593035760600,11.9727607421875,0.890999972820282,-1.7488625049591064,-0.06655000150203705
1749912593045774000,11.982774169921875,1.3213750123977661,-1.2491874694824219,-0.02722499892115593
1749912593055787500,11.99278759765625,1.7495499849319458,-0.9861499667167664,-0.04207500070333481
1749912593065800700,12.00280078125,2.0648374557495117,-1.008424997329712,-0.08579999953508377
1749912593075814400,12.012814453125,2.250187397003174,-1.1565124988555908,-0.13695000112056732
1749912593085827600,12.02282763671875,2.2959749698638916,-1.2854875326156616,-0.1742125004529953
1749912593095841000,12.032841064453125,2.191612482070923,-1.2790249586105347,-0.18700000643730164
1749912593105854200,12.042854248046876,1.9701000452041626,-1.1012375354766846,-0.1699499934911728
1749912593115867600,12.05286767578125,1.745287537574768,-0.8241750001907349,-0.12732499837875366
1749912593125881000,12.062881103515625,1.611087441444397,-0.6004624962806702,-0.08689999580383301
1749912593135894500,12.07289453125,1.570525050163269,-0.519474983215332,-0.02928750030696392
1749912593145908000,12.082907958984375,1.6003625392913818,-0.5674625039100647,0.10807500034570694
1749912593155921200,12.092921142578126,1.6750249862670898,-0.6973999738693237,0.3382500112056732
1749912593165934600,12.1029345703125,1.7538124322891235,-0.81454998254776,0.6151750087738037
1749912593175948000,12.112947998046875,1.8134875297546387,-0.830637514591217,0.8570374846458435
1749912593185961500,12.12296142578125,1.8081250190734863,-0.7741249799728394,1.0060875415802002
1749912593195975000,12.132974853515625,1.7037625312805176,-0.7005624771118164,1.0476125478744507
1749912593205988400,12.14298828125,1.5024625062942505,-0.6228749752044678,1.0029250383377075
1749912593216001500,12.15300146484375,1.2574374675750732,-0.5142499804496765,0.878350019454956
1749912593226015000,12.163014892578126,1.020937442779541,-0.3469125032424927,0.6887375116348267
1749912593236028400,12.1730283203125,0.8270624876022339,-0.09239999949932098,0.45223748683929443
1749912593246041900,12.183041748046875,0.6843374967575073,0.2708750069141388,0.20817500352859497
1749912593256055000,12.193054931640624,0.5841000080108643,0.7034500241279602,-0.020762499421834946
1749912593266068500,12.203068359375,0.5330874919891357,1.1369874477386475,-0.2199999988079071
1749912593276082000,12.21308203125,0.5308874845504761,1.5215749740600586,-0.38403749465942383
1749912593286095400,12.223095458984375,0.5809375047683716,1.8474500179290771,-0.5011875033378601
1749912593296108500,12.233108642578125,0.6630250215530396,2.1415624618530273,-0.5502749681472778
1749912593306121700,12.243121826171874,0.6895624995231628,2.242762565612793,-0.5321249961853027
1749912593316135400,12.253135498046875,0.6650875210762024,2.177725076675415,-0.4585624933242798
1749912593326148600,12.263148681640626,0.6448749899864197,2.098937511444092,-0.3137750029563904
1749912593336162000,12.273162109375,0.6565625071525574,2.039262533187866,-0.14217500388622284
1749912593346175500,12.283175537109376,0.6938250064849854,1.9358625411987305,-0.005912499967962503
1749912593356189000,12.29318896484375,0.7279250025749207,1.7441874742507935,0.08676250278949738
1749912593366202000,12.3032021484375,0.7471749782562256,1.5247374773025513,0.15716250240802765
1749912593376215600,12.313215576171874,0.7343875169754028,1.353137493133545,0.2209624946117401
1749912593386229000,12.32322900390625,0.6971250176429749,1.229662537574768,0.2774749994277954
1749912593396242400,12.333242431640626,0.6608250141143799,1.1006875038146973,0.31693750619888306
1749912593406255600,12.343255615234375,0.6385499835014343,0.9207000136375427,0.3392125070095062
1749912593416269000,12.35326904296875,0.6342874765396118,0.7034500241279602,0.35199999809265137
1749912593426282500,12.363282470703124,0.6480374932289124,0.4786374866962433,0.37014999985694885
1749912593436296000,12.3732958984375,0.6843374967575073,0.2825624942779541,0.4096125066280365
1749912593446309000,12.38330908203125,0.7429124712944031,0.15152500569820404,0.4969249963760376
1749912593456322600,12.393322509765625,0.8163374662399292,0.13983750343322754,0.6546375155448914
1749912593466336000,12.4033359375,0.8749125003814697,0.22288750112056732,0.8878374695777893
1749912593476349400,12.413349365234374,0.8749125003814697,0.3123999834060669,1.1488125324249268
1749912593486362600,12.423362548828125,0.8163374662399292,0.40411248803138733,1.3895750045776367
1749912593496376300,12.433376220703124,0.6991875171661377,0.679937481880188,1.5888124704360962
1749912593506389500,12.443389404296875,0.5010499954223633,1.352174997329712,1.6154874563217163
1749912593516402700,12.453402587890626,0.15702499449253082,2.078587532043457,1.0956000089645386
1749912593526416400,12.46341650390625,-0.23182499408721924,1.9465874433517456,0.18273749947547913
1749912593536429600,12.4734296875,-0.5163124799728394,0.9900000095367432,-0.6056874990463257
1749912593546443000,12.483443115234374,-0.6951999664306641,-0.15207499265670776,-1.1083874702453613
1749912593556456400,12.49345654296875,-0.8742250204086304,-0.9765250086784363,-1.3055624961853027
1749912593566470000,12.503469970703126,-1.1127874851226807,-1.4654749631881714,-1.2979999780654907
1749912593576483000,12.513483154296875,-1.3791249990463257,-1.6763999462127686,-1.1808500289916992
1749912593586496500,12.52349658203125,-1.6625125408172607,-1.6923500299453735,-1.0327625274658203
1749912593596510000,12.533510009765624,-1.866974949836731,-1.5006749629974365,-0.9219374656677246
1749912593606523400,12.5435234375,-1.9277499914169312,-1.0745625495910645,-0.9092875123023987
1749912593616536600,12.55353662109375,-1.8552874326705933,-0.3863750100135803,-1.0679625272750854
1749912593626550000,12.563550048828125,-1.7754000425338745,0.4604874849319458,-1.3193124532699585
1749912593636563500,12.5735634765625,-1.8041374683380127,1.3073500394821167,-1.459975004196167
1749912593646577000,12.583576904296875,-1.8339749574661255,1.9135874509811401,-1.4972374439239502
1749912593656590000,12.593590087890625,-1.7956124544143677,2.128774881362915,-1.527074933052063
1749912593666603500,12.603603515625,-1.717924952507019,2.0062625408172607,-1.5569125413894653
1749912593676617000,12.613616943359375,-1.6625125408172607,1.5736874341964722,-1.478124976158142
1749912593686630100,12.623630126953126,-1.6730999946594238,0.9601625204086304,-1.1702624559402466
1749912593696643600,12.6336435546875,-1.7210874557495117,0.6927250027656555,-0.5087500214576721
1749912593706656800,12.64365673828125,-1.9032750129699707,0.679937481880188,0.3115749955177307
1749912593716670500,12.65367041015625,-2.2867624759674072,0.8376500010490417,0.9145125150680542
1749912593726683600,12.66368359375,-2.6211624145507812,1.4383875131607056,1.0305625200271606
1749912593736697000,12.673697021484376,-2.700087547302246,2.211824893951416,0.6620625257492065
1749912593746710500,12.68371044921875,-2.5360500812530518,2.1691999435424805,0.018562499433755875
1749912593756724000,12.693723876953126,-2.3175625801086426,0.9025499820709229,-0.47561249136924744
1749912593766737200,12.703737060546874,-2.167412519454956,-0.9563124775886536,-0.6290624737739563
1749912593776750600,12.71375048828125,-2.0619499683380127,-2.4540998935699463,-0.47671249508857727
