time,seconds_elapsed,z,y,x
1748140970421180200,0.09118017578125,1.182607650756836,0.49593818187713623,-0.3014780282974243
1748140970439444000,0.10944384765625,0.8826751708984375,0.6781617403030396,0.13646841049194336
1748140970457706000,0.1277060546875,0.1598033905029297,-0.8558365106582642,0.607859194278717
1748140970475971000,0.14597119140625,-0.4553794860839844,-1.4777041673660278,0.5208356380462646
1748140970494233300,0.1642333984375,-0.4507932662963867,-1.4360136985778809,0.49898356199264526
1748140970512494000,0.182494140625,-0.3902921676635742,-2.1916046142578125,2.1689023971557617
1748140970530760200,0.20076025390625,-0.007793426513671875,-2.336416721343994,2.5491724014282227
1748140970549025000,0.21902490234375,-0.26778697967529297,-2.1649880409240723,2.6374802589416504
1748140970567287600,0.23728759765625,-0.3047628402709961,-0.5589386820793152,2.3540825843811035
1748140970585552100,0.25555224609375,-0.3750486373901367,-0.09169340133666992,1.4565991163253784
1748140970603809800,0.273809814453125,-0.3619670867919922,0.7551668882369995,-0.5527684688568115
1748140970622076200,0.292076171875,-0.06511497497558594,1.260073184967041,-0.5436211824417114
1748140970640344000,0.310343994140625,-0.1106119155883789,-1.4178487062454224,1.6645547151565552
1748140970658606300,0.3286064453125,-0.21473407745361328,-2.973043203353882,2.20698618888855
1748140970676868400,0.346868408203125,-0.11012935638427734,-1.774345874786377,2.5292344093322754
1748140970695133400,0.365133544921875,-0.7438678741455078,-0.7907102108001709,2.798189640045166
1748140970713395700,0.383395751953125,-1.9409675598144531,-1.4448051452636719,1.9324872493743896
1748140970731660500,0.40166064453125,-2.038148880004883,-0.6751508712768555,1.2776271104812622
1748140970749921300,0.41992138671875,-1.3932065963745117,0.46526050567626953,0.5863174796104431
1748140970768176600,0.4381767578125,-0.9109029769897461,0.7536320686340332,0.49311405420303345
1748140970786442200,0.456442138671875,-0.5245389938354492,-0.10872793197631836,0.8978663682937622
1748140970804710100,0.474710205078125,-0.911982536315918,-0.7015876770019531,1.503322958946228
1748140970822977300,0.492977294921875,-1.2056961059570312,-0.5055142641067505,2.001537561416626
1748140970841241300,0.511241455078125,-1.7319855690002441,-0.1756761074066162,1.388769268989563
1748140970859499800,0.529499755859375,-1.377394676208496,0.34514665603637695,1.1935195922851562
1748140970877765400,0.547765380859375,-0.41739463806152344,0.2987382411956787,1.6091675758361816
1748140970896034000,0.566033935546875,-0.3179597854614258,-0.00785970687866211,1.679021954536438
1748140970914296000,0.584296142578125,-0.863739013671875,-0.2620253562927246,1.664536952972412
1748140970932558300,0.602558349609375,-0.7956809997558594,-0.13919472694396973,1.8448681831359863
1748140970950818000,0.620818115234375,-1.4088325500488281,-0.180556058883667,2.158910036087036
1748140970969085000,0.6390849609375,-0.8175783157348633,0.5561037063598633,1.7117453813552856
1748140970987349800,0.657349853515625,-0.9003543853759766,1.0982418060302734,1.598251223564148
1748140971005610000,0.67560986328125,-1.6132183074951172,0.8081858158111572,1.4709560871124268
1748140971023877000,0.693877197265625,-1.957836627960205,0.5386476516723633,1.3757176399230957
1748140971042139400,0.712139404296875,-1.8418140411376953,1.162318468093872,1.3105897903442383
1748140971060404000,0.730404052734375,-1.356414794921875,-0.07554221153259277,2.196962833404541
1748140971078666200,0.748666259765625,-2.062040328979492,-0.3084115982055664,1.5483812093734741
1748140971096930800,0.766930908203125,-2.3058714866638184,-0.8569005727767944,1.2122842073440552
1748140971115194600,0.785194580078125,-3.5666756629943848,-0.7782095670700073,1.6912990808486938
1748140971133453600,0.80345361328125,-4.051158905029297,-0.29462194442749023,2.0166239738464355
1748140971151723300,0.82172314453125,-4.918628215789795,-1.000422477722168,1.8346178531646729
1748140971169985000,0.839985107421875,-3.7320713996887207,-1.442670226097107,2.020925283432007
1748140971188247600,0.85824755859375,-2.8734140396118164,-1.5616767406463623,1.897186040878296
1748140971206507300,0.87650732421875,-3.424447536468506,-1.9473856687545776,1.1548566818237305
1748140971224771800,0.894771728515625,-3.4792704582214355,-4.422434329986572,3.656252384185791
1748140971243039200,0.913039306640625,-2.714901924133301,-2.983247756958008,-0.6499290466308594
1748140971261301800,0.9313017578125,-2.943863868713379,-3.558171033859253,-1.6071586608886719
1748140971279563500,0.9495634765625,0.6396141052246094,-4.263908863067627,-1.629784107208252
1748140971297829000,0.9678291015625,3.741698741912842,-3.6369056701660156,-0.2727389335632324
1748140971316096500,0.986096435546875,5.232429027557373,-3.006296157836914,0.7468471527099609
1748140971334356700,1.004356689453125,3.352870464324951,-4.317825794219971,-0.9234962463378906
1748140971352620000,1.0226201171875,1.9461849927902222,-3.254176616668701,-1.0928125381469727
1748140971370883600,1.040883544921875,1.6769251823425293,-2.981635332107544,-0.8688840866088867
1748140971389145600,1.0591455078125,2.2317745685577393,-2.004671096801758,3.108804702758789
1748140971407411000,1.077410888671875,2.56310772895813,-0.31695127487182617,6.502596855163574
1748140971425674200,1.09567431640625,1.2236802577972412,0.045009613037109375,6.145023345947266
1748140971443936000,1.11393603515625,0.16633185744285583,-1.5274312496185303,4.28324031829834
1748140971462198300,1.1321982421875,1.7137913703918457,-1.411604404449463,4.802158355712891
1748140971480458200,1.150458251953125,3.983485698699951,-0.46164393424987793,5.476174354553223
1748140971498730000,1.16872998046875,3.377960205078125,-0.7362806797027588,4.25724983215332
1748140971516991500,1.186991455078125,2.823101282119751,-0.8988745212554932,3.1543960571289062
1748140971535256000,1.205256103515625,0.5426450967788696,-0.42601442337036133,3.8854503631591797
1748140971553516500,1.2235166015625,-1.7257206439971924,0.7964882850646973,5.315803527832031
1748140971571785700,1.24178564453125,-1.8223607540130615,1.6380977630615234,5.703367233276367
1748140971590045200,1.260045166015625,0.26853147149086,0.7409710884094238,5.171742916107178
1748140971608309800,1.278309814453125,2.1607418060302734,-0.3038463592529297,4.8584160804748535
1748140971626562800,1.296562744140625,1.228498101234436,0.6470680236816406,4.212800025939941
1748140971644832500,1.31483251953125,-2.572617292404175,2.0280418395996094,5.741627216339111
1748140971663100000,1.333099853515625,-6.086858749389648,3.4575092792510986,6.134062767028809
1748140971681364000,1.351364013671875,-5.749362945556641,3.2347073554992676,4.694551467895508
1748140971699626500,1.36962646484375,-4.221917152404785,2.190377712249756,3.202895164489746
1748140971717885200,1.38788525390625,-3.1912169456481934,1.6603717803955078,2.038908004760742
1748140971736154600,1.406154541015625,-2.91743803024292,1.8288893699645996,1.3872275352478027
1748140971754419200,1.424419189453125,-3.681668996810913,1.5531888008117676,0.46909475326538086
1748140971772680400,1.442680419921875,-3.4819412231445312,1.484102725982666,0.3284139633178711
1748140971790944500,1.460944580078125,-2.043649673461914,1.8785820007324219,1.843745231628418
1748140971809208800,1.479208740234375,-1.9944753646850586,2.3228206634521484,1.4536728858947754
1748140971827467800,1.4974677734375,-1.7347475290298462,2.6466996669769287,0.8100399971008301
1748140971845734700,1.515734619140625,-1.8393276929855347,3.039048910140991,0.4989471435546875
1748140971863999200,1.533999267578125,-2.047990322113037,3.874500036239624,0.24829387664794922
1748140971882261800,1.55226171875,-2.6044046878814697,5.718588829040527,4.338531970977783
1748140971900526800,1.57052685546875,-3.8626978397369385,4.678820610046387,0.7875604629516602
1748140971918792400,1.58879248046875,1.0690734386444092,4.54049825668335,0.8026161193847656
1748140971937055500,1.607055419921875,0.825721263885498,1.4016430377960205,0.26671314239501953
1748140971955316500,1.62531640625,3.760519504547119,-0.8750276565551758,-4.169513702392578
1748140971973572900,1.64357275390625,4.740528106689453,-0.2600593566894531,-2.9181175231933594
1748140971991845400,1.661845458984375,0.9955657720565796,0.9069356918334961,-3.131082057952881
1748140972010107600,1.680107666015625,-1.0606544017791748,0.4083995819091797,-2.528262138366699
1748140972028371500,1.698371337890625,0.010098174214363098,-1.577932357788086,-0.7998199462890625
1748140972046634800,1.716634765625,0.8231696486473083,-3.4981744289398193,-0.6180343627929688
1748140972064893200,1.73489306640625,1.4366129636764526,-4.423396587371826,0.43853187561035156
1748140972083163000,1.753162841796875,2.4850926399230957,-4.1575751304626465,4.084385871887207
1748140972101421600,1.771421630859375,0.7090599536895752,-5.3233723640441895,4.098055839538574
1748140972119691800,1.78969189453125,-2.9363083839416504,-6.503334045410156,4.305798530578613
1748140972137952000,1.807951904296875,-5.489885330200195,-5.659682750701904,4.392971038818359
1748140972156216000,1.826216064453125,-4.16237735748291,-4.439945697784424,4.151802062988281
1748140972174474000,1.844473876953125,-3.167855978012085,-3.2490592002868652,3.5839719772338867
1748140972192743400,1.862743408203125,-1.5150701999664307,-1.8426284790039062,1.1554183959960938
1748140972211005400,1.88100537109375,-0.5192534923553467,-1.5694153308868408,-0.9279146194458008
1748140972229270300,1.899270263671875,0.12083244323730469,-1.450639009475708,-1.6469144821166992
1748140972247531300,1.91753125,2.5038764476776123,-0.7712703943252563,-2.2668447494506836
1748140972265798700,1.935798583984375,4.922847747802734,-0.2083832025527954,-2.169278144836426
1748140972284059600,1.9540595703125,4.729460716247559,-0.4747461676597595,-3.3679962158203125
1748140972302324700,1.97232470703125,4.540838241577148,-0.39354610443115234,-3.4299731254577637
1748140972320582100,1.99058203125,3.6946282386779785,-0.2219775915145874,-3.112154960632324
1748140972338851300,2.008851318359375,1.544309139251709,0.23978900909423828,-3.450394630432129
1748140972357113900,2.02711376953125,-0.2492964267730713,1.1870089769363403,-3.9734582901000977
1748140972375378700,2.045378662109375,0.17126893997192383,1.3919388055801392,-4.901605606079102
1748140972393641200,2.06364111328125,1.0560232400894165,1.0082778930664062,-5.902936935424805
1748140972411904500,2.081904541015625,1.2367992401123047,0.553152322769165,-6.373807430267334
1748140972430168000,2.10016796875,1.320375919342041,0.8943814039230347,-6.184525012969971
1748140972448434000,2.118433837890625,1.5051759481430054,1.3618452548980713,-6.38585901260376
1748140972466695200,2.136695068359375,2.2831954956054688,1.3713648319244385,-6.430093288421631
1748140972484955100,2.154955078125,4.522540092468262,0.5101258754730225,-5.492495059967041
1748140972503221200,2.17322119140625,-0.48560214042663574,-0.6111798286437988,-5.201788902282715
1748140972521483500,2.1914833984375,-8.217519760131836,-1.1130170822143555,-3.196847438812256
1748140972539749400,2.209749267578125,-18.15214729309082,-1.0513486862182617,1.79435396194458
1748140972558015200,2.22801513671875,-8.678074836730957,-0.21925973892211914,-0.9665679931640625
1748140972576276500,2.2462763671875,-3.306400775909424,0.9961743354797363,-2.3189430236816406
1748140972594541300,2.264541259765625,-2.0958609580993652,1.123581886291504,-1.8543081283569336
1748140972612803600,2.282803466796875,-5.354727268218994,-0.2608809471130371,-0.8066926002502441
1748140972631068000,2.30106787109375,-3.745103120803833,-2.9032254219055176,-0.04637432098388672
1748140972649330400,2.319330322265625,3.6920437812805176,-8.789876937866211,2.0058393478393555
1748140972667595300,2.33759521484375,2.708615303039551,-18.049524307250977,6.057917594909668
1748140972685857500,2.355857421875,9.043957710266113,-21.662368774414062,10.030899047851562
1748140972704122400,2.374122314453125,11.430360794067383,-8.37930679321289,3.5517454147338867
1748140972722384600,2.392384521484375,5.128170967102051,-0.63543701171875,4.058643341064453
1748140972740649200,2.410649169921875,2.045825958251953,-0.8524627685546875,2.656907558441162
1748140972758910500,2.428910400390625,2.2380423545837402,-0.6847705841064453,0.8701510429382324
1748140972777177600,2.447177490234375,2.6866562366485596,-2.730271339416504,0.3874201774597168
1748140972795439900,2.46543994140625,-1.4669787883758545,-4.630714416503906,0.41513729095458984
1748140972813701000,2.483701171875,-6.257330417633057,-2.8236007690429688,-1.2316162586212158
1748140972831963100,2.501963134765625,-5.456291198730469,-0.07526206970214844,-2.4948620796203613
1748140972850228500,2.520228515625,-2.5167031288146973,1.6223459243774414,-2.7927212715148926
1748140972868490000,2.538489990234375,-0.32950687408447266,1.6620426177978516,-1.5219659805297852
1748140972886757600,2.556757568359375,0.5803290605545044,2.4446916580200195,-0.24574804306030273
1748140972905015300,2.575015380859375,0.49569088220596313,2.713315010070801,-1.0372834205627441
1748140972923284700,2.59328466796875,-0.3282623291015625,2.915492057800293,-1.9167251586914062
1748140972941547300,2.61154736328125,-0.2642901539802551,3.97941255569458,-1.5921473503112793
1748140972959811600,2.6298115234375,1.1541242599487305,5.163027763366699,-1.0111541748046875
1748140972978072300,2.648072265625,-0.4963603913784027,4.911657333374023,-0.8501527309417725
1748140972996338700,2.666338623046875,-2.66595458984375,5.136889934539795,-0.9426155090332031
1748140973014601500,2.6846015625,-2.7727136611938477,1.9682354927062988,-1.2461907863616943
1748140973032865800,2.70286572265625,-5.493976593017578,2.546700954437256,1.9347550868988037
1748140973051128300,2.72112841796875,-3.001239538192749,2.5581979751586914,1.1837453842163086
1748140973069395500,2.7393955078125,-0.7050605416297913,1.9785161018371582,0.9749417304992676
1748140973087650800,2.75765087890625,-1.3361876010894775,2.601889133453369,2.624568223953247
1748140973105906700,2.77590673828125,-3.9280054569244385,2.838667869567871,3.80698823928833
1748140973124183800,2.794183837890625,-4.14686918258667,3.095701217651367,3.757585048675537
1748140973142435300,2.812435302734375,-0.9883562326431274,3.618232250213623,2.2598700523376465
1748140973160709400,2.83070947265625,-4.952885150909424,4.93217134475708,1.016801118850708
1748140973178974000,2.848973876953125,-5.362037658691406,3.734689235687256,0.6288492679595947
1748140973197236500,2.867236572265625,3.5809526443481445,0.8593578338623047,4.380708694458008
1748140973215497500,2.88549755859375,4.042036056518555,-3.905242919921875,8.253348350524902
1748140973233763600,2.903763671875,4.129754066467285,-10.111828804016113,9.42558765411377
1748140973252028200,2.922028076171875,3.521080255508423,-13.763141632080078,8.384746551513672
1748140973270289700,2.94028955078125,-0.9565041065216064,-16.43054962158203,1.1151081323623657
1748140973288555800,2.9585556640625,-1.9688141345977783,-19.055055618286133,-2.689150094985962
1748140973306817800,2.97681787109375,-3.606475353240967,-14.149703979492188,-1.150283932685852
1748140973325082400,2.995082275390625,-4.414322376251221,-7.094834327697754,2.3085436820983887
1748140973343340000,3.013340087890625,0.7527952194213867,-4.875311374664307,0.5566368103027344
1748140973361608000,3.03160791015625,4.394277572631836,-2.6781039237976074,0.8689374923706055
1748140973379873000,3.049873046875,6.505161285400391,-1.5721988677978516,1.4319016933441162
1748140973398138000,3.06813818359375,6.396228313446045,-0.6990256309509277,1.5870959758758545
1748140973416399000,3.086399169921875,6.067364692687988,-1.433497428894043,0.5177121162414551
1748140973434659600,3.10465966796875,5.098812103271484,-0.5606460571289062,-0.3860969543457031
1748140973452925000,3.122925048828125,4.869339942932129,0.9380898475646973,-0.9155761003494263
1748140973471191800,3.14119189453125,5.061857223510742,3.214533805847168,-1.5248687267303467
1748140973489456600,3.15945654296875,6.345497131347656,6.203624725341797,-1.3247735500335693
1748140973507718000,3.1777177734375,6.284947395324707,6.525598526000977,-2.776831865310669
1748140973525980200,3.195980224609375,5.723326683044434,6.05502462387085,-4.407597064971924
1748140973544245000,3.214244873046875,5.108595848083496,6.497556209564209,-5.300438404083252
1748140973562503200,3.232503173828125,4.776461601257324,7.0243239402771,-5.888901233673096
1748140973580764400,3.250764404296875,3.64719820022583,6.584040641784668,-6.385541915893555
1748140973599036400,3.269036376953125,1.6200308799743652,5.067913055419922,-6.3002848625183105
1748140973617298000,3.2872978515625,-3.614487409591675,3.8191771507263184,-4.278215408325195
1748140973635562800,3.305562744140625,-29.575557708740234,-5.534867286682129,5.646071910858154
1748140973653826300,3.323826416015625,-22.188798904418945,-14.080123901367188,10.441976547241211
1748140973672088600,3.342088623046875,-2.18576717376709,-6.740009307861328,5.886268615722656
1748140973690351900,3.360351806640625,-1.4084062576293945,-4.260927200317383,3.078709125518799
1748140973708616400,3.378616455078125,4.1956048011779785,-10.69475269317627,-1.0963547229766846
1748140973726880500,3.396880615234375,10.190460205078125,-10.728321075439453,-2.61628794670105
1748140973745142500,3.415142578125,11.432562828063965,-2.1534996032714844,-0.08417987823486328
1748140973763407600,3.43340771484375,9.647989273071289,3.357598304748535,-0.8465220928192139
1748140973781669600,3.451669677734375,11.0223388671875,-1.8420133590698242,-4.825101375579834
1748140973799933200,3.46993310546875,9.912376403808594,-5.708886623382568,-4.346538543701172
1748140973818197500,3.488197509765625,6.49349308013916,-7.567505836486816,-2.617347002029419
1748140973836457500,3.50645751953125,2.788313150405884,-7.066281318664551,-0.7590732574462891
1748140973854719000,3.524718994140625,3.1890745162963867,-4.095416069030762,0.52213454246521
1748140973872987400,3.5429873046875,1.1564371585845947,-2.8419532775878906,-0.17377519607543945
1748140973891252200,3.561252197265625,-0.9123589992523193,-2.1884145736694336,-2.3917276859283447
1748140973909520100,3.57952001953125,-3.183363199234009,0.5184097290039062,-1.8659732341766357
1748140973927774000,3.59777392578125,-2.600665330886841,2.686171054840088,-1.0137388706207275
1748140973946046700,3.616046630859375,0.8905255794525146,3.1253504753112793,-0.8335909843444824
1748140973964305000,3.634304931640625,4.132518291473389,2.8657422065734863,-1.2733678817749023
1748140973982569700,3.65256982421875,1.4163663387298584,2.532679557800293,-0.29767346382141113
1748140974000831700,3.670831787109375,-0.22088491916656494,2.1344685554504395,-0.6084086894989014
1748140974019096300,3.689096435546875,0.7526178359985352,2.506986141204834,0.5399165153503418
1748140974037359400,3.707359375,-1.0379729270935059,2.8179750442504883,-0.21565508842468262
1748140974055624000,3.7256240234375,-2.876166820526123,2.3268189430236816,0.5136053562164307
1748140974073887200,3.74388720703125,-2.420121431350708,2.2947750091552734,0.8766517639160156
1748140974092150000,3.76214990234375,-1.6447863578796387,1.290771484375,0.516176700592041
1748140974110412000,3.780412109375,-1.01995050907135,0.6795988082885742,1.1961188316345215
1748140974128679000,3.798678955078125,-2.1151795387268066,-0.76934814453125,1.3429293632507324
1748140974146939400,3.816939453125,-2.726996898651123,-1.4150333404541016,2.167969226837158
1748140974165206000,3.8352060546875,-2.9616620540618896,-2.2354660034179688,1.969285249710083
1748140974183452400,3.853452392578125,-2.462691068649292,-2.7266273498535156,2.3555257320404053
1748140974201730600,3.87173046875,-1.799783706665039,-1.9163856506347656,3.4095618724823
1748140974219989800,3.88998974609375,-2.3382601737976074,-1.4131889343261719,4.008654594421387
1748140974238260200,3.90826025390625,-4.825645446777344,-1.7118282318115234,2.877326488494873
1748140974256521200,3.926521240234375,-6.203087329864502,-2.4898509979248047,1.5800395011901855
1748140974274781400,3.944781494140625,-3.8407697677612305,-2.8083133697509766,3.2259764671325684
1748140974293048600,3.963048583984375,-0.8301353454589844,-2.6110706329345703,5.192313194274902
1748140974311313200,3.981313232421875,-1.568257451057434,-1.8772201538085938,4.055266380310059
1748140974329575400,3.999575439453125,-0.36592257022857666,-2.7918853759765625,1.9647142887115479
1748140974347840500,4.017840576171875,1.0362424850463867,-2.873795509338379,0.3186030387878418
1748140974366108400,4.0361083984375,3.5173044204711914,-2.767528533935547,-0.6311869621276855
1748140974384364500,4.054364501953125,4.542536735534668,-2.914069175720215,0.7193872928619385
1748140974402632400,4.072632568359375,4.256026744842529,-2.954134941101074,1.715083122253418
1748140974420893200,4.09089306640625,3.2751076221466064,-3.0200748443603516,1.7118501663208008
1748140974439157800,4.10915771484375,2.3019464015960693,-2.269526481628418,2.7466812133789062
1748140974457421600,4.127421630859375,2.199695587158203,-1.545536994934082,1.6749188899993896
1748140974475684400,4.145684326171875,3.622709035873413,-0.5566978454589844,-0.7064290046691895
1748140974493950200,4.1639501953125,3.718557119369507,1.2180662155151367,-2.083976984024048
1748140974512199000,4.182198974609375,2.6282176971435547,1.9793076515197754,-2.592710018157959
1748140974530470700,4.200470703125,2.3636417388916016,1.9474029541015625,-3.4437365531921387
1748140974548738300,4.21873828125,3.682868003845215,1.879340648651123,-3.8863749504089355
1748140974567003000,4.2370029296875,4.978301525115967,2.0825414657592773,-3.0124385356903076
1748140974585265400,4.255265380859375,4.234379768371582,1.9009809494018555,-1.9750299453735352
1748140974603527200,4.273527099609375,4.803167819976807,1.4730634689331055,-1.9817869663238525
1748140974621795300,4.29179541015625,5.569980621337891,1.6043639183044434,-1.805846929550171
1748140974640056800,4.310056884765625,5.103123664855957,1.7383513450622559,-2.45914363861084
1748140974658319400,4.3283193359375,3.9068169593811035,1.7777299880981445,-3.6592724323272705
1748140974676584200,4.346584228515625,3.243347644805908,1.5705862045288086,-4.369929790496826
1748140974694841900,4.364841796875,2.6400551795959473,2.6040687561035156,-3.1947944164276123
1748140974713106400,4.3831064453125,1.5876226425170898,2.3487472534179688,-3.5380091667175293
1748140974731372500,4.40137255859375,-1.801912784576416,0.9993524551391602,-4.73029899597168
1748140974749639400,4.419639404296875,-7.765829086303711,0.8689475059509277,-2.53922700881958
1748140974767899600,4.437899658203125,-15.30628776550293,-2.338181495666504,3.336610794067383
1748140974786166500,4.45616650390625,-11.381782531738281,-8.154698371887207,5.142411708831787
1748140974804427800,4.474427734375,-5.700535774230957,-6.423825263977051,4.3721771240234375
1748140974822692400,4.4926923828125,-2.505127429962158,1.6873364448547363,2.6633212566375732
1748140974840955100,4.510955078125,-1.230680227279663,-0.4598369598388672,-4.311100482940674
1748140974859219200,4.52921923828125,1.6847727298736572,-7.575560569763184,-1.7088391780853271
1748140974877477000,4.54747705078125,9.846874237060547,-6.326822280883789,6.0583038330078125
1748140974895746600,4.56574658203125,6.2052412033081055,-4.90140438079834,0.1018071174621582
1748140974914009000,4.584009033203125,2.8729376792907715,-1.7830896377563477,-1.4973618984222412
1748140974932273700,4.602273681640625,5.987549304962158,2.074066638946533,-1.6628656387329102
1748140974950536000,4.620535888671875,5.761929035186768,2.7879271507263184,-2.3014962673187256
1748140974968792800,4.638792724609375,4.444096088409424,1.411783218383789,-2.993274688720703
1748140974987064800,4.65706494140625,3.6541504859924316,-0.7729673385620117,-2.82810378074646
1748140975005324800,4.67532470703125,3.0263543128967285,-1.087021827697754,0.637805700302124
1748140975023594800,4.6935947265625,3.6605782508850098,-1.7930679321289062,1.6782259941101074
1748140975041852000,4.711851806640625,3.199354648590088,-2.168459892272949,-0.7425806522369385
1748140975060119000,4.730119140625,1.5209944248199463,-0.21787357330322266,-1.184361457824707
1748140975078382800,4.7483828125,-1.019758939743042,1.027928352355957,0.31676363945007324
1748140975096644600,4.76664453125,-1.7636061906814575,-0.08375167846679688,-0.8403069972991943
1748140975114907600,4.78490771484375,-1.011950135231018,0.6845369338989258,-1.8758337497711182
1748140975133172500,4.80317236328125,-1.0232104063034058,1.0780582427978516,-3.5538861751556396
1748140975151436300,4.821436279296875,-1.1596442461013794,1.8033757209777832,-3.069689989089966
1748140975169698300,4.8396982421875,-0.2887941598892212,2.2780094146728516,-1.877537727355957
1748140975187963100,4.857963134765625,0.9666069149971008,2.812741279602051,-1.3049299716949463
1748140975206225700,4.8762255859375,0.9764683246612549,2.188469886779785,-0.7955222129821777
1748140975224486100,4.894486083984375,-0.3081650733947754,2.0629630088806152,-0.3388528823852539
1748140975242751500,4.91275146484375,-2.1767241954803467,1.811410903930664,-0.23253297805786133
1748140975261003800,4.931003662109375,-3.2366576194763184,0.4861764907836914,-0.16443920135498047
1748140975279279900,4.94927978515625,-3.3647046089172363,-0.9840736389160156,-0.036554574966430664
1748140975297541400,4.967541259765625,-2.373230218887329,-1.882939338684082,-0.03382706642150879
1748140975315807200,4.98580712890625,-1.0324695110321045,-1.9073247909545898,1.2167208194732666
1748140975334071300,5.0040712890625,-1.3297033309936523,-1.8793487548828125,2.6597952842712402
1748140975352334000,5.022333984375,-3.2566945552825928,-1.3146238327026367,3.333923101425171
1748140975370598400,5.040598388671875,-3.526801109313965,-0.043440818786621094,3.912198305130005
1748140975388861000,5.05886083984375,-4.004353046417236,0.15346813201904297,5.139218807220459
1748140975407125500,5.07712548828125,-4.436685562133789,-1.9162540435791016,7.097460746765137
1748140975425388300,5.09538818359375,-2.4397358894348145,-3.6158180236816406,7.104980945587158
1748140975443652400,5.11365234375,-1.2017406225204468,-3.3360204696655273,4.135928153991699
1748140975461913900,5.131913818359375,-1.6666839122772217,-3.05910587310791,1.128692388534546
1748140975480180000,5.150179931640625,-3.713536024093628,-4.506809234619141,-0.26278233528137207
1748140975498443500,5.168443603515625,-0.6706861257553101,-5.375211715698242,-0.7563967704772949
1748140975516706800,5.186706787109375,3.0212748050689697,-6.06165885925293,-0.4508674144744873
1748140975534969600,5.204969482421875,3.93546986579895,-6.106670379638672,-0.5710289478302002
1748140975553233700,5.223233642578125,3.303446054458618,-4.477602005004883,-0.4829227924346924
1748140975571491800,5.241491943359375,2.295945644378662,-2.5270376205444336,-0.8003630638122559
1748140975589760800,5.2597607421875,2.2894818782806396,-1.3140974044799805,-1.367260456085205
1748140975608014600,5.2780146484375,3.653795003890991,-0.6722474098205566,-1.8504066467285156
1748140975626288000,5.2962880859375,4.762655258178711,0.26332807540893555,-1.7725203037261963
1748140975644550700,5.314550537109375,4.760309219360352,1.2806305885314941,-1.493100881576538
1748140975662815200,5.332815185546875,3.66032075881958,1.8811278343200684,-0.8133277893066406
1748140975681077500,5.351077392578125,3.254779577255249,1.870023250579834,-0.3225679397583008
1748140975699342000,5.369342041015625,4.404477596282959,1.560882568359375,-0.46412086486816406
1748140975717604900,5.38760498046875,5.648164749145508,1.6706781387329102,-0.9334304332733154
1748140975735864800,5.40586474609375,5.573337078094482,2.3338112831115723,-2.5948941707611084
1748140975754130700,5.424130615234375,5.348204612731934,3.4381251335144043,-3.9696226119995117
1748140975772397800,5.442397705078125,5.310020446777344,4.238365173339844,-4.768760681152344
1748140975790658600,5.460658447265625,5.281888008117676,4.61846923828125,-5.204642295837402
1748140975808922000,5.478922119140625,5.075951099395752,4.142801284790039,-5.198154926300049
1748140975827187200,5.497187255859375,4.137829303741455,3.60725736618042,-5.022067070007324
1748140975845453600,5.51545361328125,2.209747076034546,3.310713768005371,-4.323523998260498
1748140975863713000,5.533713134765625,-1.1834220886230469,1.9957270622253418,-2.8759663105010986
1748140975881977600,5.5519775390625,-8.393763542175293,-0.40457725524902344,0.6114206314086914
1748140975900239000,5.570239013671875,-15.751279830932617,-4.314355850219727,9.720437049865723
1748140975918501000,5.588501220703125,-14.021350860595703,-12.7981595993042,14.658644676208496
1748140975936767000,5.60676708984375,-5.847949028015137,-10.439812660217285,6.543461799621582
1748140975955031800,5.62503173828125,-5.187519073486328,-1.7467041015625,2.4187495708465576
1748140975973294300,5.64329443359375,-3.180947780609131,2.8959341049194336,-3.2690136432647705
1748140975991559000,5.661558837890625,-0.5139672756195068,3.412229537963867,-7.112227439880371
1748140976009821000,5.679821044921875,4.175047397613525,-0.13660812377929688,-6.571115493774414
1748140976028073700,5.69807373046875,7.916400909423828,-5.23989200592041,-4.54671049118042
1748140976046348300,5.716348388671875,5.9930524826049805,-10.498462677001953,-3.5626633167266846
1748140976064613400,5.73461328125,1.464713454246521,-7.474896430969238,0.02613091468811035
1748140976082867700,5.75286767578125,4.515763282775879,-0.7728414535522461,-1.1754798889160156
1748140976101141800,5.771141845703125,6.879255294799805,2.9218521118164062,-2.024500846862793
1748140976119403500,5.789403564453125,6.357147216796875,2.864889144897461,-1.3172392845153809
1748140976137667000,5.8076669921875,5.153916835784912,0.9720969200134277,0.5945136547088623
1748140976155928600,5.825928466796875,5.02738094329834,-1.1533164978027344,2.295550584793091
1748140976174195200,5.8441953125,5.291630744934082,-2.17087459564209,3.9210827350616455
1748140976192458200,5.862458251953125,2.307668685913086,-0.7225503921508789,4.167840957641602
1748140976210721300,5.88072119140625,-2.374293088912964,0.325714111328125,1.1931517124176025
1748140976228983300,5.8989833984375,-5.148343086242676,1.3352899551391602,-1.7373905181884766
1748140976247248400,5.917248291015625,-2.7415151596069336,1.5512399673461914,-2.882330894470215
1748140976265506600,5.935506591796875,0.17037516832351685,0.8623266220092773,-2.567624092102051
1748140976283775700,5.953775634765625,0.9823802709579468,0.45752429962158203,-1.6171753406524658
1748140976302037800,5.972037841796875,0.1748645007610321,0.7196969985961914,-0.02256917953491211
1748140976320301600,5.990301513671875,-0.0006086826324462891,1.5547685623168945,0.7971146106719971
1748140976338561000,6.00856103515625,0.4575035572052002,2.2397594451904297,1.159303903579712
1748140976356829700,6.02682958984375,-0.13587498664855957,2.6185240745544434,1.4999942779541016
1748140976375092000,6.045092041015625,-2.0000431537628174,2.8633551597595215,1.7045903205871582
1748140976393356800,6.063356689453125,-1.876632809638977,2.714822769165039,1.5233182907104492
1748140976411618800,6.081618896484375,0.2995421290397644,1.9764151573181152,1.416771650314331
1748140976429884400,6.099884521484375,0.15265202522277832,0.27074146270751953,0.7585270404815674
1748140976448145000,6.118144775390625,-2.5633273124694824,-1.5849609375,-0.3011515140533447
1748140976466411000,6.136410888671875,-6.530273914337158,-2.3818130493164062,-0.6513164043426514
1748140976484668200,6.154668212890625,-5.889258861541748,-2.567631721496582,1.609354019165039
1748140976502936800,6.172936767578125,-1.6167291402816772,-1.9074859619140625,3.6941635608673096
1748140976521201200,6.191201171875,-0.010640263557434082,-0.4152250289916992,4.541545867919922
1748140976539460000,6.209460205078125,-0.5089184045791626,0.5998525619506836,4.755958557128906
1748140976557727000,6.22772705078125,-5.771030426025391,-0.2242870330810547,3.913012742996216
1748140976575992000,6.245991943359375,-11.102311134338379,-2.0971946716308594,1.4917078018188477
1748140976594249500,6.26424951171875,-4.502600193023682,-2.3087453842163086,3.23797607421875
1748140976612519000,6.282518798828125,-0.3541416823863983,-0.7206239700317383,3.84267520904541
1748140976630782500,6.300782470703125,-0.5491318702697754,-0.9381084442138672,4.085845947265625
1748140976649046000,6.3190458984375,2.9059667587280273,-2.4944400787353516,4.274055480957031
1748140976667308500,6.33730859375,4.269288539886475,-3.387300491333008,3.907970428466797
1748140976685573000,6.355572998046875,4.275169372558594,-4.764338493347168,3.9610366821289062
1748140976703835600,6.373835693359375,2.177990198135376,-7.245677947998047,2.1050331592559814
1748140976722100500,6.3921005859375,1.0856173038482666,-8.463475227355957,-0.5232365131378174
1748140976740362500,6.410362548828125,2.400219202041626,-5.538278579711914,-1.8098440170288086
1748140976758627000,6.428626953125,2.5337202548980713,-2.045757293701172,-2.246751546859741
1748140976776882200,6.446882080078125,2.1042370796203613,0.30545902252197266,-2.637141704559326
1748140976795155700,6.46515576171875,2.647223949432373,1.6180095672607422,-2.667515277862549
1748140976813417000,6.4834169921875,3.67240047454834,2.4523415565490723,-2.4145190715789795
1748140976831681500,6.501681640625,4.0656046867370605,2.9541211128234863,-2.1874637603759766
1748140976849942800,6.51994287109375,4.711760520935059,2.587769031524658,-2.371706962585449
1748140976868208000,6.5382080078125,4.622200012207031,2.051112651824951,-2.877692699432373
1748140976886467000,6.556467041015625,5.615325927734375,1.5704803466796875,-2.6304101943969727
1748140976904731100,6.574731201171875,5.731851100921631,1.5748600959777832,-2.186018943786621
1748140976922998000,6.592998046875,5.418977737426758,2.2359890937805176,-1.9258880615234375
1748140976941262600,6.6112626953125,5.472131729125977,3.1532187461853027,-3.028629779815674
1748140976959525000,6.629525146484375,5.219245433807373,3.464540481567383,-4.486701488494873
1748140976977790000,6.6477900390625,4.42933988571167,3.135322093963623,-5.1523895263671875
1748140976996052200,6.66605224609375,3.770336627960205,3.1833558082580566,-5.5012969970703125
1748140977014316800,6.68431689453125,1.8141324520111084,3.302643299102783,-5.843201637268066
1748140977032579300,6.702579345703125,-1.5960092544555664,1.9882731437683105,-3.722325563430786
1748140977050843400,6.720843505859375,-8.544663429260254,-1.4071340560913086,1.623349666595459
1748140977069106200,6.739106201171875,-17.538724899291992,-6.490486145019531,10.575937271118164
1748140977087371000,6.75737109375,-13.305119514465332,-13.040218353271484,16.04517364501953
1748140977105628700,6.775628662109375,-3.389545202255249,-8.432546615600586,8.23511028289795
1748140977123896800,6.793896728515625,-4.421526908874512,0.7232413291931152,2.917921781539917
1748140977142161700,6.81216162109375,-2.5780696868896484,5.812896728515625,-3.015167236328125
1748140977160420900,6.8304208984375,0.19192171096801758,7.135470390319824,-6.088968276977539
1748140977178691600,6.848691650390625,5.779013633728027,4.432101249694824,-4.420624732971191
1748140977196953000,6.866953125,9.68988037109375,-1.4666051864624023,-3.087693691253662
1748140977215213800,6.8852138671875,8.605720520019531,-8.900152206420898,-0.6009843349456787
1748140977233471700,6.9034716796875,4.833226680755615,-14.29057502746582,1.5173063278198242
1748140977251744500,6.92174462890625,1.746823787689209,-7.660981178283691,0.05365753173828125
1748140977270006000,6.940006103515625,1.1464625597000122,0.2644796371459961,-1.6417315006256104
1748140977288268800,6.958268798828125,1.3619134426116943,3.2732200622558594,-2.1715385913848877
1748140977306533400,6.976533447265625,2.3369414806365967,3.095320701599121,-0.8785383701324463
1748140977324791600,6.99479150390625,3.325303554534912,1.209923267364502,0.060454368591308594
1748140977343060500,7.013060546875,3.8238508701324463,-0.16921234130859375,0.24260950088500977
1748140977361322800,7.03132275390625,3.818525552749634,-0.3084993362426758,0.32418298721313477
1748140977379587300,7.04958740234375,2.353675127029419,-0.49413299560546875,-0.9496321678161621
1748140977397849900,7.067849853515625,-0.7319149971008301,-0.33653831481933594,-2.3136258125305176
1748140977416114700,7.08611474609375,-2.8776168823242188,0.4425182342529297,-3.2514736652374268
1748140977434377200,7.104377197265625,-1.9689342975616455,1.312485694885254,-3.184438943862915
1748140977452636400,7.122636474609375,-0.14985185861587524,1.6384363174438477,-1.4981403350830078
1748140977470902800,7.14090283203125,0.6002553105354309,1.671532154083252,-0.008482694625854492
1748140977489167400,7.15916748046875,0.5842021703720093,1.3684415817260742,1.1575729846954346
1748140977507431200,7.17743115234375,0.7145839333534241,1.9852538108825684,1.227689504623413
1748140977525695500,7.195695556640625,-0.4635539948940277,3.01837158203125,1.1355047225952148
1748140977543958300,7.213958251953125,-3.533735513687134,3.316925525665283,1.6759474277496338
1748140977562222600,7.23222265625,-3.827775001525879,1.9700188636779785,2.15989089012146
1748140977580480300,7.250480224609375,-2.8417627811431885,-0.6693954467773438,1.90012788772583
1748140977598749700,7.268749755859375,-3.0348453521728516,-2.589056968688965,1.007997989654541
1748140977617012500,7.287012451171875,-2.9846441745758057,-3.5375900268554688,1.3168141841888428
1748140977635275500,7.305275634765625,-2.956632614135742,-2.8530588150024414,3.041809320449829
1748140977653537800,7.323537841796875,-2.8045551776885986,-0.48053455352783203,4.51527214050293
1748140977671806700,7.341806640625,-2.030726194381714,1.3862042427062988,5.208414077758789
1748140977690066200,7.360066162109375,-3.86325740814209,1.350231647491455,5.711462497711182
1748140977708326100,7.378326171875,-8.585029602050781,-1.0650873184204102,4.3633317947387695
1748140977726593800,7.39659375,-6.390407085418701,-2.9399986267089844,4.631655693054199
1748140977744853500,7.414853515625,-0.301672101020813,-2.2783498764038086,4.376155376434326
1748140977763120600,7.43312060546875,-0.06007722020149231,-0.5430994033813477,2.6238558292388916
1748140977781385200,7.45138525390625,-2.5912563800811768,-2.0808448791503906,2.2979068756103516
1748140977799647200,7.469647216796875,-0.44567590951919556,-4.144275665283203,1.2429711818695068
1748140977817911000,7.4879111328125,2.3261613845825195,-5.925444602966309,0.7954456806182861
1748140977836176100,7.506176025390625,1.9571187496185303,-7.889591217041016,-0.44217872619628906
1748140977854440000,7.52443994140625,1.640084981918335,-8.109047889709473,-0.48851895332336426
1748140977872702000,7.542701904296875,3.610724449157715,-5.148577690124512,-0.251328706741333
1748140977890966000,7.560966064453125,4.998973369598389,-2.4143218994140625,-0.7183067798614502
1748140977909228800,7.579228759765625,3.797664165496826,-0.21159648895263672,-1.171898603439331
1748140977927488800,7.59748876953125,3.1968789100646973,1.6950664520263672,-0.6091296672821045
1748140977945756200,7.615756103515625,2.535555601119995,2.7097930908203125,-0.020319461822509766
1748140977964015600,7.634015625,1.9080417156219482,2.717121124267578,0.006073474884033203
1748140977982281700,7.65228173828125,2.2666068077087402,1.7977356910705566,-0.21831011772155762
1748140978000548600,7.670548583984375,4.040198802947998,0.5711789131164551,-0.5955381393432617
1748140978018809900,7.688809814453125,6.360832691192627,-0.06513738632202148,-1.7509751319885254
1748140978037074700,7.70707470703125,6.398905277252197,0.5913748741149902,-4.099692344665527
1748140978055337200,7.725337158203125,4.84427547454834,1.8875317573547363,-5.527631759643555
1748140978073589800,7.74358984375,4.481668949127197,3.0794577598571777,-5.737780570983887
1748140978091864000,7.761864013671875,5.074902534484863,3.106924057006836,-6.193989276885986
1748140978110127400,7.78012744140625,4.733674049377441,2.8422703742980957,-6.4318342208862305
1748140978128392200,7.79839208984375,3.5072009563446045,2.968468189239502,-6.248052597045898
1748140978146655700,7.81665576171875,1.8051550388336182,3.6017112731933594,-5.794827938079834
1748140978164917200,7.834917236328125,-0.031816959381103516,3.708436965942383,-4.6981377601623535
1748140978183184100,7.85318408203125,-2.995652675628662,2.07742977142334,-2.751742362976074
1748140978201445400,7.8714453125,-7.927883148193359,-1.7309398651123047,2.8714065551757812
1748140978219704800,7.889704833984375,-12.860118865966797,-9.37874698638916,14.015617370605469
1748140978237971000,7.907970947265625,-8.819356918334961,-12.068950653076172,16.589344024658203
1748140978256238600,7.926238525390625,-5.854771614074707,-4.013897895812988,8.242778778076172
1748140978274492200,7.9444921875,-4.6456780433654785,1.999875545501709,1.3170769214630127
1748140978292767200,7.962767333984375,-0.38042736053466797,2.2101478576660156,-4.1534295082092285
1748140978311023000,7.981023193359375,1.6399681568145752,-1.525925636291504,-4.591629505157471
1748140978329293800,7.9992939453125,4.92682409286499,-5.683631896972656,-2.9936883449554443
1748140978347553500,8.017553466796874,4.435553550720215,-7.576639175415039,-4.740520477294922
1748140978365818000,8.035818115234376,4.386857986450195,-3.056140899658203,-4.552379131317139
1748140978384080600,8.05408056640625,5.523421287536621,-0.108612060546875,-2.8202197551727295
1748140978402345200,8.07234521484375,5.593592643737793,1.0236072540283203,-1.63352370262146
1748140978420607500,8.090607421875,5.584637641906738,1.2223453521728516,-0.3651249408721924
1748140978438872300,8.108872314453125,4.778191566467285,0.6243176460266113,0.6390678882598877
1748140978457134600,8.127134521484376,4.204524517059326,-0.44117069244384766,1.8714053630828857
1748140978475394300,8.145394287109376,3.1349470615386963,-0.9872426986694336,3.3518033027648926
1748140978493660700,8.16366064453125,-0.28535401821136475,-0.7132472991943359,2.306915044784546
1748140978511926300,8.18192626953125,-4.215231418609619,0.1415395736694336,-0.12167572975158691
1748140978530176800,8.2001767578125,-4.143627166748047,1.201559066772461,-2.4210925102233887
1748140978548457700,8.218457763671875,-0.8391009569168091,1.641197681427002,-3.023888111114502
1748140978566703600,8.23670361328125,0.9037864208221436,1.2719392776489258,-2.285695791244507
1748140978584980500,8.25498046875,0.9240279793739319,1.1045966148376465,-0.9267711639404297
1748140978603242500,8.273242431640625,0.9800460338592529,1.3001213073730469,0.40413451194763184
1748140978621504000,8.29150390625,1.154754400253296,1.8392062187194824,1.1662018299102783
1748140978639769900,8.309769775390626,0.1863238662481308,2.1404013633728027,1.8437697887420654
1748140978658022400,8.3280224609375,-3.0578787326812744,2.6053147315979004,2.2120347023010254
1748140978676296700,8.346296630859374,-5.151203632354736,2.5825700759887695,1.6552557945251465
1748140978694561500,8.3645615234375,-2.293177604675293,2.225466251373291,1.1758012771606445
1748140978712823800,8.38282373046875,-0.46611130237579346,1.6414966583251953,0.15094947814941406
1748140978731088100,8.401088134765626,-0.15149080753326416,0.4454946517944336,0.1255507469177246
1748140978749349400,8.419349365234375,-0.33656132221221924,-1.036698341369629,0.8883965015411377
1748140978767617000,8.437616943359375,-1.2654024362564087,-1.8472614288330078,1.8266875743865967
1748140978785877800,8.455877685546875,-4.007467269897461,-2.08187198638916,2.526992082595825
1748140978804142800,8.474142822265625,-4.128842353820801,-0.40918540954589844,3.502962112426758
1748140978822405000,8.492405029296876,-2.6370511054992676,0.5167770385742188,4.499070167541504
1748140978840669400,8.51066943359375,-3.9556353092193604,0.04094219207763672,4.123543739318848
1748140978858930700,8.5289306640625,-6.730511665344238,-2.379157066345215,3.581273078918457
1748140978877197800,8.54719775390625,-5.057409286499023,-4.190437316894531,6.632237434387207
1748140978895456300,8.565456298828124,-1.4832850694656372,-2.830500602722168,6.040246963500977
1748140978913724000,8.583723876953124,-0.21140384674072266,-0.1886310577392578,3.651520013809204
1748140978931986200,8.601986083984375,-2.2012648582458496,-0.07929420471191406,2.236032247543335
1748140978950253000,8.620253173828125,-2.1922659873962402,-2.1792306900024414,0.996119499206543
1748140978968518100,8.63851806640625,0.07316970825195312,-4.638269424438477,0.9125771522521973
1748140978986778000,8.656778076171875,1.3319880962371826,-6.533455848693848,0.19576191902160645
1748140979005039400,8.675039306640626,3.0088586807250977,-7.111690521240234,0.6432778835296631
1748140979023306500,8.693306396484376,4.6596808433532715,-6.001635551452637,0.7765448093414307
1748140979041567500,8.7115673828125,5.358692169189453,-3.7424535751342773,-0.4944467544555664
1748140979059831800,8.729831787109376,3.512444257736206,-1.2997264862060547,-1.1183366775512695
1748140979078082300,8.748082275390624,1.0484168529510498,1.0531845092773438,-0.9694802761077881
1748140979096359400,8.766359375,1.2380540370941162,2.2753958702087402,-0.8658311367034912
1748140979114621700,8.78462158203125,2.9228625297546387,2.6167593002319336,-1.5292096138000488
1748140979132887000,8.802886962890625,3.8679089546203613,2.194371223449707,-1.5406897068023682
1748140979151147500,8.8211474609375,4.484784126281738,1.119692325592041,-1.341848373413086
1748140979169412900,8.839412841796875,4.401603698730469,0.8046908378601074,-1.2256474494934082
1748140979187675600,8.857675537109374,4.772839069366455,1.2085857391357422,-2.571303367614746
1748140979205939200,8.875939208984375,4.856616020202637,2.4281911849975586,-3.84411883354187
1748140979224203800,8.894203857421875,4.923402786254883,3.509730577468872,-4.447579860687256
1748140979242463500,8.91246337890625,5.4806647300720215,3.638075113296509,-5.356313705444336
1748140979260728300,8.930728271484375,5.205059051513672,3.076442241668701,-6.142708778381348
1748140979278995200,8.9489951171875,4.091732501983643,3.3222575187683105,-5.622511386871338
1748140979297256700,8.967256591796875,2.6025609970092773,4.010900974273682,-5.353474140167236
1748140979315522000,8.98552197265625,0.7044422626495361,3.8980488777160645,-4.794613838195801
1748140979333779200,9.003779296875,-1.6351699829101562,1.9897480010986328,-2.1356377601623535
1748140979352045600,9.022045654296875,-6.642443656921387,-1.9422531127929688,2.761038064956665
1748140979370312400,9.0403125,-17.196195602416992,-7.816567420959473,12.862689018249512
1748140979388577300,9.058577392578124,-10.859663009643555,-10.792830467224121,14.254434585571289
1748140979406836500,9.07683642578125,-4.97005558013916,-4.1092529296875,7.719347953796387
1748140979425102600,9.0951025390625,-4.445657730102539,2.1185402870178223,1.5048587322235107
1748140979443364900,9.11336474609375,-2.420982837677002,3.6112823486328125,-4.2770185470581055
1748140979461629700,9.131629638671875,0.6113080978393555,-0.6705636978149414,-4.656789779663086
1748140979479891000,9.149890869140625,5.823291301727295,-5.0519514083862305,-1.0558292865753174
1748140979498156800,9.16815673828125,6.34754753112793,-9.882160186767578,-0.9143538475036621
1748140979516418800,9.186418701171876,2.193662643432617,-6.751705169677734,-2.7257819175720215
1748140979534678800,9.2046787109375,1.2108993530273438,-0.2175912857055664,-3.751354694366455
1748140979552947700,9.22294775390625,4.519865036010742,3.316755771636963,-3.4118435382843018
1748140979571208400,9.24120849609375,5.923855781555176,3.2835121154785156,-2.1923274993896484
1748140979589468200,9.25946826171875,5.2856855392456055,1.4264860153198242,-0.16851258277893066
1748140979607736000,9.277736083984376,4.362553596496582,-1.4984712600708008,1.715139627456665
1748140979626001200,9.296001220703126,4.439859390258789,-3.5244674682617188,3.7763423919677734
1748140979644266000,9.314265869140625,1.4152213335037231,-1.4758872985839844,4.643024444580078
1748140979662527200,9.33252734375,-2.0615344047546387,0.3121213912963867,1.034468173980713
1748140979680792800,9.350792724609375,-3.305788516998291,2.102491855621338,-2.04431414604187
1748140979699053600,9.369053466796874,-1.7290962934494019,2.2255406379699707,-3.0846643447875977
1748140979717318400,9.387318359375,1.033172369003296,1.7398877143859863,-3.0030741691589355
1748140979735581400,9.40558154296875,2.1925158500671387,1.2014331817626953,-1.9442707300186157
1748140979753845800,9.423845703125,1.295370101928711,0.7804536819458008,-0.6303586959838867
1748140979772108300,9.4421083984375,0.730640172958374,0.8453226089477539,0.21773076057434082
1748140979790372600,9.46037255859375,0.17332208156585693,1.1663293838500977,0.6409239768981934
1748140979808635100,9.47863525390625,-1.9870567321777344,1.8834056854248047,1.073329210281372
1748140979826898400,9.4968984375,-5.593137264251709,2.6813340187072754,1.3575716018676758
1748140979845158700,9.51515869140625,-5.18212890625,2.4258604049682617,0.9031131267547607
1748140979863423500,9.533423583984375,-1.6066954135894775,1.4245915412902832,0.26108646392822266
1748140979881692400,9.5516923828125,-0.35723876953125,0.673375129699707,0.2976722717285156
1748140979899952600,9.56995263671875,-0.8978419303894043,0.4234304428100586,0.7530405521392822
1748140979918217200,9.58821728515625,-1.6784743070602417,-0.32935142517089844,1.909667730331421
1748140979936476200,9.60647607421875,-3.944525957107544,-1.4385318756103516,3.4713401794433594
1748140979954739500,9.624739501953124,-4.645984649658203,-1.6531763076782227,4.7445220947265625
1748140979972994000,9.642994140625,-2.3353824615478516,-0.5151348114013672,4.659170627593994
1748140979991273000,9.66127294921875,-3.2115657329559326,-0.3954010009765625,4.436902046203613
1748140980009534700,9.67953466796875,-6.831974983215332,-2.9464616775512695,4.531328201293945
1748140980027797500,9.697797607421874,-5.345866680145264,-4.341168403625488,8.77338981628418
1748140980046061800,9.716061767578125,-2.543571710586548,-3.3071413040161133,8.544082641601562
1748140980064324600,9.73432470703125,-2.7364845275878906,-0.9093399047851562,5.483911514282227
1748140980082589200,9.752589111328126,-3.4661436080932617,-2.2026233673095703,1.8221526145935059
1748140980100846300,9.770846435546876,1.7919621467590332,-3.279085159301758,0.3691847324371338
1748140980119114500,9.789114501953126,3.7809908390045166,-3.4818801879882812,0.9346597194671631
1748140980137379600,9.807379638671875,3.6952157020568848,-4.49494743347168,0.38269901275634766
1748140980155643100,9.82564306640625,2.9034433364868164,-5.902196884155273,-0.34874939918518066
1748140980173904600,9.843904541015625,1.1844744682312012,-5.500452995300293,0.6116969585418701
1748140980192171300,9.862171142578125,1.4557114839553833,-4.562705993652344,-0.7476997375488281
1748140980210432300,9.880432373046874,2.479327440261841,-2.6260900497436523,-1.624159574508667
1748140980228697000,9.898697021484375,3.0250658988952637,-0.006587028503417969,-2.6831250190734863
1748140980246959900,9.9169599609375,3.8965978622436523,1.827085018157959,-3.0764975547790527
1748140980265224200,9.93522412109375,4.307590961456299,3.1072516441345215,-2.685312032699585
1748140980283481300,9.9534814453125,3.7133989334106445,3.3105521202087402,-2.20794939994812
1748140980301751600,9.97175146484375,3.2824175357818604,2.8023171424865723,-1.6902291774749756
1748140980320013600,9.990013671875,2.6043941974639893,2.5186986923217773,-0.8946611881256104
1748140980338278100,10.008278076171875,2.6012063026428223,2.527914524078369,-0.6567971706390381
1748140980356540400,10.02654052734375,3.6894736289978027,2.817267894744873,-2.2064130306243896
1748140980374800100,10.044800048828124,4.961027145385742,2.9742770195007324,-4.475372314453125
1748140980393068800,10.06306884765625,5.527952671051025,2.8629355430603027,-5.894340515136719
1748140980411332400,10.081332275390626,5.145150661468506,3.720716953277588,-6.229351043701172
1748140980429591800,10.099591796875,4.084610462188721,4.816205024719238,-6.471840858459473
1748140980447857200,10.117857177734376,2.2540879249572754,4.4184184074401855,-6.384920120239258
1748140980466118400,10.136118408203124,-0.007659196853637695,2.945100784301758,-4.636387825012207
1748140980484390000,10.154389892578125,-3.2427656650543213,0.3903617858886719,-0.6186873912811279
1748140980502648800,10.17264892578125,-13.875104904174805,-3.3904876708984375,7.91162109375
1748140980520912000,10.190911865234375,-16.733203887939453,-8.76849365234375,19.630462646484375
1748140980539176700,10.2091767578125,-5.289087295532227,-8.36894702911377,12.387750625610352
1748140980557441000,10.22744091796875,-4.9098405838012695,-0.06449127197265625,6.281452655792236
1748140980575702500,10.24570263671875,-2.7953264713287354,3.6962952613830566,-0.7381167411804199
1748140980593967600,10.263967529296876,-1.0204646587371826,0.4740886688232422,-5.883613109588623
1748140980612230000,10.28222998046875,3.2356247901916504,-5.676427841186523,-5.601037979125977
1748140980630489900,10.30048974609375,5.428586006164551,-13.430943489074707,-3.776019811630249
1748140980648756500,10.318756591796875,1.6400007009506226,-10.507974624633789,-2.648883581161499
1748140980667021300,10.337021240234375,4.238411903381348,0.523076057434082,-3.0337977409362793
1748140980685283800,10.355283935546876,5.310506820678711,4.428112030029297,-4.384603500366211
1748140980703540700,10.373540771484375,6.713314533233643,5.696319103240967,-4.198265552520752
1748140980721809400,10.391809326171876,5.750204086303711,3.3504767417907715,-2.570068120956421
1748140980740076000,10.410075927734376,3.943155288696289,-1.3437786102294922,0.4262387752532959
1748140980758326300,10.428326171875,3.6801745891571045,-6.1990156173706055,3.7795565128326416
1748140980776602600,10.4466025390625,2.4676060676574707,-4.88200569152832,7.28620719909668
1748140980794860500,10.464860595703126,-2.0678482055664062,0.07781410217285156,4.785956382751465
1748140980813129700,10.483129638671874,-3.984015464782715,2.9590916633605957,0.9951474666595459
1748140980831391500,10.5013916015625,-2.5321640968322754,3.9946799278259277,-0.8651731014251709
1748140980849656300,10.51965625,-0.32995569705963135,3.173306941986084,-1.6099207401275635
1748140980867917300,10.537917236328125,1.8660777807235718,2.011516571044922,-1.936529517173767
1748140980886184700,10.556184814453125,1.7921714782714844,0.7715549468994141,-1.119936466217041
1748140980904446500,10.574446533203124,0.31194043159484863,0.5310211181640625,-0.6224405765533447
1748140980922710500,10.59271044921875,-0.8935827016830444,1.7395434379577637,-0.8903007507324219
1748140980940972800,10.610972900390625,-1.1510201692581177,2.8634986877441406,-0.860253095626831
1748140980959232500,10.629232421875,-0.8604544401168823,3.3436050415039062,-0.3525993824005127
1748140980977494800,10.647494873046876,-1.0919266939163208,3.0275912284851074,0.737565279006958
1748140980995765500,10.665765625,-2.2554595470428467,2.053732395172119,1.8568880558013916
1748140981014026800,10.68402685546875,-2.3867135047912598,1.3770480155944824,1.8333280086517334
1748140981032291800,10.702291748046875,-1.848421573638916,0.31854915618896484,1.6299386024475098
1748140981050553600,10.7205537109375,-1.9808454513549805,-1.0332860946655273,1.520677089691162
1748140981068818400,10.738818359375,-3.6554317474365234,-1.8391532897949219,1.498089075088501
1748140981087081000,10.7570810546875,-4.1097822189331055,-2.149134635925293,2.2282791137695312
1748140981105345800,10.775345703125,-2.49780011177063,-1.8186264038085938,3.9491090774536133
1748140981123607800,10.79360791015625,-1.6365466117858887,-0.8835515975952148,5.332877159118652
1748140981141872600,10.81187255859375,-5.862452030181885,-1.2123804092407227,5.540349006652832
1748140981160133400,10.83013330078125,-8.753705024719238,-3.318918228149414,5.318508148193359
1748140981178400500,10.848400390625,-3.061518907546997,-4.305828094482422,7.97987174987793
1748140981196662000,10.866662109375,0.7932040691375732,-3.0255022048950195,5.50963830947876
1748140981214920700,10.884920654296875,0.2805626392364502,-1.972794532775879,2.810260057449341
1748140981233188900,10.90318896484375,-1.8370749950408936,-3.5092220306396484,1.4940884113311768
1748140981251458300,10.921458251953124,-0.1718834936618805,-4.020045280456543,0.8290483951568604
1748140981269716000,10.939716064453124,1.3973698616027832,-4.185264587402344,0.9689006805419922
1748140981287980800,10.957980712890626,2.548232078552246,-4.415650367736816,0.46976661682128906
1748140981306242800,10.976242919921875,2.3579421043395996,-4.387302398681641,0.17421984672546387
1748140981324503300,10.99450341796875,1.1586612462997437,-3.8802490234375,-0.266434907913208
1748140981342770400,11.0127705078125,1.3142173290252686,-2.676241874694824,-1.46209716796875
1748140981361034500,11.031034423828125,2.4544293880462646,-1.020695686340332,-2.446376323699951
1748140981379296800,11.049296875,2.752871513366699,0.9320540428161621,-2.648535966873169
1748140981397561600,11.0675615234375,3.4470856189727783,2.0578160285949707,-3.1563408374786377
1748140981415824000,11.085823974609376,4.033940315246582,2.6352310180664062,-2.9852747917175293
1748140981434088400,11.10408837890625,3.8255584239959717,2.9940056800842285,-2.408482074737549
1748140981452351200,11.122351318359375,3.2887258529663086,2.899308204650879,-1.9263792037963867
1748140981470611000,11.14061083984375,2.5915303230285645,2.813176155090332,-1.713843822479248
1748140981488876500,11.15887646484375,2.3740177154541016,3.1869616508483887,-1.5763156414031982
1748140981507145000,11.17714501953125,3.393507480621338,3.457098960876465,-2.715179443359375
1748140981525404200,11.195404052734375,4.563919544219971,3.3111348152160645,-4.136075973510742
1748140981543669800,11.213669677734375,5.294408798217773,3.1083717346191406,-4.7090559005737305
1748140981561931000,11.231930908203125,4.727143287658691,3.152681827545166,-4.864474773406982
1748140981580195300,11.2501953125,2.9017977714538574,3.648899555206299,-4.7675557136535645
1748140981598458000,11.2684580078125,0.8937528133392334,4.07195520401001,-3.766430616378784
1748140981616723500,11.286723388671875,-1.6491425037384033,3.965994358062744,-2.681884288787842
1748140981634986200,11.304986328125,-5.718031883239746,2.6725220680236816,-0.6764047145843506
1748140981653250800,11.323250732421876,-11.479392051696777,-0.6427698135375977,6.071678161621094
1748140981671520300,11.341520263671875,-14.981670379638672,-7.57943058013916,15.522501945495605
1748140981689777400,11.35977734375,-8.562623977661133,-9.728636741638184,11.44250774383545
1748140981708029000,11.37802880859375,-6.078009605407715,-3.560840606689453,6.691086769104004
1748140981726304800,11.3963046875,-4.213315963745117,1.6308846473693848,1.4695370197296143
1748140981744566000,11.41456591796875,-2.706275701522827,0.6527223587036133,-3.829334259033203
1748140981762833000,11.4328330078125,2.6641387939453125,-5.034768104553223,-5.399561882019043
1748140981781094000,11.451093994140624,6.209222316741943,-12.494661331176758,-5.485517978668213
1748140981799358200,11.469358154296875,0.9245564937591553,-9.906505584716797,-5.149564266204834
1748140981817616400,11.487616455078125,4.785955429077148,1.283998966217041,-4.148780822753906
1748140981835872000,11.5058720703125,6.379166126251221,4.45013952255249,-4.232324123382568
1748140981854147000,11.52414697265625,7.683582305908203,4.711308479309082,-4.340795040130615
1748140981872412400,11.542412353515624,8.328414916992188,2.159860610961914,-2.9256858825683594
1748140981890674700,11.5606748046875,6.331666946411133,-2.2861194610595703,0.07874536514282227
1748140981908938500,11.5789384765625,5.044848918914795,-6.4061079025268555,3.527099847793579
1748140981927203000,11.597203125,4.481022834777832,-6.9401445388793945,5.196835517883301
1748140981945462000,11.6154619140625,1.9687336683273315,-1.3151044845581055,4.4803571701049805
1748140981963729000,11.63372900390625,-6.039024829864502,2.3058853149414062,1.8012325763702393
1748140981981993700,11.65199365234375,-8.404090881347656,3.6162619590759277,-0.14247584342956543
1748140982000254700,11.670254638671874,-1.8666845560073853,3.131730079650879,0.559044361114502
1748140982018521900,11.68852197265625,1.7051982879638672,3.135512351989746,-0.30371594429016113
1748140982036782800,11.706782958984375,3.1451303958892822,2.9006495475769043,-0.9859726428985596
1748140982055047400,11.72504736328125,1.8118854761123657,1.594536304473877,-0.8867416381835938
1748140982073310200,11.743310302734375,-1.3451430797576904,1.717097282409668,-1.3948791027069092
1748140982091574500,11.761574462890625,-4.1522393226623535,2.547257900238037,-1.5749646425247192
1748140982109836500,11.77983642578125,-3.3584842681884766,2.7687602043151855,-0.4886016845703125
1748140982128089300,11.79808935546875,-1.6520214080810547,2.260756492614746,0.9598910808563232
1748140982146364000,11.816364013671874,-1.0340508222579956,2.38845157623291,1.9366414546966553
1748140982164629200,11.834629150390626,-0.8980140686035156,2.840052604675293,2.4356439113616943
1748140982182890500,11.852890380859375,-0.8633147478103638,2.6997761726379395,3.017024040222168
1748140982201155600,11.871155517578124,-0.614432692527771,1.5757465362548828,3.7808375358581543
1748140982219417600,11.88941748046875,-1.231917381286621,-0.6501827239990234,4.536490440368652
1748140982237682700,11.9076826171875,-4.098650932312012,-3.08052921295166,3.540886640548706
1748140982255944000,11.92594384765625,-7.9123921394348145,-4.591469764709473,2.1289730072021484
1748140982274210600,11.94421044921875,-5.78123664855957,-3.6598262786865234,3.408100128173828
1748140982292467200,11.96246728515625,-3.0258822441101074,-2.048415184020996,5.154241561889648
1748140982310736100,11.980736083984375,-6.527636528015137,-1.5088491439819336,5.815490245819092
1748140982328993800,11.998993896484375,-8.607359886169434,-2.189225196838379,6.628856658935547
1748140982347262200,12.01726220703125,-2.130337715148926,-2.121832847595215,5.867893218994141
1748140982365527000,12.035527099609375,2.362121343612671,-1.6088924407958984,3.931104898452759
1748140982383790600,12.05379052734375,3.583688497543335,-2.176283836364746,2.6770763397216797
1748140982402053000,12.07205322265625,2.589217185974121,-3.805459976196289,3.044489622116089
1748140982420316400,12.09031640625,-0.30479538440704346,-6.852628707885742,1.9727494716644287
1748140982438580700,12.108580810546876,-0.3160281777381897,-8.588736534118652,0.7588520050048828
1748140982456844500,12.126844482421875,2.5107383728027344,-6.8444929122924805,0.7253658771514893
1748140982475106800,12.14510693359375,3.5465946197509766,-4.644423484802246,0.2452380657196045
1748140982493366800,12.16336669921875,2.4170494079589844,-1.9171857833862305,-1.2968590259552002
1748140982511632600,12.181632568359374,0.734095573425293,0.46605682373046875,-2.3864550590515137
1748140982529898200,12.199898193359376,1.0239046812057495,1.716231346130371,-3.1056482791900635
1748140982548161500,12.21816162109375,2.279430866241455,1.7227201461791992,-3.1598448753356934
1748140982566425300,12.23642529296875,3.324242353439331,1.2934932708740234,-3.3521652221679688
1748140982584682800,12.254682861328124,4.235434532165527,1.4092578887939453,-3.822941541671753
1748140982602951200,12.272951171875,4.331191062927246,1.6794791221618652,-3.7411563396453857
1748140982621215700,12.2912158203125,4.075895309448242,2.229681968688965,-3.358844518661499
1748140982639474400,12.309474365234376,3.3521807193756104,3.2721381187438965,-2.748332977294922
1748140982657739500,12.327739501953126,3.9079253673553467,4.064881324768066,-1.9132256507873535
1748140982676008400,12.346008544921874,3.979780435562134,4.339114189147949,-1.4573142528533936
1748140982694268700,12.3642685546875,4.43214750289917,4.3628082275390625,-1.6431095600128174
1748140982712533200,12.382533203125,4.766985893249512,4.299971580505371,-2.519350528717041
1748140982730795300,12.400795166015625,4.444627285003662,4.41988468170166,-3.316141128540039
1748140982749060000,12.41906005859375,3.4992270469665527,4.359158515930176,-3.4086432456970215
1748140982767322600,12.437322509765625,1.8057105541229248,4.167721748352051,-3.06467866897583
1748140982785587200,12.455587158203125,-0.5841894149780273,3.7257962226867676,-2.059812545776367
1748140982803849700,12.473849609375,-4.901715278625488,1.9187264442443848,0.33092522621154785
1748140982822114000,12.492114013671875,-15.573083877563477,-3.0709896087646484,8.137687683105469
1748140982840371500,12.510371337890625,-16.29551124572754,-10.71587085723877,15.932594299316406
1748140982858639600,12.5286396484375,-6.618902206420898,-8.743556022644043,6.979317665100098
1748140982876903400,12.5469033203125,-6.386272430419922,-0.8667888641357422,2.0340259075164795
1748140982895169500,12.56516943359375,-6.388154983520508,3.3070602416992188,-2.612037181854248
1748140982913430500,12.583430419921875,-1.759044885635376,-0.11681270599365234,-4.131235599517822
1748140982931698200,12.6016982421875,9.023682594299316,-5.381241798400879,-3.1711947917938232
1748140982949944300,12.6199443359375,9.783330917358398,-14.278465270996094,-2.6124191284179688
1748140982968223000,12.638222900390625,0.5969369411468506,-8.519914627075195,-3.772468328475952
1748140982986479600,12.656479736328125,-0.009166955947875977,1.2670965194702148,-4.642125606536865
1748140983004745200,12.6747451171875,3.4575772285461426,3.616837501525879,-4.285808563232422
1748140983023010800,12.6930107421875,5.727382183074951,3.1988306045532227,-3.1604392528533936
1748140983041276000,12.71127587890625,7.507291793823242,0.33633995056152344,-1.5209150314331055
1748140983059538000,12.729537841796875,5.830263137817383,-3.8046483993530273,1.8838438987731934
1748140983077803300,12.74780322265625,5.044332027435303,-5.708113670349121,4.743585586547852
1748140983096065300,12.766065185546875,4.584874629974365,-2.2355527877807617,4.471364974975586
1748140983114328800,12.784328857421874,1.5999369621276855,1.9881458282470703,2.0835797786712646
1748140983132593200,12.80259326171875,-4.448729515075684,3.2869415283203125,-0.28492188453674316
1748140983150857000,12.82085693359375,-7.142530918121338,3.6740522384643555,-2.0730762481689453
1748140983169119200,12.839119140625,-2.780534505844116,3.070913314819336,-1.399727702140808
1748140983187374800,12.857374755859375,1.226494550704956,2.613863468170166,-1.1422984600067139
1748140983205648600,12.875648681640625,1.9269251823425293,1.6854758262634277,-0.30773186683654785
1748140983223909600,12.89390966796875,0.7915644645690918,1.2815332412719727,0.05953550338745117
1748140983242174500,12.912174560546875,0.13056731224060059,2.1807656288146973,0.11995983123779297
1748140983260438300,12.930438232421874,-0.7177523374557495,3.1725287437438965,0.16537833213806152
1748140983278700000,12.948699951171875,-3.382568359375,3.962134838104248,0.48839640617370605
1748140983296964900,12.96696484375,-6.834171295166016,2.9794797897338867,0.545661211013794
1748140983315227100,12.98522705078125,-3.788126230239868,0.8904523849487305,0.975902795791626
1748140983333485300,13.0034853515625,-0.9155887365341187,-0.8356704711914062,1.966397762298584
1748140983351751000,13.0217509765625,-0.33690690994262695,-1.9444646835327148,2.519960641860962
1748140983370017500,13.040017578125,-1.2811989784240723,-2.370532989501953,2.362459897994995
1748140983388281900,13.05828173828125,-4.776042938232422,-2.638197898864746,2.164024829864502
1748140983406545700,13.076545654296876,-5.797619819641113,-2.1814889907836914,4.6529741287231445
1748140983424804000,13.09480419921875,-2.328937292098999,-0.8769359588623047,5.832947254180908
1748140983443072800,13.11307275390625,-1.9860961437225342,-0.5905914306640625,5.859524726867676
1748140983461334800,13.131334716796875,-8.469987869262695,-3.3008623123168945,4.926342010498047
1748140983479599400,13.149599365234375,-8.058719635009766,-4.453995704650879,6.590359687805176
1748140983497862100,13.167862060546875,-1.5866228342056274,-3.205836296081543,7.104881286621094
1748140983516126700,13.186126708984375,2.2854084968566895,-0.734919548034668,3.323941469192505
1748140983534388700,13.204388671875,-0.6077678203582764,-2.3292293548583984,2.4689700603485107
1748140983552653600,13.222653564453125,-0.15135185420513153,-3.4345664978027344,1.5544688701629639
1748140983570914600,13.24091455078125,0.9239949584007263,-4.4194841384887695,2.015458345413208
1748140983589181700,13.259181640625,1.5383586883544922,-5.683710098266602,1.4774320125579834
1748140983607443700,13.277443603515625,1.7123074531555176,-5.005481719970703,1.4095180034637451
1748140983625707500,13.29570751953125,1.7223211526870728,-4.044560432434082,0.8144397735595703
1748140983643969800,13.3139697265625,1.796425700187683,-2.8437767028808594,-0.9643988609313965
1748140983662234600,13.332234619140625,2.026761293411255,-1.1592283248901367,-1.6387629508972168
1748140983680492500,13.350492431640625,2.598520040512085,0.5927371978759766,-2.1877684593200684
1748140983698755800,13.368755859375,2.9353508949279785,1.4930381774902344,-2.27066969871521
1748140983717023500,13.3870234375,3.051805257797241,1.9311470985412598,-2.3255839347839355
1748140983735288600,13.40528857421875,3.114043712615967,1.9725751876831055,-2.7457637786865234
1748140983753548500,13.423548583984376,3.4860987663269043,2.0271992683410645,-2.994004726409912
1748140983771818200,13.441818359375,4.6419477462768555,2.249274253845215,-2.4548580646514893
1748140983790077700,13.46007763671875,4.734807968139648,2.719460964202881,-2.204577922821045
1748140983808341800,13.478341796875,4.371972560882568,3.31911039352417,-2.430790424346924
1748140983826604500,13.4966044921875,4.170679092407227,4.129556655883789,-3.619631052017212
1748140983844865000,13.514864990234376,4.8513898849487305,5.0809149742126465,-4.524328708648682
1748140983863131400,13.53313134765625,5.736142635345459,5.219510078430176,-4.872394561767578
1748140983881395000,13.55139501953125,4.811328887939453,5.003087997436523,-4.708874702453613
1748140983899659500,13.569659423828124,3.2562170028686523,4.300322532653809,-3.9259467124938965
1748140983917922000,13.587922119140625,0.44944047927856445,3.342949390411377,-3.2764933109283447
1748140983936186600,13.6061865234375,-3.4147660732269287,2.413783073425293,-1.4405555725097656
1748140983954452700,13.62445263671875,-10.19476318359375,-0.1635456085205078,4.238650321960449
1748140983972712400,13.64271240234375,-16.418060302734375,-5.130791664123535,14.478023529052734
1748140983990964700,13.66096484375,-8.283060073852539,-8.16096019744873,15.167414665222168
1748140984009239600,13.679239501953125,-6.547201633453369,-4.809989929199219,7.054896354675293
1748140984027493000,13.6974931640625,-7.803916931152344,0.6649246215820312,2.7521345615386963
1748140984045766400,13.715766357421876,-5.8804707527160645,2.5796432495117188,-1.8931325674057007
1748140984064030500,13.734030517578125,2.6881890296936035,0.19942188262939453,-2.821220636367798
1748140984082293200,13.752293212890624,7.9140424728393555,-6.344278335571289,-3.9236433506011963
1748140984100557600,13.7705576171875,10.462236404418945,-14.612549781799316,-4.322590351104736
1748140984118815200,13.788815185546875,2.054469585418701,-7.77714729309082,-4.287748336791992
1748140984137084700,13.807084716796876,1.3226431608200073,0.35503578186035156,-4.190901756286621
1748140984155347200,13.82534716796875,4.877780914306641,2.1214380264282227,-4.531067848205566
1748140984173611300,13.843611328125,5.731403350830078,1.0345258712768555,-2.542224407196045
1748140984191874600,13.86187451171875,4.933989524841309,-1.3454418182373047,0.5214519500732422
1748140984210132500,13.880132568359375,5.211245536804199,-3.263721466064453,3.2272777557373047
1748140984228401000,13.89840087890625,4.466183662414551,-2.412038803100586,5.271523475646973
1748140984246666500,13.91666650390625,0.7156740427017212,0.12871170043945312,4.627280235290527
1748140984264926700,13.9349267578125,-3.1636338233947754,1.349952220916748,0.6882610321044922
1748140984283193900,13.95319384765625,-4.2803120613098145,2.425325393676758,-2.698070526123047
1748140984301459000,13.971458984375,-1.9080867767333984,3.1127634048461914,-3.74222731590271
1748140984319719200,13.98971923828125,0.24154095351696014,3.3016128540039062,-3.508998155593872
1748140984337982000,14.00798193359375,0.2081766128540039,2.9796605110168457,-2.761378049850464
1748140984356246500,14.02624658203125,-0.5069260597229004,1.7658448219299316,-1.398524522781372
1748140984374504200,14.044504150390624,-0.2880233824253082,0.9864358901977539,0.3493502140045166
1748140984392773400,14.0627734375,0.06259995698928833,1.4952349662780762,0.66347336769104
1748140984411035400,14.081035400390626,-0.3612772822380066,2.802318572998047,0.8082292079925537
1748140984429300200,14.09930029296875,-5.7700581550598145,2.7119975090026855,2.280191421508789
1748140984447551000,14.117551025390625,-7.609031677246094,1.6010398864746094,2.859362840652466
1748140984465822500,14.135822509765624,-1.3781468868255615,0.5269298553466797,3.098045587539673
1748140984484088300,14.15408837890625,0.6539028882980347,-0.8178796768188477,3.0514421463012695
1748140984502353400,14.172353515625,-0.011699795722961426,-1.4385576248168945,3.070685386657715
1748140984520616400,14.190616455078125,-2.606523036956787,-1.6341028213500977,3.033336639404297
1748140984538881300,14.20888134765625,-5.6412858963012695,-1.5150480270385742,3.672016143798828
1748140984557143600,14.2271435546875,-3.5579466819763184,-0.5809917449951172,4.792375564575195
1748140984575408000,14.245408203125,-2.3700129985809326,-0.2872333526611328,5.2588043212890625
1748140984593670400,14.26367041015625,-5.7638373374938965,-1.8559951782226562,4.416072845458984
1748140984611934200,14.281934326171875,-7.970458984375,-3.8975467681884766,5.133258819580078
1748140984630197000,14.300197021484376,-3.0960865020751953,-3.687223434448242,7.330498218536377
1748140984648459000,14.318458984375,0.2686957120895386,-1.3286523818969727,3.5481481552124023
1748140984666724400,14.336724365234375,-1.4984618425369263,-1.395233154296875,2.5014402866363525
1748140984684989000,14.354989013671876,-0.6209301352500916,-2.765681266784668,1.663564920425415
1748140984703251200,14.373251220703125,1.4930517673492432,-3.8483095169067383,2.1874794960021973
1748140984721511200,14.39151123046875,1.8398220539093018,-5.495037078857422,2.4288878440856934
1748140984739776500,14.409776611328125,1.586496114730835,-6.671039581298828,2.0200905799865723
1748140984758032000,14.428031982421874,1.6857620477676392,-6.232875823974609,1.2634241580963135
1748140984776303600,14.4463037109375,1.3375418186187744,-4.664850234985352,-0.4521934986114502
1748140984794571300,14.4645712890625,1.8317525386810303,-2.292475700378418,-1.6366888284683228
1748140984812829700,14.48282958984375,2.6625759601593018,0.015601158142089844,-2.552232027053833
1748140984831099000,14.501098876953124,3.467651128768921,2.0709333419799805,-2.5540571212768555
1748140984849357000,14.519357177734374,3.8089981079101562,3.052004814147949,-2.4487414360046387
1748140984867625200,14.537625244140624,3.94946551322937,3.1543149948120117,-2.2394022941589355
1748140984885887000,14.555886962890625,3.568613290786743,3.342465877532959,-2.3554399013519287
1748140984904149800,14.574149658203124,3.087881088256836,4.044747829437256,-1.934942364692688
1748140984922412800,14.592412841796875,2.044546365737915,3.7189950942993164,-1.667832374572754
1748140984940677000,14.610677001953125,0.22016096115112305,1.6059508323669434,-0.24292349815368652
1748140984958938400,14.6289384765625,-4.011355400085449,-1.7676377296447754,3.6994078159332275
1748140984977205500,14.64720556640625,2.802973747253418,-3.7745838165283203,3.0468387603759766
1748140984995462400,14.66546240234375,12.962587356567383,-1.6712994575500488,-1.051504135131836
1748140985013728300,14.683728271484375,-9.913167953491211,0.048488616943359375,7.779117584228516
1748140985031996700,14.70199658203125,1.4899075031280518,-1.2652220726013184,-5.5207905769348145
1748140985050259000,14.720259033203124,8.418787002563477,2.908370018005371,-7.425993919372559
1748140985068514600,14.7385146484375,8.081535339355469,7.987793922424316,-6.601775646209717
1748140985086785300,14.756785400390624,5.443545818328857,9.579604148864746,-6.891966342926025
1748140985105049600,14.775049560546876,1.6721179485321045,8.89980697631836,-8.148181915283203
1748140985123312000,14.79331201171875,-0.4643411636352539,6.621821403503418,-8.340155601501465
1748140985141574100,14.81157421875,-1.3559761047363281,5.495046615600586,-6.144306182861328
1748140985159838700,14.829838623046875,-3.79284930229187,6.230658531188965,-2.419036865234375
1748140985178089200,14.848089111328125,-16.579914093017578,3.4367170333862305,9.802576065063477
1748140985196366000,14.866365966796875,-12.193889617919922,-14.039054870605469,20.70751190185547
1748140985214628400,14.88462841796875,-11.924341201782227,-11.060612678527832,16.425195693969727
1748140985232892200,14.90289208984375,-5.307216644287109,1.3702611923217773,7.2658796310424805
1748140985251154200,14.921154296875,8.742321014404297,1.3893375396728516,-5.738016605377197
1748140985269420500,14.939420654296875,13.416961669921875,-9.409714698791504,-8.42344856262207
1748140985287682000,14.95768212890625,9.557329177856445,-16.18421173095703,-2.9929776191711426
1748140985305948400,14.975948486328125,-14.862496376037598,-10.904516220092773,-3.0778133869171143
1748140985324206800,14.994206787109375,3.3758957386016846,-0.4528083801269531,-3.6646170616149902
1748140985342468900,15.01246875,8.77202320098877,3.001768112182617,-4.417048931121826
1748140985360735500,15.030735595703124,11.037267684936523,2.6515378952026367,-4.042491912841797
1748140985379000300,15.049000244140625,6.942410469055176,-1.646097183227539,-3.157773017883301
1748140985397262800,15.067262939453125,5.431109428405762,-5.738661766052246,-0.9161269664764404
1748140985415527400,15.08552734375,3.505340337753296,-5.779412269592285,2.475067377090454
1748140985433789700,15.103789794921875,2.5121607780456543,-3.3064956665039062,3.3926801681518555
1748140985452054300,15.12205419921875,-2.153282403945923,2.0711140632629395,2.1090428829193115
1748140985470317300,15.1403173828125,-6.4392852783203125,3.8037471771240234,-0.1939547061920166
1748140985488580000,15.158580078125,-3.3857598304748535,3.2740697860717773,0.548804759979248
1748140985506843600,15.17684375,-1.6359755992889404,1.9616284370422363,0.2549893856048584
1748140985525108200,15.195108154296875,-1.123498558998108,1.3500165939331055,0.15288734436035156
1748140985543370800,15.213370849609374,0.0632036030292511,0.9076442718505859,0.5552613735198975
1748140985561635000,15.231635009765625,0.8482876420021057,2.3883895874023438,-0.28037190437316895
1748140985579891200,15.24989111328125,0.6942956447601318,4.528954982757568,-1.0875647068023682
1748140985598162000,15.268161865234376,-0.6211646199226379,5.87263298034668,-1.1832371950149536
1748140985616425500,15.286425537109375,-6.418712615966797,3.8465847969055176,-1.5413196086883545
1748140985634684200,15.30468408203125,-9.056488037109375,0.5687904357910156,0.23954153060913086
1748140985652951800,15.322951904296875,-2.633403778076172,-0.43026065826416016,2.3675830364227295
1748140985671215400,15.34121533203125,-0.8195925951004028,-0.6629886627197266,3.521963596343994
1748140985689473000,15.35947314453125,-0.9049637317657471,-1.100738525390625,4.438148021697998
1748140985707742700,15.37774267578125,-2.5232467651367188,-1.6907968521118164,4.8531670570373535
1748140985726005200,15.396005126953124,-6.287006378173828,-1.4342784881591797,3.8948826789855957
1748140985744269600,15.41426953125,-5.276828765869141,-0.3924827575683594,3.0949504375457764
1748140985762532000,15.432531982421875,-5.68654203414917,-1.2782154083251953,3.435901165008545
1748140985780796400,15.45079638671875,-8.810693740844727,-2.007354736328125,2.4765594005584717
1748140985799058400,15.469058349609375,-6.9968767166137695,-1.8157920837402344,3.688154935836792
1748140985817323500,15.487323486328124,-0.36828577518463135,-1.791830062866211,5.6241536140441895
1748140985835581000,15.505580810546874,2.4658374786376953,-1.961965560913086,4.233546257019043
1748140985853850400,15.523850341796875,2.3092384338378906,-2.6789112091064453,3.3968334197998047
1748140985872112600,15.542112548828126,0.9369577169418335,-4.196331024169922,4.942422866821289
1748140985890377000,15.560376953125,-0.34741806983947754,-6.949069023132324,4.839837074279785
1748140985908639500,15.578639404296876,0.3672287166118622,-9.490313529968262,3.295802593231201
1748140985926901500,15.596901611328125,2.601029872894287,-9.715753555297852,1.6972241401672363
1748140985945169700,15.615169677734375,3.0013816356658936,-7.068089485168457,1.0649425983428955
1748140985963427800,15.633427734375,1.864333987236023,-3.9264097213745117,-0.7516446113586426
1748140985981696800,15.65169677734375,1.8222711086273193,-0.8888025283813477,-1.8618131875991821
1748140985999957000,15.66995703125,2.92779278755188,1.2434334754943848,-2.5622925758361816
1748140986018209500,15.68820947265625,2.998316526412964,2.4131603240966797,-2.3581085205078125
1748140986036480000,15.70647998046875,3.139533519744873,2.7768917083740234,-2.254899024963379
1748140986054742800,15.72474267578125,3.6091954708099365,2.373422145843506,-2.7432682514190674
1748140986073012000,15.743011962890625,4.256023406982422,2.290139675140381,-2.640903949737549
1748140986091269000,15.76126904296875,4.505545616149902,2.465768337249756,-2.11974835395813
1748140986109537000,15.779537109375,4.250948429107666,3.0640082359313965,-1.9531662464141846
1748140986127802400,15.79780224609375,3.598614454269409,3.994110107421875,-2.295170307159424
1748140986146065200,15.816065185546876,3.8081750869750977,4.7778215408325195,-3.6888427734375
1748140986164328000,15.834327880859375,4.485556125640869,5.187375068664551,-4.628030300140381
1748140986182580200,15.852580322265625,4.872466564178467,5.420689105987549,-5.0918097496032715
1748140986200854500,15.8708544921875,4.737353324890137,5.215184211730957,-4.988242149353027
1748140986219113700,15.88911376953125,3.997967004776001,4.393706798553467,-4.726345539093018
1748140986237381600,15.907381591796875,2.632742404937744,3.4545884132385254,-3.7069783210754395
1748140986255646000,15.92564599609375,-0.08755230903625488,1.347198486328125,-1.5019700527191162
1748140986273907500,15.943907470703126,-9.028156280517578,-2.1779403686523438,3.5937302112579346
1748140986292174000,15.962174072265626,-20.17950439453125,-7.341422080993652,12.118371963500977
1748140986310435600,15.980435546875,-9.609579086303711,-9.368490219116211,12.18044662475586
1748140986328699600,15.99869970703125,-5.318401336669922,-4.020016670227051,6.372898578643799
1748140986346957800,16.016957763671876,-4.83914852142334,1.395646572113037,2.7367091178894043
1748140986365225500,16.0352255859375,-3.2370519638061523,4.283161640167236,-0.6931414604187012
1748140986383484400,16.053484375,-1.6859679222106934,3.5701279640197754,-3.7603302001953125
1748140986401755000,16.0717548828125,1.748012661933899,-1.5230131149291992,-2.351893901824951
1748140986420012800,16.0900126953125,6.9925737380981445,-6.645725250244141,-0.49823832511901855
1748140986438283500,16.108283447265624,6.166887283325195,-12.872334480285645,-0.33765649795532227
1748140986456543000,16.12654296875,-4.80035400390625,-7.5545454025268555,-3.9073805809020996
1748140986474824200,16.14482421875,1.8633596897125244,0.2968912124633789,-4.954096794128418
1748140986493070000,16.163070068359374,6.612953186035156,3.7496399879455566,-3.843207359313965
1748140986511334400,16.18133447265625,7.797597885131836,3.612697124481201,-1.9372273683547974
1748140986529596700,16.1995966796875,6.870028495788574,1.2376527786254883,-0.2744159698486328
1748140986547861500,16.217861572265626,5.208477973937988,-2.296145439147949,2.3837146759033203
1748140986566123800,16.236123779296875,5.253761291503906,-3.681629180908203,4.0738725662231445
1748140986584388400,16.254388427734376,4.876643657684326,-1.1784601211547852,4.168783187866211
1748140986602645800,16.272645751953124,-1.1953545808792114,0.9433841705322266,2.0023787021636963
1748140986620914000,16.290913818359375,-8.960724830627441,1.5466294288635254,-1.1492359638214111
1748140986639178500,16.309178466796876,-6.287317276000977,2.314131259918213,-1.2428947687149048
1748140986657442600,16.327442626953125,-0.4657266438007355,1.8824467658996582,-0.7806975841522217
1748140986675704600,16.34570458984375,1.9222633838653564,2.100334644317627,-0.6657216548919678
1748140986693964300,16.36396435546875,1.5797395706176758,1.7215352058410645,-0.36201930046081543
1748140986712231200,16.382231201171876,0.05020202696323395,1.7428946495056152,-0.01311802864074707
1748140986730491400,16.400491455078125,-0.5381264090538025,2.015651226043701,0.12153911590576172
1748140986748758000,16.418758056640623,-0.4672613739967346,2.5236406326293945,0.24760890007019043
1748140986767022800,16.43702294921875,-1.852647066116333,3.0758867263793945,0.649362325668335
1748140986785285000,16.45528515625,-5.7745866775512695,3.3957371711730957,1.3427016735076904
1748140986803547000,16.473546875,-5.425354480743408,2.724727153778076,1.5547454357147217
1748140986821815000,16.49181494140625,-1.5467109680175781,0.32556629180908203,2.117418050765991
1748140986840077000,16.5100771484375,-0.9892956018447876,-1.6493549346923828,2.865264415740967
1748140986858338000,16.528338134765626,-1.6749937534332275,-2.8701019287109375,2.846271514892578
1748140986876603400,16.546603271484376,-3.9734368324279785,-3.4128856658935547,2.071077346801758
1748140986894861600,16.564861572265624,-4.800326347351074,-2.4352617263793945,2.809129238128662
1748140986913130500,16.583130615234374,-2.917856216430664,-0.43363285064697266,4.884859085083008
1748140986931392500,16.601392578125,-2.786785125732422,0.1701374053955078,6.202259540557861
1748140986949652200,16.61965234375,-7.079021453857422,-2.0568466186523438,4.85768985748291
1748140986967918000,16.63791796875,-7.694667816162109,-4.154343605041504,5.901126384735107
1748140986986185700,16.656185791015623,-1.0595777034759521,-2.8470144271850586,6.894463539123535
1748140987004446000,16.674446044921876,-0.7296248078346252,0.07271766662597656,4.470000267028809
1748140987022712000,16.692712158203125,-3.285749912261963,0.2108774185180664,2.98026180267334
1748140987040973000,16.71097314453125,-2.9114930629730225,-2.7838783264160156,1.996340036392212
1748140987059238000,16.72923779296875,0.3915788531303406,-5.3449811935424805,1.925588846206665
1748140987077496000,16.74749609375,3.215954303741455,-6.623250961303711,1.1662328243255615
1748140987095765000,16.765764892578126,3.995173454284668,-8.407574653625488,0.6617989540100098
1748140987114027000,16.784027099609375,4.001007556915283,-8.995429039001465,-0.09618663787841797
1748140987132290300,16.802290283203124,2.9965827465057373,-4.582645416259766,-0.4620697498321533
1748140987150555000,16.820554931640626,0.8232451677322388,-0.7547969818115234,-1.7004518508911133
1748140987168818200,16.838818115234375,1.3441554307937622,1.6531658172607422,-2.0349292755126953
1748140987187080700,16.857080810546876,2.6729469299316406,2.8179378509521484,-1.8585875034332275
1748140987205340700,16.875340576171876,3.710996389389038,3.4516353607177734,-1.8393694162368774
1748140987223607800,16.89360791015625,4.637706756591797,3.393432140350342,-1.3059906959533691
1748140987241872600,16.91187255859375,3.7050039768218994,2.6061010360717773,-0.8545866012573242
1748140987260132600,16.930132568359376,2.5769166946411133,1.8342986106872559,-1.3965270519256592
1748140987278400300,16.948400146484374,4.964958667755127,2.037153720855713,-1.526210069656372
1748140987296656000,16.96665576171875,5.970621109008789,2.87473726272583,-3.2354650497436523
1748140987314924800,16.9849248046875,4.331329345703125,4.0271806716918945,-5.29227352142334
1748140987333189400,17.003189453125,4.07703971862793,5.197774887084961,-5.671106338500977
1748140987351456300,17.021456298828124,4.670241355895996,5.828556060791016,-5.631322383880615
1748140987369715200,17.039715087890624,4.414999485015869,5.050350189208984,-5.83120059967041
1748140987387980000,17.05797998046875,3.5973331928253174,3.980823516845703,-5.49164342880249
1748140987406242000,17.076241943359374,1.9971110820770264,3.2073779106140137,-4.572271823883057
1748140987424502300,17.094502197265626,-1.1275229454040527,1.838998794555664,-3.0335917472839355
1748140987442769000,17.112768798828125,-9.378836631774902,-0.9085979461669922,-0.10778570175170898
1748140987461028600,17.131028564453125,-18.55443572998047,-6.149531364440918,8.208394050598145
1748140987479294500,17.14929443359375,-13.005970001220703,-11.692721366882324,16.399755477905273
1748140987497561600,17.1675615234375,-6.522706031799316,-8.45531177520752,10.793210983276367
1748140987515822600,17.185822509765625,-6.798045635223389,0.18393898010253906,5.304770469665527
1748140987534084400,17.20408447265625,-4.1748857498168945,4.680805206298828,-0.7632863521575928
1748140987552352500,17.2223525390625,-1.422837257385254,4.390373706817627,-5.166192054748535
1748140987570613800,17.24061376953125,4.7540788650512695,-0.15593528747558594,-4.619658470153809
1748140987588876300,17.258876220703126,8.916397094726562,-8.118276596069336,-3.599872589111328
1748140987607141000,17.27714111328125,6.269658088684082,-13.20818042755127,-2.5516443252563477
1748140987625403400,17.2954033203125,-1.093764305114746,-5.3379364013671875,-2.1689047813415527
1748140987643668000,17.31366796875,1.413474440574646,0.4827604293823242,-3.706024408340454
1748140987661929200,17.33192919921875,4.753817081451416,3.6028056144714355,-4.046579837799072
1748140987680197600,17.35019775390625,5.7284722328186035,2.961294651031494,-2.746493101119995
1748140987698459400,17.36845947265625,5.090680122375488,0.43483734130859375,-0.26250123977661133
1748140987716717000,17.386717041015626,4.689174652099609,-2.521965980529785,2.2901313304901123
1748140987734982700,17.404982666015623,4.186657905578613,-3.4292402267456055,3.944404363632202
1748140987753249800,17.423249755859374,2.6385257244110107,-0.769312858581543,4.148385524749756
1748140987771506700,17.441506591796873,-2.4595537185668945,1.283121109008789,1.7900433540344238
1748140987789775000,17.459775146484375,-6.656010627746582,2.7552051544189453,-1.0103013515472412
1748140987808025600,17.478025634765626,-4.293219566345215,3.2809228897094727,-1.6433038711547852
1748140987826302200,17.49630224609375,-0.2400745451450348,2.9130449295043945,-1.317793369293213
1748140987844564700,17.514564697265627,1.466609001159668,2.3622641563415527,-0.6777851581573486
1748140987862829000,17.5328291015625,1.238783597946167,2.0380334854125977,0.11215329170227051
1748140987881091600,17.551091552734373,0.6756110191345215,2.3276333808898926,0.6235859394073486
1748140987899355600,17.569355712890626,0.03590202331542969,2.5945534706115723,0.8433723449707031
1748140987917618200,17.5876181640625,-1.048906683921814,2.5078907012939453,1.0417814254760742
1748140987935883500,17.605883544921873,-8.283984184265137,1.8222174644470215,1.7320504188537598
1748140987954144500,17.62414453125,-5.7882585525512695,1.0359477996826172,1.7566051483154297
1748140987972404700,17.64240478515625,-2.215981960296631,-0.30495262145996094,2.436530113220215
1748140987990670600,17.660670654296876,-1.444962978363037,-0.9612016677856445,2.9540889263153076
1748140988008936700,17.678936767578126,-1.8593010902404785,-1.5327653884887695,3.330106735229492
1748140988027200000,17.697199951171875,-4.367164611816406,-2.017375946044922,3.626011371612549
1748140988045459200,17.715459228515623,-5.111664772033691,-1.317657470703125,3.993021249771118
1748140988063721000,17.733720947265624,-2.812919855117798,-0.12077522277832031,4.851632118225098
1748140988081990100,17.751990234375,-4.3830060958862305,-0.7960529327392578,4.853196620941162
1748140988100253700,17.770253662109376,-8.082139015197754,-3.241039276123047,3.6626086235046387
1748140988118518500,17.7885185546875,-4.6276936531066895,-4.52586555480957,7.025781631469727
1748140988136779500,17.806779541015626,-0.19938981533050537,-2.788235664367676,6.408153533935547
1748140988155044000,17.825044189453124,-1.437410593032837,-1.793487548828125,4.149527549743652
1748140988173306400,17.843306396484376,-2.0149054527282715,-3.6182470321655273,1.6972541809082031
1748140988191570700,17.86157080078125,0.49302321672439575,-4.449861526489258,1.4633538722991943
1748140988209833000,17.8798330078125,1.4119958877563477,-5.409541130065918,2.095521926879883
1748140988228085500,17.89808544921875,2.1129860877990723,-6.9483232498168945,0.8485827445983887
1748140988246360000,17.916360107421873,2.4913523197174072,-7.209549903869629,0.5269606113433838
1748140988264625000,17.934625,2.8179550170898438,-5.806764602661133,0.6599416732788086
1748140988282888000,17.952887939453124,2.238771677017212,-3.0982418060302734,-0.41959476470947266
1748140988301150500,17.971150390625,2.153862953186035,-0.34804248809814453,-1.4710533618927002
1748140988319413800,17.989413818359374,3.007376194000244,2.0163607597351074,-1.5531036853790283
1748140988337677600,18.007677490234375,3.6504993438720703,3.5586280822753906,-1.311096429824829
1748140988355939600,18.025939697265624,4.743099212646484,3.922609329223633,-1.2911431789398193
1748140988374190600,18.044190673828126,5.364315986633301,3.3687829971313477,-1.5667685270309448
1748140988392462800,18.062462890625,4.804772853851318,2.741668701171875,-1.2743871212005615
1748140988410731800,18.080731689453124,3.552422046661377,2.5891647338867188,-0.3742845058441162
1748140988428994000,18.098994140625,3.6784024238586426,2.7787585258483887,-0.720219612121582
1748140988447258400,18.11725830078125,4.560728073120117,3.805051803588867,-3.056114673614502
1748140988465521700,18.135521728515624,5.3798933029174805,4.87545108795166,-4.408527374267578
1748140988483785700,18.15378564453125,5.983932018280029,5.500074863433838,-4.851181983947754
1748140988502047000,18.172046875,6.257534503936768,5.327319622039795,-4.953343391418457
1748140988520313600,18.190313720703124,5.559944152832031,4.591429710388184,-5.212230682373047
1748140988538574600,18.20857470703125,3.6985390186309814,4.246753692626953,-5.309720039367676
1748140988556839200,18.226839111328125,0.4932131767272949,3.087604522705078,-4.502265930175781
1748140988575096800,18.245096923828125,-6.9336042404174805,-0.1667766571044922,-1.6610249280929565
1748140988593366000,18.263365966796876,-20.740402221679688,-4.8649749755859375,9.490727424621582
1748140988611628500,18.281628662109377,-15.639100074768066,-10.708290100097656,18.499465942382812
1748140988629892000,18.29989208984375,-5.816259384155273,-9.137166976928711,10.792839050292969
1748140988648155600,18.31815576171875,-6.147395133972168,-1.3511533737182617,5.208949089050293
1748140988666420000,18.336419921875,-3.4753637313842773,3.134002685546875,0.36368274688720703
1748140988684677400,18.354677490234376,-2.025282144546509,3.916815757751465,-5.02224063873291
1748140988702948900,18.372948974609375,0.5521306991577148,-1.1767292022705078,-6.62794303894043
1748140988721206800,18.391206787109375,7.144407272338867,-6.897823333740234,-3.9679930210113525
1748140988739468500,18.409468505859376,3.66413950920105,-12.856099128723145,-3.471151351928711
1748140988757736000,18.42773583984375,4.045317649841309,-4.262022018432617,-0.4837944507598877
1748140988776000500,18.44600048828125,4.854217529296875,0.9450626373291016,-1.8769474029541016
1748140988794263000,18.464262939453125,6.820810794830322,2.828967571258545,-2.232731819152832
1748140988812527400,18.48252734375,8.238516807556152,1.5220088958740234,-1.3758773803710938
1748140988830784800,18.50078466796875,6.087234973907471,-1.2309274673461914,1.7839775085449219
1748140988849052700,18.519052734375,5.103222846984863,-3.120753288269043,4.895827293395996
1748140988867317500,18.5373173828125,4.111825942993164,-2.380251884460449,5.422304153442383
1748140988885581000,18.5555810546875,1.5923179388046265,0.2436237335205078,2.99007511138916
1748140988903843300,18.57384326171875,-3.4821271896362305,1.3282041549682617,0.3593764305114746
1748140988922108000,18.59210791015625,-6.43043851852417,2.256068706512451,-1.7816693782806396
1748140988940370000,18.610369873046874,-3.428028106689453,2.367178440093994,-1.719698190689087
1748140988958634500,18.628634521484376,-0.5928049087524414,2.765049457550049,-1.5565993785858154
1748140988976895700,18.646895751953124,0.5316542983055115,2.573239803314209,-0.9570173025131226
1748140988995162400,18.665162353515626,0.40856868028640747,2.2493367195129395,-0.003361940383911133
1748140989013422600,18.683422607421875,0.5210001468658447,2.372206687927246,0.8094141483306885
1748140989031689700,18.701689697265625,0.9206509590148926,2.8363466262817383,0.9973530769348145
1748140989049949700,18.71994970703125,0.082733154296875,3.218118667602539,1.4684925079345703
1748140989068215800,18.7382158203125,-5.4745941162109375,3.0420708656311035,2.8991355895996094
1748140989086473000,18.756472900390627,-6.6792097091674805,3.085111141204834,3.0193710327148438
1748140989104736800,18.77473681640625,-1.7305725812911987,2.126333236694336,2.8710596561431885
1748140989123005400,18.79300537109375,-0.47679615020751953,-0.23356914520263672,2.6465697288513184
1748140989141268700,18.811268798828124,-1.3598589897155762,-2.270167350769043,2.701901435852051
1748140989159531000,18.829531005859376,-5.143425941467285,-3.865189552307129,2.6534876823425293
1748140989177795800,18.8477958984375,-6.762054443359375,-3.9891929626464844,3.0833940505981445
1748140989196057300,18.866057373046875,-2.855691432952881,-1.9165620803833008,5.136789321899414
1748140989214323000,18.884322998046876,-1.7575575113296509,-0.0358123779296875,6.03948450088501
1748140989232585000,18.9025849609375,-5.966798782348633,-0.014081954956054688,6.890301704406738
1748140989250849000,18.92084912109375,-8.439752578735352,-1.772261619567871,8.72206974029541
1748140989269111300,18.939111328125,-1.8590151071548462,-1.977813720703125,9.801342964172363
1748140989287376100,18.957376220703125,2.766204357147217,-1.1986875534057617,5.637730598449707
1748140989305638400,18.975638427734374,2.5865554809570312,-2.6884193420410156,4.809756278991699
1748140989323901700,18.993901611328123,1.0460669994354248,-4.630094528198242,3.1141068935394287
1748140989342161700,19.01216162109375,-0.6326173543930054,-7.429539680480957,1.9498867988586426
1748140989360428500,19.030428466796874,0.4070940911769867,-8.387019157409668,1.2384066581726074
1748140989378693000,19.048693115234375,2.3864283561706543,-7.204621315002441,0.24943113327026367
1748140989396957000,19.06695703125,2.559788703918457,-5.57034969329834,-0.41741299629211426
1748140989415206700,19.08520654296875,1.7632914781570435,-3.1262454986572266,-1.0808908939361572
1748140989433475000,19.10347509765625,2.042177200317383,-0.7244462966918945,-1.3977739810943604
1748140989451734800,19.12173486328125,2.8274168968200684,1.2220540046691895,-1.6171525716781616
1748140989470010000,19.140010009765625,3.390496253967285,2.3231778144836426,-1.7407275438308716
1748140989488272400,19.1582724609375,3.6891016960144043,2.7276663780212402,-1.976683259010315
1748140989506537000,19.176536865234375,4.223200798034668,3.1281886100769043,-2.4704060554504395
1748140989524794600,19.194794677734375,4.440301418304443,3.262876510620117,-2.592942476272583
1748140989543064000,19.21306396484375,3.9618911743164062,3.269537925720215,-2.103564977645874
1748140989561326000,19.231326171875,3.3672540187835693,3.6064515113830566,-1.9225627183914185
1748140989579590700,19.249590576171876,3.027862071990967,4.208230495452881,-1.8966461420059204
1748140989597848300,19.267848388671876,4.117765426635742,4.634109020233154,-2.5996155738830566
1748140989616116500,19.286116455078126,5.044869422912598,4.762044429779053,-3.6433732509613037
1748140989634380800,19.304380859375,5.372394561767578,4.6714582443237305,-4.273244857788086
1748140989652644600,19.32264453125,4.871453285217285,4.326931953430176,-4.741709232330322
1748140989670905300,19.3409052734375,3.6249728202819824,3.815610408782959,-4.9712677001953125
1748140989689172500,19.35917236328125,1.2311441898345947,3.173759937286377,-4.977903366088867
1748140989707433500,19.37743359375,-2.40138578414917,2.067246913909912,-3.30708646774292
1748140989725698300,19.3956982421875,-11.107209205627441,-0.8385095596313477,1.6633174419403076
1748140989743960300,19.413960205078126,-21.293472290039062,-5.6545000076293945,14.046903610229492
1748140989762225000,19.432224853515624,-11.072486877441406,-11.816214561462402,14.563998222351074
1748140989780482300,19.450482421875,-5.740450382232666,-6.853582382202148,7.015975475311279
1748140989798751500,19.46875146484375,-5.264494895935059,0.4419975280761719,1.9314653873443604
1748140989817014000,19.487013916015623,-2.2177183628082275,1.395322322845459,-3.2437024116516113
1748140989835278600,19.505278564453125,-1.2222275733947754,-4.643514633178711,-5.581429958343506
1748140989853537800,19.523537841796873,6.983779430389404,-10.359282493591309,-3.1220781803131104
1748140989871807200,19.54180712890625,7.188331127166748,-10.031829833984375,-2.0565810203552246
1748140989890068700,19.56006884765625,5.939979553222656,1.6993017196655273,-2.818247079849243
1748140989908331800,19.578331787109374,6.100027084350586,4.401968955993652,-2.572134494781494
1748140989926594600,19.596594482421875,9.059524536132812,4.628016471862793,-2.6831307411193848
1748140989944854500,19.6148544921875,7.804680824279785,1.3474302291870117,-2.3457016944885254
1748140989963120000,19.6331201171875,5.126779556274414,-3.022273063659668,1.266113519668579
1748140989981387000,19.651386962890626,4.93587589263916,-5.60936164855957,5.198269844055176
1748140989999648000,19.66964794921875,4.804851531982422,-4.233044624328613,5.812541961669922
1748140990017911600,19.68791162109375,4.581048965454102,0.2339162826538086,2.8060543537139893
1748140990036176100,19.706176025390626,-0.0955352783203125,2.750049591064453,-0.5942347049713135
1748140990054440200,19.724440185546875,-12.21634578704834,2.6942310333251953,-2.8492043018341064
1748140990072702000,19.742701904296876,-8.659378051757812,3.0141730308532715,-1.240427851676941
1748140990090966000,19.760966064453125,-1.974266529083252,2.2414684295654297,0.41014933586120605
1748140990109228500,19.779228515625,0.8792493343353271,1.8517842292785645,1.079357624053955
1748140990127488500,19.797488525390627,1.4840152263641357,1.308131217956543,2.305307626724243
1748140990145755400,19.81575537109375,0.8961471319198608,1.9248180389404297,2.1738667488098145
1748140990164019700,19.834019775390626,0.6661266088485718,3.5476741790771484,1.263462781906128
1748140990182282200,19.8522822265625,0.5489392876625061,4.103381156921387,0.8050234317779541
1748140990200541700,19.870541748046875,-5.58058500289917,2.469933032989502,-0.14734792709350586
1748140990218808800,19.888808837890625,-7.9479594230651855,1.602963924407959,0.32704734802246094
1748140990237073400,19.907073486328127,-1.9249128103256226,1.1525516510009766,1.681673288345337
1748140990255335700,19.925335693359376,-0.19468927383422852,-0.45885276794433594,2.53658390045166
1748140990273597700,19.94359765625,-0.5479750633239746,-1.904592514038086,3.1512112617492676
1748140990291865600,19.961865478515627,-1.3294066190719604,-2.9296226501464844,3.795355796813965
1748140990310125800,19.980125732421875,-4.4124956130981445,-3.4001922607421875,2.890282392501831
1748140990328390400,19.998390380859377,-4.531341075897217,-1.6410179138183594,4.136429786682129
1748140990346654000,20.016654052734374,-2.636003255844116,-0.26311492919921875,6.424591064453125
1748140990364915200,20.034915283203127,-3.9388303756713867,-0.8013677597045898,7.415058135986328
1748140990383182000,20.05318212890625,-6.855031967163086,-2.317119598388672,7.050107955932617
1748140990401443600,20.071443603515625,-3.771468162536621,-2.013495445251465,8.917267799377441
1748140990419707400,20.089707275390627,-0.9203395843505859,-0.9445743560791016,6.7133331298828125
1748140990437970000,20.107969970703124,0.494565486907959,0.4974250793457031,3.9625284671783447
1748140990456229400,20.1262294921875,-4.250532150268555,-2.6116294860839844,4.158649444580078
1748140990474490600,20.14449072265625,-2.822301149368286,-4.752969741821289,1.3713736534118652
1748140990492760800,20.1627607421875,1.5315443277359009,-5.691885948181152,1.2495810985565186
1748140990511023000,20.181023193359376,3.64794921875,-7.061854362487793,0.20341086387634277
1748140990529282600,20.199282470703125,3.5647315979003906,-7.262520790100098,-0.8271427154541016
1748140990547550500,20.217550537109375,3.5042977333068848,-4.903918266296387,-1.3175066709518433
1748140990565804500,20.235804443359374,1.9403736591339111,-1.617319107055664,-1.411152720451355
1748140990584076800,20.254076904296873,0.659056544303894,0.2686929702758789,-1.885158896446228
1748140990602341400,20.27234130859375,1.4593117237091064,1.441472053527832,-1.7853631973266602
1748140990620603600,20.290603759765624,2.2896573543548584,2.16933536529541,-1.8476277589797974
1748140990638868000,20.308867919921877,2.812016487121582,2.694810390472412,-2.210535764694214
1748140990657130800,20.327130859375,3.9025158882141113,2.4854016304016113,-2.354900360107422
1748140990675394800,20.345394775390623,4.769112586975098,1.993074893951416,-1.9461033344268799
1748140990693657300,20.3636572265625,4.9703049659729,1.8275995254516602,-1.9499015808105469
1748140990711915800,20.381915771484376,4.427279472351074,2.6806492805480957,-1.9364691972732544
1748140990730184200,20.40018408203125,2.7510313987731934,3.9854016304016113,-2.492621898651123
1748140990748451800,20.418451904296877,3.075078248977661,4.700976848602295,-3.5973873138427734
1748140990766711300,20.436711181640625,4.072892665863037,4.879491806030273,-4.461364269256592
1748140990784975000,20.45497509765625,3.958918809890747,4.631944179534912,-4.909372329711914
1748140990803238000,20.47323779296875,3.2390201091766357,3.979206085205078,-4.963364601135254
1748140990821498400,20.491498291015624,2.3616533279418945,3.5793914794921875,-4.703218460083008
1748140990839764200,20.50976416015625,0.4551887512207031,3.218736171722412,-3.9128167629241943
1748140990858017300,20.528017333984376,-3.7702338695526123,1.513516902923584,-2.5351030826568604
1748140990876291300,20.546291259765624,-14.313898086547852,-1.9287357330322266,1.9275896549224854
1748140990894547000,20.564546875,-20.082551956176758,-8.216201782226562,15.403539657592773
1748140990912820000,20.582820068359375,-6.831693649291992,-11.605318069458008,15.281794548034668
1748140990931082500,20.60108251953125,-8.150712966918945,-4.793535232543945,7.5449724197387695
1748140990949344800,20.6193447265625,-5.811098098754883,3.451838493347168,1.7570562362670898
1748140990967604700,20.637604736328125,-2.5963428020477295,4.773394584655762,-3.5900518894195557
1748140990985870600,20.65587060546875,4.46264123916626,1.3132209777832031,-3.503568410873413
1748140991004137200,20.67413720703125,9.598361015319824,-4.1905412673950195,-3.8793673515319824
1748140991022398700,20.692398681640626,8.775641441345215,-7.854717254638672,-3.1965394020080566
1748140991040662800,20.710662841796875,-0.9387502670288086,-5.718259811401367,-3.884666919708252
1748140991058923800,20.728923828125,-1.5696995258331299,-3.8820199966430664,-5.334409713745117
1748140991077191400,20.74719140625,3.4210948944091797,-2.239485740661621,-4.339712142944336
1748140991095456000,20.7654560546875,4.68252420425415,-1.1549978256225586,-1.7021626234054565
1748140991113716500,20.783716552734376,5.504793167114258,-0.7546539306640625,0.11694502830505371
1748140991131979000,20.80197900390625,4.998154640197754,-0.7559175491333008,1.160353183746338
1748140991150242300,20.8202421875,3.860039710998535,-0.613276481628418,1.4804542064666748
1748140991168502000,20.838501953125,2.9581751823425293,0.5537014007568359,1.3852472305297852
1748140991186770400,20.8567705078125,1.1636948585510254,2.2122693061828613,1.3269319534301758
1748140991205032700,20.87503271484375,-3.1966044902801514,3.414578914642334,1.1899182796478271
1748140991223297300,20.89329736328125,-5.4421186447143555,3.0017080307006836,0.04328608512878418
1748140991241558300,20.911558349609376,-3.5819830894470215,2.0486464500427246,-0.4350111484527588
1748140991259825000,20.929824951171874,-1.1392700672149658,1.0499954223632812,-0.34499025344848633
1748140991278073900,20.948073974609375,-0.01572948694229126,0.6049079895019531,0.10192513465881348
1748140991296350700,20.966350830078124,0.3342430591583252,1.027517318725586,0.6665744781494141
1748140991314607900,20.98460791015625,-0.03323853015899658,2.367499351501465,0.8126480579376221
1748140991332878000,21.002878173828126,-2.1949522495269775,3.7195239067077637,0.987396240234375
1748140991351139300,21.021139404296875,-6.04340934753418,4.498431205749512,1.0256919860839844
1748140991369404200,21.039404052734376,-4.657295227050781,4.0901689529418945,0.6242938041687012
1748140991387666400,21.05766650390625,-2.2749693393707275,1.4512310028076172,1.1548922061920166
1748140991405930000,21.075929931640626,-1.5536227226257324,-1.0685272216796875,2.0506503582000732
1748140991424184300,21.094184326171874,-1.2449547052383423,-3.017764091491699,2.8332645893096924
1748140991442457000,21.11245703125,-3.0044338703155518,-4.17227840423584,3.150960683822632
1748140991460719900,21.130719970703126,-5.654815673828125,-3.127903938293457,3.5518503189086914
1748140991478984400,21.148984375,-3.9958958625793457,-0.7994155883789062,4.934267997741699
1748140991497246000,21.167245849609376,-3.9538440704345703,-0.3889341354370117,5.088375568389893
1748140991515508500,21.185508544921873,-7.8494696617126465,-2.57045841217041,3.328977584838867
1748140991533773600,21.203773681640627,-7.568911552429199,-4.301028251647949,4.4788641929626465
1748140991552038100,21.2220380859375,-2.389899253845215,-3.4863815307617188,8.222021102905273
1748140991570300400,21.240300537109373,0.3479442596435547,-0.42128658294677734,5.373865127563477
1748140991588553000,21.258552978515624,-2.803997755050659,0.3633584976196289,5.401869773864746
1748140991606826800,21.27682666015625,-1.7555079460144043,-1.8888158798217773,3.9670302867889404
1748140991625091800,21.295091796875,1.9931267499923706,-3.3768186569213867,2.82261323928833
1748140991643349200,21.313349365234377,3.0049734115600586,-5.556488990783691,2.8692269325256348
1748140991661618700,21.33161865234375,1.6088547706604004,-7.736690521240234,0.3942275047302246
1748140991679880700,21.349880615234376,0.833248496055603,-7.490983009338379,-0.6048891544342041
1748140991698144800,21.368144775390626,1.7590231895446777,-4.380128860473633,-1.7673969268798828
1748140991716407600,21.386407470703126,1.9545975923538208,-1.5050830841064453,-2.83809232711792
1748140991734667800,21.404667724609375,2.231940269470215,0.8819150924682617,-3.1878786087036133
1748140991752932900,21.422932861328125,2.7626638412475586,2.4990487098693848,-2.5811147689819336
1748140991771199700,21.44119970703125,3.3974246978759766,3.3073511123657227,-2.175994396209717
1748140991789457000,21.459456787109374,4.156702041625977,3.405365467071533,-1.6446633338928223
1748140991807725800,21.477725830078125,4.257246017456055,2.967927932739258,-1.308948278427124
1748140991825982700,21.495982666015625,3.997363328933716,2.423203468322754,-0.8773095607757568
1748140991844251400,21.51425146484375,3.447784185409546,2.459380626678467,-0.26445865631103516
1748140991862521300,21.532521240234374,3.0525476932525635,3.019752025604248,-1.349600076675415
1748140991880778800,21.55077880859375,4.237481594085693,3.8268728256225586,-3.4079818725585938
1748140991899041300,21.569041259765626,5.113123416900635,4.80301570892334,-4.599076747894287
1748140991917305900,21.587305908203124,5.0735764503479,5.13667106628418,-5.01060152053833
1748140991935568100,21.605568115234377,4.238751411437988,4.689756393432617,-4.919111251831055
1748140991953832700,21.623832763671874,2.616210699081421,4.154419422149658,-4.813336372375488
1748140991972095000,21.642094970703123,0.28391146659851074,3.7178821563720703,-4.002542972564697
1748140991990359000,21.660359130859376,-4.275765419006348,1.5855860710144043,-2.406461238861084
1748140992008621600,21.67862158203125,-15.9219970703125,-2.0463037490844727,3.1223719120025635
1748140992026887200,21.69688720703125,-19.61100959777832,-8.374449729919434,15.722419738769531
1748140992045147400,21.7151474609375,-4.925285339355469,-10.843847274780273,13.019854545593262
1748140992063413000,21.7334130859375,-6.762263774871826,-3.7465381622314453,6.041148662567139
1748140992081670400,21.75167041015625,-5.4694132804870605,4.006510257720947,1.1385893821716309
1748140992099938600,21.7699384765625,-3.471616268157959,5.5833024978637695,-4.236234664916992
1748140992118203000,21.788202880859377,3.6729533672332764,1.5116252899169922,-3.04107666015625
1748140992136462000,21.806462158203125,9.173675537109375,-6.093323707580566,-1.8454071283340454
1748140992154724000,21.82472412109375,10.268537521362305,-12.523445129394531,-0.9342758655548096
1748140992172993300,21.8429931640625,3.308737277984619,-6.567657470703125,-1.1428463459014893
1748140992191255300,21.86125537109375,-1.3249154090881348,-1.1420469284057617,-3.725325584411621
1748140992209520400,21.879520263671875,1.6885604858398438,0.752650260925293,-4.094224452972412
1748140992227782400,21.897782470703124,3.933591842651367,0.5564727783203125,-2.3392701148986816
1748140992246046700,21.916046630859373,4.5727128982543945,-0.6169395446777344,-0.2020258903503418
1748140992264309200,21.934309326171874,4.803943634033203,-2.446793556213379,1.0007026195526123
1748140992282573600,21.952573486328124,4.663731575012207,-2.352672576904297,1.3364007472991943
1748140992300835600,21.970835693359376,3.0891895294189453,-0.6638784408569336,0.7743141651153564
1748140992319100200,21.98910009765625,-0.22430425882339478,0.9668712615966797,-0.20528745651245117
1748140992337357800,22.00735791015625,-4.44448184967041,2.2598094940185547,-1.3989428281784058
1748140992355626000,22.0256259765625,-4.882256984710693,3.144651412963867,-1.9152911901474
1748140992373891000,22.04389111328125,-2.142645835876465,2.9666519165039062,-1.3283500671386719
1748140992392153600,22.062153564453126,-0.6114985942840576,2.245798110961914,-0.4544389247894287
1748140992410415900,22.080415771484375,-0.40620842576026917,1.5050458908081055,0.7813332080841064
1748140992428680400,22.098680419921877,-0.31752076745033264,1.300126075744629,1.6756165027618408
1748140992446942000,22.11694189453125,0.10648685693740845,2.287662982940674,1.0892736911773682
1748140992465205500,22.13520556640625,-0.8485400676727295,3.6808295249938965,1.0544281005859375
1748140992483465000,22.15346484375,-6.153539657592773,4.094034671783447,2.3325397968292236
1748140992501737200,22.1717373046875,-6.077024459838867,3.219440460205078,2.3569068908691406
1748140992519996400,22.189996337890626,-2.028601884841919,0.6548280715942383,2.6772031784057617
1748140992538260700,22.2082607421875,-0.8428003787994385,-1.5534324645996094,2.755544900894165
1748140992556523000,22.22652294921875,-1.3645155429840088,-2.854762077331543,2.8418359756469727
1748140992574783500,22.244783447265625,-3.831272602081299,-3.572606086730957,2.6601760387420654
1748140992593050000,22.263050048828124,-5.738390922546387,-2.30291748046875,3.670400619506836
1748140992611313400,22.2813134765625,-3.2214267253875732,-0.48097801208496094,5.465530872344971
1748140992629577500,22.299577392578126,-3.201150417327881,-0.37424373626708984,6.143414497375488
1748140992647841300,22.31784130859375,-6.850269794464111,-1.739990234375,4.935317039489746
1748140992666103800,22.336103759765624,-7.304599761962891,-3.07415771484375,5.732827186584473
1748140992684355800,22.35435595703125,-2.057081937789917,-2.144101142883301,7.02447509765625
1748140992702630400,22.37263037109375,0.07707524299621582,-0.03321647644042969,3.670424461364746
1748140992720890400,22.390890380859375,-1.1014972925186157,-1.4830312728881836,3.5456550121307373
1748140992739158000,22.409157958984373,1.7427799701690674,-2.9963064193725586,2.3314473628997803
1748140992757421000,22.427421142578126,2.679793119430542,-4.406271934509277,3.4742515087127686
1748140992775683800,22.445683837890623,1.918678641319275,-7.247507095336914,1.431736707687378
1748140992793949700,22.46394970703125,-0.5703777074813843,-9.040816307067871,-1.0083248615264893
1748140992812209000,22.482208984375,0.0551525354385376,-6.354236602783203,-1.0544273853302002
1748140992830470000,22.500469970703126,1.407461166381836,-2.803447723388672,-2.3220856189727783
1748140992848732400,22.518732421875,2.337446689605713,0.20560741424560547,-3.486604690551758
1748140992867000300,22.537000244140625,2.5447797775268555,2.0164523124694824,-2.760674238204956
1748140992885265400,22.555265380859375,3.311574935913086,2.9096198081970215,-2.393198013305664
1748140992903525400,22.573525390625,3.8446907997131348,3.5612525939941406,-1.7463109493255615
1748140992921793800,22.591793701171873,4.041807651519775,3.577829360961914,-1.273613452911377
1748140992940055000,22.610054931640626,4.2158918380737305,2.9751033782958984,-0.9263534545898438
1748140992958317300,22.6283173828125,3.0051491260528564,2.409364700317383,-0.8418729305267334
1748140992976581600,22.64658154296875,3.3365917205810547,2.2592215538024902,-1.009854793548584
1748140992994839600,22.664839599609376,4.41263484954834,2.674384593963623,-2.1898646354675293
1748140993013109000,22.68310888671875,4.4174323081970215,3.5137643814086914,-3.877549648284912
1748140993031370800,22.701370849609376,4.486871719360352,4.46580696105957,-4.665946960449219
1748140993049635300,22.71963525390625,4.477585792541504,4.806407928466797,-4.693094730377197
1748140993067896600,22.737896484375,4.050029754638672,4.521646499633789,-4.681751728057861
1748140993086163500,22.75616357421875,2.5052247047424316,3.6989808082580566,-4.864609718322754
1748140993104424700,22.7744248046875,-0.01114964485168457,2.6407642364501953,-3.6729931831359863
1748140993122689300,22.792689208984374,-5.520153045654297,0.6459722518920898,-1.7181763648986816
1748140993140951800,22.810951904296875,-17.33858871459961,-3.265005111694336,3.321897029876709
1748140993159214800,22.82921484375,-18.974044799804688,-9.051963806152344,15.025217056274414
1748140993177473300,22.847473388671876,-5.723842144012451,-9.579221725463867,12.137444496154785
1748140993195737900,22.86573779296875,-6.611812591552734,-3.085536003112793,6.776554107666016
1748140993214003700,22.884003662109375,-5.076173782348633,4.049571514129639,1.6211371421813965
1748140993232270600,22.9022705078125,-3.013092279434204,7.05683708190918,-3.8060531616210938
1748140993250531300,22.92053125,3.096430540084839,5.433507919311523,-4.287271022796631
1748140993268796000,22.9387958984375,7.9932098388671875,-0.4574918746948242,-4.472714424133301
1748140993287058200,22.95705810546875,11.089032173156738,-9.968599319458008,-3.2989964485168457
1748140993305322800,22.97532275390625,7.019728660583496,-14.292581558227539,-0.5919380187988281
1748140993323585000,22.9935849609375,-1.9743421077728271,-9.290328025817871,-0.858710765838623
1748140993341849600,23.011849609375,-0.09768223762512207,-1.6893129348754883,-3.825864315032959
1748140993360110300,23.0301103515625,2.0854878425598145,2.8196730613708496,-3.3756346702575684
1748140993378376000,23.0483759765625,4.122381210327148,2.891287326812744,-1.5936049222946167
1748140993396639700,23.0666396484375,5.105781078338623,1.630418300628662,-0.057276248931884766
1748140993414902300,23.08490234375,4.971881866455078,-0.46073436737060547,1.061882734298706
1748140993433166600,23.10316650390625,3.770787239074707,-0.8047199249267578,1.8340859413146973
1748140993451425000,23.121425048828126,2.037271499633789,0.83056640625,2.270660161972046
1748140993469692000,23.13969189453125,-2.0951387882232666,2.3390560150146484,1.6629016399383545
1748140993487956700,23.157956787109374,-4.684667587280273,2.72794246673584,0.24260902404785156
1748140993506216000,23.1762158203125,-3.5367307662963867,2.607062339782715,-0.29667091369628906
1748140993524481300,23.194481201171875,-0.6918383836746216,1.9813346862792969,-0.3327503204345703
