time,seconds_elapsed,z,y,x
1751214936361999600,0.14699951171875,-1.2453303337097168,6.873508453369141,2.9519920349121094
1751214936371820000,0.156820068359375,-0.23526239395141602,6.536489486694336,3.6310672760009766
1751214936381658000,0.166658203125,-5.456147193908691,7.314411640167236,1.935831069946289
1751214936391519200,0.176519287109375,-8.83059310913086,7.59430456161499,-0.24704933166503906
1751214936401408000,0.186407958984375,-7.54835319519043,6.969339847564697,-1.9249763488769531
1751214936411327500,0.196327392578125,-4.52845573425293,5.848684787750244,-3.913881301879883
1751214936421279200,0.206279296875,-2.1575281620025635,4.8328094482421875,-6.461215019226074
1751214936431264000,0.216263916015625,-1.8145604133605957,4.402111053466797,-8.823614120483398
1751214936441280300,0.2262802734375,-2.6226160526275635,4.295572280883789,-9.936935424804688
1751214936451326500,0.236326416015625,-3.2659811973571777,4.3107428550720215,-9.98820686340332
1751214936461399000,0.24639892578125,-3.3854570388793945,4.325699329376221,-9.64640998840332
1751214936471493600,0.25649365234375,-2.9833099842071533,4.298407077789307,-8.454273223876953
1751214936481605600,0.266605712890625,-2.822340726852417,4.279557228088379,-6.975171089172363
1751214936491729400,0.2767294921875,-3.40104603767395,4.229654312133789,-6.015220642089844
1751214936511989500,0.296989501953125,-2.344461679458618,2.312656879425049,-6.5715179443359375
1751214936521995300,0.306995361328125,0.3350120484828949,1.4366111755371094,-6.2055768966674805
1751214936531988700,0.31698876953125,2.3723487854003906,1.0389785766601562,-5.7597246170043945
1751214936541982500,0.326982421875,1.9995899200439453,0.8027291297912598,-6.188716888427734
1751214936551976200,0.33697607421875,0.9172685146331787,0.8255653381347656,-6.410309791564941
1751214936561970000,0.346969970703125,0.3905796706676483,0.9620509147644043,-6.953872203826904
1751214936571963600,0.356963623046875,1.6019022464752197,0.6032938957214355,-7.499608993530273
1751214936581957400,0.366957275390625,2.718533992767334,-0.04027843475341797,-9.136709213256836
1751214936591951000,0.376951171875,2.2283668518066406,-0.31450510025024414,-11.430303573608398
1751214936601944800,0.38694482421875,2.510202407836914,-0.013434410095214844,-10.909780502319336
1751214936611938300,0.396938232421875,3.258014440536499,-0.2921891212463379,-11.997893333435059
1751214936621932000,0.40693212890625,1.7569811344146729,-1.0707225799560547,-14.00174617767334
1751214936631925800,0.41692578125,-0.7604205012321472,-3.0497689247131348,-14.610791206359863
1751214936641919500,0.42691943359375,-1.7069469690322876,-4.084120750427246,-14.35560417175293
1751214936651913200,0.436913330078125,-1.4038019180297852,-4.696783065795898,-13.509636878967285
1751214936661907000,0.446906982421875,-0.9853366017341614,-5.178063869476318,-12.14313793182373
1751214936671900700,0.456900634765625,-0.8722579479217529,-5.295342922210693,-10.679672241210938
1751214936681894400,0.466894287109375,-1.0794153213500977,-4.8507280349731445,-9.114298820495605
1751214936691888000,0.47688818359375,-1.5831363201141357,-3.9699082374572754,-7.638838768005371
1751214936701881600,0.486881591796875,-2.0866482257843018,-3.3286080360412598,-7.043638229370117
1751214936711875300,0.496875244140625,-2.782956600189209,-2.9841694831848145,-6.4899139404296875
1751214936721869000,0.506869140625,-0.6737663745880127,-0.9306778907775879,-6.0001678466796875
1751214936731862800,0.51686279296875,-0.29133129119873047,1.633965015411377,-5.839150428771973
1751214936741856500,0.5268564453125,-1.839288592338562,2.402369499206543,-5.510790824890137
1751214936751850200,0.536850341796875,-1.0894174575805664,2.9221694469451904,-3.8811545372009277
1751214936761844000,0.546843994140625,-0.5682351589202881,2.7728114128112793,-3.771420955657959
1751214936771837700,0.556837646484375,0.8672493696212769,2.531036376953125,-4.69378137588501
1751214936781831200,0.5668310546875,0.5832270383834839,2.46022891998291,-5.714173316955566
1751214936791825000,0.576824951171875,-0.08613646030426025,1.9538564682006836,-5.785460472106934
1751214936801818600,0.586818603515625,0.12139296531677246,1.465116024017334,-5.703463554382324
1751214936811812400,0.596812255859375,2.1224961280822754,1.2195525169372559,-5.230152130126953
1751214936821806000,0.60680615234375,4.4002156257629395,0.9738855361938477,-3.6710925102233887
1751214936831799800,0.6167998046875,3.436297655105591,1.2541790008544922,-2.861344814300537
1751214936841793500,0.62679345703125,2.607001304626465,1.8903546333312988,-2.6216633319854736
1751214936851787300,0.636787353515625,1.9335956573486328,2.2161669731140137,-2.807274580001831
1751214936861781000,0.646781005859375,1.154767394065857,2.7848634719848633,-3.160090446472168
1751214936871774700,0.656774658203125,0.2721075415611267,3.2747015953063965,-3.5532100200653076
1751214936881768400,0.6667685546875,-1.8556487560272217,3.324036121368408,-3.557497978210449
1751214936891762200,0.67676220703125,-3.4630064964294434,2.8893842697143555,-3.301706552505493
1751214936901756000,0.686755859375,-2.28153920173645,-1.8998994827270508,-0.07187056541442871
1751214936911749600,0.69674951171875,-1.52738618850708,-8.052261352539062,2.993060827255249
1751214936921743400,0.706743408203125,-1.2405552864074707,-15.482134819030762,0.5617349147796631
1751214936931737300,0.7167373046875,-1.063063621520996,-29.06295394897461,1.7448506355285645
1751214936941731000,0.72673095703125,-1.3823176622390747,-29.68512725830078,2.897259473800659
1751214936951724800,0.736724853515625,-1.3196704387664795,-17.554468154907227,2.050358772277832
1751214936961718500,0.746718505859375,2.1595752239227295,-3.1754369735717773,-0.5795106887817383
1751214936971712300,0.756712158203125,7.459033012390137,10.647022247314453,-4.549081802368164
1751214936991699700,0.77669970703125,4.139810562133789,0.34580039978027344,-3.5701375007629395
1751214937001693400,0.786693359375,0.07176059484481812,0.14632034301757812,-5.705676078796387
1751214937011687200,0.796687255859375,-3.0456440448760986,-0.06027698516845703,-6.82716178894043
1751214937021681000,0.806680908203125,-5.386557102203369,0.29553699493408203,-6.956367492675781
1751214937031674600,0.816674560546875,-6.00140905380249,0.9603414535522461,-6.495277404785156
1751214937041668600,0.826668701171875,-4.807373046875,1.460744857788086,-5.89750337600708
1751214937051662300,0.836662353515625,-3.1045141220092773,1.618168830871582,-5.39638614654541
1751214937061656000,0.846656005859375,-1.7270514965057373,1.4653358459472656,-4.830902099609375
1751214937071649800,0.85664990234375,-1.306396722793579,1.4310331344604492,-3.7945828437805176
1751214937081643500,0.8666435546875,-1.6352782249450684,1.128352165222168,-2.5598397254943848
1751214937091637200,0.87663720703125,-2.459764242172241,1.0467605590820312,-1.9554561376571655
1751214937101631000,0.886630859375,-2.835434675216675,1.1557884216308594,-1.5947624444961548
1751214937111624700,0.896624755859375,-2.58317494392395,1.1688337326049805,-1.139075756072998
1751214937121618400,0.906618408203125,-1.7660021781921387,1.2375717163085938,-0.7582820653915405
1751214937131612200,0.916612060546875,-0.6958820223808289,1.356337547302246,-0.4666663408279419
1751214937141606000,0.92660595703125,0.2702971398830414,1.3159446716308594,-0.2509101629257202
1751214937151599600,0.936599609375,0.9465173482894897,1.3453168869018555,-0.23911356925964355
1751214937161593600,0.946593505859375,1.4612534046173096,1.3116083145141602,-0.3700512647628784
1751214937171587300,0.95658740234375,1.9513682126998901,1.2398557662963867,-0.6344932317733765
1751214937181581000,0.9665810546875,2.3057408332824707,1.0883255004882812,-0.8445496559143066
1751214937191574800,0.97657470703125,2.5942065715789795,1.0048589706420898,-0.9963018894195557
1751214937201568500,0.986568603515625,2.814683437347412,1.078744888305664,-1.1198984384536743
1751214937211562200,0.996562255859375,2.8796887397766113,1.1709861755371094,-1.2306764125823975
1751214937221556000,1.006555908203125,2.7173359394073486,1.1867713928222656,-1.300147294998169
1751214937231549700,1.0165498046875,2.364103078842163,1.140915870666504,-1.300865650177002
1751214937241543400,1.02654345703125,2.1039657592773438,1.052968978881836,-1.374743938446045
1751214937251537200,1.036537109375,2.03432559967041,0.9186773300170898,-1.3912394046783447
1751214937261531000,1.04653076171875,1.8382724523544312,0.837773323059082,-1.3086395263671875
1751214937271524600,1.056524658203125,1.2437169551849365,0.7713565826416016,-1.2670605182647705
1751214937281518600,1.0665185546875,0.5083068609237671,0.8233413696289062,-1.3618040084838867
1751214937291512300,1.07651220703125,-0.14592520892620087,0.9501190185546875,-1.5238137245178223
1751214937301506000,1.086506103515625,-0.5480622053146362,0.9614353179931641,-1.7327960729599
1751214937311499800,1.096499755859375,-0.7670391798019409,0.9914350509643555,-1.9584686756134033
1751214937321493500,1.106493408203125,-0.9313805103302002,1.0401668548583984,-2.1569042205810547
1751214937331487200,1.1164873046875,-1.10085129737854,1.0271129608154297,-2.2465615272521973
1751214937341481000,1.12648095703125,-1.149922490119934,0.9147977828979492,-2.163327217102051
1751214937351474700,1.136474609375,-1.0994750261306763,0.8701868057250977,-2.084425210952759
1751214937361468400,1.146468505859375,-1.0285537242889404,0.835719108581543,-1.9288411140441895
1751214937371462100,1.156462158203125,-0.9724385142326355,0.7399101257324219,-1.669621467590332
1751214937381456000,1.166455810546875,-0.8032413721084595,0.6638193130493164,-1.3796027898788452
1751214937391449900,1.176449951171875,-0.583464503288269,0.6594676971435547,-1.1254215240478516
1751214937401443600,1.186443603515625,-0.40358230471611023,0.6975803375244141,-0.8839752674102783
1751214937411437300,1.196437255859375,-0.1962355077266693,0.5353450775146484,-0.7287017107009888
1751214937421431000,1.20643115234375,-0.08623826503753662,0.6062145233154297,-0.6360381841659546
1751214937431424800,1.2164248046875,-0.1515752673149109,0.7895421981811523,-0.5896621942520142
1751214937441418500,1.22641845703125,-0.4191572368144989,0.8516845703125,-0.5228133201599121
1751214937451412200,1.236412109375,-0.718453049659729,0.8935422897338867,-0.473635196685791
1751214937461406000,1.246406005859375,-0.9275103807449341,0.896245002746582,-0.4009321928024292
1751214937471399700,1.256399658203125,-1.0874422788619995,0.9833908081054688,-0.4307607412338257
1751214937481393400,1.266393310546875,-1.1247309446334839,1.1781501770019531,-0.5820744037628174
1751214937491387100,1.27638720703125,-1.1752325296401978,1.2571029663085938,-0.837509274482727
1751214937501380900,1.286380859375,-1.2990180253982544,1.1030454635620117,-1.1321580410003662
1751214937511374800,1.296374755859375,-1.3474901914596558,0.8324069976806641,-1.4061665534973145
1751214937521368600,1.30636865234375,-1.1565945148468018,0.6647167205810547,-1.6298506259918213
1751214937531362300,1.3163623046875,-0.7498668432235718,0.7842082977294922,-1.8081437349319458
1751214937541356000,1.32635595703125,-0.11714261770248413,1.1504735946655273,-2.093102216720581
1751214937551349800,1.336349853515625,0.5760468244552612,1.4287376403808594,-2.4464735984802246
1751214937561343500,1.346343505859375,1.244732141494751,1.6001949310302734,-2.906684160232544
1751214937571337200,1.356337158203125,1.887427568435669,1.9035606384277344,-3.502319812774658
1751214937581331000,1.3663310546875,2.430809497833252,2.148575782775879,-4.02648401260376
1751214937591324700,1.37632470703125,2.7055766582489014,2.1126174926757812,-4.272566795349121
1751214937601318400,1.386318359375,2.5438098907470703,1.7884254455566406,-4.175211429595947
1751214937611312000,1.39631201171875,2.0247750282287598,1.2209014892578125,-3.7664198875427246
1751214937621305900,1.406305908203125,1.3844130039215088,0.8255577087402344,-3.2625608444213867
1751214937631299800,1.4162998046875,0.6897170543670654,0.5206708908081055,-2.6495323181152344
1751214937641293600,1.42629345703125,-0.029330730438232422,0.17203235626220703,-1.9205641746520996
1751214937651287300,1.436287353515625,-0.7045000195503235,-0.0681772232055664,-1.139736294746399
1751214937661281000,1.446281005859375,-1.251929759979248,-0.10544013977050781,-0.31744277477264404
1751214937671274800,1.456274658203125,-1.5766406059265137,-0.021401405334472656,0.5220561027526855
1751214937681268500,1.4662685546875,-1.579187273979187,0.1120290756225586,1.3566128015518188
1751214937691262200,1.47626220703125,-1.263085126876831,0.28003406524658203,2.105898380279541
1751214937701256000,1.486255859375,-0.8179725408554077,0.3482933044433594,2.4378347396850586
1751214937711249700,1.496249755859375,-0.2837642431259155,0.41148853302001953,2.3289036750793457
1751214937721243400,1.506243408203125,0.232397198677063,0.30223941802978516,1.9569278955459595
1751214937731237000,1.516237060546875,0.5384292602539062,0.2584848403930664,1.6165947914123535
1751214937741231000,1.526231201171875,0.6826367378234863,0.5316619873046875,1.2864710092544556
1751214937751224800,1.536224853515625,0.7908320426940918,0.8053436279296875,1.1561074256896973
1751214937761218600,1.546218505859375,0.9161510467529297,0.8741645812988281,1.163753628730774
1751214937771212300,1.55621240234375,0.7908331155776978,1.2671308517456055,0.9308109283447266
1751214937781206000,1.5662060546875,0.5671111345291138,1.7117605209350586,0.3336458206176758
1751214937791199700,1.57619970703125,0.4697836637496948,1.9614334106445312,-0.23159801959991455
1751214937801193500,1.586193359375,0.35733091831207275,1.8420848846435547,-1.0133880376815796
1751214937811187200,1.596187255859375,0.1857471466064453,1.5711030960083008,-1.8877291679382324
1751214937821181000,1.606180908203125,0.37738561630249023,1.212162971496582,-2.48984432220459
1751214937831174700,1.616174560546875,0.6018422842025757,0.6369781494140625,-2.763134479522705
1751214937841168400,1.62616845703125,0.4639226198196411,0.29277515411376953,-3.1957807540893555
1751214937851162000,1.636162109375,-0.33197999000549316,0.40307044982910156,-3.7025747299194336
1751214937861156000,1.646156005859375,-1.312517523765564,0.5241861343383789,-3.7785048484802246
1751214937871149800,1.65614990234375,-1.9997785091400146,0.5904169082641602,-3.5051422119140625
1751214937881143600,1.6661435546875,-2.3192131519317627,0.6545934677124023,-2.706777572631836
1751214937891137300,1.67613720703125,-2.0733089447021484,0.6831350326538086,-1.5164141654968262
1751214937901131000,1.686131103515625,-1.559427261352539,0.53326416015625,-0.30614781379699707
1751214937911124700,1.696124755859375,-1.061159372329712,0.35320186614990234,0.6402816772460938
1751214937921118500,1.706118408203125,-0.6790185570716858,0.2807893753051758,1.2987182140350342
1751214937931112200,1.7161123046875,-0.24997365474700928,0.29555225372314453,1.6987769603729248
1751214937941106000,1.72610595703125,0.256267786026001,0.10064315795898438,1.931495189666748
1751214937951099600,1.736099609375,0.6675238609313965,-0.1230316162109375,1.8414486646652222
1751214937961093400,1.74609326171875,1.0636729001998901,-0.14696884155273438,1.4690816402435303
1751214937971087000,1.756087158203125,1.4631376266479492,-0.14815330505371094,1.194861650466919
1751214937981081000,1.7660810546875,1.7761735916137695,-0.16480064392089844,0.968738317489624
1751214937991074800,1.77607470703125,2.0610809326171875,-0.20648574829101562,0.6159101724624634
1751214938001068500,1.786068603515625,2.302515745162964,-0.15445995330810547,0.1666685938835144
1751214938011062300,1.796062255859375,2.3834996223449707,0.07599925994873047,-0.4137110114097595
1751214938021056000,1.806055908203125,2.27327299118042,0.21262741088867188,-1.1148340702056885
1751214938031049700,1.8160498046875,2.014605760574341,0.5949697494506836,-1.8571062088012695
1751214938041043500,1.82604345703125,1.540149211883545,0.7226238250732422,-2.032796859741211
1751214938061031000,1.846031005859375,-0.5936065316200256,-0.4171457290649414,-0.5208633542060852
1751214938071024600,1.856024658203125,-1.6549310684204102,-1.313009262084961,0.5160611271858215
1751214938081018400,1.866018310546875,-2.4559683799743652,-1.8412837982177734,1.1588895320892334
1751214938091012400,1.876012451171875,-2.869377613067627,-2.5987319946289062,1.916255235671997
1751214938101006000,1.886006103515625,-3.08331561088562,-3.217989921569824,2.518677234649658
1751214938110999800,1.895999755859375,-3.098518133163452,-3.800950050354004,2.809837818145752
1751214938120993500,1.90599365234375,-3.1681110858917236,-3.519585609436035,2.3515374660491943
1751214938130987300,1.9159873046875,-3.2857418060302734,-2.8973217010498047,1.7172921895980835
1751214938140981000,1.92598095703125,-3.5446178913116455,-2.698269844055176,1.4231927394866943
1751214938150974700,1.935974609375,-3.936469078063965,-2.6917829513549805,1.0452165603637695
1751214938160968400,1.945968505859375,-4.280660152435303,-2.7529220581054688,0.5981802940368652
1751214938170962200,1.955962158203125,-4.516462802886963,-2.757533073425293,0.23481547832489014
1751214938180956000,1.965955810546875,-4.5441083908081055,-2.5876388549804688,0.10446369647979736
1751214938190949600,1.97594970703125,-4.163818359375,-2.1980667114257812,0.21469366550445557
1751214938200943400,1.985943359375,-3.434067964553833,-1.8106918334960938,0.35344839096069336
1751214938210937300,1.995937255859375,-2.7734193801879883,-1.5409736633300781,0.43797755241394043
1751214938220931000,2.00593115234375,-2.3375940322875977,-1.4838428497314453,0.33446216583251953
1751214938230924800,2.0159248046875,-1.7853847742080688,-1.5472564697265625,0.05440163612365723
1751214938240918500,2.02591845703125,-0.945488691329956,-1.6107120513916016,-0.45621395111083984
1751214938250912300,2.035912353515625,0.05651688575744629,-1.6397876739501953,-1.03618323802948
1751214938260906000,2.045906005859375,1.599101185798645,-1.5583076477050781,-1.3632603883743286
1751214938270899700,2.055899658203125,2.430415153503418,-1.171661376953125,-1.5604885816574097
1751214938280893400,2.0658935546875,2.3977086544036865,-0.5333976745605469,-1.6467806100845337
1751214938290887200,2.07588720703125,2.4993743896484375,0.2434253692626953,-2.0536513328552246
1751214938300881000,2.085880859375,2.7631521224975586,0.44118690490722656,-2.184079170227051
1751214938310874600,2.09587451171875,3.0755929946899414,0.5294094085693359,-2.037158489227295
1751214938320868400,2.105868408203125,3.1807594299316406,0.5316553115844727,-1.8491261005401611
1751214938330862300,2.1158623046875,2.9000253677368164,0.3944435119628906,-1.5179665088653564
1751214938340856000,2.12585595703125,2.498629570007324,0.33646202087402344,-1.1281976699829102
1751214938350849800,2.135849853515625,1.7771940231323242,0.11795425415039062,-0.5586390495300293
1751214938360843500,2.145843505859375,0.9241169691085815,-0.2765483856201172,0.45610618591308594
1751214938370837200,2.155837158203125,0.6013604998588562,-0.5829658508300781,1.4918403625488281
1751214938380831000,2.1658310546875,0.5168421864509583,-0.6085395812988281,1.9189958572387695
1751214938390824700,2.17582470703125,0.7645624279975891,-0.45461177825927734,1.636857032775879
1751214938400818400,2.185818359375,1.0915441513061523,-0.2931203842163086,0.9985032081604004
1751214938410812200,2.195812255859375,1.5327969789505005,-0.11772346496582031,-0.03992462158203125
1751214938420806000,2.205805908203125,2.065681219100952,0.22760677337646484,-1.5891447067260742
1751214938430799600,2.215799560546875,2.1432852745056152,0.48999881744384766,-3.4384381771087646
1751214938440793600,2.225793701171875,2.058987617492676,0.5702447891235352,-4.616179466247559
1751214938450787300,2.235787353515625,1.9797691106796265,0.8419294357299805,-5.318603992462158
1751214938460781000,2.245781005859375,1.784374475479126,1.209864616394043,-5.61877965927124
1751214938470774800,2.25577490234375,1.3307597637176514,1.1674785614013672,-5.414700508117676
1751214938480768500,2.2657685546875,0.972719669342041,0.870842456817627,-4.92055082321167
1751214938490762200,2.27576220703125,0.678604245185852,0.5470452308654785,-4.468501567840576
1751214938500756000,2.285755859375,0.7494834661483765,0.3668994903564453,-4.187885284423828
1751214938510749700,2.295749755859375,1.226595401763916,0.2396869659423828,-4.097991466522217
1751214938520743400,2.305743408203125,1.7214030027389526,0.13803768157958984,-4.133339881896973
1751214938530737200,2.315737060546875,2.061422348022461,0.073394775390625,-4.233391284942627
1751214938540731000,2.32573095703125,2.0767178535461426,0.061826229095458984,-4.254678249359131
1751214938550724600,2.335724609375,1.6947174072265625,0.012401103973388672,-4.049679756164551
1751214938560718600,2.345718505859375,1.1222373247146606,0.19844818115234375,-3.965196132659912
1751214938570712300,2.35571240234375,1.231715202331543,0.6838970184326172,-4.074901580810547
1751214938580706000,2.3657060546875,1.3259062767028809,0.7665090560913086,-4.163177490234375
1751214938590699800,2.37569970703125,1.2164629697799683,0.8812508583068848,-4.365690231323242
1751214938600693500,2.385693603515625,1.1188468933105469,0.9953522682189941,-4.547880172729492
1751214938610687200,2.395687255859375,1.042927861213684,0.6493000984191895,-4.3877058029174805
1751214938620681000,2.405680908203125,1.3269050121307373,1.354743480682373,-4.7514190673828125
1751214938630674700,2.4156748046875,1.3445332050323486,1.32830810546875,-4.5500640869140625
1751214938640668400,2.42566845703125,1.0905587673187256,1.170912742614746,-4.162108898162842
1751214938650662100,2.435662109375,0.9472606182098389,1.244542121887207,-3.937751054763794
1751214938660655900,2.44565576171875,0.9772897958755493,1.4004297256469727,-3.7758283615112305
1751214938670649900,2.45564990234375,1.0225087404251099,1.5382356643676758,-3.7094411849975586
1751214938680643600,2.4656435546875,1.0085335969924927,1.633857250213623,-3.587141275405884
1751214938690637300,2.47563720703125,0.8769919872283936,1.706099510192871,-3.4817235469818115
1751214938700631000,2.485631103515625,0.7342637777328491,1.7172508239746094,-3.3255691528320312
1751214938710624800,2.495624755859375,0.4270310401916504,1.6192398071289062,-3.1417648792266846
1751214938720618500,2.505618408203125,0.04465675354003906,1.468994140625,-2.9538962841033936
1751214938730612200,2.5156123046875,-0.16671013832092285,1.3804197311401367,-2.7444863319396973
1751214938740606000,2.52560595703125,-0.18231654167175293,1.3244824409484863,-2.5912375450134277
1751214938750599700,2.535599609375,-0.27347564697265625,1.296553134918213,-2.5234155654907227
1751214938760593400,2.545593505859375,-0.4345426559448242,1.2484126091003418,-2.2927021980285645
1751214938770587100,2.555587158203125,-0.7781012058258057,1.1787199974060059,-1.879683494567871
1751214938780580900,2.565580810546875,-0.7265622615814209,1.0147943496704102,-1.1797971725463867
1751214938790574800,2.575574951171875,-0.6117711067199707,0.7657113075256348,-0.5341358184814453
1751214938800568600,2.585568603515625,-0.34487199783325195,0.5576653480529785,-0.3130002021789551
1751214938810562300,2.595562255859375,-0.07833337783813477,0.1977524757385254,-0.3936734199523926
1751214938820556000,2.60555615234375,-0.11970710754394531,-0.35599422454833984,-0.3267326354980469
1751214938830549800,2.6155498046875,-0.2827277183532715,-0.9553132057189941,-0.12114620208740234
1751214938840543500,2.62554345703125,-0.5023548603057861,-1.5803356170654297,0.01590728759765625
1751214938850537200,2.635537109375,-1.1162822246551514,-2.017944812774658,0.39472293853759766
1751214938860531000,2.645531005859375,-1.9607656002044678,-1.746683120727539,0.46440553665161133
1751214938870524700,2.655524658203125,-2.649968385696411,-0.7816929817199707,-0.4417572021484375
1751214938880518400,2.665518310546875,-2.858711004257202,0.14648818969726562,-1.879544734954834
1751214938890512100,2.67551220703125,-2.1888184547424316,0.8064913749694824,-3.250208854675293
1751214938900505900,2.685505859375,-1.1192628145217896,1.3406548500061035,-4.2355756759643555
1751214938910499800,2.695499755859375,-0.06465435028076172,1.436417579650879,-4.950312614440918
1751214938920493600,2.70549365234375,0.7421700954437256,0.8059291839599609,-5.514006614685059
1751214938930487300,2.7154873046875,1.2642006874084473,-0.401947021484375,-5.693480014801025
1751214938940481000,2.72548095703125,1.6237283945083618,-1.7319869995117188,-5.288084983825684
1751214938950474800,2.735474853515625,2.049683094024658,-2.8693323135375977,-4.5201802253723145
1751214938960468500,2.745468505859375,2.5618460178375244,-3.49788761138916,-3.6960864067077637
1751214938970462200,2.755462158203125,3.3527183532714844,-3.6390018463134766,-2.9290995597839355
1751214938980456000,2.7654560546875,4.475937366485596,-3.6137514114379883,-2.277339458465576
1751214938990450000,2.775449951171875,5.453125476837158,-3.775296211242676,-1.3061201572418213
1751214939000443600,2.785443603515625,5.4524664878845215,-4.293437957763672,0.8539443016052246
1751214939010437400,2.795437255859375,4.856673717498779,-5.31329345703125,4.095062732696533
1751214939020431400,2.805431396484375,3.8028504848480225,-6.669519424438477,7.440725326538086
1751214939030425000,2.815425048828125,0.519124448299408,-7.128073692321777,9.325552940368652
1751214939040418800,2.825418701171875,-3.092646360397339,-4.60791015625,7.498726844787598
1751214939050412500,2.83541259765625,-3.2609610557556152,-0.7796344757080078,3.8567090034484863
1751214939060406500,2.845406494140625,-1.8423986434936523,1.5337390899658203,1.162966012954712
1751214939070400300,2.855400146484375,-1.2830836772918701,2.2848968505859375,-0.44646501541137695
1751214939080394000,2.86539404296875,-1.36970853805542,2.2337074279785156,-1.4496290683746338
1751214939090388000,2.875387939453125,-1.6405308246612549,1.770362377166748,-1.9988890886306763
1751214939100381700,2.885381591796875,-1.8288030624389648,1.3083629608154297,-2.5546929836273193
1751214939110375400,2.89537548828125,-1.8929722309112549,1.1690864562988281,-2.902620315551758
1751214939120369200,2.905369140625,-1.7155842781066895,1.036672592163086,-2.8996834754943848
1751214939130363100,2.915363037109375,-1.3432526588439941,0.9579753875732422,-2.72023606300354
1751214939140356900,2.92535693359375,-0.940348744392395,0.8937187194824219,-2.4949073791503906
1751214939150350600,2.9353505859375,-0.43626922369003296,0.7857961654663086,-2.3062076568603516
1751214939160344600,2.945344482421875,-0.017485082149505615,0.6717348098754883,-2.146271228790283
1751214939170338300,2.95533837890625,0.31803131103515625,0.6658687591552734,-2.0295562744140625
1751214939180332000,2.96533203125,0.7286396622657776,0.696380615234375,-1.6548670530319214
1751214939190325800,2.97532568359375,1.0510928630828857,0.6148014068603516,-1.1497516632080078
1751214939200319700,2.98531982421875,1.1967551708221436,0.6310262680053711,-0.7560821771621704
1751214939210313500,2.9953134765625,1.3291468620300293,0.7355031967163086,-0.5062971115112305
1751214939220307200,3.00530712890625,1.4866751432418823,0.8090496063232422,-0.23144590854644775
1751214939230301200,3.01530126953125,1.4627585411071777,0.8422050476074219,0.07315230369567871
1751214939240295000,3.025294921875,1.3466570377349854,0.9831123352050781,0.2508084774017334
1751214939250288600,3.03528857421875,1.1079943180084229,1.2174043655395508,0.39547717571258545
1751214939260282400,3.045282470703125,0.8613213300704956,1.35394287109375,0.6137917041778564
1751214939270276400,3.0552763671875,0.5312750935554504,1.383401870727539,1.039243221282959
1751214939280270000,3.06527001953125,0.04761338233947754,1.3200197219848633,1.6162571907043457
1751214939290263800,3.075263916015625,-0.43782633543014526,1.149643898010254,2.0407156944274902
1751214939300257800,3.0852578125,-0.8779821395874023,0.9157314300537109,2.1909615993499756
1751214939310251500,3.09525146484375,-1.2826900482177734,0.6714315414428711,2.151205062866211
1751214939320245200,3.105245361328125,-1.5475244522094727,0.5271539688110352,1.9578700065612793
1751214939330239200,3.1152392578125,-1.7519221305847168,0.5354700088500977,1.6660714149475098
1751214939340233000,3.12523291015625,-1.9569165706634521,0.7154674530029297,1.1610004901885986
1751214939350226700,3.135226806640625,-1.9184925556182861,0.9477081298828125,0.5919152498245239
1751214939360220400,3.145220458984375,-1.628831148147583,1.0938653945922852,0.13767075538635254
1751214939370214400,3.15521435546875,-1.3268550634384155,1.1397705078125,-0.3414123058319092
1751214939380208000,3.1652080078125,-0.9694792032241821,1.0570259094238281,-0.839482307434082
1751214939390201900,3.175201904296875,-0.6334987878799438,0.850367546081543,-0.9147768616676331
1751214939400195800,3.18519580078125,-0.4331818222999573,0.7106237411499023,-0.8058867454528809
1751214939410189600,3.195189453125,-0.5409176349639893,0.5420608520507812,-0.5121937394142151
1751214939420183300,3.205183349609375,-0.5674504041671753,0.47380733489990234,-0.2063407301902771
1751214939430177000,3.215177001953125,-0.587679386138916,0.44371700286865234,0.09780406951904297
1751214939440171000,3.2251708984375,-0.5016933083534241,0.39902496337890625,0.3710101842880249
1751214939450164700,3.235164794921875,-0.3425755500793457,0.32065582275390625,0.5551061034202576
1751214939460158500,3.245158447265625,-0.24716317653656006,0.27092647552490234,0.568393349647522
1751214939470152400,3.25515234375,-0.3040562868118286,0.19272136688232422,0.5213391780853271
1751214939480146200,3.265146240234375,-0.23474597930908203,0.12926959991455078,0.44320380687713623
1751214939490140000,3.275139892578125,-0.18250083923339844,0.12837505340576172,0.39299702644348145
1751214939500133600,3.285133544921875,-0.1284579038619995,0.060883522033691406,0.585668683052063
1751214939510127600,3.295127685546875,-0.00546109676361084,-0.01100921630859375,0.9519304037094116
1751214939520121300,3.305121337890625,0.2472701072692871,-0.02072429656982422,1.3791568279266357
1751214939530115000,3.315114990234375,0.4905773401260376,0.026681900024414062,1.5838594436645508
1751214939540108800,3.32510888671875,0.6028100252151489,0.07892608642578125,1.585440754890442
1751214939550102500,3.3351025390625,0.6493761539459229,0.13171100616455078,1.5178136825561523
1751214939560096300,3.34509619140625,0.6733615398406982,0.23282623291015625,1.415822148323059
1751214939570090000,3.355090087890625,0.6899822950363159,0.2574348449707031,1.3774672746658325
1751214939580083700,3.365083740234375,0.7423518896102905,0.2766408920288086,1.4463512897491455
1751214939590077400,3.375077392578125,0.7364658117294312,0.1849079132080078,1.5272133350372314
1751214939600071200,3.3850712890625,0.6815059185028076,-0.12736797332763672,1.6784741878509521
1751214939610065000,3.39506494140625,0.7074233293533325,-0.1915283203125,1.4884532690048218
1751214939620058600,3.40505859375,0.688234806060791,-0.8153715133666992,1.44076669216156
1751214939630052600,3.415052490234375,0.3839845657348633,-1.4912948608398438,1.2017983198165894
1751214939640046300,3.42504638671875,-0.15903735160827637,-2.0276851654052734,0.6919921636581421
1751214939650040000,3.4350400390625,-0.8057658672332764,-2.2426576614379883,-0.15048585832118988
1751214939660033800,3.44503369140625,-1.328660488128662,-2.3221359252929688,-0.9700264930725098
1751214939670027500,3.455027587890625,-1.4705002307891846,-2.824284553527832,-1.3430967330932617
1751214939680021200,3.465021240234375,-1.2965755462646484,-3.451352119445801,-1.461143970489502
1751214939690015000,3.475014892578125,-1.3250586986541748,-4.064796447753906,-1.1738494634628296
1751214939700008700,3.4850087890625,-1.7816048860549927,-4.5408830642700195,-0.5958046317100525
1751214939719996200,3.50499609375,-2.76206636428833,-5.340453147888184,0.2855566143989563
1751214939729990000,3.514989990234375,-3.042681932449341,-5.249424934387207,0.650925874710083
1751214939739983600,3.524983642578125,-3.064868927001953,-4.665936470031738,0.9382871389389038
1751214939749977600,3.5349775390625,-2.789987325668335,-3.796750068664551,1.0541517734527588
1751214939759971300,3.544971435546875,-2.290916919708252,-2.9008665084838867,1.0459046363830566
1751214939779958800,3.564958740234375,-1.7923321723937988,-1.737380027770996,0.4526885747909546
1751214939789952500,3.574952392578125,-2.2964248657226562,-1.2115240097045898,0.13298776745796204
1751214939799946200,3.5849462890625,-3.254227638244629,-0.7980270385742188,0.027227789163589478
1751214939809940000,3.59493994140625,-4.488073825836182,-0.5303421020507812,-0.16804909706115723
1751214939819933700,3.60493359375,-5.711450099945068,-0.4851970672607422,-0.1028711199760437
1751214939829927400,3.614927490234375,-6.624022006988525,-0.4865398406982422,0.3691973090171814
1751214939839921400,3.62492138671875,-6.630617618560791,-0.4743461608886719,1.2229669094085693
1751214939859908900,3.644908935546875,-3.1832664012908936,-0.8421115875244141,2.627078056335449
1751214939869902800,3.65490283203125,-0.4676727056503296,-0.7979040145874023,2.5116961002349854
1751214939879896600,3.664896484375,2.412208318710327,-0.030836105346679688,1.85885751247406
1751214939889890300,3.674890380859375,4.274938583374023,0.2550945281982422,1.3003261089324951
1751214939899884000,3.684884033203125,5.8261566162109375,0.24381446838378906,0.783023476600647
1751214939909878000,3.6948779296875,6.754668235778809,0.4534921646118164,-0.014965295791625977
1751214939919871700,3.704871826171875,7.040127754211426,0.18219566345214844,-0.3470604419708252
1751214939929865500,3.714865478515625,7.320237636566162,-0.5029487609863281,-0.581866979598999
1751214939939859500,3.724859375,6.920215606689453,-0.9707927703857422,-0.8331170082092285
1751214939949853200,3.734853271484375,4.887998580932617,-0.8110055923461914,-1.0571746826171875
1751214939959847000,3.744846923828125,2.2240309715270996,-0.6973428726196289,-1.0261290073394775
1751214939969841000,3.7548408203125,-0.6763215065002441,-0.8019943237304688,-0.47549986839294434
1751214939979834600,3.764834716796875,-2.995938777923584,-1.0457754135131836,0.5869486331939697
1751214939989828400,3.774828369140625,-4.013659477233887,-1.1745738983154297,1.61199951171875
1751214939999822000,3.784822021484375,-3.4425535202026367,-1.517608642578125,2.3025412559509277
1751214940009816000,3.794816162109375,-1.3824436664581299,-2.0087995529174805,1.878178596496582
1751214940019809800,3.804809814453125,0.8748739957809448,-2.3439254760742188,0.28043699264526367
1751214940029803500,3.814803466796875,2.588839054107666,-2.475299835205078,-1.6664810180664062
1751214940039797500,3.824797607421875,3.371011734008789,-2.390300750732422,-3.36789608001709
1751214940049791200,3.834791259765625,3.297191619873047,-2.1003684997558594,-4.50859260559082
1751214940059785000,3.844784912109375,2.9185891151428223,-1.6900949478149414,-4.875373840332031
1751214940069778700,3.85477880859375,2.4951331615448,-1.1730146408081055,-4.6916608810424805
1751214940079772700,3.864772705078125,2.003312110900879,-1.1527624130249023,-3.987410068511963
1751214940089766400,3.874766357421875,1.617952585220337,-0.22497272491455078,-4.166677951812744
1751214940099760000,3.884760009765625,1.2591421604156494,0.09988021850585938,-4.2288055419921875
1751214940109754000,3.894754150390625,0.799848198890686,-0.19545650482177734,-3.9637272357940674
1751214940119747800,3.904747802734375,0.2641139030456543,-0.2186880111694336,-3.9391252994537354
1751214940129741600,3.914741455078125,-0.19939279556274414,-0.10973167419433594,-4.093382835388184
1751214940139735300,3.9247353515625,-0.08307433128356934,0.1359543800354004,-4.375097274780273
1751214940149729300,3.934729248046875,0.40258777141571045,-0.568427562713623,-4.191038131713867
1751214940159723000,3.944722900390625,1.3051552772521973,0.7462143898010254,-5.396047592163086
1751214940169716700,3.954716796875,1.4336026906967163,1.6688470840454102,-5.891425132751465
1751214940179710700,3.964710693359375,0.7892929315567017,1.3042426109313965,-5.488052845001221
1751214940189704400,3.974704345703125,0.8169838190078735,1.6317687034606934,-5.672420501708984
1751214940199698200,3.9846982421875,1.3836578130722046,2.175534725189209,-5.909482002258301
1751214940209692000,3.99469189453125,1.6281764507293701,2.6415762901306152,-6.178294658660889
1751214940219686000,4.004685791015625,1.5166213512420654,2.9306936264038086,-6.2451395988464355
1751214940229679600,4.0146796875,1.5117675065994263,3.123194932937622,-6.092108726501465
1751214940239673300,4.02467333984375,1.642803430557251,3.1075103282928467,-5.807588577270508
1751214940249667300,4.034667236328125,1.665505290031433,2.862484931945801,-5.434491157531738
1751214940259661000,4.0446611328125,1.7316703796386719,2.672765016555786,-5.154499530792236
1751214940269654800,4.05465478515625,1.9099643230438232,2.547586441040039,-4.734757900238037
1751214940279648500,4.0646484375,1.981066107749939,2.5435476303100586,-4.314579963684082
1751214940289642500,4.074642578125,1.7890353202819824,2.650381088256836,-3.936901807785034
1751214940299636200,4.08463623046875,1.5731492042541504,2.844839096069336,-3.8206331729888916
1751214940309630000,4.0946298828125,1.4545832872390747,2.985652208328247,-3.8782718181610107
1751214940319624000,4.1046240234375,1.5947082042694092,2.9971935749053955,-3.9035685062408447
1751214940329617700,4.11461767578125,1.782365322113037,2.7658605575561523,-3.929259777069092
1751214940339611400,4.124611328125,1.75528883934021,2.4555721282958984,-3.9365310668945312
1751214940349605400,4.13460546875,1.3453428745269775,2.1182374954223633,-3.887831211090088
1751214940359599000,4.14459912109375,0.8910504579544067,1.8065605163574219,-4.062955856323242
1751214940369592800,4.1545927734375,0.3905218839645386,1.511575698852539,-4.304278373718262
1751214940379586600,4.164586669921875,-0.5841541290283203,1.2747883796691895,-3.91737699508667
1751214940389580500,4.17458056640625,-2.182213306427002,0.9032711982727051,-2.4632620811462402
1751214940399574300,4.18457421875,-2.75567364692688,-0.1654510498046875,-1.0925545692443848
1751214940409568000,4.194568115234375,-1.7809326648712158,-1.627573013305664,0.10054540634155273
1751214940419562000,4.20456201171875,-0.8117187023162842,-2.9061717987060547,0.8948178291320801
1751214940429555700,4.2145556640625,-0.922370195388794,-3.867403030395508,1.3369817733764648
1751214940439549400,4.224549560546875,-1.4400898218154907,-4.5485944747924805,1.6077404022216797
1751214940449543400,4.23454345703125,-0.7902024984359741,-4.96535587310791,1.9210762977600098
1751214940459537200,4.244537109375,0.8037395477294922,-5.125845432281494,2.3780455589294434
1751214940469531100,4.25453125,0.6234947443008423,-5.326171398162842,2.4869818687438965
1751214940479524900,4.26452490234375,-0.7949718832969666,-5.40913200378418,1.4624223709106445
1751214940489518800,4.274518798828125,-0.42256462574005127,-5.107844352722168,-0.43676042556762695
1751214940499512600,4.2845126953125,0.9317204356193542,-4.358943939208984,-1.7814745903015137
1751214940509506600,4.294506591796875,1.4963017702102661,-3.3466835021972656,-1.9944984912872314
1751214940519500300,4.304500244140625,1.7777082920074463,-2.4656171798706055,-1.4481658935546875
1751214940529494300,4.314494384765625,2.2091991901397705,-2.3519411087036133,-0.4160585403442383
1751214940539488000,4.324488037109375,2.010237693786621,-2.8636064529418945,0.6281676292419434
1751214940549482000,4.33448193359375,1.3286374807357788,-3.7482080459594727,1.4812302589416504
1751214940559475700,4.344475830078125,0.5029057264328003,-4.118424415588379,1.89752197265625
1751214940569469700,4.3544697265625,-0.18176008760929108,-3.351320266723633,1.9366297721862793
1751214940579463400,4.36446337890625,-0.7915775775909424,-1.9357919692993164,1.3122267723083496
1751214940589457400,4.37445751953125,-1.1020309925079346,-0.6740074157714844,0.4998617172241211
1751214940599451100,4.384451171875,-0.9585298299789429,0.35048866271972656,-0.3062915802001953
1751214940609444900,4.39444482421875,-0.8308561444282532,1.005915641784668,-0.9366536140441895
1751214940619438800,4.40443896484375,-0.7069361805915833,1.375654697418213,-1.3222651481628418
1751214940629432600,4.4144326171875,-0.5327767133712769,1.4990897178649902,-1.5918350219726562
1751214940639426600,4.424426513671875,-0.48389577865600586,1.55338716506958,-1.7508838176727295
1751214940649420300,4.434420166015625,-0.6254544854164124,1.5672259330749512,-1.718982458114624
1751214940659414300,4.444414306640625,-0.6747366189956665,1.4875531196594238,-1.5460293292999268
1751214940669408000,4.454407958984375,-0.5653420686721802,1.5004496574401855,-1.477370023727417
1751214940679402000,4.464402099609375,-0.32338038086891174,1.4623417854309082,-1.522733449935913
1751214940689395700,4.474395751953125,-0.078206866979599,1.307149887084961,-1.6423094272613525
1751214940699389700,4.4843896484375,0.13059654831886292,1.0549898147583008,-1.7863154411315918
1751214940709383400,4.494383544921875,0.25625431537628174,0.8738079071044922,-1.9384660720825195
1751214940719377400,4.50437744140625,0.3293319344520569,0.7445392608642578,-1.9779917001724243
1751214940729371100,4.51437109375,0.40183499455451965,0.6436653137207031,-1.8790501356124878
1751214940739365000,4.524365234375,0.4428897500038147,0.5088987350463867,-1.603611707687378
1751214940749358800,4.53435888671875,0.4277716875076294,0.42129039764404297,-1.1670334339141846
1751214940759352800,4.544352783203125,0.3170930743217468,0.40435218811035156,-0.5516257286071777
1751214940769346600,4.5543466796875,0.21024614572525024,0.4000663757324219,0.14876079559326172
1751214940779340300,4.56434033203125,0.006663382053375244,0.37413787841796875,0.7823290824890137
1751214940789334300,4.574334228515625,-0.1573529839515686,0.3642606735229492,1.2943181991577148
1751214940799328000,4.584327880859375,-0.21533149480819702,0.3177661895751953,1.5642833709716797
1751214940809321700,4.59432177734375,-0.23232799768447876,0.22086620330810547,1.44472074508667
1751214940819315700,4.604315673828125,-0.20605838298797607,0.18436717987060547,1.1865253448486328
1751214940829309400,4.614309326171875,-0.12686443328857422,0.24209213256835938,0.9777854681015015
1751214940839303200,4.62430322265625,-0.18184810876846313,0.3890857696533203,0.8468338251113892
1751214940849297000,4.634296875,-0.2936134338378906,0.5297222137451172,0.711675763130188
1751214940859291000,4.644290771484375,-0.33219289779663086,0.5973300933837891,0.571852445602417
1751214940869284600,4.65428466796875,-0.4363265037536621,0.6304759979248047,0.45609939098358154
1751214940879278300,4.6642783203125,-0.404285728931427,0.6103248596191406,0.48805904388427734
1751214940889272300,4.674272216796875,-0.2087341547012329,0.5796489715576172,0.6935149431228638
1751214940899266000,4.68426611328125,-0.05315899848937988,0.5762109756469727,0.9263237714767456
1751214940909259800,4.694259765625,-0.05495476722717285,0.6761093139648438,0.9230395555496216
1751214940919253800,4.704253662109375,-0.2014176845550537,0.8554849624633789,0.6917773485183716
1751214940929247500,4.71424755859375,0.03667020797729492,0.8801679611206055,0.5685617923736572
1751214940939241200,4.7242412109375,0.1191558837890625,0.9655160903930664,0.20804548263549805
1751214940949235000,4.73423486328125,0.16780292987823486,0.9586172103881836,-0.24259686470031738
1751214940959229000,4.74422900390625,-0.43968677520751953,0.8840141296386719,-0.4194892644882202
1751214940969222700,4.75422265625,-1.232783317565918,0.9338436126708984,-0.6747179627418518
1751214940979216400,4.76421630859375,-1.599155068397522,0.9704761505126953,-0.8365528583526611
1751214940989210400,4.77421044921875,-1.4765766859054565,0.87451171875,-0.6723712682723999
1751214940999204000,4.7842041015625,-1.1967958211898804,0.7748012542724609,-0.3478538990020752
1751214941009197800,4.79419775390625,-0.8793966770172119,0.7523994445800781,-0.09894311428070068
1751214941019191600,4.804191650390625,-0.42417389154434204,0.7640876770019531,0.11726987361907959
1751214941029185500,4.814185546875,0.008232951164245605,0.7139225006103516,0.2200169563293457
1751214941039179300,4.82417919921875,0.4615461826324463,0.6252985000610352,0.39508068561553955
1751214941049173000,4.834173095703125,0.832268238067627,0.7126836776733398,0.3877437710762024
1751214941059167000,4.8441669921875,1.2252869606018066,0.6788263320922852,0.3327215313911438
1751214941069160700,4.85416064453125,1.294151782989502,0.4997854232788086,0.2356475591659546
1751214941079154400,4.864154541015625,0.8925701379776001,0.36705684661865234,0.24100559949874878
1751214941089148200,4.874148193359375,0.5406944751739502,0.3285989761352539,0.301153302192688
1751214941099142100,4.88414208984375,0.09909224510192871,0.3080911636352539,0.3378051519393921
1751214941109136000,4.894135986328125,-0.4614901542663574,0.29161930084228516,0.37324923276901245
1751214941119129600,4.904129638671875,-1.1550624370574951,0.213104248046875,0.42617982625961304
1751214941129123600,4.91412353515625,-1.8951293230056763,0.09279537200927734,0.48750877380371094
1751214941139117300,4.924117431640625,-2.327263355255127,-0.025053977966308594,0.60062175989151
1751214941149111000,4.934111083984375,-2.2962160110473633,-0.13976669311523438,0.7220911383628845
1751214941159104800,4.944104736328125,-1.8872056007385254,-0.2422342300415039,0.7897980213165283
1751214941169098800,4.9540986328125,-1.2653330564498901,-0.20944786071777344,0.8136131167411804
1751214941179092500,4.964092529296875,-0.68947434425354,-0.09517478942871094,0.8329057693481445
1751214941189086200,4.974086181640625,-0.21520590782165527,-0.010041236877441406,0.8616477251052856
1751214941199080200,4.984080078125,0.13712406158447266,-0.0019750595092773438,0.8383910655975342
1751214941209074000,4.994073974609375,0.5109275579452515,-0.10424518585205078,0.8448770642280579
1751214941219067600,5.004067626953125,0.8586019277572632,-0.4120931625366211,0.9800398349761963
1751214941229061400,5.014061279296875,1.257080078125,-0.8580780029296875,1.2355998754501343
1751214941239055400,5.024055419921875,1.5969324111938477,-1.2697782516479492,1.5459164381027222
1751214941249049000,5.034049072265625,1.954925775527954,-1.6041946411132812,1.9464644193649292
1751214941259042800,5.044042724609375,2.1918725967407227,-1.809016227722168,2.4192399978637695
1751214941269036800,5.054036865234375,2.143951416015625,-1.884817123413086,2.7745249271392822
1751214941279030500,5.064030517578125,1.8010122776031494,-1.989786148071289,2.830993890762329
1751214941289024300,5.074024169921875,1.0007585287094116,-2.6064929962158203,2.6843132972717285
1751214941299018200,5.084018310546875,-0.005491495132446289,-3.881641387939453,2.2719759941101074
1751214941309012000,5.094011962890625,-1.1080689430236816,-5.130043983459473,1.4187091588974
1751214941319005700,5.104005615234375,-2.095658779144287,-5.739335060119629,0.3038513660430908
1751214941328999400,5.11399951171875,-2.814847946166992,-5.657285690307617,-0.5264077186584473
1751214941338993400,5.123993408203125,-3.1451125144958496,-5.223484992980957,-0.711251437664032
1751214941348987100,5.133987060546875,-3.114447593688965,-4.7014617919921875,-0.3551582396030426
1751214941358981000,5.143981201171875,-2.733503818511963,-4.116631507873535,0.20436042547225952
1751214941368974800,5.153974853515625,-2.264103889465332,-3.5711669921875,0.6736568212509155
1751214941378968800,5.16396875,-2.0891075134277344,-2.9132862091064453,0.9761288166046143
1751214941398956500,5.18395654296875,-3.380207061767578,-1.4725732803344727,0.8844943046569824
1751214941408950300,5.1939501953125,-5.0612030029296875,-0.7317781448364258,0.4559673070907593
1751214941418944300,5.2039443359375,-6.905886650085449,-0.26946258544921875,0.10992300510406494
1751214941428938000,5.21393798828125,-8.100621223449707,-0.46364688873291016,0.24164187908172607
1751214941438932000,5.223931884765625,-7.9887375831604,-0.8910408020019531,0.6981173753738403
1751214941448925700,5.23392578125,-6.516667366027832,-1.143209457397461,1.0907232761383057
1751214941458919700,5.243919677734375,-3.811643600463867,-1.0791740417480469,1.3640512228012085
1751214941468913400,5.253913330078125,-0.8983211517333984,-1.2534551620483398,1.5439492464065552
1751214941478907400,5.263907470703125,2.0249898433685303,-0.9190530776977539,1.3013989925384521
1751214941488901000,5.273901123046875,4.36210823059082,-0.4336109161376953,0.8895276784896851
1751214941498895000,5.28389501953125,5.727358341217041,-0.1061105728149414,0.41412973403930664
1751214941508888800,5.293888916015625,6.332048416137695,-0.1396808624267578,-0.15599942207336426
1751214941518882800,5.3038828125,6.83878231048584,-0.1786041259765625,-0.5190385580062866
1751214941528876500,5.31387646484375,6.649703025817871,-0.14056968688964844,-0.9331520795822144
1751214941538870500,5.32387060546875,5.641104698181152,-0.7285699844360352,-0.8176175355911255
1751214941548864300,5.3338642578125,4.561440944671631,-1.210677146911621,-0.6284778118133545
1751214941558858200,5.343858154296875,2.8891148567199707,-1.1426315307617188,-0.10361790657043457
1751214941568852000,5.35385205078125,0.4100651144981384,-0.9284915924072266,0.683455228805542
1751214941578845700,5.363845703125,-1.7409132719039917,-1.0357589721679688,1.9834671020507812
1751214941588839700,5.373839599609375,-2.581484079360962,-1.1771478652954102,3.106058359146118
1751214941598833400,5.38383349609375,-1.8556106090545654,-1.2594404220581055,3.4254229068756104
1751214941608827400,5.393827392578125,-0.44060182571411133,-1.4982099533081055,3.1109066009521484
1751214941618821000,5.403821044921875,1.2290571928024292,-1.6762208938598633,2.0393147468566895
1751214941628815000,5.413815185546875,2.54036283493042,-1.704045295715332,0.4073648452758789
1751214941638808800,5.423808837890625,2.651782989501953,-1.6880035400390625,-1.1942102909088135
1751214941648802800,5.433802734375,2.0416178703308105,-1.287644386291504,-2.8024399280548096
1751214941658796500,5.443796630859375,1.3810040950775146,-0.7986116409301758,-4.066792011260986
1751214941668790500,5.45379052734375,1.1032665967941284,-0.44940185546875,-4.601095199584961
1751214941678784300,5.4637841796875,1.199444055557251,-0.22476959228515625,-4.642388343811035
1751214941688778200,5.4737783203125,1.455897569656372,-0.0718221664428711,-4.432491302490234
1751214941698772000,5.48377197265625,1.504016399383545,0.08173942565917969,-4.149050712585449
1751214941708766000,5.493765869140625,1.1213433742523193,-0.038809776306152344,-3.8072335720062256
1751214941728753700,5.513753662109375,0.6106052398681641,-0.35303401947021484,-3.5922300815582275
1751214941738747400,5.523747314453125,0.7730950117111206,0.2670283317565918,-4.224096298217773
1751214941748741400,5.533741455078125,0.7757251262664795,-0.17872095108032227,-3.9407241344451904
1751214941758735000,5.543735107421875,0.9289669990539551,0.343991756439209,-4.33458948135376
1751214941768729000,5.55372900390625,1.124974250793457,0.7419953346252441,-4.811394691467285
1751214941778722800,5.563722900390625,1.273634433746338,0.7754650115966797,-4.920749664306641
1751214941788716800,5.573716796875,1.5248372554779053,0.986748218536377,-5.097845554351807
1751214941798710500,5.58371044921875,1.5992717742919922,0.9463415145874023,-4.965516090393066
1751214941808704500,5.59370458984375,1.472327709197998,1.1099662780761719,-4.7678937911987305
1751214941818698200,5.6036982421875,1.367514729499817,1.6856951713562012,-4.652677536010742
1751214941828692200,5.613692138671875,1.1699719429016113,1.5811514854431152,-4.110590934753418
1751214941838686000,5.62368603515625,1.3460804224014282,2.2620792388916016,-4.289895057678223
1751214941848680000,5.633679931640625,1.1243807077407837,1.991011619567871,-3.954409599304199
1751214941858673700,5.643673583984375,1.0618388652801514,1.996873378753662,-4.005550861358643
1751214941868667600,5.653667724609375,0.9675007462501526,2.1567420959472656,-4.192302703857422
1751214941878661400,5.663661376953125,0.6847212314605713,2.2986950874328613,-4.256024360656738
1751214941888655400,5.6736552734375,0.39919066429138184,2.4271240234375,-4.259910583496094
1751214941898649000,5.683649169921875,0.17107272148132324,2.483767032623291,-4.1100172996521
1751214941908643000,5.69364306640625,-0.043172597885131836,2.524580955505371,-3.884639024734497
1751214941918636800,5.70363671875,-0.15332698822021484,2.4716506004333496,-3.609304904937744
1751214941928630800,5.713630859375,-0.3510761260986328,2.343057155609131,-3.415633201599121
1751214941938624500,5.72362451171875,-0.49139857292175293,2.277015209197998,-3.459050178527832
1751214941948618500,5.733618408203125,-0.44702649116516113,2.244781494140625,-3.6739790439605713
1751214941958612200,5.7436123046875,-0.020237445831298828,2.126948356628418,-3.912616729736328
1751214941968606200,5.753606201171875,0.5096150636672974,1.9432001113891602,-4.03633975982666
1751214941978600000,5.763599853515625,0.7211886644363403,1.7126960754394531,-3.9738242626190186
1751214941988594000,5.773593994140625,0.6759554147720337,1.4008746147155762,-3.7062249183654785
1751214941998587600,5.783587646484375,0.2935129404067993,1.0407772064208984,-3.3760364055633545
1751214942008581600,5.79358154296875,-0.5530372858047485,0.6874995231628418,-2.4488043785095215
1751214942018575400,5.803575439453125,-1.6677567958831787,0.25174379348754883,-1.2136964797973633
1751214942028569300,5.8135693359375,-1.2976537942886353,-0.6338553428649902,-0.16236591339111328
1751214942038563000,5.82356298828125,-0.9071000814437866,-1.517888069152832,0.501673698425293
1751214942048557000,5.83355712890625,-1.1511342525482178,-1.9722108840942383,0.39551782608032227
1751214942058550800,5.84355078125,-1.0906054973602295,-2.056468963623047,-0.2502126693725586
1751214942068544800,5.853544677734375,-0.8529635667800903,-1.8664002418518066,-0.5511136054992676
1751214942078538500,5.86353857421875,-0.39574122428894043,-1.61761474609375,-0.5823001861572266
1751214942088532500,5.873532470703125,-0.0442962646484375,-1.5092287063598633,-0.840336799621582
1751214942098526200,5.883526123046875,0.203732430934906,-1.6168122291564941,-1.4367375373840332
1751214942108520200,5.893520263671875,0.019273042678833008,-2.0796194076538086,-1.9157171249389648
1751214942118514000,5.903513916015625,-0.3895724415779114,-2.569504737854004,-2.0102200508117676
1751214942128508000,5.9135078125,-0.5509677529335022,-2.983409881591797,-1.911911964416504
1751214942138501600,5.923501708984375,-0.17574435472488403,-3.4892730712890625,-1.8540756702423096
1751214942148495600,5.93349560546875,0.5137183666229248,-4.014264106750488,-1.9012830257415771
1751214942158489300,5.9434892578125,1.2157588005065918,-4.529080390930176,-1.8854384422302246
1751214942168483300,5.9534833984375,1.9975602626800537,-4.891295433044434,-1.703165054321289
1751214942178477000,5.96347705078125,2.9191129207611084,-5.107852935791016,-1.2568271160125732
1751214942188471000,5.973470947265625,3.7415599822998047,-5.268319129943848,-0.4176788330078125
1751214942198464800,5.98346484375,4.0615057945251465,-5.276370048522949,0.7599868774414062
1751214942208458800,5.993458740234375,3.4722182750701904,-5.336272239685059,2.442464828491211
1751214942218452500,6.003452392578125,1.9123210906982422,-5.4895219802856445,4.058526992797852
1751214942228446500,6.013446533203125,-0.3561338484287262,-4.8577775955200195,4.935286998748779
1751214942238440200,6.023440185546875,-1.6613186597824097,-2.8526649475097656,4.444185256958008
1751214942248434200,6.03343408203125,-1.8988827466964722,-0.45345592498779297,2.9865145683288574
1751214942258428000,6.043427978515625,-1.4516410827636719,1.2619900703430176,1.3890912532806396
1751214942268422000,6.053421875,-0.9503691792488098,1.8386831283569336,0.5165309906005859
1751214942278415600,6.06341552734375,-0.5134806036949158,1.8101825714111328,0.11180996894836426
1751214942288409300,6.073409423828125,-0.29801681637763977,1.5450739860534668,-0.08960461616516113
1751214942298403300,6.0834033203125,-0.28820914030075073,1.0912055969238281,-0.3138387203216553
1751214942308397000,6.09339697265625,-0.4688546061515808,0.7355241775512695,-0.5466339588165283
1751214942318391000,6.10339111328125,-0.8074400424957275,0.6358222961425781,-0.8635115623474121
1751214942328384800,6.113384765625,-1.0923686027526855,0.8206081390380859,-1.2108449935913086
1751214942338378800,6.123378662109375,-1.3691906929016113,1.1229915618896484,-1.643465280532837
1751214942348372500,6.13337255859375,-1.4629781246185303,1.3190498352050781,-1.991716742515564
1751214942358366500,6.143366455078125,-1.3952151536941528,1.337773323059082,-2.078094959259033
1751214942368360200,6.153360107421875,-1.242112159729004,1.270380973815918,-1.9124464988708496
1751214942378354200,6.163354248046875,-1.0133171081542969,1.082932472229004,-1.574050784111023
1751214942388348000,6.173347900390625,-0.683279812335968,0.9996652603149414,-1.3227205276489258
1751214942398342000,6.183341796875,-0.2930259108543396,1.0250368118286133,-1.2058420181274414
1751214942408335600,6.193335693359375,0.14723804593086243,1.0873746871948242,-1.1026160717010498
1751214942418329600,6.20332958984375,0.565849244594574,1.1293745040893555,-0.9217392206192017
1751214942428323300,6.2133232421875,1.029181718826294,1.002913475036621,-0.6349623203277588
1751214942438317300,6.2233173828125,1.3013964891433716,0.8370304107666016,-0.3393533229827881
1751214942448311000,6.23331103515625,1.5103570222854614,0.8274984359741211,-0.10715556144714355
1751214942458305000,6.243304931640625,1.6115020513534546,0.9263010025024414,0.13929736614227295
1751214942468298800,6.253298828125,1.6759953498840332,0.9563169479370117,0.41870617866516113
1751214942478292700,6.263292724609375,1.6329116821289062,0.9990396499633789,0.7270631790161133
1751214942488286500,6.273286376953125,1.5723932981491089,0.9585666656494141,1.1439099311828613
1751214942498280400,6.283280517578125,1.4643468856811523,0.8682394027709961,1.533900260925293
1751214942508274200,6.293274169921875,1.2899980545043945,0.7613840103149414,1.9670135974884033
1751214942518268200,6.30326806640625,0.9923204183578491,0.6331186294555664,2.269857883453369
1751214942528262000,6.313261962890625,0.728955090045929,0.6408538818359375,2.6552681922912598
1751214942538256000,6.323255859375,0.3249140977859497,0.5165719985961914,2.994703769683838
1751214942548249600,6.33324951171875,-0.04578274488449097,0.3322744369506836,3.0703587532043457
1751214942558243600,6.34324365234375,-0.5525245666503906,0.207916259765625,2.9256136417388916
1751214942568237300,6.3532373046875,-1.0273326635360718,0.33034801483154297,2.7185959815979004
1751214942578231300,6.363231201171875,-1.541774868965149,0.4943981170654297,2.2014832496643066
1751214942588225000,6.37322509765625,-2.12266206741333,0.5722846984863281,1.4639525413513184
1751214942598219000,6.383218994140625,-2.1472203731536865,0.6126031875610352,0.9378608465194702
1751214942608212700,6.393212646484375,-2.0425117015838623,0.6827774047851562,0.3260904550552368
1751214942618206700,6.403206787109375,-2.016017436981201,0.46764183044433594,0.10041224956512451
1751214942628200400,6.413200439453125,-1.75387442111969,0.24472618103027344,0.33533209562301636
1751214942638194400,6.4231943359375,-1.2746707201004028,0.27168846130371094,0.3013661503791809
1751214942648188200,6.433188232421875,-0.6366705894470215,0.3134145736694336,0.2795143127441406
1751214942658182100,6.44318212890625,0.1764594316482544,0.38811397552490234,0.14682304859161377
1751214942668176000,6.45317578125,0.7818306684494019,0.6529150009155273,-0.2550548315048218
1751214942678169900,6.463169921875,1.3393490314483643,0.6388339996337891,-0.4087374806404114
1751214942688163600,6.47316357421875,2.6036386489868164,0.6411361694335938,-0.663560688495636
1751214942698157600,6.483157470703125,2.2971444129943848,0.5781631469726562,-1.0713013410568237
1751214942708151300,6.4931513671875,2.404438018798828,0.5845680236816406,-1.5711643695831299
1751214942718145300,6.503145263671875,2.5935869216918945,0.5928926467895508,-1.8230175971984863
1751214942728139000,6.513138916015625,2.806112289428711,0.8073673248291016,-2.2907028198242188
1751214942738133000,6.523133056640625,2.5465259552001953,1.1313657760620117,-3.0900826454162598
1751214942748126700,6.533126708984375,2.17783784866333,1.3544530868530273,-3.7818610668182373
1751214942758120700,6.54312060546875,1.4599838256835938,1.5928287506103516,-4.231174468994141
1751214942768114400,6.553114501953125,0.7694153785705566,1.7860941886901855,-4.089820861816406
1751214942778108400,6.5631083984375,0.517230749130249,1.8674836158752441,-3.438185453414917
1751214942788102100,6.57310205078125,0.45447516441345215,1.754697322845459,-2.36694598197937
1751214942798096100,6.58309619140625,0.047861576080322266,1.4330644607543945,-0.9529682397842407
1751214942808089900,6.59308984375,-1.2204179763793945,0.8516178131103516,0.6246141791343689
1751214942818083800,6.603083740234375,-3.537607192993164,-0.2772369384765625,2.1456408500671387
1751214942828077600,6.61307763671875,-6.493670463562012,-1.8612604141235352,3.483253240585327
1751214942838071600,6.623071533203125,-9.125404357910156,-3.2050390243530273,4.875179767608643
1751214942848065300,6.633065185546875,-9.7416353225708,-4.085213661193848,6.298895835876465
1751214942858059300,6.643059326171875,-8.053728103637695,-4.508594512939453,7.203954696655273
1751214942868053000,6.653052978515625,-5.074522018432617,-4.118521690368652,6.993314743041992
1751214942878047000,6.663046875,-1.9617831707000732,-2.9330368041992188,5.615497589111328
1751214942888040700,6.673040771484375,0.5940589904785156,-1.7524337768554688,3.6903629302978516
1751214942898034700,6.68303466796875,2.271249771118164,-1.120213508605957,1.8316900730133057
1751214942908028400,6.6930283203125,3.105530023574829,-1.0647125244140625,0.3009464144706726
1751214942918022400,6.7030224609375,3.036705255508423,-1.0764884948730469,-0.7375194430351257
1751214942928016100,6.71301611328125,2.367910146713257,-0.8133659362792969,-1.4660794734954834
1751214942938010000,6.723010009765625,1.582388162612915,-0.40254974365234375,-1.7680045366287231
1751214942948003800,6.73300390625,1.1342270374298096,-0.3299398422241211,-1.3122291564941406
1751214942957997800,6.742997802734375,1.0494840145111084,-0.5424127578735352,-0.42346101999282837
1751214942967991600,6.752991455078125,1.0798792839050293,-0.7393159866333008,0.5373657941818237
1751214942977985300,6.7629853515625,1.0312724113464355,-0.9499578475952148,1.5198572874069214
1751214942987979300,6.772979248046875,0.6749560832977295,-1.20269775390625,2.3549227714538574
1751214942997973000,6.782972900390625,0.10523486137390137,-1.415353775024414,2.8027608394622803
1751214943007967000,6.792967041015625,-0.5505294799804688,-1.7116918563842773,2.8277523517608643
1751214943017960700,6.802960693359375,-1.1707416772842407,-2.100874900817871,2.376795768737793
1751214943027954700,6.81295458984375,-1.553114414215088,-2.47760009765625,1.5472781658172607
1751214943037948400,6.822948486328125,-1.5824235677719116,-3.0041027069091797,0.9190335273742676
1751214943047942400,6.8329423828125,-1.454831838607788,-3.450763702392578,0.287462443113327
1751214943057936100,6.84293603515625,-1.2562662363052368,-3.9133729934692383,-0.2744922637939453
1751214943067930000,6.85293017578125,-1.0351746082305908,-4.35880184173584,-0.8130196332931519
1751214943077923800,6.862923828125,-0.9487322568893433,-4.873098373413086,-1.0023672580718994
1751214943087917800,6.872917724609375,-0.8586183786392212,-5.141094207763672,-0.9686045050621033
1751214943097911600,6.88291162109375,-0.895371675491333,-5.020639419555664,-0.6560500860214233
1751214943107905500,6.892905517578125,-1.126210331916809,-4.675323486328125,-0.11180517077445984
1751214943117899300,6.902899169921875,-1.535251498222351,-4.191527366638184,0.4008166193962097
1751214943127893200,6.912893310546875,-2.009275197982788,-3.6599655151367188,0.7962000966072083
1751214943137887000,6.922886962890625,-2.620957851409912,-3.0136985778808594,0.9051632285118103
1751214943147881000,6.932880859375,-3.3811798095703125,-2.3344783782958984,0.8347135186195374
1751214943157874700,6.942874755859375,-4.176415920257568,-1.694528579711914,0.7782493233680725
1751214943167868700,6.95286865234375,-4.875231742858887,-1.0899152755737305,0.8465719819068909
1751214943177862400,6.9628623046875,-5.437902927398682,-0.6795272827148438,0.9966517686843872
1751214943187856400,6.9728564453125,-5.7981977462768555,-0.6749773025512695,1.265614628791809
1751214943197850000,6.98285009765625,-5.945797443389893,-1.14453125,1.6804935932159424
1751214943207844000,6.992843994140625,-5.796151638031006,-1.9365978240966797,2.305813789367676
1751214943217837800,7.002837890625,-4.881836414337158,-2.517702102661133,2.993983507156372
1751214943227831800,7.012831787109375,-2.8390560150146484,-2.1302623748779297,3.0792007446289062
1751214943237825500,7.022825439453125,0.049330323934555054,-1.139988899230957,2.5956687927246094
1751214943247819500,7.032819580078125,3.0329980850219727,-0.6469478607177734,1.8430267572402954
1751214943257813200,7.042813232421875,5.311532497406006,-0.9451904296875,0.8233363628387451
1751214943267807200,7.05280712890625,6.681475639343262,-1.3378839492797852,-0.34446609020233154
1751214943277801000,7.062801025390625,7.904332160949707,-1.4300174713134766,-1.3673605918884277
1751214943287795000,7.072794921875,8.21401309967041,-1.013559341430664,-2.426671028137207
1751214943297788700,7.08278857421875,8.261486053466797,-0.4065370559692383,-3.2782652378082275
1751214943307782700,7.09278271484375,9.11418342590332,0.007182121276855469,-4.057643890380859
1751214943317776400,7.1027763671875,10.493062973022461,0.036144256591796875,-4.178258419036865
1751214943327770400,7.112770263671875,9.68037223815918,-0.051372528076171875,-3.997964859008789
1751214943337764000,7.12276416015625,7.672543525695801,0.15271663665771484,-3.658419132232666
1751214943347758000,7.132758056640625,1.8389707803726196,-0.5907354354858398,-1.2417047023773193
1751214943357751800,7.142751708984375,-8.6698579788208,-2.2479991912841797,3.243171453475952
1751214943367745800,7.152745849609375,-15.801656723022461,-3.073716163635254,7.027487754821777
1751214943377739500,7.162739501953125,-8.966562271118164,-1.6963062286376953,6.175729274749756
1751214943387733500,7.1727333984375,-1.252336859703064,-0.4689016342163086,3.4039220809936523
1751214943397727200,7.182727294921875,3.192186117172241,-0.3850288391113281,0.5690188407897949
1751214943407721200,7.19272119140625,3.8169562816619873,-0.9651851654052734,-1.919830560684204
1751214943417715000,7.20271484375,3.0025582313537598,-1.2071638107299805,-4.064041614532471
1751214943427709000,7.212708984375,2.0349860191345215,-1.1149663925170898,-5.435600757598877
1751214943437702700,7.22270263671875,1.1230076551437378,-0.8894052505493164,-6.053158760070801
1751214943447696600,7.232696533203125,0.48062247037887573,-0.6361103057861328,-6.064713001251221
1751214943457690400,7.2426904296875,0.3304262161254883,-0.5553064346313477,-5.644484996795654
1751214943467684400,7.252684326171875,0.1626022458076477,-0.5789909362792969,-4.852220058441162
1751214943477678000,7.262677978515625,-0.027983427047729492,-0.4687767028808594,-4.368095397949219
1751214943487672000,7.272672119140625,0.06696915626525879,-0.5944600105285645,-3.9491565227508545
1751214943497665800,7.282665771484375,0.39803850650787354,-0.6823782920837402,-4.09932804107666
1751214943507659800,7.29265966796875,0.4878719449043274,-0.513826847076416,-4.76453971862793
1751214943517653500,7.302653564453125,0.4278520345687866,-0.03503704071044922,-5.630856037139893
1751214943527647500,7.3126474609375,0.7339484691619873,0.6398448944091797,-6.367831230163574
1751214943537641200,7.32264111328125,1.2246580123901367,1.362497329711914,-6.899720191955566
1751214943547635200,7.33263525390625,1.2499459981918335,2.195173740386963,-7.442821979522705
1751214943557629000,7.34262890625,1.1778215169906616,2.2600526809692383,-7.305285930633545
1751214943567623000,7.352622802734375,1.3642213344573975,2.1980838775634766,-6.916550636291504
1751214943577616600,7.36261669921875,1.5248439311981201,2.5394511222839355,-6.526232719421387
1751214943587610600,7.372610595703125,1.3575471639633179,2.7908272743225098,-5.962684154510498
1751214943597604400,7.382604248046875,1.1356163024902344,2.8223721981048584,-5.35660457611084
1751214943607598300,7.392598388671875,1.0586408376693726,2.8324692249298096,-4.7348737716674805
1751214943617592000,7.402592041015625,1.1142393350601196,2.9284963607788086,-4.219691276550293
1751214943627586000,7.4125859375,1.1127123832702637,3.113166332244873,-3.980149745941162
1751214943637579800,7.422579833984375,1.0578176975250244,3.28037428855896,-3.9447736740112305
1751214943647573800,7.43257373046875,1.2922871112823486,3.395944118499756,-3.99928617477417
1751214943657567500,7.4425673828125,1.4731160402297974,3.4884071350097656,-4.07252311706543
1751214943667561500,7.4525615234375,1.3879042863845825,3.495779514312744,-4.189488410949707
1751214943677555200,7.46255517578125,1.1819062232971191,3.4099748134613037,-4.449625015258789
1751214943687549200,7.472549072265625,1.21388840675354,3.175931930541992,-4.697293758392334
1751214943697543000,7.48254296875,0.9356487989425659,2.819458484649658,-4.901352882385254
1751214943707537000,7.492536865234375,-1.406549096107483,2.277357578277588,-4.599484443664551
1751214943717531000,7.50253076171875,-3.295870304107666,1.3177056312561035,-3.1638123989105225
1751214943727524600,7.512524658203125,-1.8365572690963745,0.10547256469726562,-1.6302995681762695
1751214943737518600,7.5225185546875,1.190394639968872,-0.8975539207458496,-0.12062597274780273
1751214943747512600,7.5325126953125,2.935657024383545,-2.379856586456299,1.187307357788086
1751214943757506600,7.542506591796875,1.6445542573928833,-4.399377822875977,2.4661335945129395
1751214943767500300,7.552500244140625,0.28646203875541687,-5.837702751159668,3.279674530029297
1751214943777494300,7.562494384765625,0.5948485732078552,-6.300359725952148,3.2977962493896484
1751214943787488300,7.57248828125,1.5676486492156982,-5.968709945678711,2.558934211730957
1751214943797482000,7.58248193359375,1.258160948753357,-4.838293075561523,1.6710848808288574
1751214943807476000,7.59247607421875,0.4969095289707184,-3.6258254051208496,1.3326334953308105
1751214943817470000,7.602469970703125,0.44132572412490845,-2.6099863052368164,0.7545685768127441
1751214943827463700,7.612463623046875,0.696953535079956,-2.055344581604004,-0.16658258438110352
1751214943837457700,7.622457763671875,1.1103572845458984,-2.10092830657959,-0.9531459808349609
1751214943847451600,7.63245166015625,1.3717217445373535,-2.704669952392578,-1.5433495044708252
1751214943857445600,7.642445556640625,1.1600147485733032,-3.4533281326293945,-1.7185587882995605
1751214943867439400,7.652439453125,0.6193562150001526,-4.005581855773926,-0.9469780921936035
1751214943877433300,7.662433349609375,-0.2763076722621918,-4.257805824279785,0.7370901107788086
1751214943887427300,7.67242724609375,-1.4318197965621948,-4.4835052490234375,2.6868300437927246
1751214943897421000,7.682421142578125,-2.394460439682007,-4.8770551681518555,4.544731616973877
1751214943907415000,7.6924150390625,-2.6025311946868896,-5.1866254806518555,4.870073318481445
1751214943917409000,7.702408935546875,-2.7494020462036133,-3.849454879760742,3.020256519317627
1751214943927402800,7.71240283203125,-2.558694362640381,-1.9312667846679688,1.441439151763916
1751214943937396700,7.722396728515625,-1.9754555225372314,-0.36342334747314453,0.3061957359313965
1751214943947390700,7.732390625,-1.2715487480163574,0.6746339797973633,-0.6667125225067139
1751214943957384400,7.742384521484375,-0.6496056318283081,1.2944483757019043,-1.6006457805633545
1751214943967378400,7.75237841796875,-0.14560002088546753,1.831151008605957,-2.3555212020874023
1751214943977372400,7.762372314453125,0.3023306727409363,2.116858959197998,-2.625457763671875
1751214943987366400,7.772366455078125,0.45416325330734253,1.988511085510254,-2.5700464248657227
1751214943997360000,7.782360107421875,0.48945707082748413,1.680128574371338,-2.2921266555786133
1751214944007354000,7.79235400390625,0.3624603748321533,1.3540325164794922,-1.970696210861206
1751214944017348000,7.80234814453125,0.32284337282180786,0.9433956146240234,-1.7742069959640503
1751214944027341800,7.812341796875,0.3188682198524475,0.5541954040527344,-1.7108055353164673
1751214944037335800,7.822335693359375,0.39152300357818604,0.2396860122680664,-1.6546266078948975
1751214944047329800,7.832329833984375,0.4342759847640991,0.00537109375,-1.570166826248169
1751214944057323500,7.842323486328125,0.47680211067199707,0.004405021667480469,-1.4749782085418701
1751214944067317500,7.8523173828125,0.36608392000198364,0.10279560089111328,-1.3245158195495605
1751214944077311500,7.8623115234375,0.1051824688911438,0.3145103454589844,-1.1898081302642822
1751214944087305500,7.872305419921875,-0.17163944244384766,0.8113069534301758,-1.1890910863876343
1751214944097299200,7.88229931640625,-0.5106310844421387,1.2724189758300781,-1.1305805444717407
1751214944107293200,7.892293212890625,-0.6536241769790649,1.5687904357910156,-0.8538634777069092
1751214944117287200,7.902287109375,-0.7929043769836426,1.7340302467346191,-0.42903435230255127
1751214944127281000,7.912281005859375,-0.8633660078048706,1.806516170501709,0.10251212120056152
1751214944137275000,7.92227490234375,-0.7250458598136902,1.5618219375610352,0.6705702543258667
1751214944147268600,7.9322685546875,-0.48534321784973145,1.0531864166259766,1.0828245878219604
1751214944157262600,7.9422626953125,-0.16194993257522583,0.5392560958862305,1.3404815196990967
1751214944167256300,7.95225634765625,0.1897965669631958,0.16319656372070312,1.6201683282852173
1751214944177250300,7.962250244140625,0.5158953666687012,0.020104408264160156,1.8442989587783813
1751214944187244000,7.972244140625,0.7630788087844849,0.1286630630493164,1.9799765348434448
1751214944197238000,7.982238037109375,0.9041157960891724,0.23045635223388672,2.1022677421569824
1751214944207231700,7.992231689453125,0.8900083303451538,0.2924690246582031,2.176035165786743
1751214944217225700,8.002225830078125,0.7453610897064209,0.3436260223388672,2.109665870666504
1751214944227219500,8.012219482421875,0.5320558547973633,0.40332603454589844,1.87150239944458
1751214944237213400,8.02221337890625,0.3588290214538574,0.43358612060546875,1.6131091117858887
1751214944247207200,8.032207275390626,0.21465563774108887,0.37253379821777344,1.4424448013305664
1751214944257201200,8.042201171875,0.18122589588165283,0.3064851760864258,1.3879764080047607
1751214944267195000,8.05219482421875,0.46336209774017334,0.2974052429199219,1.4570801258087158
1751214944277188900,8.06218896484375,0.7372610569000244,0.34951019287109375,1.4141229391098022
1751214944287182600,8.0721826171875,1.0011259317398071,0.49120616912841797,1.2463781833648682
1751214944297176600,8.082176513671875,1.256654143333435,0.592890739440918,1.0637784004211426
1751214944307170300,8.09217041015625,1.2921414375305176,0.7166328430175781,0.7248729467391968
1751214944317164000,8.1021640625,1.114675760269165,0.714569091796875,0.4465978145599365
1751214944327158000,8.112157958984374,0.595149040222168,0.6066761016845703,0.15816372632980347
1751214944337151700,8.12215185546875,0.11477029323577881,0.5608110427856445,-0.08758533000946045
1751214944347145700,8.132145751953125,-0.3860328197479248,0.6011333465576172,-0.3093346357345581
1751214944357139500,8.142139404296875,-0.871442973613739,0.6658992767333984,-0.6002354621887207
1751214944367133400,8.152133544921876,-1.3497027158737183,0.67437744140625,-0.8751440048217773
1751214944377127200,8.162127197265624,-1.3887509107589722,0.6463737487792969,-0.9978151321411133
1751214944387121200,8.17212109375,-1.0848572254180908,0.500798225402832,-0.9024529457092285
1751214944397115000,8.182114990234375,-0.5323113203048706,0.39496326446533203,-0.7638736963272095
1751214944407108900,8.19210888671875,-0.14075005054473877,0.3759746551513672,-0.7164796590805054
1751214944417102600,8.2021025390625,-0.08858358860015869,0.1900653839111328,-0.5118842124938965
1751214944427096600,8.2120966796875,-0.15171456336975098,0.07146644592285156,-0.26464492082595825
1751214944437090300,8.22209033203125,-0.22091543674468994,0.005497932434082031,0.10722634196281433
1751214944447084300,8.232084228515625,-0.26338207721710205,-0.10374736785888672,0.8025990128517151
1751214944457078000,8.242078125,-0.17427515983581543,-0.08921623229980469,1.549023985862732
1751214944467072000,8.252072021484375,-0.09700942039489746,0.0630483627319336,2.0656495094299316
1751214944477065700,8.262065673828126,-0.14629197120666504,0.12817955017089844,2.3358123302459717
1751214944487059700,8.272059814453126,-0.4544055461883545,0.1161947250366211,2.349236249923706
1751214944497053400,8.282053466796874,-0.9787942171096802,0.1092233657836914,2.122485876083374
1751214944507047400,8.29204736328125,-1.433096170425415,0.10325241088867188,1.972745418548584
1751214944517041200,8.302041259765625,-1.614091157913208,0.08447933197021484,1.8999665975570679
1751214944537028900,8.32202880859375,-1.3683973550796509,-0.09702777862548828,1.7371604442596436
1751214944547022800,8.33202294921875,-0.9171974658966064,-0.1931905746459961,1.7373504638671875
1751214944557016600,8.3420166015625,-0.4199894666671753,-0.21689987182617188,1.6420938968658447
1751214944567010600,8.352010498046875,-0.10378217697143555,-0.17351150512695312,1.433680534362793
1751214944577004500,8.362004638671875,0.13580143451690674,-0.11590957641601562,1.2096364498138428
1751214944586998300,8.371998291015625,0.17380356788635254,-0.12069892883300781,1.018615961074829
1751214944596992300,8.3819921875,0.16810202598571777,-0.18296432495117188,0.8387753367424011
1751214944606986200,8.391986328125,0.23914742469787598,-0.2976417541503906,0.7136105895042419
1751214944616980000,8.40197998046875,0.42145800590515137,-0.4405345916748047,0.6194475293159485
1751214944626974000,8.411973876953125,0.6526867151260376,-0.6354837417602539,0.5826893448829651
1751214944636968000,8.421968017578125,0.8654321432113647,-0.6770420074462891,0.5356829166412354
1751214944646961700,8.431961669921876,1.0592231750488281,-0.6755285263061523,0.44546669721603394
1751214944656955600,8.44195556640625,1.3813505172729492,-0.92730712890625,0.4159298837184906
1751214944666949600,8.45194970703125,1.9151846170425415,-1.1979942321777344,0.38732486963272095
1751214944676943400,8.461943359375,2.621126651763916,-1.3019428253173828,0.1497955024242401
1751214944686937300,8.471937255859375,3.111091136932373,-1.5554542541503906,-0.18917277455329895
1751214944696931300,8.481931396484375,3.258371353149414,-1.9776220321655273,-0.5132048726081848
1751214944706925300,8.49192529296875,3.0528571605682373,-2.233905792236328,-0.9911475777626038
1751214944716919000,8.5019189453125,2.301210880279541,-2.4774999618530273,-1.4999186992645264
1751214944726913000,8.5119130859375,0.8936129808425903,-2.826915740966797,-1.837682843208313
1751214944736907000,8.521906982421875,-0.7738451957702637,-3.270665168762207,-1.7850574254989624
1751214944746900700,8.531900634765625,-2.218702793121338,-3.730010986328125,-1.251105546951294
1751214944756894700,8.541894775390626,-3.0224342346191406,-4.050747871398926,-0.3816179037094116
1751214944766888700,8.551888671875,-2.885768413543701,-4.247596740722656,0.6311131715774536
1751214944776882400,8.56188232421875,-2.1578149795532227,-4.446301460266113,1.5425716638565063
1751214944786876400,8.57187646484375,-1.32259202003479,-4.571898460388184,2.33107852935791
1751214944796870400,8.581870361328125,-0.7227509021759033,-4.377252578735352,2.9220447540283203
1751214944806864400,8.591864501953125,-0.5910198092460632,-3.8826904296875,3.2279391288757324
1751214944816858000,8.601858154296876,-0.8977386951446533,-3.3372621536254883,3.3862462043762207
1751214944826852000,8.61185205078125,-1.6526776552200317,-2.6308441162109375,3.21575927734375
1751214944836846000,8.62184619140625,-2.7089297771453857,-1.9637870788574219,2.9055843353271484
1751214944846839800,8.63183984375,-3.866330146789551,-1.4691572189331055,2.7056121826171875
1751214944856833800,8.641833740234375,-4.897289276123047,-1.0269269943237305,2.496279001235962
1751214944866827800,8.651827880859376,-5.591251373291016,-0.6708583831787109,2.3682680130004883
1751214944876821500,8.661821533203126,-5.56229305267334,-0.5740509033203125,2.490907669067383
1751214944886815500,8.6718154296875,-4.614034652709961,-0.5516090393066406,2.8019909858703613
1751214944896809500,8.6818095703125,-2.9946436882019043,-0.4428987503051758,3.0920777320861816
1751214944906803200,8.69180322265625,-1.1836051940917969,-0.3020038604736328,3.3060970306396484
1751214944916797200,8.701797119140625,0.43196550011634827,-0.2536783218383789,3.347872734069824
1751214944926791200,8.711791259765626,1.7381205558776855,-0.2497262954711914,3.1863973140716553
1751214944936785200,8.72178515625,2.716590404510498,-0.18932342529296875,2.8493151664733887
1751214944946779000,8.73177880859375,3.155048370361328,-0.1584177017211914,2.4169511795043945
1751214944956772900,8.74177294921875,3.001331329345703,-0.267059326171875,1.9360404014587402
1751214944976760600,8.761760498046876,1.4904048442840576,-0.616694450378418,0.4335660934448242
1751214944986754600,8.771754638671876,0.9689708948135376,-0.9342765808105469,-0.3092074394226074
1751214944996748500,8.78174853515625,0.7494992613792419,-1.0185976028442383,-1.1544667482376099
1751214945006742300,8.7917421875,0.9517205953598022,-0.6778335571289062,-2.043851852416992
1751214945016736300,8.801736328125,1.273271083831787,-0.2692384719848633,-2.9331095218658447
1751214945026730200,8.811730224609375,2.031677484512329,-0.11118030548095703,-3.379572868347168
1751214945036724200,8.82172412109375,2.423433780670166,-0.034844398498535156,-3.3944315910339355
1751214945046718000,8.831718017578124,2.283745288848877,0.13827228546142578,-3.3261301517486572
1751214945056712000,8.8417119140625,1.6888508796691895,0.0928964614868164,-2.7519161701202393
1751214945066706000,8.851705810546875,0.9044539332389832,-0.03909015655517578,-1.829749584197998
1751214945076699600,8.86169970703125,0.4662466049194336,-0.0831298828125,-1.1221857070922852
1751214945086693600,8.871693603515626,0.6144332885742188,0.01699352264404297,-0.7984514236450195
1751214945096687600,8.8816875,1.2807444334030151,0.007729530334472656,-0.8381516933441162
1751214945106681300,8.891681396484374,2.1658520698547363,-0.0240936279296875,-1.0660450458526611
1751214945116675300,8.90167529296875,2.8374509811401367,0.01728534698486328,-1.4277992248535156
1751214945126669300,8.91166943359375,2.8985047340393066,0.0030450820922851562,-1.8258779048919678
1751214945136663000,8.9216630859375,2.0104212760925293,-0.0663003921508789,-2.086648464202881
1751214945146657000,8.931656982421876,0.6978543996810913,-0.15186786651611328,-2.1280438899993896
1751214945156651000,8.941651123046874,-0.4133185148239136,-0.24464035034179688,-1.8755567073822021
1751214945166645000,8.95164501953125,-0.859750509262085,-0.37523746490478516,-1.5909218788146973
1751214945176638700,8.961638671875,-0.6814296245574951,-0.3477954864501953,-1.856703758239746
1751214945186632700,8.9716328125,0.0447847843170166,-0.25521373748779297,-2.252006769180298
1751214945196626700,8.981626708984376,0.7128341794013977,-0.2964344024658203,-2.483405590057373
1751214945206620400,8.991620361328126,1.041416883468628,-0.43242835998535156,-2.536700963973999
1751214945216614400,9.001614501953124,0.9943442344665527,-0.46288013458251953,-2.494448184967041
1751214945226608400,9.0116083984375,0.6842564344406128,-0.4174337387084961,-2.4198246002197266
1751214945236602000,9.02160205078125,0.38971227407455444,-0.38341522216796875,-2.300041913986206
1751214945246596000,9.03159619140625,0.5295600295066833,-0.24068260192871094,-2.372504472732544
1751214945256590000,9.041590087890626,1.0702204704284668,-0.21286773681640625,-2.515925168991089
1751214945266584000,9.051583984375,1.0136871337890625,-0.23726654052734375,-2.7403228282928467
1751214945276577800,9.061577880859375,0.36298954486846924,-0.17853593826293945,-3.0496082305908203
1751214945286571800,9.07157177734375,0.19897973537445068,0.2815890312194824,-3.4442451000213623
1751214945296565800,9.081565673828125,0.36180973052978516,0.1824359893798828,-3.3931772708892822
1751214945306559500,9.0915595703125,0.49242424964904785,0.5822834968566895,-3.6561710834503174
1751214945316553500,9.101553466796876,0.25808441638946533,0.6889925003051758,-3.696723222732544
1751214945326547200,9.111547119140624,0.01362919807434082,0.6542582511901855,-3.67163348197937
1751214945336541200,9.121541259765625,0.05526077747344971,0.7267427444458008,-3.65796160697937
1751214945346535000,9.131534912109375,0.19053781032562256,0.5795845985412598,-3.485959053039551
1751214945356529000,9.14152880859375,0.48713040351867676,1.0914559364318848,-3.8018290996551514
1751214945366522600,9.151522705078126,0.27432918548583984,0.9321603775024414,-3.5644779205322266
1751214945376516600,9.1615166015625,0.03525388240814209,0.8068747520446777,-3.361574411392212
1751214945386510300,9.17151025390625,0.03235208988189697,0.5321416854858398,-3.080348014831543
1751214945396504300,9.18150439453125,0.1443164348602295,0.7453656196594238,-3.1544885635375977
1751214945406498000,9.191498046875,0.2739826440811157,1.007084846496582,-3.1478638648986816
1751214945416492000,9.201491943359375,0.3100616931915283,0.9201607704162598,-2.908842086791992
1751214945426485800,9.21148583984375,0.22491466999053955,1.1743340492248535,-3.067418098449707
1751214945436479700,9.221479736328124,-0.1346982717514038,1.0265378952026367,-2.931936740875244
1751214945446473500,9.231473388671875,-0.45384323596954346,1.044661521911621,-2.8569579124450684
1751214945456467500,9.241467529296875,-0.3490891456604004,1.1625065803527832,-2.7932143211364746
1751214945466461200,9.251461181640625,0.09030032157897949,1.1463537216186523,-2.5544590950012207
1751214945476455200,9.261455078125,0.27237188816070557,0.9860749244689941,-2.2336153984069824
1751214945486449000,9.271448974609376,0.048540711402893066,0.871976375579834,-2.0422773361206055
1751214945496442600,9.281442626953124,-0.20932507514953613,0.8899035453796387,-1.9792389869689941
1751214945506436600,9.2914365234375,0.005589008331298828,0.9543709754943848,-2.0085978507995605
1751214945516430300,9.301430419921875,0.21620988845825195,0.9756150245666504,-2.1477279663085938
1751214945526424300,9.31142431640625,0.22503149509429932,0.9881086349487305,-2.24776554107666
1751214945536418000,9.32141796875,0.09900879859924316,1.05955171585083,-2.4226608276367188
1751214945546412000,9.331412109375,0.07745528221130371,1.1052746772766113,-2.751833438873291
1751214945556405800,9.34140576171875,0.09512484073638916,1.0929679870605469,-3.0325534343719482
1751214945566399700,9.351399658203125,-0.45036256313323975,1.0368704795837402,-3.0356266498565674
1751214945576393500,9.3613935546875,-1.2584455013275146,0.8008913993835449,-2.3199338912963867
1751214945596381200,9.381381103515626,-1.2826638221740723,-0.6057577133178711,-0.143829345703125
1751214945606375200,9.391375244140624,-1.1497912406921387,-1.2719573974609375,0.5036807060241699
1751214945616369000,9.401368896484374,-1.1010702848434448,-1.6856513023376465,0.6886653900146484
1751214945626363000,9.41136279296875,-1.0506951808929443,-1.905057430267334,0.5944333076477051
1751214945636356900,9.42135693359375,-0.9500370025634766,-1.9628863334655762,0.39511632919311523
1751214945646350600,9.4313505859375,-0.8239504098892212,-1.9041223526000977,0.1700000762939453
1751214945656344600,9.441344482421876,-0.7408170700073242,-1.7219634056091309,-0.0836324691772461
1751214945666338600,9.451338623046874,-0.15108370780944824,-1.5923857688903809,-0.2816495895385742
1751214945676332300,9.461332275390625,0.6338328123092651,-1.5537433624267578,-0.3171510696411133
1751214945686326300,9.471326171875,0.5511139631271362,-1.6507081985473633,-0.24454259872436523
1751214945696320300,9.4813203125,0.15583568811416626,-1.779343605041504,-0.29509925842285156
1751214945706314000,9.49131396484375,0.48074525594711304,-1.9192299842834473,-0.5574026107788086
1751214945726302000,9.511302001953124,1.8990451097488403,-2.403646945953369,-0.9757547378540039
1751214945736296000,9.5212958984375,2.2918624877929688,-2.6953516006469727,-1.0109248161315918
1751214945746289700,9.53128955078125,2.976616144180298,-3.020875930786133,-0.9954690933227539
1751214945756283600,9.54128369140625,3.760446786880493,-3.424022674560547,-1.0632977485656738
1751214945766277600,9.551277587890626,3.935692310333252,-3.4707508087158203,-0.8180751800537109
1751214945776271400,9.561271240234374,3.668092727661133,-3.4215316772460938,0.20598554611206055
1751214945786265300,9.571265380859375,2.8824195861816406,-3.601670265197754,2.3820290565490723
1751214945796259300,9.58125927734375,1.2265572547912598,-4.529213905334473,5.585354804992676
1751214945806253000,9.591253173828125,-0.6176509857177734,-5.985843658447266,8.206233978271484
1751214945816247000,9.6012470703125,-2.6835689544677734,-5.613759994506836,7.798630714416504
1751214945826241000,9.611240966796874,-3.1668570041656494,-2.943375587463379,5.069869041442871
1751214945836235000,9.621235107421874,-2.683945417404175,-0.5906295776367188,2.901881217956543
1751214945846228700,9.631228759765625,-1.9478857517242432,0.6076498031616211,1.012753963470459
1751214945856222700,9.64122265625,-1.7461481094360352,1.0206298828125,-0.4073169231414795
1751214945866216700,9.651216796875,-1.4944262504577637,1.3545756340026855,-1.4594635963439941
1751214945876210400,9.66121044921875,-1.3352361917495728,1.5144100189208984,-1.864433765411377
1751214945886204400,9.671204345703124,-1.3487447500228882,1.407595157623291,-1.7455532550811768
1751214945896198400,9.681198486328125,-1.453840970993042,1.2912888526916504,-1.5249135494232178
1751214945906192100,9.691192138671875,-1.486393928527832,1.1740398406982422,-1.3560912609100342
1751214945916186000,9.70118603515625,-1.3370506763458252,1.0512123107910156,-1.2183482646942139
1751214945926180000,9.71118017578125,-1.0501614809036255,0.9224119186401367,-0.9406824111938477
1751214945936173800,9.721173828125,-0.6695653200149536,0.7533731460571289,-0.726691484451294
1751214945946167800,9.731167724609374,-0.241590678691864,0.8397636413574219,-0.5310168266296387
1751214945956161800,9.741161865234375,0.15700626373291016,1.066359519958496,-0.5165078639984131
1751214945966155800,9.75115576171875,0.38638123869895935,1.1464157104492188,-0.5487885475158691
1751214945976149500,9.7611494140625,0.4329316020011902,1.138113021850586,-0.6219601631164551
1751214945986143500,9.7711435546875,0.4794061779975891,1.1277971267700195,-0.6118123531341553
1751214945996137500,9.781137451171874,0.6025501489639282,1.2543001174926758,-0.6707479953765869
1751214946006131200,9.791131103515625,0.6827547550201416,1.3646459579467773,-0.6882623434066772
1751214946016125200,9.801125244140625,0.8165653347969055,1.4160184860229492,-0.6739094257354736
1751214946026119200,9.811119140625,0.9526546597480774,1.461400032043457,-0.6461124420166016
1751214946036113000,9.82111279296875,0.9629378318786621,1.424300193786621,-0.510040283203125
1751214946046107000,9.83110693359375,0.9238709211349487,1.362020492553711,-0.3674427270889282
1751214946056100900,9.841100830078124,0.858339786529541,1.3080062866210938,-0.32860052585601807
1751214946066094800,9.8510947265625,0.7168141603469849,1.1907072067260742,-0.2875955104827881
1751214946076088600,9.861088623046875,0.5028887987136841,1.0535917282104492,-0.22842764854431152
1751214946086082600,9.87108251953125,0.255084753036499,0.9161405563354492,-0.03957927227020264
1751214946096076500,9.88107666015625,0.09076333045959473,0.7591209411621094,0.27268970012664795
1751214946106070300,9.8910703125,-0.030134737491607666,0.7212333679199219,0.4787166118621826
1751214946116064300,9.901064208984375,-0.062001824378967285,0.7116460800170898,0.6317036151885986
1751214946126058200,9.911058349609375,-0.02763471007347107,0.6108846664428711,0.7981293201446533
1751214946136052000,9.921052001953125,0.08706468343734741,0.4093637466430664,1.0094510316848755
1751214946146046000,9.9310458984375,0.23314917087554932,0.24085330963134766,1.2161227464675903
1751214946156040000,9.9410400390625,0.41778671741485596,0.13847637176513672,1.3975911140441895
1751214946166034000,9.951033935546874,0.5991833806037903,0.02055644989013672,1.518754005432129
1751214946176027600,9.961027587890625,0.7118170857429504,-0.046090126037597656,1.5367207527160645
1751214946186021600,9.971021728515625,0.8123729228973389,-0.09966373443603516,1.4765998125076294
1751214946196015600,9.981015625,1.091517686843872,-0.10185623168945312,1.497313141822815
1751214946206009300,9.99100927734375,1.1894514560699463,-0.1819286346435547,1.5550254583358765
1751214946216003300,10.00100341796875,0.9056500792503357,-0.13431739807128906,1.4257508516311646
1751214946225997300,10.010997314453125,0.9247922301292419,-0.16475296020507812,1.4683605432510376
1751214946235991000,10.020990966796875,0.9017373919487,-0.20189285278320312,1.5934474468231201
1751214946245985000,10.030985107421875,0.6971555352210999,-0.10741329193115234,1.5861884355545044
1751214946255979000,10.04097900390625,0.14276021718978882,0.04198265075683594,1.2882616519927979
1751214946275966700,10.060966796875,-0.9259241819381714,0.05420398712158203,0.8598763942718506
1751214946285960700,10.070960693359375,-1.7758512496948242,0.06651496887207031,0.6004893779754639
1751214946295954700,10.08095458984375,-2.5961081981658936,0.1940145492553711,0.2526969909667969
1751214946305948400,10.090948486328125,-3.2796669006347656,0.19425582885742188,-0.009244084358215332
1751214946325936400,10.110936279296874,-3.2914962768554688,0.17650699615478516,-0.2699587941169739
1751214946335930000,10.12093017578125,-2.450887441635132,0.21572113037109375,-0.22972369194030762
1751214946345924000,10.130924072265625,-1.5033966302871704,0.26158714294433594,-0.13200867176055908
1751214946355918000,10.14091796875,-0.6797360181808472,0.27013492584228516,0.06083953380584717
1751214946365911800,10.150911865234375,-0.03344440460205078,0.2548036575317383,0.29049253463745117
1751214946375905800,10.16090576171875,0.5495545864105225,0.2579193115234375,0.4094257354736328
1751214946385899800,10.170899658203124,1.0520371198654175,0.3270120620727539,0.2812044620513916
1751214946395893800,10.180893798828125,1.3632572889328003,0.3137493133544922,0.284085750579834
1751214946405887500,10.190887451171875,1.3463332653045654,0.2708559036254883,0.3587510585784912
1751214946415881500,10.200881591796875,0.8950220346450806,0.17477798461914062,0.48954033851623535
1751214946425875500,10.21087548828125,0.21864712238311768,0.13600826263427734,0.648767352104187
1751214946435869200,10.220869140625,-0.34711289405822754,0.17864608764648438,0.7958692312240601
1751214946445863200,10.23086328125,-0.8104100227355957,0.23119068145751953,0.9989754557609558
1751214946455857200,10.240857177734375,-1.0318293571472168,0.21247386932373047,1.1901373863220215
1751214946465851000,10.250850830078125,-1.0579109191894531,0.21825313568115234,1.2575061321258545
1751214946475844900,10.260844970703126,-0.9155281782150269,0.16269302368164062,1.1666696071624756
1751214946485838800,10.2708388671875,-0.6764832735061646,0.022043228149414062,0.9747363924980164
1751214946495832600,10.28083251953125,-0.41393065452575684,-0.1320209503173828,0.696366012096405
1751214946505826600,10.29082666015625,-0.07843899726867676,-0.28065013885498047,0.352511465549469
1751214946515820500,10.300820556640625,0.26423823833465576,-0.5341129302978516,0.044691622257232666
1751214946525814500,10.310814453125,0.5306156873703003,-0.8350648880004883,-0.23101556301116943
1751214946535808300,10.320808349609376,0.6631923913955688,-1.1355905532836914,-0.4783029556274414
1751214946545802200,10.33080224609375,0.7491551637649536,-1.3830127716064453,-0.6822661757469177
1751214946555796200,10.340796142578125,0.8090356588363647,-1.601165771484375,-0.7754091024398804
1751214946565790000,10.3507900390625,0.9194409847259521,-1.794999122619629,-0.782583475112915
1751214946575784000,10.360783935546875,1.1268372535705566,-2.0173158645629883,-0.7801533341407776
1751214946585777700,10.370777587890625,1.3060747385025024,-2.325529098510742,-0.691453218460083
1751214946595771600,10.380771728515626,1.418210506439209,-2.6862382888793945,-0.4649519622325897
1751214946605765400,10.390765380859374,1.2910754680633545,-2.984877586364746,-0.15947690606117249
1751214946615759400,10.40075927734375,0.9216001033782959,-3.1451597213745117,0.17076832056045532
1751214946625753000,10.410753173828125,0.4131683111190796,-3.253171920776367,0.4900016188621521
1751214946635747000,10.4207470703125,-0.07686495780944824,-3.3036766052246094,0.6487506628036499
1751214946645740800,10.43074072265625,-0.4737125635147095,-3.3535871505737305,0.7482613921165466
1751214946655734800,10.44073486328125,-0.7081770300865173,-3.440673828125,0.8557400703430176
1751214946665728500,10.450728515625,-0.81313556432724,-3.5073375701904297,0.9670730233192444
1751214946675722500,10.460722412109375,-0.814329206943512,-3.5490856170654297,1.1581761837005615
1751214946685716200,10.47071630859375,-0.714259684085846,-3.418246269226074,1.36639404296875
1751214946695710200,10.480710205078125,-0.5726366639137268,-3.311389923095703,1.690354347229004
1751214946705704000,10.490703857421876,-0.4528707265853882,-3.061391830444336,2.0405430793762207
1751214946715698000,10.500697998046874,-0.43628668785095215,-2.5921125411987305,2.3475232124328613
1751214946725691600,10.510691650390624,-0.5181056261062622,-2.0425539016723633,2.6718640327453613
1751214946735685600,10.520685546875,-0.7084421515464783,-1.527566909790039,2.9962942600250244
1751214946745679400,10.530679443359375,-0.9649621248245239,-1.0280370712280273,3.142557382583618
1751214946755673300,10.54067333984375,-1.36434006690979,-0.5440254211425781,3.0345911979675293
1751214946765667000,10.5506669921875,-1.866339087486267,-0.09451961517333984,2.694476366043091
1751214946775661000,10.5606611328125,-2.458094835281372,0.30165863037109375,2.2263834476470947
1751214946785654800,10.57065478515625,-3.069882869720459,0.6447715759277344,1.8203349113464355
1751214946795648800,10.580648681640625,-3.6851043701171875,0.7964897155761719,1.582403302192688
1751214946805642500,10.590642578125,-4.2543463706970215,0.6186809539794922,1.630620002746582
1751214946815636500,10.600636474609376,-4.651000499725342,0.27440834045410156,1.961983323097229
1751214946825630200,10.610630126953126,-4.788802623748779,-0.09319305419921875,2.4908254146575928
1751214946835624200,10.620624267578124,-4.602701663970947,-0.3990945816040039,3.006260395050049
1751214946845618000,10.630617919921875,-4.071532249450684,-0.6016740798950195,3.2569825649261475
1751214946855612000,10.64061181640625,-3.3076047897338867,-0.6546525955200195,3.2143239974975586
1751214946865605600,10.650605712890625,-2.42324161529541,-0.5835723876953125,2.9171128273010254
1751214946875599600,10.660599609375,-1.4066275358200073,-0.5332317352294922,2.3719944953918457
1751214946885593300,10.67059326171875,-0.5413237810134888,-0.5474357604980469,1.6543561220169067
1751214946895587300,10.68058740234375,0.11782015860080719,-0.5931520462036133,0.9258401393890381
1751214946905581000,10.6905810546875,0.7777779698371887,-0.5939702987670898,0.2955359220504761
1751214946915575000,10.700574951171875,1.0326614379882812,-0.5689640045166016,-0.4063941240310669
1751214946925568800,10.71056884765625,1.1786881685256958,-0.5416793823242188,-1.1772027015686035
1751214946935562800,10.720562744140626,1.3890430927276611,-0.5063028335571289,-1.8161273002624512
1751214946945556700,10.730556640625,2.177358865737915,-0.4954090118408203,-2.3742403984069824
1751214946955550500,10.740550537109375,3.4963643550872803,-0.2635383605957031,-3.024557113647461
1751214946965544400,10.75054443359375,4.593710899353027,0.17255210876464844,-3.6375789642333984
1751214946975538400,10.760538330078125,4.9646453857421875,0.5666866302490234,-3.9853763580322266
1751214946985532200,10.7705322265625,4.668725490570068,0.7442159652709961,-4.1906633377075195
1751214946995526100,10.780526123046876,3.70127010345459,0.6869363784790039,-4.030632495880127
1751214947005520100,10.79052001953125,2.047783851623535,0.4266986846923828,-3.445263624191284
1751214947015514000,10.80051416015625,-0.016551196575164795,0.18500137329101562,-2.5383145809173584
1751214947025507800,10.8105078125,-1.6876660585403442,0.2348775863647461,-1.685439109802246
1751214947035501800,10.820501708984375,-2.12246036529541,0.5071020126342773,-1.4042699337005615
1751214947045495800,10.830495849609376,-1.1473158597946167,0.5666294097900391,-1.3298909664154053
1751214947055489500,10.840489501953124,0.6132171154022217,0.26731204986572266,-1.3073923587799072
1751214947065483500,10.8504833984375,1.9195106029510498,-0.13536930084228516,-1.0288670063018799
1751214947075477500,10.8604775390625,2.6472411155700684,-0.5398654937744141,-0.6281425952911377
1751214947085471200,10.87047119140625,2.4299275875091553,-0.8975553512573242,-0.3056950569152832
1751214947095465200,10.88046533203125,1.809161901473999,-1.1803216934204102,0.22453022003173828
1751214947105459200,10.890459228515626,1.3940250873565674,-1.3755617141723633,0.7356839179992676
1751214947115453200,10.900453125,0.9578866362571716,-1.524322509765625,1.0674448013305664
1751214947125447000,10.910447021484375,0.5299698114395142,-1.6333074569702148,0.9952640533447266
1751214947135441000,10.92044091796875,0.3751126527786255,-1.6416435241699219,0.43030309677124023
1751214947145435000,10.930434814453125,0.7623846530914307,-1.4662752151489258,-0.44901084899902344
1751214947155428600,10.9404287109375,1.4042309522628784,-1.3470983505249023,-1.0572295188903809
1751214947165422600,10.950422607421874,1.8598049879074097,-1.4337897300720215,-1.2676191329956055
1751214947175416600,10.96041650390625,1.698134183883667,-1.625321865081787,-1.2021312713623047
1751214947185410300,10.970410400390625,1.1273739337921143,-1.2132391929626465,-1.5393328666687012
1751214947195404300,10.980404296875,0.7463886737823486,-0.8475866317749023,-1.9138846397399902
1751214947205398300,10.990398193359376,0.6378655433654785,-0.2621340751647949,-2.5892515182495117
1751214947215392000,11.00039208984375,0.5599884986877441,-0.29324960708618164,-2.7580533027648926
1751214947225386000,11.010385986328124,0.6898688077926636,-0.2717928886413574,-2.892143726348877
1751214947235380000,11.0203798828125,0.7485734224319458,-0.3612842559814453,-2.841163158416748
1751214947245374000,11.0303740234375,0.6748071908950806,0.2985959053039551,-3.2942349910736084
1751214947255367700,11.04036767578125,0.39785510301589966,0.2544064521789551,-3.457399368286133
1751214947265361700,11.050361572265626,0.4484859108924866,0.4051995277404785,-3.848498582839966
1751214947275355600,11.060355712890624,0.8562653660774231,0.6316418647766113,-3.926910638809204
1751214947285349400,11.070349365234375,0.5944095253944397,0.7419376373291016,-4.0054426193237305
1751214947295343400,11.08034326171875,0.3999806046485901,0.9271073341369629,-4.037893295288086
1751214947305337300,11.09033740234375,0.35201168060302734,1.0818796157836914,-4.154091835021973
1751214947315331000,11.1003310546875,0.3335444927215576,1.1584386825561523,-4.273462772369385
1751214947335319000,11.120319091796874,0.19039297103881836,1.322801113128662,-3.9907376766204834
1751214947345313000,11.13031298828125,0.2961474657058716,1.2842650413513184,-3.715658664703369
1751214947355306800,11.140306640625,0.2606302499771118,1.326664924621582,-3.4913723468780518
1751214947365300700,11.15030078125,0.16253411769866943,1.4113755226135254,-3.245941638946533
1751214947375294700,11.160294677734376,-0.043213725090026855,1.485335350036621,-3.0604867935180664
1751214947385288400,11.170288330078124,-0.10162675380706787,1.6304516792297363,-2.981722354888916
1751214947395282400,11.180282470703125,-0.03745770454406738,1.8770008087158203,-3.0747838020324707
1751214947405276400,11.1902763671875,0.08539021015167236,2.14035701751709,-3.2664589881896973
1751214947415270100,11.200270263671875,0.3817802667617798,2.34019136428833,-3.483884572982788
1751214947425264000,11.21026416015625,0.7135297656059265,2.458204507827759,-3.649689197540283
1751214947435258000,11.220258056640626,0.7885473370552063,2.4995381832122803,-3.735084056854248
1751214947445252000,11.230252197265624,0.17082154750823975,2.459132671356201,-3.4923882484436035
1751214947455245800,11.240245849609375,-0.9635229110717773,2.289738655090332,-2.266554355621338
1751214947465239800,11.25023974609375,-1.433803915977478,1.6929454803466797,-0.7059769630432129
1751214947475233800,11.26023388671875,-0.6810832023620605,0.7499737739562988,0.3700571060180664
1751214947485227500,11.2702275390625,0.10562992095947266,-0.28883981704711914,0.9816789627075195
1751214947495221500,11.280221435546874,0.3234137296676636,-1.0282301902770996,1.0845398902893066
1751214947505215500,11.290215576171875,-0.08860540390014648,-1.5554170608520508,1.3905396461486816
1751214947515209200,11.300209228515625,-0.8101314306259155,-1.8638577461242676,1.8778486251831055
1751214947525203200,11.310203125,-1.1315919160842896,-1.993173599243164,2.2027502059936523
1751214947535197200,11.320197265625,-0.9493367671966553,-1.8999090194702148,2.468468189239502
1751214947545191000,11.33019091796875,-0.6783978939056396,-1.7418465614318848,2.5044608116149902
1751214947555185000,11.340184814453124,-0.713469386100769,-1.5515236854553223,2.064075469970703
1751214947565179000,11.350178955078125,-1.2060394287109375,-1.3265533447265625,1.0076513290405273
1751214947575172600,11.360172607421875,-1.3247005939483643,-0.9342427253723145,-0.18616485595703125
1751214947585166600,11.37016650390625,-0.8780699968338013,-0.6749105453491211,-0.8471841812133789
1751214947595160300,11.380160400390626,-0.1762995421886444,-0.35619306564331055,-1.4629888534545898
1751214947605154300,11.390154296875,0.22960351407527924,-0.3498373031616211,-1.7985997200012207
1751214947615148000,11.40014794921875,0.528080403804779,-0.5550656318664551,-1.8976097106933594
1751214947625142000,11.41014208984375,0.7244001030921936,-0.8523612022399902,-1.7602949142456055
1751214947635135700,11.4201357421875,1.0537750720977783,-1.0905389785766602,-1.2787528038024902
1751214947645129700,11.430129638671875,1.3528811931610107,-1.2632265090942383,-0.6670198440551758
1751214947655123500,11.44012353515625,1.343037724494934,-1.5721840858459473,-0.19365739822387695
1751214947665117400,11.450117431640624,1.5165576934814453,-1.9218106269836426,0.051117897033691406
1751214947675111200,11.460111083984375,1.6230114698410034,-2.1304473876953125,0.27396488189697266
1751214947685105200,11.470105224609375,1.4288643598556519,-2.3907909393310547,0.47385549545288086
1751214947695099000,11.480098876953125,1.1908563375473022,-2.680154800415039,0.4010438919067383
1751214947715086600,11.500086669921876,1.3881396055221558,-3.1030826568603516,0.48973894119262695
1751214947745068300,11.530068359375,0.49396252632141113,-3.467205047607422,1.9871196746826172
1751214947755062000,11.54006201171875,-0.5095537304878235,-3.1905784606933594,2.3055949211120605
1751214947765056000,11.550055908203126,-1.3312427997589111,-2.5231285095214844,2.1533336639404297
1751214947775049700,11.5600498046875,-2.008476972579956,-1.5659713745117188,1.921694278717041
1751214947785043700,11.570043701171874,-2.4791548252105713,-0.5632314682006836,1.5756721496582031
1751214947795037400,11.580037353515625,-2.8108267784118652,0.23259735107421875,0.9285745620727539
1751214947805031400,11.590031494140625,-2.9870543479919434,0.6698713302612305,0.26267385482788086
1751214947815025200,11.600025146484375,-2.9089717864990234,0.9457015991210938,-0.1447751522064209
1751214947825019100,11.61001904296875,-2.603322982788086,0.9312324523925781,-0.2952916622161865
1751214947835012900,11.620012939453124,-2.163709878921509,0.7800235748291016,-0.42832398414611816
1751214947845006800,11.6300068359375,-1.748063325881958,0.6359500885009766,-0.5567796230316162
1751214947855000600,11.64000048828125,-1.245165467262268,0.4133119583129883,-0.6410267353057861
1751214947864994600,11.64999462890625,-0.8407188653945923,0.27515125274658203,-0.7364335060119629
1751214947874988300,11.65998828125,-0.5045580863952637,0.1354084014892578,-0.7655336856842041
1751214947884982300,11.669982177734376,-0.10906270146369934,0.23727130889892578,-0.6007392406463623
1751214947894976000,11.67997607421875,0.1936357021331787,0.6132068634033203,-0.425858736038208
1751214947904970000,11.689969970703125,0.49022120237350464,1.0236091613769531,-0.23717045783996582
1751214947914963700,11.699963623046875,0.685204029083252,1.329665184020996,-0.09823822975158691
1751214947924957700,11.709957763671875,0.8636762499809265,1.546154499053955,-0.0613713264465332
1751214947934951400,11.719951416015626,0.9339661598205566,1.6404948234558105,-0.10546255111694336
1751214947944945400,11.7299453125,1.1474761962890625,1.713477611541748,-0.0436549186706543
1751214947954939100,11.739939208984374,1.314236044883728,1.7368226051330566,-0.008891105651855469
1751214947964933000,11.74993310546875,1.3607118129730225,1.7396798133850098,0.023932695388793945
1751214947974926800,11.7599267578125,1.301670789718628,1.6841168403625488,0.09831929206848145
1751214947984920800,11.7699208984375,1.0378705263137817,1.5080127716064453,0.198714017868042
1751214947994914600,11.77991455078125,0.7398990392684937,1.3072729110717773,0.26267075538635254
1751214948004908500,11.789908447265624,0.5303881168365479,1.1347074508666992,0.29540061950683594
1751214948014902300,11.79990234375,0.4783722162246704,1.0814361572265625,0.26511478424072266
1751214948024896300,11.809896240234375,0.4515300989151001,1.0376195907592773,0.2973877191543579
1751214948034890000,11.819889892578125,0.55098557472229,0.9747152328491211,0.3878732919692993
1751214948044884000,11.829884033203125,0.7933003306388855,0.8639888763427734,0.5362212657928467
1751214948054878000,11.8398779296875,1.0367326736450195,0.7481489181518555,0.7358995676040649
1751214948064871700,11.84987158203125,1.1734869480133057,0.5692968368530273,0.9218158721923828
1751214948074865700,11.85986572265625,1.1978325843811035,0.3701448440551758,1.0198817253112793
1751214948084859600,11.869859619140625,1.2854366302490234,0.2365255355834961,1.0101417303085327
1751214948094853400,11.879853271484375,1.306429147720337,0.13491344451904297,0.9029778242111206
1751214948104847400,11.889847412109376,1.261890172958374,0.07498550415039062,0.7810842990875244
1751214948114841300,11.89984130859375,1.039635419845581,0.05204963684082031,0.7265720367431641
1751214948124835000,11.9098349609375,0.7242832183837891,0.04226970672607422,0.6820706129074097
1751214948134829000,11.9198291015625,0.42784708738327026,0.07449722290039062,0.5814254283905029
1751214948144823000,11.929822998046875,0.26498186588287354,0.03907489776611328,0.4696812629699707
1751214948154817000,11.939817138671875,0.12427151203155518,-0.10215473175048828,0.4041101932525635
1751214948164810800,11.949810791015626,-0.14770156145095825,-0.22958755493164062,0.3655186891555786
1751214948174804700,11.9598046875,-0.5069833993911743,-0.3527975082397461,0.35858917236328125
1751214948184798700,11.969798828125,-0.6053064465522766,-0.33318328857421875,0.3080524206161499
1751214948194792400,11.97979248046875,-0.574097752571106,-0.2809133529663086,0.31145167350769043
1751214948204786400,11.989786376953125,-0.6395376920700073,-0.2437887191772461,0.17005395889282227
1751214948214780400,11.999780517578126,-0.4808535575866699,-0.32680511474609375,0.023632526397705078
1751214948224774100,12.009774169921876,-0.3457604646682739,-0.26227283477783203,-0.12840306758880615
1751214948234768100,12.01976806640625,-0.8796732425689697,-0.12679672241210938,-0.23050355911254883
1751214948244762000,12.02976220703125,-1.3817559480667114,0.07545661926269531,-0.3223320245742798
1751214948254756000,12.039756103515625,-1.7510528564453125,0.23543357849121094,-0.3947329521179199
1751214948264749800,12.049749755859375,-2.4885385036468506,0.18222808837890625,-0.20096492767333984
1751214948274743800,12.059743896484376,-2.8224825859069824,0.06955623626708984,-0.03000175952911377
1751214948284737800,12.06973779296875,-2.309156894683838,0.17432308197021484,-0.10451853275299072
1751214948294731500,12.0797314453125,-1.6620643138885498,0.24723529815673828,-0.17328286170959473
1751214948304725500,12.0897255859375,-1.1002275943756104,0.2208576202392578,-0.03116452693939209
1751214948314719500,12.099719482421875,-0.6822931170463562,0.1094827651977539,0.22086238861083984
1751214948324713200,12.109713134765625,-0.38457536697387695,-0.02476024627685547,0.5532863140106201
1751214948334707200,12.119707275390626,-0.09295320510864258,-0.10571956634521484,0.9071893692016602
1751214948344701200,12.129701171875,0.2418525218963623,-0.08642959594726562,1.1571747064590454
1751214948354695200,12.139695068359375,0.45804595947265625,0.04664134979248047,1.280165195465088
1751214948364689000,12.14968896484375,0.5391418933868408,0.16875171661376953,1.3535312414169312
1751214948374683000,12.159682861328125,0.43642914295196533,0.2272634506225586,1.3586939573287964
1751214948384676900,12.1696767578125,0.1560152769088745,0.14615154266357422,1.2632038593292236
1751214948394670600,12.179670654296874,-0.22667348384857178,-0.025826454162597656,1.049328088760376
1751214948404664600,12.18966455078125,-0.5062402486801147,-0.20174217224121094,0.8084312677383423
1751214948414658600,12.199658447265625,-0.567021369934082,-0.10905170440673828,0.4696171283721924
1751214948424652300,12.20965234375,-0.4579423666000366,0.16098403930664062,0.08314204216003418
1751214948434646300,12.219646240234376,-0.23309063911437988,0.3068990707397461,-0.19729351997375488
1751214948444640300,12.22964013671875,-0.012651681900024414,0.3288278579711914,-0.3725215792655945
1751214948454634000,12.239634033203124,0.17510032653808594,0.2747640609741211,-0.49628394842147827
1751214948464628000,12.2496279296875,0.254862904548645,0.13546371459960938,-0.5591798424720764
1751214948474622000,12.2596220703125,0.3039005994796753,-0.09370899200439453,-0.5529735088348389
1751214948484615700,12.26961572265625,0.31701624393463135,-0.3266277313232422,-0.4918099045753479
1751214948494609700,12.279609619140626,0.3451336622238159,-0.5587520599365234,-0.3993040919303894
1751214948504603400,12.289603271484374,0.42490291595458984,-0.7998104095458984,-0.2554922103881836
1751214948514597400,12.299597412109375,0.6026108264923096,-1.0786876678466797,0.0014591813087463379
1751214948524591000,12.309591064453125,0.8245118856430054,-1.2999849319458008,0.351598858833313
1751214948534585000,12.319585205078125,1.099049687385559,-1.3876028060913086,0.6465597152709961
1751214948544578800,12.329578857421875,1.4108357429504395,-1.5857248306274414,1.0286167860031128
1751214948554572800,12.33957275390625,1.553659439086914,-1.7653875350952148,1.3376576900482178
1751214948564566500,12.34956640625,1.608161449432373,-1.969742774963379,1.5026702880859375
1751214948574560500,12.359560546875,1.6685876846313477,-2.323145866394043,1.6104259490966797
1751214948584554200,12.36955419921875,1.4623768329620361,-2.84442138671875,1.6614426374435425
1751214948594548200,12.37954833984375,0.9836102724075317,-3.609212875366211,1.7608648538589478
1751214948604542000,12.3895419921875,0.2838791608810425,-4.286913871765137,1.793757677078247
1751214948614536000,12.399535888671876,-0.5457894802093506,-4.7337188720703125,1.7613587379455566
1751214948624529700,12.40952978515625,-1.3078302145004272,-4.953980445861816,1.7869246006011963
1751214948634523600,12.419523681640625,-1.8140437602996826,-4.927988052368164,1.8356636762619019
1751214948644517400,12.429517333984375,-2.0927627086639404,-4.89422607421875,2.066831111907959
1751214948654511400,12.439511474609375,-2.120762825012207,-4.699926376342773,2.286961317062378
1751214948664505000,12.449505126953126,-1.8942615985870361,-4.37509822845459,2.531609535217285
1751214948674499000,12.4594990234375,-1.5314308404922485,-3.9165830612182617,2.727517604827881
1751214948684492800,12.469492919921874,-1.2875481843948364,-3.4594478607177734,2.905829668045044
1751214948694486800,12.47948681640625,-1.2317614555358887,-2.9323692321777344,2.9552001953125
1751214948704480500,12.48948046875,-1.449369192123413,-2.3211441040039062,2.842468738555908
1751214948714474200,12.49947412109375,-1.9947669506072998,-1.6066246032714844,2.6178715229034424
1751214948724468200,12.50946826171875,-2.72007417678833,-0.9128856658935547,2.346968650817871
1751214948734462000,12.5194619140625,-3.424473762512207,-0.32549190521240234,2.108959674835205
1751214948744456000,12.5294560546875,-4.089300155639648,0.11301708221435547,2.029191493988037
1751214948754449700,12.53944970703125,-4.478063583374023,0.3549661636352539,2.1811695098876953
1751214948764443600,12.549443603515625,-4.442198276519775,0.5052709579467773,2.4322783946990967
1751214948774437400,12.559437255859375,-4.088694095611572,0.5106077194213867,2.7127926349639893
1751214948784431400,12.569431396484376,-3.3791627883911133,0.3939666748046875,2.920863628387451
1751214948794425000,12.579425048828124,-2.444704294204712,0.11625480651855469,2.9940714836120605
1751214948804419000,12.589419189453125,-1.393452525138855,-0.23705673217773438,2.856086015701294
1751214948814412800,12.599412841796875,-0.3316602408885956,-0.4990520477294922,2.5558648109436035
1751214948824406800,12.60940673828125,0.6276360750198364,-0.5985450744628906,2.1560959815979004
1751214948834400500,12.619400390625,1.2556477785110474,-0.6316385269165039,1.74368417263031
1751214948844394500,12.62939453125,1.4500116109848022,-0.7326259613037109,1.313956379890442
1751214948854388200,12.63938818359375,1.3333740234375,-0.7679738998413086,0.6772902011871338
1751214948864382200,12.64938232421875,1.2962779998779297,-0.6851673126220703,-0.2182295322418213
1751214948874376000,12.6593759765625,1.6547929048538208,-0.4694404602050781,-1.117563009262085
1751214948884370000,12.669369873046875,1.775071144104004,-0.2059621810913086,-2.0256688594818115
1751214948894363600,12.67936376953125,1.965518832206726,0.14928054809570312,-2.806244373321533
1751214948904357600,12.689357666015624,2.0615200996398926,0.49724483489990234,-3.4231772422790527
1751214948914351400,12.699351318359374,2.5668773651123047,0.7390365600585938,-3.7560815811157227
1751214948924345300,12.709345458984375,3.2959330081939697,0.9197463989257812,-3.9754061698913574
1751214948934339000,12.719339111328125,3.6847898960113525,1.0602750778198242,-4.0455217361450195
1751214948944333000,12.7293330078125,3.0443153381347656,1.1664838790893555,-3.951157569885254
1751214948954326800,12.739326904296876,1.7974660396575928,1.0800046920776367,-3.5045928955078125
1751214948964320800,12.74932080078125,0.2929729223251343,0.8946189880371094,-2.880563259124756
1751214948974314500,12.759314453125,-1.0112465620040894,0.698298454284668,-2.1779894828796387
1751214948984308500,12.76930859375,-1.606384038925171,0.5304145812988281,-1.4341278076171875
1751214948994302200,12.77930224609375,-0.8490990400314331,0.5231819152832031,-1.1672801971435547
1751214949004296200,12.789296142578126,0.9644702076911926,0.49222660064697266,-1.2376220226287842
1751214949014290000,12.7992900390625,2.7275686264038086,0.2920989990234375,-1.1065843105316162
1751214949024284000,12.809283935546874,3.664668560028076,0.08219718933105469,-0.9267783164978027
1751214949034277600,12.819277587890625,3.4356656074523926,-0.19429302215576172,-0.7745449542999268
1751214949044271600,12.829271728515625,2.3926472663879395,-0.4856710433959961,-0.6034159660339355
1751214949054265300,12.839265380859375,0.9860512018203735,-0.9720630645751953,0.05965471267700195
1751214949064259300,12.84925927734375,-0.6640294790267944,-1.3808012008666992,0.6960921287536621
1751214949074253000,12.859253173828124,-1.7131597995758057,-1.4999113082885742,0.813694953918457
1751214949084247000,12.8692470703125,-1.5276618003845215,-1.4830522537231445,0.47110557556152344
1751214949094240800,12.87924072265625,-0.4431701898574829,-1.2435293197631836,-0.19651556015014648
1751214949104234800,12.88923486328125,0.690617561340332,-0.988224983215332,-0.8320565223693848
