time,seconds_elapsed,z,y,x
1751214936361999600,0.14699951171875,2.1069583892822266,0.08681898564100266,0.5960150361061096
1751214936371820000,0.156820068359375,1.3389031887054443,-0.3520696461200714,1.093493103981018
1751214936381658000,0.166658203125,0.6933534741401672,-0.4010717570781708,1.138234257698059
1751214936391519200,0.176519287109375,0.31518489122390747,-0.030360013246536255,0.683366596698761
1751214936401408000,0.186407958984375,0.04780370742082596,0.332894891500473,0.21358536183834076
1751214936411327500,0.196327392578125,-0.1471395343542099,0.4095938801765442,0.027164222672581673
1751214936421279200,0.206279296875,-0.22064273059368134,0.14860427379608154,0.0846884623169899
1751214936431264000,0.216263916015625,-0.1471395343542099,-0.2743053734302521,0.19228008389472961
1751214936441280300,0.2262802734375,-0.016112113371491432,-0.6641919016838074,0.19654114544391632
1751214936451326500,0.236326416015625,0.07123950868844986,-0.9283772706985474,0.10279794037342072
1751214936461399000,0.24639892578125,0.07017423957586288,-1.1073415279388428,-0.037816859781742096
1751214936471493600,0.25649365234375,-0.043808966875076294,-1.1989542245864868,-0.19014956057071686
1751214936481605600,0.266605712890625,-0.31012487411499023,-1.1989542245864868,-0.332894891500473
1751214936491729400,0.2767294921875,-0.6542050242424011,-1.0785794258117676,-0.5512739419937134
1751214936501859300,0.286859375,-1.0643315315246582,-0.9155941009521484,-0.7984151244163513
1751214936511989500,0.296989501953125,-1.3487569093704224,-0.5960150361061096,-1.072187900543213
1751214936521995300,0.306995361328125,-1.631051778793335,-0.18482324481010437,-1.16060471534729
1751214936531988700,0.31698876953125,-1.8632792234420776,0.20399798452854156,-1.026381492614746
1751214936541982500,0.326982421875,-2.0262646675109863,0.5736444592475891,-0.8942888379096985
1751214936551976200,0.33697607421875,-2.175401449203491,0.9379646182060242,-0.8783098459243774
1751214936561970000,0.346969970703125,-2.2787320613861084,1.3129373788833618,-0.9379646182060242
1751214936571963600,0.356963623046875,-2.3426477909088135,1.4823143482208252,-0.9230509400367737
1751214936581957400,0.366957275390625,-2.3032331466674805,1.3800489902496338,-0.8101329803466797
1751214936591951000,0.376951171875,-2.0560920238494873,1.3108068704605103,-0.6897581815719604
1751214936601944800,0.38694482421875,-1.819603443145752,1.3086763620376587,-0.6109287142753601
1751214936611938300,0.396938232421875,-1.5969634056091309,1.1467562913894653,-0.4607265293598175
1751214936621932000,0.40693212890625,-1.1974895000457764,1.072187900543213,-0.38296228647232056
1751214936631925800,0.41692578125,-0.7724493145942688,1.1659311056137085,-0.5480781197547913
1751214936641919500,0.42691943359375,-0.4155859649181366,1.311872124671936,-0.8165245652198792
1751214936651913200,0.436913330078125,-0.13435637950897217,1.3725922107696533,-1.0338383913040161
1751214936661907000,0.446906982421875,0.06271740049123764,1.2980237007141113,-1.1616699695587158
1751214936671900700,0.456900634765625,0.140481635928154,1.1648657321929932,-1.205345869064331
1751214936681894400,0.466894287109375,0.15113428235054016,0.9944236278533936,-1.2138679027557373
1751214936691888000,0.47688818359375,0.15539532899856567,0.8740488290786743,-1.2191942930221558
1751214936701881600,0.486881591796875,0.319445937871933,0.8751140832901001,-1.2245205640792847
1751214936711875300,0.496875244140625,0.6464818716049194,1.0775141716003418,-1.2490216493606567
1751214936721869000,0.506869140625,0.9617999196052551,0.9539436101913452,-1.3640700578689575
1751214936731862800,0.51686279296875,1.3314464092254639,0.6013413071632385,-1.440769076347351
1751214936741856500,0.5268564453125,1.8033581972122192,0.7398256063461304,-1.524924874305725
1751214936751850200,0.536850341796875,2.193244695663452,0.6354297399520874,-1.6985628604888916
1751214936761844000,0.546843994140625,2.471278429031372,0.2817622423171997,-1.8274598121643066
1751214936771837700,0.556837646484375,2.868621826171875,-0.3009369671344757,-1.7646092176437378
1751214936781831200,0.5668310546875,3.428950548171997,-0.7014760971069336,-1.5387732982635498
1751214936791825000,0.576824951171875,4.000997066497803,-0.5225118398666382,-1.113733172416687
1751214936801818600,0.586818603515625,4.38981819152832,-0.11877689510583878,-0.6311687231063843
1751214936811812400,0.596812255859375,4.638024806976318,-0.1741705983877182,-0.21784640848636627
1751214936821806000,0.60680615234375,4.534694194793701,-1.2096068859100342,0.287088543176651
1751214936831799800,0.6167998046875,4.218310832977295,-2.227998971939087,0.7131940126419067
1751214936841793500,0.62679345703125,3.8678390979766846,-3.0631656646728516,1.0338383913040161
1751214936851787300,0.636787353515625,3.6505253314971924,-3.611776351928711,1.2554131746292114
1751214936861781000,0.646781005859375,3.4918010234832764,-3.948399782180786,1.3523521423339844
1751214936871774700,0.656774658203125,3.4332115650177,-3.9025933742523193,1.3640700578689575
1751214936881768400,0.6667685546875,3.543998956680298,-3.2613046169281006,1.1968237161636353
1751214936891762200,0.67676220703125,3.900862216949463,-1.780588150024414,0.6961497664451599
1751214936901756000,0.686755859375,3.9679739475250244,-1.5238596200942993,-0.3296990990638733
1751214936911749600,0.69674951171875,3.444929361343384,-3.0823402404785156,-2.377135753631592
1751214936921743400,0.706743408203125,3.469430446624756,-3.690605878829956,-3.467965841293335
1751214936931737300,0.7167373046875,3.2372031211853027,-1.7997629642486572,-2.435725212097168
1751214936941731000,0.72673095703125,1.9993666410446167,1.8082849979400635,-0.021837905049324036
1751214936951724800,0.736724853515625,0.6294376254081726,3.8866143226623535,0.7675224542617798
1751214936961718500,0.746718505859375,-0.4145207107067108,3.8685050010681152,0.7771098017692566
1751214936971712300,0.756712158203125,-0.49335023760795593,1.7795228958129883,0.683366596698761
1751214936991699700,0.77669970703125,-0.6531397700309753,-3.219759464263916,1.2767184972763062
1751214937001693400,0.786693359375,-0.7522093057632446,-3.9100501537323,1.2735227346420288
1751214937011687200,0.796687255859375,-0.5902892351150513,-3.5851447582244873,1.16806161403656
1751214937021681000,0.806680908203125,-0.37084490060806274,-2.3494389057159424,0.9933583736419678
1751214937031674600,0.816674560546875,-0.1759016513824463,-0.7536740303039551,0.7675224542617798
1751214937041668600,0.826668701171875,-0.026764748618006706,0.523577094078064,0.5811012983322144
1751214937051662300,0.836662353515625,0.09680583328008652,1.1478215456008911,0.44368231296539307
1751214937061656000,0.846656005859375,0.22996379435062408,1.0807099342346191,0.3062632977962494
1751214937071649800,0.85664990234375,0.33968594670295715,0.5949497222900391,0.14753901958465576
1751214937081643500,0.8666435546875,0.3460775315761566,0.12836426496505737,-0.037816859781742096
1751214937091637200,0.87663720703125,0.30772802233695984,-0.020772641524672508,-0.24128220975399017
1751214937101631000,0.886630859375,0.3055975139141083,0.1784316599369049,-0.44581282138824463
1751214937111624700,0.896624755859375,0.30133646726608276,0.5150549411773682,-0.6311687231063843
1751214937121618400,0.906618408203125,0.27363958954811096,0.812263548374176,-0.7728487849235535
1751214937131612200,0.916612060546875,0.24168169498443604,0.9560741186141968,-0.8602004051208496
1751214937141606000,0.92660595703125,0.19267955422401428,0.9443562030792236,-0.8836361765861511
1751214937151599600,0.936599609375,0.130894273519516,0.842090904712677,-0.8665919899940491
1751214937161593600,0.946593505859375,0.08615319430828094,0.720650851726532,-0.8218508958816528
1751214937171587300,0.95658740234375,0.06591318547725677,0.5811012983322144,-0.7526087760925293
1751214937181581000,0.9665810546875,0.05952160432934761,0.4234423041343689,-0.6567350625991821
1751214937191574800,0.97657470703125,0.04993423447012901,0.27004432678222656,-0.5363602638244629
1751214937201568500,0.986568603515625,0.029694223776459694,0.12516847252845764,-0.3914843797683716
1751214937211562200,0.996562255859375,0.003062632866203785,0.026098959147930145,-0.22743378579616547
1751214937221556000,1.006555908203125,-0.019307903945446014,0.002663159044459462,-0.053795814514160156
1751214937231549700,1.0165498046875,-0.04487423226237297,0.046338967978954315,0.09960214793682098
1751214937241543400,1.02654345703125,-0.06191844865679741,0.09001477807760239,0.2306295782327652
1751214937251537200,1.036537109375,-0.06404897570610046,0.05273054912686348,0.3424822688102722
1751214937261531000,1.04653076171875,-0.07044056057929993,-0.07723161578178406,0.44581282138824463
1751214937271524600,1.056524658203125,-0.0906805694103241,-0.22317273914813995,0.5363602638244629
1751214937281518600,1.0665185546875,-0.11731215566396713,-0.2998717129230499,0.5917539596557617
1751214937291512300,1.07651220703125,-0.13116058707237244,-0.28815382719039917,0.607732892036438
1751214937301506000,1.086506103515625,-0.13968269526958466,-0.20293273031711578,0.6013413071632385
1751214937311499800,1.096499755859375,-0.13648690283298492,-0.09534109383821487,0.5917539596557617
1751214937321493500,1.106493408203125,-0.1237037405371666,-0.002663159044459462,0.5725792050361633
1751214937331487200,1.1164873046875,-0.1002679392695427,0.06977476924657822,0.5342296957969666
1751214937341481000,1.12648095703125,-0.08855003863573074,0.1177116334438324,0.4799012839794159
1751214937351474700,1.136474609375,-0.07789740711450577,0.15819165110588074,0.43409493565559387
1751214937361468400,1.146468505859375,-0.06511423736810684,0.20825904607772827,0.40746334195137024
1751214937371462100,1.156462158203125,-0.06191844865679741,0.28815382719039917,0.39361491799354553
1751214937381456000,1.166455810546875,-0.0672447681427002,0.38402754068374634,0.3808317482471466
1751214937391449900,1.176449951171875,-0.07257108390331268,0.4703139066696167,0.3680485785007477
1751214937401443600,1.186443603515625,-0.08641951531171799,0.5299686789512634,0.3584612011909485
1751214937411437300,1.196437255859375,-0.12050794810056686,0.5448823571205139,0.35100436210632324
1751214937421431000,1.20643115234375,-0.16205322742462158,0.5342296957969666,0.3584612011909485
1751214937431424800,1.2164248046875,-0.19081534445285797,0.5438171029090881,0.38935387134552
1751214937441418500,1.22641845703125,-0.22383852303028107,0.5928192138671875,0.4127896726131439
1751214937461406000,1.246406005859375,-0.30905961990356445,0.712128758430481,0.3765707015991211
1751214937471399700,1.256399658203125,-0.378301739692688,0.7195855975151062,0.3296990990638733
1751214937481393400,1.266393310546875,-0.45073968172073364,0.6812360882759094,0.26471802592277527
1751214937491387100,1.27638720703125,-0.4986765384674072,0.6024065613746643,0.17949692904949188
1751214937501380900,1.286380859375,-0.5253081321716309,0.5416865348815918,0.07616634666919708
1751214937511374800,1.296374755859375,-0.5316997170448303,0.5331644415855408,-0.04420844092965126
1751214937521368600,1.30636865234375,-0.5274386405944824,0.5587307810783386,-0.15606112778186798
1751214937531362300,1.3163623046875,-0.521047055721283,0.5928192138671875,-0.2444780021905899
1751214937541356000,1.32635595703125,-0.5093291997909546,0.6087981462478638,-0.3062632977962494
1751214937551349800,1.336349853515625,-0.5008070468902588,0.6013413071632385,-0.34141698479652405
1751214937561343500,1.346343505859375,-0.5008070468902588,0.5896234512329102,-0.3392864763736725
1751214937571337200,1.356337158203125,-0.4624575674533844,0.5608612895011902,-0.27110961079597473
1751214937581331000,1.3663310546875,-0.36019226908683777,0.4884233772754669,-0.12516847252845764
1751214937591324700,1.37632470703125,-0.22596904635429382,0.3616569936275482,0.06977476924657822
1751214937601318400,1.386318359375,-0.08002793043851852,0.21252009272575378,0.2593916952610016
1751214937611312000,1.39631201171875,0.057391077280044556,0.07403582334518433,0.4010717570781708
1751214937621305900,1.406305908203125,0.1916143000125885,-0.037816859781742096,0.48629283905029297
1751214937631299800,1.4162998046875,0.3269027769565582,-0.10492847114801407,0.5193160176277161
1751214937641293600,1.42629345703125,0.43769019842147827,-0.12303794920444489,0.5310339331626892
1751214937651287300,1.436287353515625,0.5293028950691223,-0.10492847114801407,0.5203812718391418
1751214937661281000,1.446281005859375,0.6123934388160706,-0.06870950758457184,0.47350969910621643
1751214937671274800,1.456274658203125,0.6933534741401672,-0.04101264849305153,0.37444016337394714
1751214937681268500,1.4662685546875,0.7487471699714661,-0.04846949502825737,0.22423799335956573
1751214937691262200,1.47626220703125,0.7657914161682129,-0.08575372397899628,0.04527370631694794
1751214937701256000,1.486255859375,0.7370292544364929,-0.11558110266923904,-0.11558110266923904
1751214937711249700,1.496249755859375,0.6805703043937683,-0.12942953407764435,-0.22317273914813995
1751214937721243400,1.506243408203125,0.6145239472389221,-0.15393058955669403,-0.26471802592277527
1751214937731237000,1.516237060546875,0.5282375812530518,-0.16351796686649323,-0.24341274797916412
1751214937741231000,1.526231201171875,0.46219125390052795,-0.13262532651424408,-0.17523586750030518
1751214937751224800,1.536224853515625,0.3854922652244568,-0.05699160322546959,-0.07723161578178406
1751214937761218600,1.546218505859375,0.2384859025478363,-0.037816859781742096,0.022903168573975563
1751214937771212300,1.55621240234375,0.0318247526884079,-0.05273054912686348,0.0942758321762085
1751214937781206000,1.5662060546875,-0.1471395343542099,-0.042077913880348206,0.13262532651424408
1751214937791199700,1.57619970703125,-0.28668907284736633,-0.06444845348596573,0.12410321086645126
1751214937801193500,1.586193359375,-0.3868238627910614,-0.1038632020354271,0.0985368862748146
1751214937811187200,1.596187255859375,-0.4091944098472595,-0.11451584100723267,0.08149266988039017
1751214937821181000,1.606180908203125,-0.35699647665023804,-0.14753901958465576,0.08149266988039017
1751214937831174700,1.616174560546875,-0.28562381863594055,-0.22956430912017822,0.13262532651424408
1751214937841168400,1.62616845703125,-0.23875221610069275,-0.17630113661289215,0.25726115703582764
1751214937851162000,1.636162109375,-0.13116058707237244,0.00798947736620903,0.3446127772331238
1751214937861156000,1.646156005859375,0.009454214945435524,0.2913496196269989,0.343547523021698
1751214937871149800,1.65614990234375,0.16711322963237762,0.5811012983322144,0.28815382719039917
1751214937881143600,1.6661435546875,0.3034669756889343,0.8111982345581055,0.19547587633132935
1751214937891137300,1.67613720703125,0.40573230385780334,0.8697877526283264,0.08255793154239655
1751214937901131000,1.686131103515625,0.4653870463371277,0.6886929273605347,-0.058056868612766266
1751214937911124700,1.696124755859375,0.4739091694355011,0.35100436210632324,-0.21784640848636627
1751214937921118500,1.706118408203125,0.4589954614639282,0.03249054029583931,-0.3765707015991211
1751214937931112200,1.7161123046875,0.4185154438018799,-0.16777902841567993,-0.5086634159088135
1751214937941106000,1.72610595703125,0.3482080399990082,-0.22743378579616547,-0.5832318663597107
1751214937951099600,1.736099609375,0.26405221223831177,-0.12942953407764435,-0.577905535697937
1751214937961093400,1.74609326171875,0.22250694036483765,0.04527370631694794,-0.5182507634162903
1751214937971087000,1.756087158203125,0.21185430884361267,0.1976063996553421,-0.44900861382484436
1751214937981081000,1.7660810546875,0.1916143000125885,0.28389275074005127,-0.3797664940357208
1751214937991074800,1.77607470703125,0.15113428235054016,0.2828274965286255,-0.30839383602142334
1751214938001068500,1.786068603515625,0.08189214020967484,0.21358536183834076,-0.21891167759895325
1751214938011062300,1.796062255859375,-0.005459476262331009,0.13901691138744354,-0.10066741704940796
1751214938021056000,1.806055908203125,-0.04913528636097908,0.09747162461280823,0.04420844092965126
1751214938031049700,1.8160498046875,0.022237379103899002,0.0846884623169899,0.1976063996553421
1751214938041043500,1.82604345703125,0.1724395453929901,0.022903168573975563,0.3243727684020996
1751214938061031000,1.846031005859375,0.31731539964675903,0.04101264849305153,0.43089914321899414
1751214938071024600,1.856024658203125,0.2619217038154602,0.12303794920444489,0.3765707015991211
1751214938081018400,1.866018310546875,0.18096165359020233,0.19014956057071686,0.2593916952610016
1751214938091012400,1.876012451171875,0.07763108611106873,0.20080219209194183,0.0985368862748146
1751214938101006000,1.886006103515625,-0.08961530029773712,0.19228008389472961,-0.058056868612766266
1751214938110999800,1.895999755859375,-0.3016027808189392,0.18056218326091766,-0.17204007506370544
1751214938120993500,1.90599365234375,-0.5242428779602051,0.12942953407764435,-0.2860232889652252
1751214938130987300,1.9159873046875,-0.6691187024116516,0.03249054029583931,-0.40746334195137024
1751214938140981000,1.92598095703125,-0.8065377473831177,-0.0708400309085846,-0.5438171029090881
1751214938150974700,1.935974609375,-0.9333041310310364,-0.13369058072566986,-0.7089329361915588
1751214938160968400,1.945968505859375,-1.018525242805481,-0.15819165110588074,-0.9123983383178711
1751214938170962200,1.955962158203125,-1.0632662773132324,-0.1368863731622696,-1.1574089527130127
1751214938180956000,1.965955810546875,-1.0920283794403076,-0.04740423336625099,-1.4152027368545532
1751214938190949600,1.97594970703125,-1.1282473802566528,0.10173267871141434,-1.6463649272918701
1751214938200943400,1.985943359375,-1.1719231605529785,0.2775011658668518,-1.8029587268829346
1751214938210937300,1.995937255859375,-1.2251863479614258,0.4575307369232178,-1.8530261516571045
1751214938220931000,2.00593115234375,-1.2795147895812988,0.6514087319374084,-1.8317208290100098
1751214938230924800,2.0159248046875,-1.3189295530319214,0.8378298282623291,-1.7869797945022583
1751214938240918500,2.02591845703125,-1.3338432312011719,0.9816404581069946,-1.7422386407852173
1751214938250912300,2.035912353515625,-1.321060061454773,1.0871015787124634,-1.6900407075881958
1751214938260906000,2.045906005859375,-1.3359737396240234,1.0700572729110718,-1.592036485671997
1751214938270899700,2.055899658203125,-1.3860411643981934,0.9773793816566467,-1.4652701616287231
1751214938280893400,2.0658935546875,-1.425455927848816,0.9645962119102478,-1.3672659397125244
1751214938290887200,2.07588720703125,-1.3903021812438965,0.9997498989105225,-1.2660658359527588
1751214938300881000,2.085880859375,-1.308276891708374,1.059404730796814,-1.123320460319519
1751214938310874600,2.09587451171875,-1.2603400945663452,1.0434256792068481,-0.972053050994873
1751214938320868400,2.105868408203125,-1.2432957887649536,0.900680422782898,-0.8388951420783997
1751214938330862300,2.1158623046875,-1.2624706029891968,0.6929540038108826,-0.7398256063461304
1751214938340856000,2.12585595703125,-1.308276891708374,0.5129244327545166,-0.6578003168106079
1751214938350849800,2.135849853515625,-1.3711274862289429,0.4053328037261963,-0.6002760529518127
1751214938360843500,2.145843505859375,-1.472327470779419,0.42983388900756836,-0.5544697046279907
1751214938370837200,2.155837158203125,-1.648095965385437,0.4852275848388672,-0.5118591785430908
1751214938380831000,2.1658310546875,-1.8483655452728271,0.4319643974304199,-0.4852275848388672
1751214938390824700,2.17582470703125,-2.012416124343872,0.24341274797916412,-0.49161916971206665
1751214938400818400,2.185818359375,-2.135986804962158,-0.08575372397899628,-0.5342296957969666
1751214938410812200,2.195812255859375,-2.205228805541992,-0.47777074575424194,-0.6034718751907349
1751214938420806000,2.205805908203125,-2.205228805541992,-0.820785641670227,-0.6524739861488342
1751214938430799600,2.215799560546875,-2.1295952796936035,-0.9209204316139221,-0.6396908164024353
1751214938440793600,2.225793701171875,-1.9815235137939453,-0.8165245652198792,-0.5949497222900391
1751214938450787300,2.235787353515625,-1.836647629737854,-0.636495053768158,-0.540621280670166
1751214938460781000,2.245781005859375,-1.692837119102478,-0.5310339331626892,-0.47350969910621643
1751214938470774800,2.25577490234375,-1.5692665576934814,-0.4894886314868927,-0.42557281255722046
1751214938480768500,2.2657685546875,-1.4861758947372437,-0.5278381109237671,-0.4330296814441681
1751214938490762200,2.27576220703125,-1.4393043518066406,-0.6226465702056885,-0.48203179240226746
1751214938500756000,2.285755859375,-1.4084117412567139,-0.7355645298957825,-0.5299686789512634
1751214938510749700,2.295749755859375,-1.3860411643981934,-0.8282424807548523,-0.5342296957969666
1751214938520743400,2.305743408203125,-1.3636705875396729,-0.8303729891777039,-0.48203179240226746
1751214938530737200,2.315737060546875,-1.332777976989746,-0.7323687672615051,-0.37870121002197266
1751214938540731000,2.32573095703125,-1.278449535369873,-0.5821665525436401,-0.2689790725708008
1751214938550724600,2.335724609375,-1.2177294492721558,-0.43089914321899414,-0.18908429145812988
1751214938560718600,2.345718505859375,-1.1900326013565063,-0.2924148738384247,-0.16138744354248047
1751214938570712300,2.35571240234375,-1.1101378202438354,-0.26471802592277527,-0.15393058955669403
1751214938580706000,2.3657060546875,-1.0398304462432861,-0.27963170409202576,-0.13369058072566986
1751214938590699800,2.37569970703125,-0.9823062419891357,-0.2593916952610016,-0.11132004857063293
1751214938600693500,2.385693603515625,-0.9173251390457153,-0.2444780021905899,-0.0846884623169899
1751214938610687200,2.395687255859375,-0.8874977827072144,-0.2540653645992279,-0.04101264849305153
1751214938620681000,2.405680908203125,-0.8150598406791687,-0.26045694947242737,0.0037284228019416332
1751214938630674700,2.4156748046875,-0.6850976943969727,-0.276435911655426,0.059122130274772644
1751214938640668400,2.42566845703125,-0.5860281586647034,-0.2306295782327652,0.07936213910579681
1751214938650662100,2.435662109375,-0.4965460002422333,-0.16671375930309296,0.08681898564100266
1751214938660655900,2.44565576171875,-0.4091944098472595,-0.12410321086645126,0.0985368862748146
1751214938670649900,2.45564990234375,-0.3250385820865631,-0.09321057051420212,0.12197268754243851
1751214938680643600,2.4656435546875,-0.24727432429790497,-0.025033695623278618,0.14860427379608154
1751214938690637300,2.47563720703125,-0.1759016513824463,0.06338318437337875,0.17523586750030518
1751214938700631000,2.485631103515625,-0.10346373170614243,0.12623374164104462,0.21252009272575378
1751214938710624800,2.495624755859375,-0.04061317816376686,0.12836426496505737,0.25193485617637634
1751214938720618500,2.505618408203125,0.014780532568693161,0.09640636295080185,0.28389275074005127
1751214938730612200,2.5156123046875,0.05952160432934761,0.09534109383821487,0.3158506751060486
1751214938740606000,2.52560595703125,0.10000162571668625,0.13369058072566986,0.354200154542923
1751214938750599700,2.535599609375,0.1490037590265274,0.23276010155677795,0.38296228647232056
1751214938760593400,2.545593505859375,0.20439745485782623,0.3563306927680969,0.3808317482471466
1751214938770587100,2.555587158203125,0.25553011894226074,0.43409493565559387,0.3339601457118988
1751214938780580900,2.565580810546875,0.2960101366043091,0.46924862265586853,0.26471802592277527
1751214938790574800,2.575574951171875,0.3183806836605072,0.5075981020927429,0.20932430028915405
1751214938800568600,2.585568603515625,0.3567301630973816,0.5342296957969666,0.18588849902153015
1751214938810562300,2.595562255859375,0.41958072781562805,0.5640571117401123,0.21465063095092773
1751214938820556000,2.60555615234375,0.48136600852012634,0.6013413071632385,0.267913818359375
1751214938830549800,2.6155498046875,0.5399554967880249,0.5811012983322144,0.3211769759654999
1751214938840543500,2.62554345703125,0.6166545152664185,0.47350969910621643,0.3531349003314972
1751214938850537200,2.635537109375,0.6869618892669678,0.34141698479652405,0.33182963728904724
1751214938860531000,2.645531005859375,0.7327682375907898,0.18482324481010437,0.26684853434562683
1751214938870524700,2.655524658203125,0.8094671964645386,-0.09214530140161514,0.19654114544391632
1751214938880518400,2.665518310546875,0.9074714779853821,-0.36485278606414795,0.16245271265506744
1751214938890512100,2.67551220703125,1.0108020305633545,-0.3904191255569458,0.23702116310596466
1751214938900505900,2.685505859375,1.1322420835494995,-0.04314317926764488,0.42131176590919495
1751214938910499800,2.695499755859375,1.2717915773391724,0.5811012983322144,0.6737792491912842
1751214938920493600,2.70549365234375,1.4592779874801636,1.2170636653900146,0.917724609375
1751214938930487300,2.7154873046875,1.6872444152832031,1.6570175886154175,1.0199899673461914
1751214938940481000,2.72548095703125,1.9045581817626953,1.7731313705444336,0.9326383471488953
1751214938950474800,2.735474853515625,2.065412998199463,1.6538218259811401,0.7355645298957825
1751214938960468500,2.745468505859375,2.169808864593506,1.4801838397979736,0.5661876201629639
1751214938970462200,2.755462158203125,2.2454426288604736,1.3502216339111328,0.5129244327545166
1751214938980456000,2.7654560546875,2.313619375228882,1.2468911409378052,0.5800360441207886
1751214938990450000,2.775449951171875,2.382861614227295,1.1446257829666138,0.8026761412620544
1751214939000443600,2.785443603515625,2.3796658515930176,1.20321524143219,1.2213248014450073
1751214939010437400,2.795437255859375,2.2347898483276367,1.3853753805160522,1.6506260633468628
1751214939020431400,2.805431396484375,1.93332040309906,1.3843101263046265,1.8860492706298828
1751214939030425000,2.815425048828125,1.541303277015686,1.1669963598251343,1.8381123542785645
1751214939040418800,2.825418701171875,1.2824442386627197,0.933703601360321,1.4418343305587769
1751214939050412500,2.83541259765625,1.1940274238586426,0.4042675495147705,0.9571393728256226
1751214939060406500,2.845406494140625,1.1205241680145264,-0.23915168642997742,0.6407560706138611
1751214939070400300,2.855400146484375,1.0470210313796997,-0.540621280670166,0.5054675936698914
1751214939080394000,2.86539404296875,0.9905620217323303,-0.5651223659515381,0.456465482711792
1751214939090388000,2.875387939453125,0.9564735889434814,-0.523577094078064,0.4181159734725952
1751214939100381700,2.885381591796875,0.9660609364509583,-0.523577094078064,0.3573959469795227
1751214939110375400,2.89537548828125,1.0225199460983276,-0.5502086877822876,0.267913818359375
1751214939120369200,2.905369140625,1.0843052864074707,-0.586427628993988,0.1464737504720688
1751214939130363100,2.915363037109375,1.1290463209152222,-0.5896234512329102,0.04314317926764488
1751214939140356900,2.92535693359375,1.1578084230422974,-0.5363602638244629,-0.013315795920789242
1751214939150350600,2.9353505859375,1.1705915927886963,-0.4191812574863434,-0.029294749721884727
1751214939160344600,2.945344482421875,1.1631346940994263,-0.2540653645992279,-0.006924213841557503
1751214939170338300,2.95533837890625,1.1524821519851685,-0.062317922711372375,0.04314317926764488
1751214939180332000,2.96533203125,1.1492862701416016,0.07190529257059097,0.10599373281002045
1751214939190325800,2.97532568359375,1.1258505582809448,0.09747162461280823,0.15712638199329376
1751214939200319700,2.98531982421875,1.075783133506775,0.09534109383821487,0.1976063996553421
1751214939210313500,2.9953134765625,1.0321073532104492,0.09108003973960876,0.23169484734535217
1751214939220307200,3.00530712890625,1.0054757595062256,0.050600022077560425,0.27110961079597473
1751214939230301200,3.01530126953125,0.9799094200134277,0.0005326318205334246,0.3243727684020996
1751214939240295000,3.025294921875,0.9617999196052551,-0.020772641524672508,0.3914843797683716
1751214939250288600,3.03528857421875,0.9703220129013062,-0.013315795920789242,0.47350969910621643
1751214939260282400,3.045282470703125,0.9916272759437561,0.025033695623278618,0.5544697046279907
1751214939270276400,3.0552763671875,1.0108020305633545,0.09534109383821487,0.6215813159942627
1751214939280270000,3.06527001953125,1.0022798776626587,0.1976063996553421,0.67484450340271
1751214939290263800,3.075263916015625,0.9628651738166809,0.3020022511482239,0.6961497664451599
1751214939300257800,3.0852578125,0.9000146389007568,0.34993910789489746,0.6854971647262573
1751214939310251500,3.09525146484375,0.8179892897605896,0.33715593814849854,0.636495053768158
1751214939320245200,3.105245361328125,0.7221155762672424,0.2487390637397766,0.5523391962051392
1751214939330239200,3.1152392578125,0.6070671081542969,0.11345057934522629,0.45007389783859253
1751214939340233000,3.12523291015625,0.4888228476047516,-0.03142527863383293,0.335025429725647
1751214939350226700,3.135226806640625,0.3801659643650055,-0.19654114544391632,0.21465063095092773
1751214939360220400,3.145220458984375,0.29387959837913513,-0.37444016337394714,0.1038632020354271
1751214939370214400,3.15521435546875,0.23955115675926208,-0.5044023394584656,0.030360013246536255
1751214939380208000,3.1652080078125,0.23635536432266235,-0.5896234512329102,-0.0015978955198079348
1751214939390201900,3.175201904296875,0.25126907229423523,-0.6183855533599854,0.011185267940163612
1751214939400195800,3.18519580078125,0.2715090811252594,-0.5789707899093628,0.06338318437337875
1751214939410189600,3.195189453125,0.2949448823928833,-0.4703139066696167,0.11984215676784515
1751214939420183300,3.205183349609375,0.31625014543533325,-0.3616569936275482,0.1603221744298935
1751214939430177000,3.215177001953125,0.33968594670295715,-0.23382537066936493,0.1826927214860916
1751214939440171000,3.2251708984375,0.3556649088859558,-0.09747162461280823,0.20825904607772827
1751214939450164700,3.235164794921875,0.3663175404071808,0.002663159044459462,0.2306295782327652
1751214939460158500,3.245158447265625,0.37590491771698,0.04846949502825737,0.23915168642997742
1751214939470152400,3.25515234375,0.38762280344963074,0.08788424730300903,0.22956430912017822
1751214939480146200,3.265146240234375,0.4025365114212036,0.13369058072566986,0.20825904607772827
1751214939490140000,3.275139892578125,0.4355596601963043,0.16564849019050598,0.18482324481010437
1751214939500133600,3.285133544921875,0.47071337699890137,0.1976063996553421,0.1645832359790802
1751214939510127600,3.295127685546875,0.4877575933933258,0.23595589399337769,0.1411474347114563
1751214939520121300,3.305121337890625,0.48030075430870056,0.28389275074005127,0.12836426496505737
1751214939530115000,3.315114990234375,0.4589954614639282,0.31372013688087463,0.11984215676784515
1751214939540108800,3.32510888671875,0.44301652908325195,0.28495803475379944,0.08894951641559601
1751214939550102500,3.3351025390625,0.42916807532310486,0.21997694671154022,0.029294749721884727
1751214939560096300,3.34509619140625,0.4259723126888275,0.16564849019050598,-0.030360013246536255
1751214939570090000,3.355090087890625,0.4419512450695038,0.14327795803546906,-0.0516652874648571
1751214939580083700,3.365083740234375,0.46219125390052795,0.1464737504720688,-0.027164222672581673
1751214939590077400,3.375077392578125,0.49095338582992554,0.12942953407764435,0.029294749721884727
1751214939600071200,3.3850712890625,0.4888228476047516,0.08042740821838379,0.09108003973960876
1751214939610065000,3.39506494140625,0.4888228476047516,-0.037816859781742096,0.14327795803546906
1751214939620058600,3.40505859375,0.451538622379303,-0.19121482968330383,0.21038956940174103
1751214939630052600,3.415052490234375,0.33116382360458374,-0.3520696461200714,0.29028433561325073
1751214939640046300,3.42504638671875,0.1681784987449646,-0.47350969910621643,0.34567806124687195
1751214939650040000,3.4350400390625,0.037151068449020386,-0.5310339331626892,0.3478085696697235
1751214939660033800,3.44503369140625,0.014780532568693161,-0.5885581374168396,0.2743053734302521
1751214939670027500,3.455027587890625,0.03502054139971733,-0.6940192580223083,0.154995858669281
1751214939680021200,3.465021240234375,0.08615319430828094,-0.9315730333328247,0.00798947736620903
1751214939690015000,3.475014892578125,0.12769848108291626,-1.2202595472335815,-0.12303794920444489
1751214939700008700,3.4850087890625,0.1117195263504982,-1.3970932960510254,-0.23382537066936493
1751214939719996200,3.50499609375,0.012650005519390106,-1.3033500909805298,-0.4511391520500183
1751214939729990000,3.514989990234375,-0.043808966875076294,-1.0295772552490234,-0.5534044504165649
1751214939739983600,3.524983642578125,-0.11305110156536102,-0.65353924036026,-0.6418213248252869
1751214939749977600,3.5349775390625,-0.20253324508666992,-0.3062632977962494,-0.7430213689804077
1751214939759971300,3.544971435546875,-0.3271690905094147,-0.0655137151479721,-0.8410256505012512
1751214939769965000,3.554965087890625,-0.46352285146713257,0.03675159439444542,-0.9241161942481995
1751214939779958800,3.564958740234375,-0.5870934128761292,0.04953476041555405,-0.9997498989105225
1751214939789952500,3.574952392578125,-0.6925545334815979,0.04846949502825737,-1.0945583581924438
1751214939799946200,3.5849462890625,-0.8076030015945435,0.11238531768321991,-1.2202595472335815
1751214939809940000,3.59493994140625,-0.9002809524536133,0.25726115703582764,-1.393897533416748
1751214939819933700,3.60493359375,-0.9833714962005615,0.5086634159088135,-1.6144070625305176
1751214939829927400,3.614927490234375,-1.0685925483703613,0.8463519811630249,-1.8871145248413086
1751214939839921400,3.62492138671875,-1.1889673471450806,1.3012195825576782,-2.168344259262085
1751214939859908900,3.644908935546875,-1.4936327934265137,2.470879077911377,-2.365417957305908
1751214939869902800,3.65490283203125,-1.6640750169754028,2.9651613235473633,-2.241847276687622
1751214939879896600,3.664896484375,-1.776992917060852,3.105776071548462,-2.043708324432373
1751214939889890300,3.674890380859375,-1.873931884765625,2.9747486114501953,-1.7986977100372314
1751214939899884000,3.684884033203125,-1.9676750898361206,2.559295892715454,-1.507880687713623
1751214939909878000,3.6948779296875,-2.0262646675109863,1.902028203010559,-1.1797795295715332
1751214939919871700,3.704871826171875,-2.062483549118042,1.056208848953247,-0.8900277614593506
1751214939929865500,3.714865478515625,-2.121073007583618,0.06444845348596573,-0.6759097576141357
1751214939939859500,3.724859375,-2.1785972118377686,-0.9273120164871216,-0.4990760087966919
1751214939949853200,3.734853271484375,-2.19564151763916,-1.5302512645721436,-0.4053328037261963
1751214939959847000,3.744846923828125,-2.162618398666382,-1.567535400390625,-0.34567806124687195
1751214939969841000,3.7548408203125,-2.126399278640747,-1.0487520694732666,-0.343547523021698
1751214939979834600,3.764834716796875,-2.141313076019287,-0.13369058072566986,-0.40213701128959656
1751214939989828400,3.774828369140625,-2.23079514503479,0.8080024719238281,-0.5278381109237671
1751214939999822000,3.784822021484375,-2.389519453048706,1.3715269565582275,-0.6897581815719604
1751214940009816000,3.794816162109375,-2.57381010055542,1.349156379699707,-0.7813708782196045
1751214940019809800,3.804809814453125,-2.692054271697998,0.7813708782196045,-0.787762463092804
1751214940029803500,3.814803466796875,-2.7090985774993896,-0.04101264849305153,-0.7387603521347046
1751214940039797500,3.824797607421875,-2.662226915359497,-0.8261119723320007,-0.6844319105148315
1751214940049791200,3.834791259765625,-2.563157558441162,-1.2969584465026855,-0.6311687231063843
1751214940059785000,3.844784912109375,-2.449174165725708,-1.3800489902496338,-0.5715139508247375
1751214940069778700,3.85477880859375,-2.339452028274536,-1.1638004779815674,-0.49055391550064087
1751214940079772700,3.864772705078125,-2.286188840866089,-0.7675224542617798,-0.36911386251449585
1751214940089766400,3.874766357421875,-2.2521004676818848,-0.3307643532752991,-0.2625874876976013
1751214940099760000,3.884760009765625,-2.116811990737915,0.01225053146481514,-0.17949692904949188
1751214940109754000,3.894754150390625,-2.058222532272339,0.2551306486129761,-0.11558110266923904
1751214940119747800,3.904747802734375,-2.028395175933838,0.31265488266944885,-0.09214530140161514
1751214940129741600,3.914741455078125,-1.9964371919631958,0.19973693788051605,-0.11877689510583878
1751214940139735300,3.9247353515625,-1.958087682723999,-0.04527370631694794,-0.17310534417629242
1751214940149729300,3.934729248046875,-1.970870852470398,-0.276435911655426,-0.18482324481010437
1751214940159723000,3.944722900390625,-1.978327751159668,-0.45433494448661804,-0.1837579756975174
1751214940169716700,3.954716796875,-1.6875107288360596,-0.6546044945716858,-0.21252009272575378
1751214940179710700,3.964710693359375,-1.51706862449646,-0.6258423924446106,-0.2551306486129761
1751214940189704400,3.974704345703125,-1.3732579946517944,-0.5480781197547913,-0.287088543176651
1751214940199698200,3.9846982421875,-1.2006852626800537,-0.5512739419937134,-0.2732401192188263
1751214940209692000,3.99469189453125,-1.0078725814819336,-0.5874928832054138,-0.22423799335956573
1751214940219686000,4.004685791015625,-0.8054724931716919,-0.599210798740387,-0.18162745237350464
1751214940229679600,4.0146796875,-0.6169208288192749,-0.6354297399520874,-0.16245271265506744
1751214940239673300,4.02467333984375,-0.45606598258018494,-0.6801708340644836,-0.1464737504720688
1751214940249667300,4.034667236328125,-0.3356912136077881,-0.6663224101066589,-0.11877689510583878
1751214940259661000,4.0446611328125,-0.2547311782836914,-0.5789707899093628,-0.07936213910579681
1751214940269654800,4.05465478515625,-0.19081534445285797,-0.48629283905029297,-0.0015978955198079348
1751214940279648500,4.0646484375,-0.13542163372039795,-0.4032022953033447,0.07723161578178406
1751214940289642500,4.074642578125,-0.07683213800191879,-0.31798118352890015,0.13262532651424408
1751214940299636200,4.08463623046875,-0.0011984215816482902,-0.21997694671154022,0.17736639082431793
1751214940309630000,4.0946298828125,0.09893636405467987,-0.09640636295080185,0.24128220975399017
1751214940319624000,4.1046240234375,0.20226693153381348,0.020772641524672508,0.3243727684020996
1751214940329617700,4.11461767578125,0.31518489122390747,0.1368863731622696,0.4138549268245697
1751214940339611400,4.124611328125,0.440885990858078,0.30413275957107544,0.5118591785430908
1751214940349605400,4.13460546875,0.5697829127311707,0.5193160176277161,0.5811012983322144
1751214940359599000,4.14459912109375,0.7167892456054688,0.7217161059379578,0.6162550449371338
1751214940369592800,4.1545927734375,0.8882967233657837,0.8474172353744507,0.6205160617828369
1751214940379586600,4.164586669921875,1.0480862855911255,0.8932235836982727,0.6109287142753601
1751214940389580500,4.17458056640625,1.1194589138031006,0.8442214131355286,0.5928192138671875
1751214940399574300,4.18457421875,1.1258505582809448,0.6524739861488342,0.5970802903175354
1751214940409568000,4.194568115234375,1.1333073377609253,0.3914843797683716,0.6524739861488342
1751214940419562000,4.20456201171875,1.1695263385772705,0.3201117217540741,0.7568697929382324
1751214940429555700,4.2145556640625,1.2132021188735962,0.6482129096984863,0.8847014307975769
1751214940439549400,4.224549560546875,1.2302463054656982,1.299088954925537,0.9699225425720215
1751214940449543400,4.23454345703125,1.1865705251693726,1.9116156101226807,1.001880407333374
1751214940459537200,4.244537109375,1.1109367609024048,2.1310598850250244,1.0061415433883667
1751214940469531100,4.25453125,1.057673692703247,2.103363037109375,0.9443562030792236
1751214940479524900,4.26452490234375,1.0853705406188965,1.9925756454467773,0.7515435218811035
1751214940489518800,4.274518798828125,1.255812644958496,1.5973628759384155,0.5150549411773682
1751214940499512600,4.2845126953125,1.5199980735778809,0.8751140832901001,0.4372907280921936
1751214940509506600,4.294506591796875,1.754356026649475,0.2785664498806,0.5097286701202393
1751214940519500300,4.304500244140625,1.8800572156906128,0.07829687744379044,0.6492781639099121
1751214940529494300,4.314494384765625,1.9109498262405396,0.11345057934522629,0.8143940567970276
1751214940539488000,4.324488037109375,1.8928403854370117,0.22849905490875244,0.9997498989105225
1751214940549482000,4.33448193359375,1.841707706451416,0.3339601457118988,1.156343698501587
1751214940559475700,4.344475830078125,1.7586171627044678,0.27963170409202576,1.2096068859100342
1751214940569469700,4.3544697265625,1.6393076181411743,0.02396843209862709,1.1243857145309448
1751214940579463400,4.36446337890625,1.5231938362121582,-0.3339601457118988,0.972053050994873
1751214940589457400,4.37445751953125,1.4262548685073853,-0.6439518928527832,0.7856319546699524
1751214940599451100,4.384451171875,1.360208511352539,-0.7973498106002808,0.645017147064209
1751214940609444900,4.39444482421875,1.3197284936904907,-0.7813708782196045,0.5821665525436401
1751214940619438800,4.40443896484375,1.3069453239440918,-0.7014760971069336,0.5672528743743896
1751214940629432600,4.4144326171875,1.3048148155212402,-0.6524739861488342,0.5534044504165649
1751214940639426600,4.424426513671875,1.298423171043396,-0.6226465702056885,0.5352949500083923
1751214940649420300,4.434420166015625,1.2867053747177124,-0.5832318663597107,0.4990760087966919
1751214940659414300,4.444414306640625,1.2568778991699219,-0.5257076025009155,0.4522044062614441
1751214940669408000,4.454407958984375,1.2121368646621704,-0.456465482711792,0.4053328037261963
1751214940679402000,4.464402099609375,1.1631346940994263,-0.38296228647232056,0.37870121002197266
1751214940689395700,4.474395751953125,1.1290463209152222,-0.3243727684020996,0.36059173941612244
1751214940699389700,4.4843896484375,1.1141326427459717,-0.2540653645992279,0.354200154542923
1751214940709383400,4.494383544921875,1.117328405380249,-0.13901691138744354,0.37444016337394714
1751214940719377400,4.50437744140625,1.1322420835494995,0.015446322970092297,0.41598546504974365
1751214940729371100,4.51437109375,1.1695263385772705,0.16245271265506744,0.4703139066696167
1751214940739365000,4.524365234375,1.208941102027893,0.26578328013420105,0.5150549411773682
1751214940749358800,4.53435888671875,1.244094729423523,0.31158962845802307,0.5395560264587402
1751214940759352800,4.544352783203125,1.2717915773391724,0.2998717129230499,0.5459476113319397
1751214940769346600,4.5543466796875,1.2749874591827393,0.25193485617637634,0.5246423482894897
1751214940779340300,4.56434033203125,1.2408989667892456,0.2306295782327652,0.4980107545852661
1751214940789334300,4.574334228515625,1.1780483722686768,0.27110961079597473,0.4809665381908417
1751214940799328000,4.584327880859375,1.100284218788147,0.3286338448524475,0.46392232179641724
1751214940809321700,4.59432177734375,1.025715708732605,0.3488738536834717,0.43516018986701965
1751214940819315700,4.604315673828125,0.9724525213241577,0.31691592931747437,0.39361491799354553
1751214940829309400,4.614309326171875,0.9394294023513794,0.2402169555425644,0.3584612011909485
1751214940839303200,4.62430322265625,0.9074714779853821,0.14327795803546906,0.332894891500473
1751214940849297000,4.634296875,0.8701872229576111,0.04846949502825737,0.29880645871162415
1751214940859291000,4.644290771484375,0.8307724595069885,-0.062317922711372375,0.25726115703582764
1751214940869284600,4.65428466796875,0.7913577556610107,-0.16138744354248047,0.21252009272575378
1751214940879278300,4.6642783203125,0.7476819157600403,-0.2625874876976013,0.15712638199329376
1751214940889272300,4.674272216796875,0.6827008128166199,-0.39681071043014526,0.11558110266923904
1751214940899266000,4.68426611328125,0.5932186841964722,-0.5289034247398376,0.09747162461280823
1751214940909259800,4.694259765625,0.49414917826652527,-0.6354297399520874,0.1038632020354271
1751214940919253800,4.704253662109375,0.41425439715385437,-0.6663224101066589,0.11984215676784515
1751214940929247500,4.71424755859375,0.34501224756240845,-0.690823495388031,0.14860427379608154
1751214940939241200,4.7242412109375,0.30666276812553406,-0.6652571558952332,0.21358536183834076
1751214940949235000,4.73423486328125,0.3002711832523346,-0.6247771382331848,0.3051980435848236
1751214940959229000,4.74422900390625,0.29814067482948303,-0.5629918575286865,0.36059173941612244
1751214940969222700,4.75422265625,0.3098585605621338,-0.4479433596134186,0.3531349003314972
1751214940979216400,4.76421630859375,0.3609912097454071,-0.30306750535964966,0.28921908140182495
1751214940989210400,4.77421044921875,0.4046670198440552,-0.19973693788051605,0.21891167759895325
1751214940999204000,4.7842041015625,0.4281028211116791,-0.1358211189508438,0.16351796686649323
1751214941009197800,4.79419775390625,0.4419512450695038,-0.11558110266923904,0.11132004857063293
1751214941019191600,4.804191650390625,0.45793020725250244,-0.13262532651424408,0.06338318437337875
1751214941029185500,4.814185546875,0.47710496187210083,-0.14753901958465576,0.042077913880348206
1751214941039179300,4.82417919921875,0.4888228476047516,-0.16564849019050598,0.062317922711372375
1751214941049173000,4.834173095703125,0.4888228476047516,-0.19973693788051605,0.11558110266923904
1751214941059167000,4.8441669921875,0.48988813161849976,-0.20080219209194183,0.21784640848636627
1751214941069160700,4.85416064453125,0.49414917826652527,-0.1688442826271057,0.3424822688102722
1751214941079154400,4.864154541015625,0.49947547912597656,-0.06764423847198486,0.4522044062614441
1751214941089148200,4.874148193359375,0.5048018097877502,0.053795814514160156,0.5299686789512634
1751214941099142100,4.88414208984375,0.497344970703125,0.1368863731622696,0.5715139508247375
1751214941109136000,4.894135986328125,0.4792354702949524,0.17630113661289215,0.5768402814865112
1751214941119129600,4.904129638671875,0.4600607454776764,0.19441060721874237,0.5352949500083923
1751214941129123600,4.91412353515625,0.44301652908325195,0.22956430912017822,0.4426170289516449
1751214941139117300,4.924117431640625,0.4281028211116791,0.276435911655426,0.2924148738384247
1751214941149111000,4.934111083984375,0.40999335050582886,0.3243727684020996,0.11025478690862656
1751214941159104800,4.944104736328125,0.3897533416748047,0.3861580789089203,-0.04314317926764488
1751214941169098800,4.9540986328125,0.36844804883003235,0.46711811423301697,-0.13049480319023132
1751214941179092500,4.964092529296875,0.3577954173088074,0.5502086877822876,-0.1645832359790802
1751214941189086200,4.974086181640625,0.3460775315761566,0.6194508075714111,-0.16564849019050598
1751214941199080200,4.984080078125,0.3428817391395569,0.6791055798530579,-0.1507348120212555
1751214941209074000,4.994073974609375,0.35033857822418213,0.7004108428955078,-0.13262532651424408
1751214941219067600,5.004067626953125,0.35459962487220764,0.662061333656311,-0.11558110266923904
1751214941229061400,5.014061279296875,0.3375554084777832,0.5576655268669128,-0.10279794037342072
1751214941239055400,5.024055419921875,0.2960101366043091,0.40213701128959656,-0.09640636295080185
1751214941249049000,5.034049072265625,0.2342248409986496,0.20932430028915405,-0.09321057051420212
1751214941259042800,5.044042724609375,0.1447426974773407,-0.027164222672581673,-0.0846884623169899
1751214941269036800,5.054036865234375,0.022237379103899002,-0.2625874876976013,-0.059122130274772644
1751214941279030500,5.064030517578125,-0.10665952414274216,-0.464987576007843,-0.01970737800002098
1751214941289024300,5.074024169921875,-0.2557964324951172,-0.5800360441207886,0.027164222672581673
1751214941299018200,5.084018310546875,-0.42410808801651,-0.6332992315292358,0.05699160322546959
1751214941309012000,5.094011962890625,-0.5444828867912292,-0.636495053768158,0.046338967978954315
1751214941319005700,5.104005615234375,-0.558331310749054,-0.6119939684867859,-0.021837905049324036
1751214941328999400,5.11399951171875,-0.46884915232658386,-0.5736444592475891,-0.14753901958465576
1751214941338993400,5.123993408203125,-0.3452785909175873,-0.5480781197547913,-0.3392864763736725
1751214941348987100,5.133987060546875,-0.2547311782836914,-0.48309704661369324,-0.5491434335708618
1751214941358981000,5.143981201171875,-0.23662169277668,-0.3755054473876953,-0.7110635042190552
1751214941368974800,5.153974853515625,-0.2792322337627411,-0.2924148738384247,-0.7941540479660034
1751214941378968800,5.16396875,-0.3644533157348633,-0.26684853434562683,-0.8218508958816528
1751214941398956500,5.18395654296875,-0.5977460741996765,-0.35100436210632324,-0.9038761854171753
1751214941408950300,5.1939501953125,-0.6872282028198242,-0.3808317482471466,-1.0828404426574707
1751214941418944300,5.2039443359375,-0.7436871528625488,-0.30306750535964966,-1.4088112115859985
1751214941428938000,5.21393798828125,-0.8193209171295166,-0.0655137151479721,-1.8082849979400635
1751214941438932000,5.223931884765625,-0.98124098777771,0.41065913438796997,-2.177931547164917
1751214941448925700,5.23392578125,-1.1346389055252075,1.0988194942474365,-2.4335947036743164
1751214941458919700,5.243919677734375,-1.2848410606384277,1.823198676109314,-2.5273380279541016
1751214941468913400,5.253913330078125,-1.3913674354553223,2.4325294494628906,-2.4474432468414307
1751214941478907400,5.263907470703125,-1.4893717765808105,2.7861969470977783,-2.2397167682647705
1751214941488901000,5.273901123046875,-1.5692665576934814,2.8341338634490967,-1.959552526473999
1751214941498895000,5.28389501953125,-1.6267907619476318,2.6530392169952393,-1.6389081478118896
1751214941508888800,5.293888916015625,-1.6438349485397339,2.3036327362060547,-1.311872124671936
1751214941518882800,5.3038828125,-1.6321170330047607,1.7955018281936646,-0.9976193904876709
1751214941528876500,5.31387646484375,-1.5916370153427124,1.1350383758544922,-0.7110635042190552
1751214941538870500,5.32387060546875,-1.5735275745391846,0.5161202549934387,-0.4937497079372406
1751214941548864300,5.3338642578125,-1.558613896369934,-0.010120004415512085,-0.34141698479652405
1751214941558858200,5.343858154296875,-1.5255906581878662,-0.29454538226127625,-0.22956430912017822
1751214941568852000,5.35385205078125,-1.51706862449646,-0.22317273914813995,-0.21038956940174103
1751214941578845700,5.363845703125,-1.5969634056091309,0.12623374164104462,-0.29028433561325073
1751214941588839700,5.373839599609375,-1.784449815750122,0.5257076025009155,-0.4415517747402191
1751214941598833400,5.38383349609375,-2.00282883644104,0.7163897752761841,-0.6002760529518127
1751214941608827400,5.393827392578125,-2.2084245681762695,0.607732892036438,-0.7131940126419067
1751214941618821000,5.403821044921875,-2.3564963340759277,0.2498043179512024,-0.7408908605575562
1751214941628815000,5.413815185546875,-2.4321300983428955,-0.18588849902153015,-0.6556697487831116
1751214941638808800,5.423808837890625,-2.4331953525543213,-0.540621280670166,-0.5150549411773682
1751214941648802800,5.433802734375,-2.4023027420043945,-0.7366297841072083,-0.4095938801765442
1751214941658796500,5.443796630859375,-2.3330605030059814,-0.8026761412620544,-0.37017911672592163
1751214941668790500,5.45379052734375,-2.24570894241333,-0.7717835307121277,-0.3659180700778961
1751214941678784300,5.4637841796875,-2.162618398666382,-0.7046719193458557,-0.3478085696697235
1751214941688778200,5.4737783203125,-2.0987024307250977,-0.6492781639099121,-0.2956106662750244
1751214941698772000,5.48377197265625,-2.0401129722595215,-0.6194508075714111,-0.22317273914813995
1751214941708766000,5.493765869140625,-2.0315909385681152,-0.5289034247398376,-0.15180006623268127
1751214941728753700,5.513753662109375,-1.9847192764282227,-0.3009369671344757,-0.09108003973960876
1751214941738747400,5.523747314453125,-1.9197382926940918,-0.26152223348617554,-0.07190529257059097
1751214941748741400,5.533741455078125,-1.8664751052856445,-0.24234747886657715,-0.06018739566206932
1751214941758735000,5.543735107421875,-1.868605613708496,-0.2253032624721527,-0.042077913880348206
1751214941768729000,5.55372900390625,-1.7503613233566284,-0.2444780021905899,-0.025033695623278618
1751214941778722800,5.563722900390625,-1.6630096435546875,-0.21465063095092773,0.0037284228019416332
1751214941788716800,5.573716796875,-1.5607444047927856,-0.16138744354248047,0.05273054912686348
1751214941798710500,5.58371044921875,-1.4542180299758911,-0.09001477807760239,0.11238531768321991
1751214941808704500,5.59370458984375,-1.4009548425674438,0.002663159044459462,0.16777902841567993
1751214941818698200,5.6036982421875,-1.229447364807129,-0.002663159044459462,0.20399798452854156
1751214941828692200,5.613692138671875,-1.1580747365951538,-0.04527370631694794,0.21252009272575378
1751214941838686000,5.62368603515625,-0.9823062419891357,-0.17736639082431793,0.20293273031711578
1751214941848680000,5.633679931640625,-0.8321040868759155,-0.27537065744400024,0.18162745237350464
1751214941858673700,5.643673583984375,-0.6989461183547974,-0.33182963728904724,0.1592569202184677
1751214941868667600,5.653667724609375,-0.5412870645523071,-0.39787596464157104,0.13901691138744354
1751214941878661400,5.663661376953125,-0.3772364854812622,-0.46818336844444275,0.10918952524662018
1751214941888655400,5.6736552734375,-0.22064273059368134,-0.5267728567123413,0.08149266988039017
1751214941898649000,5.683649169921875,-0.0810931921005249,-0.5715139508247375,0.06657897680997849
1751214941908643000,5.69364306640625,0.03395527973771095,-0.623711884021759,0.06444845348596573
1751214941918636800,5.70363671875,0.1255679577589035,-0.6791055798530579,0.07190529257059097
1751214941928630800,5.713630859375,0.195875346660614,-0.6769750714302063,0.0942758321762085
1751214941938624500,5.72362451171875,0.252334326505661,-0.5853623747825623,0.14221268892288208
1751214941948618500,5.733618408203125,0.3055975139141083,-0.4181159734725952,0.20612850785255432
1751214941958612200,5.7436123046875,0.3609912097454071,-0.21465063095092773,0.27004432678222656
1751214941968606200,5.753606201171875,0.42384177446365356,0.01225053146481514,0.33182963728904724
1751214941978600000,5.763599853515625,0.4920186400413513,0.267913818359375,0.3776359558105469
1751214941988594000,5.773593994140625,0.5506081581115723,0.4980107545852661,0.40213701128959656
1751214941998587600,5.783587646484375,0.6060018539428711,0.6705834865570068,0.4138549268245697
1751214942008581600,5.79358154296875,0.627307116985321,0.7526087760925293,0.4287686049938202
1751214942018575400,5.803575439453125,0.6017407774925232,0.7163897752761841,0.4362254738807678
1751214942028569300,5.8135693359375,0.5697829127311707,0.5800360441207886,0.4788359999656677
1751214942038563000,5.82356298828125,0.5474123358726501,0.38296228647232056,0.5629918575286865
1751214942048557000,5.83355712890625,0.581500768661499,0.23595589399337769,0.6066676378250122
1751214942058550800,5.84355078125,0.6848313808441162,0.1358211189508438,0.586427628993988
1751214942068544800,5.853544677734375,0.8041408658027649,0.16138744354248047,0.5523391962051392
1751214942078538500,5.86353857421875,0.920254647731781,0.3755054473876953,0.5491434335708618
1751214942088532500,5.873532470703125,1.0587389469146729,0.6961497664451599,0.586427628993988
1751214942098526200,5.883526123046875,1.2110716104507446,0.9773793816566467,0.6343644857406616
1751214942108520200,5.893520263671875,1.3570127487182617,1.2138679027557373,0.6588655710220337
1751214942118514000,5.903513916015625,1.4795180559158325,1.3928321599960327,0.6524739861488342
1751214942128508000,5.9135078125,1.5796527862548828,1.4183984994888306,0.607732892036438
1751214942138501600,5.923501708984375,1.6765917539596558,1.259674310684204,0.5427518486976624
1751214942148495600,5.93349560546875,1.7959012985229492,0.9827057123184204,0.45859599113464355
1751214942158489300,5.9434892578125,1.9301245212554932,0.7462171912193298,0.3989412188529968
1751214942168483300,5.9534833984375,2.0526299476623535,0.6322339773178101,0.42131176590919495
1751214942178477000,5.96347705078125,2.148503541946411,0.5800360441207886,0.5363602638244629
1751214942188471000,5.973470947265625,2.1921794414520264,0.5683181285858154,0.7302381992340088
1751214942198464800,5.98346484375,2.1708741188049316,0.5821665525436401,0.9869667887687683
1751214942208458800,5.993458740234375,2.095240354537964,0.6375603079795837,1.2383689880371094
1751214942218452500,6.003452392578125,1.950364589691162,0.6492781639099121,1.3651353120803833
1751214942228446500,6.013446533203125,1.7650086879730225,0.5917539596557617,1.2926974296569824
1751214942238440200,6.023440185546875,1.5977623462677002,0.3712443709373474,1.051947832107544
1751214942248434200,6.03343408203125,1.4678001403808594,-0.027164222672581673,0.766457200050354
1751214942258428000,6.043427978515625,1.3793832063674927,-0.45007389783859253,0.5161202549934387
1751214942268422000,6.053421875,1.3346421718597412,-0.7376950979232788,0.34141698479652405
1751214942278415600,6.06341552734375,1.311206340789795,-0.8974846005439758,0.25193485617637634
1751214942288409300,6.073409423828125,1.276052713394165,-0.9859014749526978,0.22956430912017822
1751214942298403300,6.0834033203125,1.2259852886199951,-1.0189247131347656,0.2263685166835785
1751214942308397000,6.09339697265625,1.171656847000122,-0.984836220741272,0.24554327130317688
1751214942318391000,6.10339111328125,1.124785304069519,-0.8932235836982727,0.26045694947242737
1751214942328384800,6.113384765625,1.087501049041748,-0.7866972088813782,0.26152223348617554
1751214942338378800,6.123378662109375,1.0768483877182007,-0.6897581815719604,0.24341274797916412
1751214942348372500,6.13337255859375,1.0906968116760254,-0.6013413071632385,0.19867166876792908
1751214942358366500,6.143366455078125,1.1162631511688232,-0.5416865348815918,0.13475584983825684
1751214942368360200,6.153360107421875,1.1450252532958984,-0.47670549154281616,0.06444845348596573
1751214942378354200,6.163354248046875,1.1503515243530273,-0.4095938801765442,-0.005858949851244688
1751214942388348000,6.173347900390625,1.1396989822387695,-0.3211769759654999,-0.04953476041555405
1751214942398342000,6.183341796875,1.1311768293380737,-0.23276010155677795,-0.06444845348596573
1751214942408335600,6.193335693359375,1.1354378461837769,-0.17630113661289215,-0.06444845348596573
1751214942418329600,6.20332958984375,1.14715576171875,-0.16138744354248047,-0.054861076176166534
1751214942428323300,6.2133232421875,1.1588736772537231,-0.1933453530073166,-0.029294749721884727
1751214942438317300,6.2233173828125,1.1578084230422974,-0.22849905490875244,0.013315795920789242
1751214942448311000,6.23331103515625,1.1503515243530273,-0.24554327130317688,0.06764423847198486
1751214942458305000,6.243304931640625,1.1535474061965942,-0.2444780021905899,0.1358211189508438
1751214942468298800,6.253298828125,1.1524821519851685,-0.22423799335956573,0.20825904607772827
1751214942478292700,6.263292724609375,1.159938931465149,-0.19547587633132935,0.2732401192188263
1751214942488286500,6.273286376953125,1.1503515243530273,-0.1454084813594818,0.3446127772331238
1751214942498280400,6.283280517578125,1.1258505582809448,-0.0708400309085846,0.4287686049938202
1751214942508274200,6.293274169921875,1.0843052864074707,-0.010120004415512085,0.5139896869659424
1751214942518268200,6.30326806640625,1.0289114713668823,0.050600022077560425,0.599210798740387
1751214942528262000,6.313261962890625,0.950082004070282,0.08894951641559601,0.690823495388031
1751214942538256000,6.323255859375,0.828641951084137,0.1315600574016571,0.7643266916275024
1751214942548249600,6.33324951171875,0.6795050501823425,0.1411474347114563,0.8239814043045044
1751214942558243600,6.34324365234375,0.5314334034919739,0.11132004857063293,0.8602004051208496
1751214942568237300,6.3532373046875,0.39081859588623047,0.01225053146481514,0.8484824895858765
1751214942578231300,6.363231201171875,0.262986958026886,-0.14966954290866852,0.7909582257270813
1751214942588225000,6.37322509765625,0.16604797542095184,-0.3051980435848236,0.6663224101066589
1751214942598219000,6.383218994140625,0.08508793264627457,-0.46285703778266907,0.5246423482894897
1751214942608212700,6.393212646484375,0.04780370742082596,-0.6141244769096375,0.38828858733177185
1751214942618206700,6.403206787109375,0.03821633383631706,-0.7089329361915588,0.26578328013420105
1751214942628200400,6.413200439453125,0.010519478470087051,-0.745151937007904,0.154995858669281
1751214942638194400,6.4231943359375,0.003062632866203785,-0.750478208065033,0.07936213910579681
1751214942648188200,6.433188232421875,0.024367906153202057,-0.7227813601493835,0.053795814514160156
1751214942658182100,6.44318212890625,0.053130023181438446,-0.65353924036026,0.09747162461280823
1751214942668176000,6.45317578125,0.11811110377311707,-0.5640571117401123,0.19121482968330383
1751214942678169900,6.463169921875,0.18948377668857574,-0.45433494448661804,0.31372013688087463
1751214942688163600,6.47316357421875,0.25446486473083496,-0.3009369671344757,0.532099187374115
1751214942698157600,6.483157470703125,0.35033857822418213,0.0005326318205334246,0.7632613778114319
1751214942708151300,6.4931513671875,0.4749744236469269,0.2913496196269989,0.9166593551635742
1751214942718145300,6.503145263671875,0.5740439295768738,0.45859599113464355,1.046621561050415
1751214942728139000,6.513138916015625,0.6518082022666931,0.45859599113464355,1.1989542245864868
1751214942738133000,6.523133056640625,0.7540735006332397,0.24234747886657715,1.349156379699707
1751214942748126700,6.533126708984375,0.8946883082389832,-0.1688442826271057,1.4674006700515747
1751214942758120700,6.54312060546875,1.0725873708724976,-0.6205160617828369,1.4972280263900757
1751214942768114400,6.553114501953125,1.276052713394165,-0.9081372618675232,1.4343775510787964
1751214942778108400,6.5631083984375,1.464604377746582,-1.0104025602340698,1.3587437868118286
1751214942788102100,6.57310205078125,1.5903054475784302,-0.9986846446990967,1.324655294418335
1751214942798096100,6.58309619140625,1.6094802618026733,-0.93902987241745,1.319329023361206
1751214942808089900,6.59308984375,1.518932819366455,-0.9070720076560974,1.294827938079834
1751214942818083800,6.603083740234375,1.3389031887054443,-0.9209204316139221,1.2021499872207642
1751214942828077600,6.61307763671875,1.1013494729995728,-0.863396167755127,0.9976193904876709
1751214942838071600,6.623071533203125,0.8094671964645386,-0.5651223659515381,0.6396908164024353
1751214942848065300,6.633065185546875,0.48988813161849976,-0.01225053146481514,0.18695376813411713
1751214942858059300,6.643059326171875,0.1735048145055771,0.6471476554870605,-0.22849905490875244
1751214942868053000,6.653052978515625,-0.09920267760753632,1.315068006515503,-0.4948149621486664
1751214942878047000,6.663046875,-0.28562381863594055,1.855156660079956,-0.5789707899093628
1751214942888040700,6.673040771484375,-0.37084490060806274,2.1246683597564697,-0.5054675936698914
1751214942898034700,6.68303466796875,-0.3623228073120117,2.122537851333618,-0.31798118352890015
1751214942908028400,6.6930283203125,-0.2930806577205658,1.8636786937713623,-0.10173267871141434
1751214942918022400,6.7030224609375,-0.1940111368894577,1.4173332452774048,0.04953476041555405
1751214942928016100,6.71301611328125,-0.07576687633991241,0.9134635925292969,0.09321057051420212
1751214942938010000,6.723010009765625,0.061652131378650665,0.4479433596134186,0.04420844092965126
1751214942948003800,6.73300390625,0.15219953656196594,0.062317922711372375,-0.050600022077560425
1751214942957997800,6.742997802734375,0.18096165359020233,-0.2167811542749405,-0.11877689510583878
1751214942967991600,6.752991455078125,0.16711322963237762,-0.4127896726131439,-0.14008216559886932
1751214942977985300,6.7629853515625,0.10958899557590485,-0.5502086877822876,-0.12623374164104462
1751214942987979300,6.772979248046875,0.01584579609334469,-0.6322339773178101,-0.11025478690862656
1751214942997973000,6.782972900390625,-0.10772478580474854,-0.662061333656311,-0.1177116334438324
1751214943007967000,6.792967041015625,-0.23342590034008026,-0.6279729008674622,-0.1464737504720688
1751214943017960700,6.802960693359375,-0.3548659384250641,-0.49694550037384033,-0.1880190372467041
1751214943027954700,6.81295458984375,-0.4379565119743347,-0.3009369671344757,-0.2444780021905899
1751214943037948400,6.822948486328125,-0.5029376149177551,-0.12942953407764435,-0.31691592931747437
1751214943047942400,6.8329423828125,-0.537026047706604,-0.013315795920789242,-0.400006502866745
1751214943057936100,6.84293603515625,-0.545548141002655,0.06444845348596573,-0.49055391550064087
1751214943067930000,6.85293017578125,-0.5242428779602051,0.1038632020354271,-0.577905535697937
1751214943077923800,6.862923828125,-0.48269757628440857,0.10918952524662018,-0.6716487407684326
1751214943087917800,6.872917724609375,-0.44541335105895996,0.09108003973960876,-0.7600656151771545
1751214943097911600,6.88291162109375,-0.4198470413684845,0.07403582334518433,-0.8314382433891296
1751214943107905500,6.892905517578125,-0.4294344186782837,0.05592634156346321,-0.8953540921211243
1751214943117899300,6.902899169921875,-0.4858933687210083,0.027164222672581673,-0.9699225425720215
1751214943127893200,6.912893310546875,-0.5796365737915039,-0.04101264849305153,-1.0743184089660645
1751214943137887000,6.922886962890625,-0.6925545334815979,-0.13369058072566986,-1.2138679027557373
1751214943147881000,6.932880859375,-0.8001461625099182,-0.19973693788051605,-1.382179617881775
1751214943157874700,6.942874755859375,-0.8970851302146912,-0.22743378579616547,-1.5813838243484497
1751214943167868700,6.95286865234375,-0.9886978268623352,-0.23276010155677795,-1.8029587268829346
1751214943177862400,6.9628623046875,-1.082440972328186,-0.20612850785255432,-2.0415778160095215
1751214943187856400,6.9728564453125,-1.1910978555679321,-0.11877689510583878,-2.2791316509246826
1751214943197850000,6.98285009765625,-1.3189295530319214,0.08042740821838379,-2.4889883995056152
1751214943207844000,6.992843994140625,-1.4680664539337158,0.4745749533176422,-2.6604959964752197
1751214943217837800,7.002837890625,-1.6417044401168823,1.1222552061080933,-2.7712833881378174
1751214943227831800,7.012831787109375,-1.7993634939193726,1.9382472038269043,-2.808567523956299
1751214943237825500,7.022825439453125,-1.9293255805969238,2.618950605392456,-2.7904582023620605
1751214943247819500,7.032819580078125,-2.0752668380737305,3.0099024772644043,-2.6913886070251465
1751214943257813200,7.042813232421875,-2.222273111343384,3.1132330894470215,-2.499641180038452
1751214943267807200,7.05280712890625,-2.314950942993164,2.982205629348755,-2.227998971939087
1751214943277801000,7.062801025390625,-2.3426477909088135,2.569948434829712,-1.8871145248413086
1751214943287795000,7.072794921875,-2.309624671936035,1.9488998651504517,-1.49616277217865
1751214943297788700,7.08278857421875,-2.200967788696289,1.2298468351364136,-1.1297121047973633
1751214943307782700,7.09278271484375,-2.0347867012023926,0.3520696461200714,-0.7430213689804077
1751214943317776400,7.1027763671875,-1.8430392742156982,-0.6205160617828369,-0.23595589399337769
1751214943327770400,7.112770263671875,-1.7034896612167358,-1.399223804473877,0.28069695830345154
1751214943337764000,7.12276416015625,-1.534112811088562,-1.8040239810943604,0.8218508958816528
1751214943347758000,7.132758056640625,-1.4116075038909912,-1.2724573612213135,1.416267991065979
1751214943357751800,7.142751708984375,-1.5703318119049072,0.4095938801765442,1.5217291116714478
1751214943367745800,7.152745849609375,-2.0305256843566895,2.5028369426727295,0.8303729891777039
1751214943377739500,7.162739501953125,-2.474740505218506,3.0567739009857178,-0.04527370631694794
1751214943387733500,7.1727333984375,-2.6643574237823486,2.0724704265594482,-0.4980107545852661
1751214943397727200,7.182727294921875,-2.6856627464294434,0.5534044504165649,-0.5832318663597107
1751214943407721200,7.19272119140625,-2.6547701358795166,-0.6418213248252869,-0.49588021636009216
1751214943417715000,7.20271484375,-2.5897891521453857,-1.1723226308822632,-0.41172438859939575
1751214943427709000,7.212708984375,-2.5013720989227295,-1.2468911409378052,-0.3755054473876953
1751214943437702700,7.22270263671875,-2.4076290130615234,-1.0285120010375977,-0.3850927948951721
1751214943447696600,7.232696533203125,-2.3266689777374268,-0.7046719193458557,-0.40746334195137024
1751214943457690400,7.2426904296875,-2.2521004676818848,-0.4277033507823944,-0.39787596464157104
1751214943467684400,7.252684326171875,-2.261687755584717,-0.2636527419090271,-0.34993910789489746
1751214943477678000,7.262677978515625,-2.286188840866089,-0.12197268754243851,-0.2860232889652252
1751214943487672000,7.272672119140625,-2.336256265640259,-0.022903168573975563,-0.2253032624721527
1751214943497665800,7.282665771484375,-2.369279384613037,0.021837905049324036,-0.17204007506370544
1751214943507659800,7.29265966796875,-2.3415825366973877,0.059122130274772644,-0.12410321086645126
1751214943517653500,7.302653564453125,-2.215881586074829,0.11664637178182602,-0.0942758321762085
1751214943527647500,7.3126474609375,-2.0145466327667236,0.1645832359790802,-0.05273054912686348
1751214943537641200,7.32264111328125,-1.7556875944137573,0.12410321086645126,-0.004793686326593161
1751214943547635200,7.33263525390625,-1.4361085891723633,0.03568633273243904,0.026098959147930145
1751214943557629000,7.34262890625,-1.1080073118209839,-0.01970737800002098,0.03994738683104515
1751214943567623000,7.352622802734375,-0.8725841045379639,-0.054861076176166534,0.0708400309085846
1751214943577616600,7.36261669921875,-0.6488786935806274,-0.1454084813594818,0.1177116334438324
1751214943587610600,7.372610595703125,-0.4294344186782837,-0.2625874876976013,0.14221268892288208
1751214943597604400,7.382604248046875,-0.22383852303028107,-0.36485278606414795,0.14753901958465576
1751214943617592000,7.402592041015625,0.07337003201246262,-0.510793924331665,0.16351796686649323
1751214943627586000,7.4125859375,0.17670060694217682,-0.5395560264587402,0.18695376813411713
1751214943637579800,7.422579833984375,0.2715090811252594,-0.5427518486976624,0.19973693788051605
1751214943647573800,7.43257373046875,0.35459962487220764,-0.5374255180358887,0.22210747003555298
1751214943657567500,7.4425673828125,0.4323638677597046,-0.5033370852470398,0.26045694947242737
1751214943667561500,7.4525615234375,0.5111933946609497,-0.37337490916252136,0.3051980435848236
1751214943677555200,7.46255517578125,0.6134586930274963,-0.17523586750030518,0.332894891500473
1751214943687549200,7.472549072265625,0.7487471699714661,0.02396843209862709,0.3584612011909485
1751214943697543000,7.48254296875,0.9085367321968079,0.18482324481010437,0.400006502866745
1751214943707537000,7.492536865234375,1.0608694553375244,0.4149201810359955,0.400006502866745
1751214943717531000,7.50253076171875,1.1088062524795532,0.5789707899093628,0.3424822688102722
1751214943727524600,7.512524658203125,1.087501049041748,0.4362254738807678,0.4032022953033447
1751214943737518600,7.5225185546875,1.0768483877182007,0.08575372397899628,0.6524739861488342
1751214943747512600,7.5325126953125,1.134372591972351,-0.14753901958465576,0.963530957698822
1751214943757506600,7.542506591796875,1.2004189491271973,0.19441060721874237,1.0966888666152954
1751214943767500300,7.552500244140625,1.2153326272964478,0.9965541362762451,1.0370341539382935
1751214943777494300,7.562494384765625,1.227050542831421,1.6911060810089111,0.9624657034873962
1751214943787488300,7.57248828125,1.2771179676055908,1.9052239656448364,0.9677920341491699
1751214943797482000,7.58248193359375,1.3580780029296875,1.7518260478973389,1.0306426286697388
1751214943807476000,7.59247607421875,1.3942970037460327,1.3427648544311523,1.0274467468261719
1751214943817470000,7.602469970703125,1.4006885290145874,0.7739140391349792,0.94648677110672
1751214943827463700,7.612463623046875,1.4411685466766357,0.2018674612045288,0.8676572442054749
1751214943837457700,7.622457763671875,1.537042260169983,-0.221042200922966,0.8463519811630249
1751214943847451600,7.63245166015625,1.6861791610717773,-0.4426170289516449,0.8985498547554016
1751214943857445600,7.642445556640625,1.8747308254241943,-0.4713791608810425,1.0072067975997925
1751214943867439400,7.652439453125,2.0291941165924072,-0.4245075583457947,1.1254510879516602
1751214943877433300,7.662433349609375,2.084587812423706,-0.3669833242893219,1.214933156967163
1751214943887427300,7.67242724609375,2.0281288623809814,-0.2551306486129761,1.235173225402832
1751214943897421000,7.682421142578125,1.8779265880584717,-0.12303794920444489,1.16060471534729
1751214943907415000,7.6924150390625,1.6478296518325806,-0.07936213910579681,0.9922930598258972
1751214943917409000,7.702408935546875,1.5168023109436035,-0.09001477807760239,0.7898929715156555
1751214943927402800,7.71240283203125,1.451821208000183,-0.1976063996553421,0.5885581374168396
1751214943937396700,7.722396728515625,1.414536952972412,-0.408528596162796,0.39787596464157104
1751214943947390700,7.732390625,1.407080054283142,-0.720650851726532,0.23276010155677795
1751214943957384400,7.742384521484375,1.4113411903381348,-1.0359688997268677,0.08149266988039017
1751214943967378400,7.75237841796875,1.4209285974502563,-1.2628700733184814,-0.030360013246536255
1751214943977372400,7.762372314453125,1.4251896142959595,-1.3949627876281738,-0.0751010850071907
1751214943987366400,7.772366455078125,1.4113411903381348,-1.423724889755249,-0.04420844092965126
1751214943997360000,7.782360107421875,1.3719264268875122,-1.3438301086425781,0.027164222672581673
1751214944007354000,7.79235400390625,1.3122715950012207,-1.193627953529358,0.10918952524662018
1751214944017348000,7.80234814453125,1.2408989667892456,-1.005076289176941,0.17310534417629242
1751214944027341800,7.812341796875,1.1823095083236694,-0.7952193021774292,0.22423799335956573
1751214944037335800,7.822335693359375,1.1407642364501953,-0.6024065613746643,0.2551306486129761
1751214944047329800,7.832329833984375,1.1237199306488037,-0.4415517747402191,0.2625874876976013
1751214944057323500,7.842323486328125,1.124785304069519,-0.2956106662750244,0.267913818359375
1751214944067317500,7.8523173828125,1.141829490661621,-0.1464737504720688,0.2775011658668518
1751214944077311500,7.8623115234375,1.1631346940994263,0.03994738683104515,0.30306750535964966
1751214944087305500,7.872305419921875,1.1929621696472168,0.25193485617637634,0.3254380524158478
1751214944097299200,7.88229931640625,1.2249200344085693,0.46711811423301697,0.33715593814849854
1751214944107293200,7.892293212890625,1.2419642210006714,0.6173202991485596,0.31798118352890015
1751214944117287200,7.902287109375,1.2366379499435425,0.7014760971069336,0.2743053734302521
1751214944127281000,7.912281005859375,1.2057453393936157,0.750478208065033,0.20825904607772827
1751214944137275000,7.92227490234375,1.1460905075073242,0.7771098017692566,0.13049480319023132
1751214944147268600,7.9322685546875,1.0747178792953491,0.8080024719238281,0.0708400309085846
1751214944157262600,7.9422626953125,1.0097367763519287,0.8623309135437012,0.03994738683104515
1751214944167256300,7.95225634765625,0.9394294023513794,0.9209204316139221,0.03568633273243904
1751214944177250300,7.962250244140625,0.8605998754501343,0.9528783559799194,0.04953476041555405
1751214944187244000,7.972244140625,0.7913577556610107,0.9347688555717468,0.07723161578178406
1751214944197238000,7.982238037109375,0.7146587371826172,0.8410256505012512,0.09960214793682098
1751214944207231700,7.992231689453125,0.6262418627738953,0.7004108428955078,0.09108003973960876
1751214944217225700,8.002225830078125,0.5282375812530518,0.5640571117401123,0.07616634666919708
1751214944227219500,8.012219482421875,0.4398207366466522,0.47670549154281616,0.06018739566206932
1751214944237213400,8.02221337890625,0.37697017192840576,0.4415517747402191,0.0516652874648571
1751214944247207200,8.032207275390626,0.3375554084777832,0.45326969027519226,0.05273054912686348
1751214944257201200,8.042201171875,0.2960101366043091,0.4852275848388672,0.046338967978954315
1751214944267195000,8.05219482421875,0.24061642587184906,0.47244441509246826,0.046338967978954315
1751214944277188900,8.06218896484375,0.17670060694217682,0.4223770201206207,0.07936213910579681
1751214944287182600,8.0721826171875,0.12982900440692902,0.343547523021698,0.13262532651424408
1751214944297176600,8.082176513671875,0.08721846342086792,0.21252009272575378,0.221042200922966
1751214944307170300,8.09217041015625,0.06591318547725677,0.06338318437337875,0.32650330662727356
1751214944317164000,8.1021640625,0.06591318547725677,-0.11451584100723267,0.41598546504974365
1751214944327158000,8.112157958984374,0.074435293674469,-0.267913818359375,0.4617917835712433
1751214944337151700,8.12215185546875,0.08082687854766846,-0.3765707015991211,0.47350969910621643
1751214944347145700,8.132145751953125,0.08295740932226181,-0.4138549268245697,0.45326969027519226
1751214944357139500,8.142139404296875,0.10000162571668625,-0.38402754068374634,0.4042675495147705
1751214944367133400,8.152133544921876,0.14154690504074097,-0.26578328013420105,0.335025429725647
1751214944377127200,8.162127197265624,0.20652799308300018,-0.1358211189508438,0.24234747886657715
1751214944387121200,8.17212109375,0.26937854290008545,-0.04101264849305153,0.14860427379608154
1751214944397115000,8.182114990234375,0.3183806836605072,-0.010120004415512085,0.08681898564100266
1751214944407108900,8.19210888671875,0.3695133328437805,-0.0282294861972332,0.059122130274772644
1751214944417102600,8.2021025390625,0.41531965136528015,-0.027164222672581673,0.0516652874648571
1751214944427096600,8.2120966796875,0.4589954614639282,0.01651158556342125,0.054861076176166534
1751214944437090300,8.22209033203125,0.5069323182106018,0.09001477807760239,0.06657897680997849
1751214944447084300,8.232084228515625,0.5356944799423218,0.19014956057071686,0.0846884623169899
1751214944457078000,8.242078125,0.5229113101959229,0.2817622423171997,0.10599373281002045
1751214944467072000,8.252072021484375,0.4792354702949524,0.3296990990638733,0.1272990107536316
1751214944477065700,8.262065673828126,0.41105860471725464,0.3446127772331238,0.1507348120212555
1751214944487059700,8.272059814453126,0.33009856939315796,0.3531349003314972,0.16245271265506744
1751214944497053400,8.282053466796874,0.26405221223831177,0.37017911672592163,0.1358211189508438
1751214944507047400,8.29204736328125,0.20972378551959991,0.400006502866745,0.06764423847198486
1751214944517041200,8.302041259765625,0.15646059811115265,0.43409493565559387,-0.029294749721884727
1751214944537028900,8.32202880859375,0.09147951751947403,0.5139896869659424,-0.18588849902153015
1751214944547022800,8.33202294921875,0.057391077280044556,0.4980107545852661,-0.24341274797916412
1751214944557016600,8.3420166015625,0.022237379103899002,0.42663809657096863,-0.28495803475379944
1751214944567010600,8.352010498046875,-0.00013315795513335615,0.3478085696697235,-0.3020022511482239
1751214944577004500,8.362004638671875,-0.006524739786982536,0.276435911655426,-0.30732855200767517
1751214944586998300,8.371998291015625,-0.009720530360937119,0.23808641731739044,-0.30306750535964966
1751214944596992300,8.3819921875,-0.00013315795513335615,0.25726115703582764,-0.2966759204864502
1751214944606986200,8.391986328125,0.012650005519390106,0.2924148738384247,-0.2998717129230499
1751214944616980000,8.40197998046875,0.032890014350414276,0.3020022511482239,-0.3158506751060486
1751214944626974000,8.411973876953125,0.03502054139971733,0.2828274965286255,-0.33182963728904724
1751214944636968000,8.421968017578125,0.032890014350414276,0.24660852551460266,-0.343547523021698
1751214944646961700,8.431961669921876,0.037151068449020386,0.19547587633132935,-0.34993910789489746
1751214944656955600,8.44195556640625,0.032890014350414276,0.10599373281002045,-0.3478085696697235
1751214944666949600,8.45194970703125,0.011584741994738579,-0.03568633273243904,-0.32224225997924805
1751214944676943400,8.461943359375,-0.0043942127376794815,-0.19973693788051605,-0.23915168642997742
1751214944686937300,8.471937255859375,-0.0022636852227151394,-0.3573959469795227,-0.09960214793682098
1751214944696931300,8.481931396484375,0.008388951420783997,-0.45859599113464355,0.0708400309085846
1751214944706925300,8.49192529296875,0.041412122547626495,-0.47670549154281616,0.2551306486129761
1751214944716919000,8.5019189453125,0.10000162571668625,-0.4287686049938202,0.4223770201206207
1751214944726913000,8.5119130859375,0.16498270630836487,-0.3424822688102722,0.5054675936698914
1751214944736907000,8.521906982421875,0.22783325612545013,-0.24128220975399017,0.46285703778266907
1751214944746900700,8.531900634765625,0.3055975139141083,-0.1699095517396927,0.28069695830345154
1751214944756894700,8.541894775390626,0.3695133328437805,-0.10066741704940796,0.01438105944544077
1751214944766888700,8.551888671875,0.3854922652244568,-0.06657897680997849,-0.25086960196495056
1751214944776882400,8.56188232421875,0.3556649088859558,-0.09214530140161514,-0.4383559823036194
1751214944786876400,8.57187646484375,0.30240172147750854,-0.15819165110588074,-0.5278381109237671
1751214944796870400,8.581870361328125,0.21931114792823792,-0.25193485617637634,-0.5363602638244629
1751214944806864400,8.591864501953125,0.11811110377311707,-0.3712443709373474,-0.5044023394584656
1751214944816858000,8.601858154296876,-0.0022636852227151394,-0.48309704661369324,-0.4703139066696167
1751214944826852000,8.61185205078125,-0.1322258561849594,-0.523577094078064,-0.46924862265586853
1751214944836846000,8.62184619140625,-0.2515353858470917,-0.4809665381908417,-0.5395560264587402
1751214944846839800,8.63183984375,-0.36658385396003723,-0.36485278606414795,-0.6929540038108826
1751214944856833800,8.641833740234375,-0.4848281145095825,-0.1880190372467041,-0.9230509400367737
1751214944866827800,8.651827880859376,-0.6052029132843018,0.04527370631694794,-1.2096068859100342
1751214944876821500,8.661821533203126,-0.7479482293128967,0.34993910789489746,-1.4982932806015015
1751214944886815500,8.6718154296875,-0.9247819781303406,0.7014760971069336,-1.720933437347412
1751214944896809500,8.6818095703125,-1.1239862442016602,1.0551435947418213,-1.8338513374328613
1751214944906803200,8.69180322265625,-1.3359737396240234,1.3630048036575317,-1.8114808797836304
1751214944916797200,8.701797119140625,-1.5490264892578125,1.5962976217269897,-1.6570175886154175
1751214944926791200,8.711791259765626,-1.7429044246673584,1.7124112844467163,-1.4120069742202759
1751214944936785200,8.72178515625,-1.9122813940048218,1.7070850133895874,-1.1158636808395386
1751214944946779000,8.73177880859375,-2.0592877864837646,1.5771228075027466,-0.825046718120575
1751214944956772900,8.74177294921875,-2.182858467102051,1.3502216339111328,-0.6024065613746643
1751214944976760600,8.761760498046876,-2.335191011428833,0.8783098459243774,-0.43942126631736755
1751214944986754600,8.771754638671876,-2.3724753856658936,0.6791055798530579,-0.47350969910621643
1751214944996748500,8.78174853515625,-2.385258436203003,0.4894886314868927,-0.5427518486976624
1751214945006742300,8.7917421875,-2.3437132835388184,0.28921908140182495,-0.6119939684867859
1751214945016736300,8.801736328125,-2.2446436882019043,0.062317922711372375,-0.6609960794448853
1751214945026730200,8.811730224609375,-2.117877244949341,-0.22210747003555298,-0.6599308252334595
1751214945036724200,8.82172412109375,-2.0006983280181885,-0.5278381109237671,-0.5906887054443359
1751214945046718000,8.831718017578124,-1.8654098510742188,-0.7558045387268066,-0.502271831035614
1751214945056712000,8.8417119140625,-1.7429044246673584,-0.8644614219665527,-0.43409493565559387
1751214945066706000,8.851705810546875,-1.6970981359481812,-0.8175898194313049,-0.3914843797683716
1751214945076699600,8.86169970703125,-1.7184034585952759,-0.6396908164024353,-0.354200154542923
1751214945086693600,8.871693603515626,-1.765275001525879,-0.45326969027519226,-0.297741174697876
1751214945096687600,8.8816875,-1.8174729347229004,-0.3488738536834717,-0.21038956940174103
1751214945106681300,8.891681396484374,-1.861148715019226,-0.38722333312034607,-0.09001477807760239
1751214945116675300,8.90167529296875,-1.9048244953155518,-0.5342296957969666,0.054861076176166534
1751214945126669300,8.91166943359375,-1.9346519708633423,-0.7089329361915588,0.18056218326091766
1751214945136663000,8.9216630859375,-1.941043496131897,-0.8314382433891296,0.24341274797916412
1751214945146657000,8.931656982421876,-1.9197382926940918,-0.8399603962898254,0.22849905490875244
1751214945156651000,8.941651123046874,-1.8994982242584229,-0.7344992756843567,0.15712638199329376
1751214945166645000,8.95164501953125,-1.911216139793396,-0.5970802903175354,0.054861076176166534
1751214945176638700,8.961638671875,-1.923999309539795,-0.48203179240226746,-0.038882121443748474
1751214945186632700,8.9716328125,-1.8973677158355713,-0.42131176590919495,-0.059122130274772644
1751214945196626700,8.981626708984376,-1.856887698173523,-0.4149201810359955,-0.010120004415512085
1751214945206620400,8.991620361328126,-1.8164076805114746,-0.43942126631736755,0.05699160322546959
1751214945216614400,9.001614501953124,-1.7855150699615479,-0.4607265293598175,0.10918952524662018
1751214945226608400,9.0116083984375,-1.7620792388916016,-0.46711811423301697,0.12836426496505737
1751214945236602000,9.02160205078125,-1.7546223402023315,-0.45859599113464355,0.12516847252845764
1751214945246596000,9.03159619140625,-1.7333171367645264,-0.48309704661369324,0.10492847114801407
1751214945256590000,9.041590087890626,-1.7013591527938843,-0.5502086877822876,0.1081242561340332
1751214945266584000,9.051583984375,-1.672597050666809,-0.5906887054443359,0.1368863731622696
1751214945276577800,9.061577880859375,-1.6214643716812134,-0.5672528743743896,0.15393058955669403
1751214945286571800,9.07157177734375,-1.5191991329193115,-0.5821665525436401,0.1411474347114563
1751214945296565800,9.081565673828125,-1.4158685207366943,-0.6514087319374084,0.12623374164104462
1751214945306559500,9.0915595703125,-1.2997548580169678,-0.7270424365997314,0.1177116334438324
1751214945316553500,9.101553466796876,-1.1591399908065796,-0.7547392845153809,0.1081242561340332
1751214945326547200,9.111547119140624,-1.048352599143982,-0.7163897752761841,0.09321057051420212
1751214945336541200,9.121541259765625,-0.9418262243270874,-0.683366596698761,0.08149266988039017
1751214945346535000,9.131534912109375,-0.8651272058486938,-0.6514087319374084,0.07936213910579681
1751214945356529000,9.14152880859375,-0.7362303137779236,-0.6471476554870605,0.09001477807760239
1751214945366522600,9.151522705078126,-0.6179860830307007,-0.6162550449371338,0.09534109383821487
1751214945376516600,9.1615166015625,-0.545548141002655,-0.5661876201629639,0.08788424730300903
1751214945386510300,9.17151025390625,-0.5008070468902588,-0.5161202549934387,0.0846884623169899
1751214945396504300,9.18150439453125,-0.43582597374916077,-0.46285703778266907,0.09747162461280823
1751214945406498000,9.191498046875,-0.35699647665023804,-0.3989412188529968,0.11877689510583878
1751214945416492000,9.201491943359375,-0.28988486528396606,-0.32756856083869934,0.15286533534526825
1751214945426485800,9.21148583984375,-0.2035985141992569,-0.25193485617637634,0.1699095517396927
1751214945436479700,9.221479736328124,-0.14074796438217163,-0.15819165110588074,0.17736639082431793
1751214945446473500,9.231473388671875,-0.09174583107233047,-0.09321057051420212,0.15819165110588074
1751214945456467500,9.241467529296875,-0.03209106624126434,-0.06338318437337875,0.15606112778186798
1751214945466461200,9.251461181640625,0.02756369672715664,-0.030360013246536255,0.18482324481010437
1751214945476455200,9.261455078125,0.07017423957586288,0.03675159439444542,0.23169484734535217
1751214945486449000,9.271448974609376,0.10426267981529236,0.14221268892288208,0.2540653645992279
1751214945496442600,9.281442626953124,0.14687322080135345,0.23382537066936493,0.2444780021905899
1751214945506436600,9.2914365234375,0.20333220064640045,0.26045694947242737,0.2263685166835785
1751214945516430300,9.301430419921875,0.2757701277732849,0.2636527419090271,0.2071937769651413
1751214945526424300,9.31142431640625,0.3599259555339813,0.28389275074005127,0.19547587633132935
1751214945536418000,9.32141796875,0.4557996690273285,0.30839383602142334,0.18588849902153015
1751214945546412000,9.331412109375,0.5708481669425964,0.3201117217540741,0.1880190372467041
1751214945556405800,9.34140576171875,0.702940821647644,0.30413275957107544,0.19121482968330383
1751214945566399700,9.351399658203125,0.8350335359573364,0.2966759204864502,0.19228008389472961
1751214945576393500,9.3613935546875,0.9362335801124573,0.32224225997924805,0.18588849902153015
1751214945596381200,9.381381103515626,0.9596694111824036,0.3190464675426483,0.28921908140182495
1751214945606375200,9.391375244140624,0.9298419952392578,0.3712443709373474,0.3776359558105469
1751214945616369000,9.401368896484374,0.891492486000061,0.408528596162796,0.4468781054019928
1751214945626363000,9.41136279296875,0.8616651296615601,0.4426170289516449,0.456465482711792
1751214945636356900,9.42135693359375,0.8605998754501343,0.5225118398666382,0.4127896726131439
1751214945646350600,9.4313505859375,0.9085367321968079,0.6918887495994568,0.36911386251449585
1751214945656344600,9.441344482421876,0.9894967675209045,0.9347688555717468,0.34993910789489746
1751214945666338600,9.451338623046874,1.0896315574645996,1.1030805110931396,0.332894891500473
1751214945676332300,9.461332275390625,1.1865705251693726,1.0998847484588623,0.33182963728904724
1751214945686326300,9.471326171875,1.2568778991699219,1.0551435947418213,0.3286338448524475
1751214945696320300,9.4813203125,1.3090758323669434,1.0615352392196655,0.2998717129230499
1751214945706314000,9.49131396484375,1.3836443424224854,1.0615352392196655,0.2743053734302521
1751214945726302000,9.511302001953124,1.598827600479126,0.9315730333328247,0.3712443709373474
1751214945736296000,9.5212958984375,1.7170718908309937,0.863396167755127,0.4426170289516449
1751214945746289700,9.53128955078125,1.8321202993392944,0.7526087760925293,0.5075981020927429
1751214945756283600,9.54128369140625,1.942907691001892,0.5597960352897644,0.5757750272750854
1751214945766277600,9.551277587890626,2.050499439239502,0.38296228647232056,0.6886929273605347
1751214945776271400,9.561271240234374,2.1410467624664307,0.32650330662727356,0.8687224984169006
1751214945786265300,9.571265380859375,2.1474382877349854,0.42131176590919495,1.123320460319519
1751214945796259300,9.58125927734375,2.0089540481567383,0.7142592668533325,1.3800489902496338
1751214945806253000,9.591253173828125,1.6765917539596558,0.9827057123184204,1.4205290079116821
1751214945816247000,9.6012470703125,1.3239895105361938,1.2096068859100342,1.222390055656433
1751214945826241000,9.611240966796874,1.1737873554229736,1.2745879888534546,0.9677920341491699
1751214945836235000,9.621235107421874,1.0640652179718018,1.0359688997268677,0.7653919458389282
1751214945846228700,9.631228759765625,1.0065410137176514,0.5267728567123413,0.5651223659515381
1751214945856222700,9.64122265625,1.0150630474090576,-0.026098959147930145,0.3616569936275482
1751214945866216700,9.651216796875,1.0768483877182007,-0.5171855092048645,0.17204007506370544
1751214945876210400,9.66121044921875,1.1610041856765747,-0.9198551774024963,0.03142527863383293
1751214945886204400,9.671204345703124,1.2025494575500488,-1.20321524143219,-0.06977476924657822
1751214945896198400,9.681198486328125,1.221724271774292,-1.3512868881225586,-0.11984215676784515
1751214945906192100,9.691192138671875,1.221724271774292,-1.3608742952346802,-0.13795164227485657
1751214945916186000,9.70118603515625,1.2302463054656982,-1.2639353275299072,-0.14008216559886932
1751214945926180000,9.71118017578125,1.227050542831421,-1.1275815963745117,-0.14434322714805603
1751214945936173800,9.721173828125,1.1961579322814941,-0.9592698812484741,-0.1507348120212555
1751214945946167800,9.731167724609374,1.141829490661621,-0.8101329803466797,-0.1645832359790802
1751214945956161800,9.741161865234375,1.0864357948303223,-0.6929540038108826,-0.16245271265506744
1751214945966155800,9.75115576171875,1.0353031158447266,-0.5811012983322144,-0.1411474347114563
1751214945976149500,9.7611494140625,0.995888352394104,-0.4575307369232178,-0.12410321086645126
1751214945986143500,9.7711435546875,0.9564735889434814,-0.3243727684020996,-0.11558110266923904
1751214945996137500,9.781137451171874,0.9255809187889099,-0.20612850785255432,-0.1038632020354271
1751214946006131200,9.791131103515625,0.9010798931121826,-0.1038632020354271,-0.08575372397899628
1751214946016125200,9.801125244140625,0.8797746300697327,-0.04101264849305153,-0.0655137151479721
1751214946026119200,9.811119140625,0.8691219687461853,-0.03675159439444542,-0.04420844092965126
1751214946036113000,9.82111279296875,0.853143036365509,-0.06764423847198486,-0.02396843209862709
1751214946046107000,9.83110693359375,0.8254461884498596,-0.10705899447202682,0.0005326318205334246
1751214946056100900,9.841100830078124,0.7934882640838623,-0.14008216559886932,0.034621067345142365
1751214946066094800,9.8510947265625,0.7668566703796387,-0.1507348120212555,0.08255793154239655
1751214946076088600,9.861088623046875,0.7562040090560913,-0.12303794920444489,0.1368863731622696
1751214946086082600,9.87108251953125,0.761530339717865,-0.05592634156346321,0.1826927214860916
1751214946096076500,9.88107666015625,0.7540735006332397,0.02396843209862709,0.19973693788051605
1751214946106070300,9.8910703125,0.7455514073371887,0.10173267871141434,0.18588849902153015
1751214946116064300,9.901064208984375,0.7412903308868408,0.17097482085227966,0.1464737504720688
1751214946126058200,9.911058349609375,0.731702983379364,0.23595589399337769,0.09534109383821487
1751214946136052000,9.921052001953125,0.702940821647644,0.28389275074005127,0.04846949502825737
1751214946146046000,9.9310458984375,0.6581997871398926,0.3105243444442749,0.015446322970092297
1751214946156040000,9.9410400390625,0.5996102690696716,0.31798118352890015,0.009054740890860558
1751214946166034000,9.951033935546874,0.5239765644073486,0.31372013688087463,0.03994738683104515
1751214946176027600,9.961027587890625,0.44834282994270325,0.2998717129230499,0.10705899447202682
1751214946186021600,9.971021728515625,0.384427011013031,0.2551306486129761,0.18588849902153015
1751214946196015600,9.981015625,0.33542490005493164,0.15393058955669403,0.27537065744400024
1751214946206009300,9.99100927734375,0.28322696685791016,0.009054740890860558,0.3808317482471466
1751214946216003300,10.00100341796875,0.23529011011123657,-0.09108003973960876,0.4841623306274414
1751214946225997300,10.010997314453125,0.1916143000125885,-0.20932430028915405,0.5821665525436401
1751214946235991000,10.020990966796875,0.1213068962097168,-0.35952648520469666,0.6886929273605347
1751214946245985000,10.030985107421875,0.053130023181438446,-0.4703139066696167,0.8005456328392029
1751214946275966700,10.060966796875,0.010519478470087051,-0.464987576007843,0.9827057123184204
1751214946285960700,10.070960693359375,0.0009321057004854083,-0.3797664940357208,0.9454214572906494
1751214946295954700,10.08095458984375,0.004127896390855312,-0.2487390637397766,0.8442214131355286
1751214946305948400,10.090948486328125,0.02330264262855053,-0.0942758321762085,0.6695181727409363
1751214946315942400,10.1009423828125,0.05206476151943207,0.059122130274772644,0.4319643974304199
1751214946325936400,10.110936279296874,0.07123950868844986,0.15180006623268127,0.17630113661289215
1751214946335930000,10.12093017578125,0.08295740932226181,0.1741705983877182,-0.03994738683104515
1751214946345924000,10.130924072265625,0.08934898674488068,0.1507348120212555,-0.17630113661289215
1751214946355918000,10.14091796875,0.09574057161808014,0.09747162461280823,-0.24767379462718964
1751214946365911800,10.150911865234375,0.09254477918148041,0.053795814514160156,-0.25726115703582764
1751214946375905800,10.16090576171875,0.09041424840688705,0.04846949502825737,-0.211454838514328
1751214946385899800,10.170899658203124,0.10745847225189209,0.038882121443748474,-0.13369058072566986
1751214946395893800,10.180893798828125,0.130894273519516,0.004793686326593161,-0.042077913880348206
1751214946405887500,10.190887451171875,0.14154690504074097,-0.062317922711372375,0.04101264849305153
1751214946415881500,10.200881591796875,0.1394163817167282,-0.12197268754243851,0.0942758321762085
1751214946425875500,10.21087548828125,0.14154690504074097,-0.12836426496505737,0.11238531768321991
1751214946435869200,10.220869140625,0.1585911214351654,-0.05699160322546959,0.11451584100723267
1751214946445863200,10.23086328125,0.18096165359020233,0.0655137151479721,0.0942758321762085
1751214946455857200,10.240857177734375,0.1916143000125885,0.20080219209194183,0.061252661049366
1751214946465851000,10.250850830078125,0.186287984251976,0.3009369671344757,0.013315795920789242
1751214946475844900,10.260844970703126,0.17670060694217682,0.3382211923599243,-0.0516652874648571
1751214946485838800,10.2708388671875,0.1681784987449646,0.3254380524158478,-0.11451584100723267
1751214946495832600,10.28083251953125,0.16178691387176514,0.30413275957107544,-0.16351796686649323
1751214946505826600,10.29082666015625,0.17137429118156433,0.28921908140182495,-0.18162745237350464
1751214946515820500,10.300820556640625,0.19054903090000153,0.2828274965286255,-0.1645832359790802
1751214946525814500,10.310814453125,0.21931114792823792,0.276435911655426,-0.12410321086645126
1751214946535808300,10.320808349609376,0.2587259113788605,0.2785664498806,-0.08042740821838379
1751214946545802200,10.33080224609375,0.3034669756889343,0.28921908140182495,-0.046338967978954315
1751214946555796200,10.340796142578125,0.35459962487220764,0.30732855200767517,-0.026098959147930145
1751214946565790000,10.3507900390625,0.39614492654800415,0.3424822688102722,-0.00798947736620903
1751214946575784000,10.360783935546875,0.440885990858078,0.37337490916252136,0.022903168573975563
1751214946585777700,10.370777587890625,0.4920186400413513,0.3755054473876953,0.06338318437337875
1751214946595771600,10.380771728515626,0.5378249883651733,0.35526543855667114,0.11345057934522629
1751214946605765400,10.390765380859374,0.572978675365448,0.3243727684020996,0.16777902841567993
1751214946615759400,10.40075927734375,0.5932186841964722,0.2924148738384247,0.21038956940174103
1751214946625753000,10.410753173828125,0.5910881757736206,0.2540653645992279,0.22743378579616547
1751214946635747000,10.4207470703125,0.5772397518157959,0.1976063996553421,0.2018674612045288
1751214946645740800,10.43074072265625,0.5708481669425964,0.13049480319023132,0.14327795803546906
1751214946655734800,10.44073486328125,0.5687175989151001,0.04953476041555405,0.058056868612766266
1751214946665728500,10.450728515625,0.572978675365448,-0.027164222672581673,-0.037816859781742096
1751214946675722500,10.460722412109375,0.5697829127311707,-0.08894951641559601,-0.11877689510583878
1751214946685716200,10.47071630859375,0.5623260736465454,-0.14860427379608154,-0.17736639082431793
1751214946695710200,10.480710205078125,0.5388902425765991,-0.21465063095092773,-0.21465063095092773
1751214946705704000,10.490703857421876,0.48562705516815186,-0.3051980435848236,-0.2402169555425644
1751214946715698000,10.500697998046874,0.41105860471725464,-0.4277033507823944,-0.26471802592277527
1751214946725691600,10.510691650390624,0.32157647609710693,-0.5661876201629639,-0.287088543176651
1751214946735685600,10.520685546875,0.2012016773223877,-0.6982803344726562,-0.3009369671344757
1751214946745679400,10.530679443359375,0.061652131378650665,-0.8069372177124023,-0.30413275957107544
1751214946755673300,10.54067333984375,-0.08641951531171799,-0.8591351509094238,-0.3009369671344757
1751214946765667000,10.5506669921875,-0.21851220726966858,-0.8516782522201538,-0.31265488266944885
1751214946775661000,10.5606611328125,-0.32397329807281494,-0.7909582257270813,-0.354200154542923
1751214946785654800,10.57065478515625,-0.4006722867488861,-0.6801708340644836,-0.4223770201206207
1751214946795648800,10.580648681640625,-0.46884915232658386,-0.5374255180358887,-0.5139896869659424
1751214946805642500,10.590642578125,-0.5476786494255066,-0.37444016337394714,-0.623711884021759
1751214946815636500,10.600636474609376,-0.649944007396698,-0.18695376813411713,-0.7611308693885803
1751214946825630200,10.610630126953126,-0.7905587553977966,0.042077913880348206,-0.909202516078949
1751214946835624200,10.620624267578124,-0.9801757335662842,0.31691592931747437,-1.0508825778961182
1751214946845618000,10.630617919921875,-1.1932284832000732,0.5960150361061096,-1.1797795295715332
1751214946855612000,10.64061181640625,-1.4041506052017212,0.8431561589241028,-1.299088954925537
1751214946865605600,10.650605712890625,-1.6086812019348145,1.0615352392196655,-1.4066805839538574
1751214946875599600,10.660599609375,-1.794037103652954,1.2159984111785889,-1.49616277217865
1751214946885593300,10.67059326171875,-1.9442392587661743,1.2863059043884277,-1.570731282234192
1751214946895587300,10.68058740234375,-2.058222532272339,1.3161332607269287,-1.6186680793762207
1751214946905581000,10.6905810546875,-2.1338562965393066,1.3225247859954834,-1.629320740699768
1751214946915575000,10.700574951171875,-2.187119483947754,1.3608742952346802,-1.6005586385726929
1751214946925568800,10.71056884765625,-2.2148163318634033,1.4311816692352295,-1.5717965364456177
1751214946935562800,10.720562744140626,-2.19564151763916,1.487640619277954,-1.5536869764328003
1751214946945556700,10.730556640625,-2.1636836528778076,1.478053331375122,-1.500423789024353
1751214946955550500,10.740550537109375,-2.107224702835083,1.3044153451919556,-1.3715269565582275
1751214946965544400,10.75054443359375,-2.0145466327667236,1.0029456615447998,-1.1329078674316406
1751214946975538400,10.760538330078125,-1.894171953201294,0.6588655710220337,-0.8239814043045044
1751214946985532200,10.7705322265625,-1.7535570859909058,0.31798118352890015,-0.502271831035614
1751214946995526100,10.780526123046876,-1.6203991174697876,0.04101264849305153,-0.221042200922966
1751214947005520100,10.79052001953125,-1.5373085737228394,-0.11984215676784515,-0.053795814514160156
1751214947015514000,10.80051416015625,-1.513872742652893,-0.12197268754243851,-0.058056868612766266
1751214947025507800,10.8105078125,-1.5522222518920898,0.018642114475369453,-0.2306295782327652
1751214947035501800,10.820501708984375,-1.6022896766662598,0.2487390637397766,-0.4852275848388672
1751214947045495800,10.830495849609376,-1.6491612195968628,0.4596612751483917,-0.6897581815719604
1751214947055489500,10.840489501953124,-1.6917718648910522,0.5640571117401123,-0.7483476996421814
1751214947065483500,10.8504833984375,-1.7311866283416748,0.5203812718391418,-0.6801708340644836
1751214947075477500,10.8604775390625,-1.7716666460037231,0.4383559823036194,-0.5214465260505676
1751214947085471200,10.87047119140625,-1.80255925655365,0.4053328037261963,-0.32650330662727356
1751214947095465200,10.88046533203125,-1.8323866128921509,0.45326969027519226,-0.16564849019050598
1751214947105459200,10.890459228515626,-1.8792582750320435,0.5491434335708618,-0.04846949502825737
1751214947115453200,10.900453125,-1.9623488187789917,0.6439518928527832,0.030360013246536255
1751214947125447000,10.910447021484375,-2.0592877864837646,0.7185203433036804,0.05592634156346321
1751214947135441000,10.92044091796875,-2.1594226360321045,0.7259771823883057,0.038882121443748474
1751214947145435000,10.930434814453125,-2.2126858234405518,0.6290381550788879,0.006924213841557503
1751214947155428600,10.9404287109375,-2.19564151763916,0.4330296814441681,-0.013315795920789242
1751214947165422600,10.950422607421874,-2.1391825675964355,0.20825904607772827,0.006924213841557503
1751214947175416600,10.96041650390625,-2.092310905456543,0.04314317926764488,0.07190529257059097
1751214947185410300,10.970410400390625,-2.0305256843566895,-0.06018739566206932,0.1411474347114563
1751214947195404300,10.980404296875,-1.9527614116668701,-0.1976063996553421,0.17204007506370544
1751214947205398300,10.990398193359376,-1.8259950876235962,-0.39361491799354553,0.1699095517396927
1751214947215392000,11.00039208984375,-1.7045550346374512,-0.5970802903175354,0.1464737504720688
1751214947225386000,11.010385986328124,-1.6086812019348145,-0.7494129538536072,0.13901691138744354
1751214947235380000,11.0203798828125,-1.5351780652999878,-0.8303729891777039,0.15180006623268127
1751214947245374000,11.0303740234375,-1.3966938257217407,-0.8697877526283264,0.1837579756975174
1751214947255367700,11.04036767578125,-1.2528831958770752,-0.887897253036499,0.18482324481010437
1751214947265361700,11.050361572265626,-1.1207904815673828,-0.8932235836982727,0.1699095517396927
1751214947275355600,11.060355712890624,-0.9876325726509094,-0.9411604404449463,0.17310534417629242
1751214947285349400,11.070349365234375,-0.8640619516372681,-0.9326383471488953,0.1699095517396927
1751214947295343400,11.08034326171875,-0.7458177208900452,-0.850612998008728,0.1592569202184677
1751214947305337300,11.09033740234375,-0.6307692527770996,-0.7515435218811035,0.15819165110588074
1751214947315331000,11.1003310546875,-0.5189165472984314,-0.6290381550788879,0.1592569202184677
1751214947335319000,11.120319091796874,-0.3303648829460144,-0.4095938801765442,0.1688442826271057
1751214947345313000,11.13031298828125,-0.26325327157974243,-0.3243727684020996,0.1933453530073166
1751214947355306800,11.140306640625,-0.20892482995986938,-0.2498043179512024,0.22210747003555298
1751214947365300700,11.15030078125,-0.1567269116640091,-0.19867166876792908,0.24767379462718964
1751214947375294700,11.160294677734376,-0.10772478580474854,-0.17204007506370544,0.26152223348617554
1751214947385288400,11.170288330078124,-0.048070020973682404,-0.16138744354248047,0.2689790725708008
1751214947395282400,11.180282470703125,0.03502054139971733,-0.14966954290866852,0.2828274965286255
1751214947405276400,11.1902763671875,0.140481635928154,-0.1177116334438324,0.2966759204864502
1751214947415270100,11.200270263671875,0.26085641980171204,-0.0846884623169899,0.30306750535964966
1751214947425264000,11.21026416015625,0.3929491341114044,-0.05592634156346321,0.3020022511482239
1751214947435258000,11.220258056640626,0.5314334034919739,-0.00798947736620903,0.28921908140182495
1751214947445252000,11.230252197265624,0.6709829568862915,0.09321057051420212,0.2487390637397766
1751214947455245800,11.240245849609375,0.7583345770835876,0.2018674612045288,0.1645832359790802
1751214947465239800,11.25023974609375,0.7391598224639893,0.23808641731739044,0.0942758321762085
1751214947475233800,11.26023388671875,0.6848313808441162,0.22317273914813995,0.12516847252845764
1751214947485227500,11.2702275390625,0.6251766085624695,0.19121482968330383,0.26578328013420105
1751214947495221500,11.280221435546874,0.6091976165771484,0.21038956940174103,0.4372907280921936
1751214947505215500,11.290215576171875,0.5932186841964722,0.32330751419067383,0.5842971205711365
1751214947515209200,11.300209228515625,0.555934488773346,0.5214465260505676,0.6631265878677368
1751214947525203200,11.310203125,0.5197154879570007,0.6972150802612305,0.6673876643180847
1751214947535197200,11.320197265625,0.5037365555763245,0.787762463092804,0.6247771382331848
1751214947545191000,11.33019091796875,0.49414917826652527,0.7984151244163513,0.5672528743743896
1751214947555185000,11.340184814453124,0.49947547912597656,0.7920235395431519,0.4990760087966919
1751214947565179000,11.350178955078125,0.5420860648155212,0.8058719635009766,0.4042675495147705
1751214947575172600,11.360172607421875,0.6432861089706421,0.8048067092895508,0.27004432678222656
1751214947585166600,11.37016650390625,0.7562040090560913,0.7526087760925293,0.1688442826271057
1751214947595160300,11.380160400390626,0.8787093162536621,0.6546044945716858,0.15393058955669403
1751214947605154300,11.390154296875,1.0161283016204834,0.5853623747825623,0.1933453530073166
1751214947615148000,11.40014794921875,1.1535474061965942,0.5459476113319397,0.25086960196495056
1751214947625142000,11.41014208984375,1.2909663915634155,0.4937497079372406,0.3147853910923004
1751214947635135700,11.4201357421875,1.4060148000717163,0.42663809657096863,0.3765707015991211
1751214947645129700,11.430129638671875,1.4784528017044067,0.3520696461200714,0.44900861382484436
1751214947655123500,11.44012353515625,1.5402380228042603,0.3051980435848236,0.5182507634162903
1751214947665117400,11.450117431640624,1.603088617324829,0.25726115703582764,0.5906887054443359
1751214947675111200,11.460111083984375,1.6733959913253784,0.2018674612045288,0.6854971647262573
1751214947685105200,11.470105224609375,1.7287896871566772,0.15712638199329376,0.7643266916275024
1751214947695099000,11.480098876953125,1.7660739421844482,0.09960214793682098,0.8133288025856018
1751214947715086600,11.500086669921876,1.8427729606628418,-0.04420844092965126,0.8559393286705017
1751214947745068300,11.530068359375,1.8363813161849976,-0.0655137151479721,0.9816404581069946
1751214947755062000,11.54006201171875,1.800162434577942,-0.03249054029583931,0.9912278056144714
1751214947765056000,11.550055908203126,1.762878179550171,-0.038882121443748474,0.955008864402771
1751214947775049700,11.5600498046875,1.7149412631988525,-0.09214530140161514,0.8740488290786743
1751214947785043700,11.570043701171874,1.653156042098999,-0.17949692904949188,0.7515435218811035
1751214947795037400,11.580037353515625,1.5903054475784302,-0.3062632977962494,0.5949497222900391
1751214947805031400,11.590031494140625,1.5274548530578613,-0.44474756717681885,0.4149201810359955
1751214947815025200,11.600025146484375,1.4667348861694336,-0.5768402814865112,0.24234747886657715
1751214947825019100,11.61001904296875,1.39749276638031,-0.720650851726532,0.09747162461280823
1751214947835012900,11.620012939453124,1.3282506465911865,-0.8708530068397522,-0.021837905049324036
1751214947845006800,11.6300068359375,1.2696610689163208,-0.976314127445221,-0.1081242561340332
1751214947855000600,11.64000048828125,1.2227895259857178,-1.0487520694732666,-0.1699095517396927
1751214947864994600,11.64999462890625,1.1940274238586426,-1.076448917388916,-0.20506325364112854
1751214947874988300,11.65998828125,1.171656847000122,-1.039164662361145,-0.22423799335956573
1751214947884982300,11.669982177734376,1.1365031003952026,-0.9880320429801941,-0.2306295782327652
1751214947894976000,11.67997607421875,1.0843052864074707,-0.9518130421638489,-0.2402169555425644
1751214947904970000,11.689969970703125,1.0235852003097534,-0.9358341097831726,-0.24767379462718964
1751214947914963700,11.699963623046875,0.9490167498588562,-0.9251814484596252,-0.2530001103878021
1751214947924957700,11.709957763671875,0.8765788078308105,-0.9145288467407227,-0.24554327130317688
1751214947934951400,11.719951416015626,0.8233156204223633,-0.8996151685714722,-0.22849905490875244
1751214947944945400,11.7299453125,0.7753787636756897,-0.8996151685714722,-0.18588849902153015
1751214947954939100,11.739939208984374,0.7391598224639893,-0.8868319988250732,-0.11132004857063293
1751214947964933000,11.74993310546875,0.715723991394043,-0.8570045828819275,-0.01970737800002098
1751214947974926800,11.7599267578125,0.6986798048019409,-0.8229161500930786,0.06977476924657822
1751214947984920800,11.7699208984375,0.669917643070221,-0.7536740303039551,0.14327795803546906
1751214947994914600,11.77991455078125,0.6379597783088684,-0.65353924036026,0.18056218326091766
1751214948004908500,11.789908447265624,0.6091976165771484,-0.5310339331626892,0.18162745237350464
1751214948014902300,11.79990234375,0.5964145064353943,-0.39787596464157104,0.15712638199329376
1751214948024896300,11.809896240234375,0.5964145064353943,-0.27110961079597473,0.11664637178182602
1751214948034890000,11.819889892578125,0.6028060913085938,-0.16138744354248047,0.07190529257059097
1751214948044884000,11.829884033203125,0.6070671081542969,-0.05699160322546959,0.05273054912686348
1751214948054878000,11.8398779296875,0.5953491926193237,0.01970737800002098,0.06977476924657822
1751214948064871700,11.84987158203125,0.5548691749572754,0.062317922711372375,0.12197268754243851
1751214948074865700,11.85986572265625,0.48988813161849976,0.06977476924657822,0.1933453530073166
1751214948084859600,11.869859619140625,0.41531965136528015,0.03994738683104515,0.28495803475379944
1751214948094853400,11.879853271484375,0.3482080399990082,-0.021837905049324036,0.38935387134552
1751214948104847400,11.889847412109376,0.2960101366043091,-0.11132004857063293,0.4884233772754669
1751214948114841300,11.89984130859375,0.25446486473083496,-0.211454838514328,0.5651223659515381
1751214948124835000,11.9098349609375,0.2150501012802124,-0.3062632977962494,0.6098634600639343
1751214948134829000,11.9198291015625,0.18309219181537628,-0.3797664940357208,0.6311687231063843
1751214948144823000,11.929822998046875,0.17030902206897736,-0.43089914321899414,0.6482129096984863
1751214948154817000,11.939817138671875,0.15539532899856567,-0.4554001986980438,0.6737792491912842
1751214948164810800,11.949810791015626,0.1394163817167282,-0.45859599113464355,0.7014760971069336
1751214948174804700,11.9598046875,0.12024163454771042,-0.4277033507823944,0.7174550890922546
1751214948184798700,11.969798828125,0.11065425723791122,-0.3669833242893219,0.7355645298957825
1751214948194792400,11.97979248046875,0.11598058044910431,-0.26578328013420105,0.766457200050354
1751214948204786400,11.989786376953125,0.13195952773094177,-0.08362319320440292,0.7994803786277771
1751214948214780400,11.999780517578126,0.15326480567455292,0.10918952524662018,0.8261119723320007
1751214948224774100,12.009774169921876,0.1735048145055771,0.23595589399337769,0.850612998008728
1751214948234768100,12.01976806640625,0.1735048145055771,0.3584612011909485,0.833568811416626
1751214948244762000,12.02976220703125,0.1628521829843521,0.44581282138824463,0.7536740303039551
1751214948254756000,12.039756103515625,0.16072164475917816,0.44581282138824463,0.6290381550788879
1751214948264749800,12.049749755859375,0.1447426974773407,0.4330296814441681,0.4468781054019928
1751214948274743800,12.059743896484376,0.10319741815328598,0.47350969910621643,0.23808641731739044
1751214948284737800,12.06973779296875,0.08402267098426819,0.4937497079372406,0.07616634666919708
1751214948294731500,12.0797314453125,0.09680583328008652,0.464987576007843,-0.03249054029583931
1751214948304725500,12.0897255859375,0.1117195263504982,0.4095938801765442,-0.0985368862748146
1751214948314719500,12.099719482421875,0.12663321197032928,0.34567806124687195,-0.14753901958465576
1751214948324713200,12.109713134765625,0.1351553201675415,0.28389275074005127,-0.19121482968330383
1751214948334707200,12.119707275390626,0.12663321197032928,0.23702116310596466,-0.22849905490875244
1751214948344701200,12.129701171875,0.102132149040699,0.21465063095092773,-0.2348906397819519
1751214948354695200,12.139695068359375,0.07976161688566208,0.21465063095092773,-0.2018674612045288
1751214948364689000,12.14968896484375,0.06271740049123764,0.22210747003555298,-0.14434322714805603
1751214948374683000,12.159682861328125,0.04780370742082596,0.24234747886657715,-0.0751010850071907
1751214948384676900,12.1696767578125,0.03928159549832344,0.27537065744400024,-0.01651158556342125
1751214948394670600,12.179670654296874,0.04034686088562012,0.3211769759654999,0.005858949851244688
1751214948404664600,12.18966455078125,0.04354264959692955,0.37444016337394714,-0.01970737800002098
1751214948414658600,12.199658447265625,0.053130023181438446,0.4330296814441681,-0.059122130274772644
1751214948424652300,12.20965234375,0.08721846342086792,0.4852275848388672,-0.09108003973960876
1751214948434646300,12.219646240234376,0.13409006595611572,0.5044023394584656,-0.10705899447202682
1751214948454634000,12.239634033203124,0.22676800191402435,0.40746334195137024,-0.11664637178182602
1751214948464628000,12.2496279296875,0.27470487356185913,0.31372013688087463,-0.12942953407764435
1751214948474622000,12.2596220703125,0.31198909878730774,0.20932430028915405,-0.14753901958465576
1751214948484615700,12.26961572265625,0.34927332401275635,0.12836426496505737,-0.16351796686649323
1751214948494609700,12.279609619140626,0.3854922652244568,0.08149266988039017,-0.16564849019050598
1751214948504603400,12.289603271484374,0.4270375669002533,0.06338318437337875,-0.154995858669281
1751214948514597400,12.299597412109375,0.4653870463371277,0.05699160322546959,-0.1315600574016571
1751214948524591000,12.309591064453125,0.497344970703125,0.053795814514160156,-0.0985368862748146
1751214948534585000,12.319585205078125,0.5293028950691223,0.04527370631694794,-0.054861076176166534
1751214948544578800,12.329578857421875,0.5538039207458496,0.004793686326593161,0.0005326318205334246
1751214948554572800,12.33957275390625,0.5580649971961975,-0.058056868612766266,0.06444845348596573
1751214948564566500,12.34956640625,0.5676523447036743,-0.12410321086645126,0.13795164227485657
1751214948574560500,12.359560546875,0.5825660824775696,-0.1933453530073166,0.2263685166835785
1751214948584554200,12.36955419921875,0.6017407774925232,-0.26152223348617554,0.31691592931747437
1751214948594548200,12.37954833984375,0.61878502368927,-0.31691592931747437,0.3755054473876953
1751214948604542000,12.3895419921875,0.6262418627738953,-0.3201117217540741,0.3989412188529968
1751214948614536000,12.399535888671876,0.6326334476470947,-0.2487390637397766,0.37337490916252136
1751214948624529700,12.40952978515625,0.6209155321121216,-0.14008216559886932,0.28389275074005127
1751214948634523600,12.419523681640625,0.6028060913085938,-0.07297056168317795,0.12623374164104462
1751214948644517400,12.429517333984375,0.564456582069397,-0.07723161578178406,-0.08788424730300903
1751214948654511400,12.439511474609375,0.5122586488723755,-0.12090742588043213,-0.2998717129230499
1751214948664505000,12.449505126953126,0.4355596601963043,-0.18588849902153015,-0.45859599113464355
1751214948674499000,12.4594990234375,0.3471427857875824,-0.2817622423171997,-0.5384907722473145
1751214948684492800,12.469492919921874,0.23955115675926208,-0.42024651169776917,-0.5512739419937134
1751214948694486800,12.47948681640625,0.12237215787172318,-0.6098634600639343,-0.5374255180358887
1751214948704480500,12.48948046875,0.007323687430471182,-0.8314382433891296,-0.5246423482894897
1751214948714474200,12.49947412109375,-0.09387636184692383,-1.014663577079773,-0.5331644415855408
1751214948724468200,12.50946826171875,-0.17696692049503326,-1.100950002670288,-0.5789707899093628
1751214948734462000,12.5194619140625,-0.2451438009738922,-1.0998847484588623,-0.6705834865570068
1751214948744456000,12.5294560546875,-0.31332066655158997,-0.9933583736419678,-0.8080024719238281
1751214948754449700,12.53944970703125,-0.41345545649528503,-0.8154593110084534,-0.9731183648109436
1751214948764443600,12.549443603515625,-0.5444828867912292,-0.6087981462478638,-1.1520826816558838
1751214948774437400,12.559437255859375,-0.7000113725662231,-0.3659180700778961,-1.3257205486297607
1751214948784431400,12.569431396484376,-0.8661925196647644,-0.08149266988039017,-1.466335415840149
1751214948794425000,12.579425048828124,-1.030243158340454,0.23595589399337769,-1.5536869764328003
1751214948804419000,12.589419189453125,-1.186836838722229,0.5438171029090881,-1.574992299079895
1751214948814412800,12.599412841796875,-1.3274517059326172,0.7739140391349792,-1.5419690608978271
1751214948824406800,12.60940673828125,-1.4616749286651611,0.89641934633255,-1.4748575687408447
1751214948834400500,12.619400390625,-1.5895065069198608,0.9305077791213989,-1.4056153297424316
1751214948844394500,12.62939453125,-1.7194687128067017,0.917724609375,-1.3523521423339844
1751214948854388200,12.63938818359375,-1.8377128839492798,0.9070720076560974,-1.3225247859954834
1751214948864382200,12.64938232421875,-1.9080203771591187,0.9060067534446716,-1.324655294418335
1751214948874376000,12.6593759765625,-1.9218688011169434,0.8559393286705017,-1.3289164304733276
1751214948884370000,12.669369873046875,-1.890976071357727,0.8069372177124023,-1.307611107826233
1751214948894363600,12.67936376953125,-1.8334518671035767,0.7845667004585266,-1.2628700733184814
1751214948904357600,12.689357666015624,-1.7439696788787842,0.7813708782196045,-1.2000194787979126
1751214948914351400,12.699351318359374,-1.6449002027511597,0.7355645298957825,-1.0956236124038696
1751214948924345300,12.709345458984375,-1.534112811088562,0.5970802903175354,-0.9283772706985474
1751214948934339000,12.719339111328125,-1.4148032665252686,0.32650330662727356,-0.7174550890922546
1751214948944333000,12.7293330078125,-1.2827105522155762,0.058056868612766266,-0.5246423482894897
1751214948954326800,12.739326904296876,-1.1676621437072754,-0.10066741704940796,-0.41065913438796997
1751214948964320800,12.74932080078125,-1.0962893962860107,-0.058056868612766266,-0.3957454562187195
1751214948974314500,12.759314453125,-1.0803104639053345,0.17310534417629242,-0.4852275848388672
