time,seconds_elapsed,z,y,x
1747978227195440000,0.127440185546875,9.681636810302734,1.4668595790863037,0.5919001698493958
1747978227213708300,0.145708251953125,9.677391052246094,1.5071426630020142,0.5592141151428223
1747978227231973000,0.16397314453125,9.664149284362793,1.6069543361663818,0.5079689621925354
1747978227250238000,0.182238037109375,9.646913528442383,1.7208670377731323,0.4601946771144867
1747978227268497700,0.20049755859375,9.631876945495605,1.812933325767517,0.41989654302597046
1747978227286765800,0.218765869140625,9.624350547790527,1.8600491285324097,0.38498982787132263
1747978227305032700,0.23703271484375,9.624860763549805,1.8604987859725952,0.3697468638420105
1747978227323296500,0.255296630859375,9.630890846252441,1.829535961151123,0.367212176322937
1747978227341560600,0.273560546875,9.640057563781738,1.7828538417816162,0.35613417625427246
1747978227359826200,0.291826171875,9.650341987609863,1.7339755296707153,0.3167537748813629
1747978227378088400,0.31008837890625,9.660369873046875,1.6915541887283325,0.22803403437137604
1747978227396355300,0.328355224609375,9.669571876525879,1.650522232055664,0.10616351664066315
1747978227414619000,0.346618896484375,9.674281120300293,1.6253236532211304,-0.05221008136868477
1747978227432882400,0.36488232421875,9.674467086791992,1.61454439163208,-0.18450196087360382
1747978227451149600,0.383149658203125,9.670418739318848,1.623719334602356,-0.2874619960784912
1747978227469400800,0.40140087890625,9.663480758666992,1.6503374576568604,-0.36006614565849304
1747978227487677400,0.419677490234375,9.654387474060059,1.6894598007202148,-0.41788795590400696
1747978227505942000,0.43794189453125,9.643941879272461,1.7324719429016113,-0.4785737097263336
1747978227524205600,0.45620556640625,9.634241104125977,1.7687427997589111,-0.537647545337677
1747978227542472200,0.47447216796875,9.627998352050781,1.7892457246780396,-0.5799623727798462
1747978227560735500,0.492735595703125,9.625493049621582,1.7938328981399536,-0.6067668199539185
1747978227579000600,0.51100048828125,9.625162124633789,1.7898646593093872,-0.6235076189041138
1747978227597265200,0.52926513671875,9.627442359924316,1.7757023572921753,-0.6287581920623779
1747978227615524600,0.547524658203125,9.630443572998047,1.753523588180542,-0.6448466181755066
1747978227633794000,0.5657939453125,9.63071060180664,1.7405670881271362,-0.6752468943595886
1747978227652058600,0.58405859375,9.623922348022461,1.7682746648788452,-0.6995932459831238
1747978227670322700,0.60232275390625,9.606125831604004,1.8596965074539185,-0.707088053226471
1747978227688585700,0.620585693359375,9.58081340789795,1.9902980327606201,-0.6948614120483398
1747978227706851300,0.638851318359375,9.556192398071289,2.1077444553375244,-0.6875415444374084
1747978227725118200,0.6571181640625,9.540887832641602,2.174645185470581,-0.6917303204536438
1747978227743382300,0.67538232421875,9.538386344909668,2.180630683898926,-0.7072128653526306
1747978227761645800,0.693645751953125,9.549346923828125,2.1265602111816406,-0.7237516641616821
1747978227779906300,0.71190625,9.567432403564453,2.0392704010009766,-0.7360211610794067
1747978227798174200,0.73017431640625,9.580445289611816,1.967971682548523,-0.7604372501373291
1747978227816437200,0.748437255859375,9.57413387298584,1.9659205675125122,-0.8409718871116638
1747978227834704600,0.76670458984375,9.540885925292969,2.052710771560669,-0.9969850778579712
1747978227852969200,0.78496923828125,9.489609718322754,2.200429916381836,-1.1582401990890503
1747978227871228400,0.803228515625,9.441726684570312,2.3461766242980957,-1.2591131925582886
1747978227889498400,0.821498291015625,9.414807319641113,2.4387574195861816,-1.2845081090927124
1747978227907762700,0.8397626953125,9.416891098022461,2.4492437839508057,-1.2487869262695312
1747978227926027300,0.85802734375,9.443633079528809,2.3795104026794434,-1.1797581911087036
1747978227944291800,0.876291748046875,9.48172378540039,2.2596535682678223,-1.107694149017334
1747978227962556700,0.894556640625,9.522333145141602,2.1201677322387695,-1.0325512886047363
1747978227980821000,0.912821044921875,9.559660911560059,1.9889845848083496,-0.9449504613876343
1747978227999085600,0.93108544921875,9.592024803161621,1.8757237195968628,-0.8431039452552795
1747978228017350400,0.949350341796875,9.616254806518555,1.7862094640731812,-0.7571045160293579
1747978228035615000,0.967614990234375,9.630537986755371,1.728762149810791,-0.7072663903236389
1747978228053878300,0.985878173828125,9.637273788452148,1.7084648609161377,-0.663478672504425
1747978228072145000,1.004144775390625,9.63892936706543,1.7183891534805298,-0.6117897033691406
1747978228090404000,1.022404052734375,9.639190673828125,1.7361911535263062,-0.5547559261322021
1747978228108668700,1.040668701171875,9.641816139221191,1.7462315559387207,-0.4713584780693054
1747978228126933000,1.05893310546875,9.646291732788086,1.7410801649093628,-0.39217913150787354
1747978228145201200,1.077201171875,9.652693748474121,1.7205126285552979,-0.3185121715068817
1747978228163468300,1.09546826171875,9.659794807434082,1.6915892362594604,-0.25097769498825073
1747978228181731300,1.1137314453125,9.66557502746582,1.6614735126495361,-0.2286500483751297
1747978228199996400,1.131996337890625,9.668477058410645,1.6434359550476074,-0.2361735850572586
1747978228218260700,1.1502607421875,9.666644096374512,1.6558709144592285,-0.22405317425727844
1747978228236525300,1.168525390625,9.660157203674316,1.6996233463287354,-0.16959448158740997
1747978228254790000,1.186789794921875,9.651049613952637,1.75650954246521,-0.08955413103103638
1747978228273054500,1.205054443359375,9.645121574401855,1.7908680438995361,-0.02322002500295639
1747978228291319000,1.223319091796875,9.647117614746094,1.7801733016967773,0.014778107404708862
1747978228309583000,1.2415830078125,9.65438175201416,1.740366816520691,0.011526543647050858
1747978228327847000,1.259846923828125,9.662715911865234,1.6934657096862793,-0.013907237909734249
1747978228346113800,1.27811376953125,9.672024726867676,1.6393026113510132,-0.02727784775197506
1747978228364377600,1.296377685546875,9.68306827545166,1.57297945022583,-0.005309637635946274
1747978228382649600,1.314649658203125,9.696064949035645,1.4893338680267334,0.06567680835723877
1747978228400905200,1.3329052734375,9.708359718322754,1.4002946615219116,0.15180133283138275
1747978228419172400,1.35117236328125,9.71670150756836,1.3327128887176514,0.21377155184745789
1747978228437431000,1.36943115234375,9.719761848449707,1.3021436929702759,0.2583577334880829
1747978228455700200,1.3877001953125,9.71843433380127,1.3005820512771606,0.31086602807044983
1747978228473964800,1.40596484375,9.714211463928223,1.3129754066467285,0.38249945640563965
1747978228492229000,1.42422900390625,9.710088729858398,1.3230042457580566,0.44715362787246704
1747978228510493700,1.44249365234375,9.708783149719238,1.3242801427841187,0.47107985615730286
1747978228528765400,1.460765380859375,9.711112022399902,1.3137503862380981,0.45218658447265625
1747978228547024400,1.4790244140625,9.716109275817871,1.2922677993774414,0.40418922901153564
1747978228565287700,1.49728759765625,9.72204875946045,1.2626676559448242,0.35151392221450806
1747978228583552300,1.51555224609375,9.727928161621094,1.230554461479187,0.29876652359962463
1747978228601817000,1.533817138671875,9.733665466308594,1.1985609531402588,0.2351914644241333
1747978228620081400,1.552081298828125,9.73936939239502,1.164952278137207,0.15387719869613647
1747978228638341400,1.57034130859375,9.744729995727539,1.1280488967895508,0.06205102056264877
1747978228656609000,1.588609130859375,9.749258041381836,1.0898020267486572,-0.02012608014047146
1747978228674875400,1.60687548828125,9.75279712677002,1.0549825429916382,-0.07793377339839935
1747978228693140700,1.625140625,9.75546932220459,1.0286329984664917,-0.09406419843435287
1747978228711399700,1.643399658203125,9.757129669189453,1.0157179832458496,-0.0533595010638237
1747978228729668900,1.6616689453125,9.756865501403809,1.0196493864059448,0.0002367391571169719
1747978228747933400,1.679933349609375,9.75474739074707,1.0392484664916992,0.031203776597976685
1747978228766198300,1.6981982421875,9.752315521240234,1.0612963438034058,0.04582276567816734
1747978228784462600,1.716462646484375,9.74952507019043,1.0872509479522705,0.02758106216788292
1747978228802727200,1.73472705078125,9.745430946350098,1.1232879161834717,-0.03005465306341648
1747978228820992000,1.752991943359375,9.73971939086914,1.1677465438842773,-0.10165585577487946
1747978228839256600,1.771256591796875,9.733075141906738,1.21611487865448,-0.15622054040431976
1747978228857521000,1.78952099609375,9.725605964660645,1.2694263458251953,-0.1929958015680313
1747978228875785500,1.807785400390625,9.716963768005371,1.3315902948379517,-0.20876416563987732
1747978228894048800,1.826048828125,9.707145690917969,1.404241681098938,-0.18852673470973969
1747978228912315400,1.8443154296875,9.696207046508789,1.4834564924240112,-0.13797053694725037
1747978228930579200,1.8625791015625,9.684773445129395,1.558679461479187,-0.10858938097953796
1747978228948843000,1.880843017578125,9.675663948059082,1.6126770973205566,-0.1300397366285324
1747978228967110000,1.89910986328125,9.67317008972168,1.6223690509796143,-0.18385452032089233
1747978228985373000,1.917373046875,9.68161678314209,1.5692158937454224,-0.1998816728591919
1747978229003638000,1.935637939453125,9.699552536010742,1.4632387161254883,-0.11715634912252426
1747978229021902300,1.95390234375,9.715532302856445,1.3581006526947021,0.0101357102394104
1747978229040167000,1.9721669921875,9.72115707397461,1.3157466650009155,0.06333404779434204
1747978229058427000,1.990427001953125,9.714531898498535,1.3649296760559082,-0.030800282955169678
1747978229076696300,2.0086962890625,9.695548057556152,1.4768073558807373,-0.22694726288318634
1747978229094960400,2.02696044921875,9.670660972595215,1.5958590507507324,-0.4094659090042114
1747978229113225200,2.04522509765625,9.65054988861084,1.6870129108428955,-0.5069200992584229
1747978229131489500,2.063489501953125,9.639728546142578,1.746561050415039,-0.5111453533172607
1747978229149753900,2.08175390625,9.635869026184082,1.7762401103973389,-0.4807533323764801
1747978229168017700,2.100017578125,9.63603687286377,1.7794450521469116,-0.4652727544307709
1747978229186284500,2.118284423828125,9.637706756591797,1.7730895280838013,-0.45482203364372253
1747978229204548400,2.13654833984375,9.641386985778809,1.7539583444595337,-0.4509910047054291
1747978229222813000,2.15481298828125,9.647273063659668,1.7264894247055054,-0.4306497871875763
1747978229241072600,2.17307275390625,9.6528959274292,1.705039620399475,-0.3880169987678528
1747978229259341800,2.191341796875,9.65756607055664,1.6892802715301514,-0.3374398946762085
1747978229277606700,2.209606689453125,9.66218090057373,1.6727352142333984,-0.2834030091762543
1747978229295869700,2.22786962890625,9.665700912475586,1.6592570543289185,-0.23917634785175323
1747978229314135800,2.2461357421875,9.66810131072998,1.6489002704620361,-0.21224582195281982
1747978229332399400,2.2643994140625,9.669891357421875,1.6405612230300903,-0.19459308683872223
1747978229350664400,2.28266455078125,9.671481132507324,1.634689211845398,-0.162335604429245
1747978229368927500,2.300927490234375,9.672378540039062,1.6338618993759155,-0.10818321257829666
1747978229387196000,2.31919580078125,9.671245574951172,1.6435520648956299,-0.04316568374633789
1747978229405454600,2.33745458984375,9.668103218078613,1.662261724472046,0.027889026328921318
1747978229423723300,2.35572314453125,9.663108825683594,1.68837571144104,0.09905410557985306
1747978229441988000,2.373988037109375,9.655085563659668,1.7290641069412231,0.16055628657341003
1747978229460252200,2.392252197265625,9.642923355102539,1.78850257396698,0.22668962180614471
1747978229478516700,2.410516845703125,9.626432418823242,1.861822247505188,0.3186245262622833
1747978229496776700,2.428776611328125,9.607598304748535,1.9370832443237305,0.4217435419559479
1747978229515044900,2.447044921875,9.590535163879395,2.0031914710998535,0.4949326813220978
1747978229533311700,2.465311767578125,9.57888412475586,2.0524849891662598,0.5180705785751343
1747978229551574800,2.48357470703125,9.573864936828613,2.0726802349090576,0.5302912592887878
1747978229569838800,2.5018388671875,9.57507610321045,2.0553548336029053,0.5740625262260437
1747978229588105500,2.52010546875,9.582292556762695,1.9951391220092773,0.6596879363059998
1747978229606369300,2.538369384765625,9.594098091125488,1.9079538583755493,0.7410178184509277
1747978229624633600,2.556633544921875,9.60666561126709,1.832311987876892,0.7685827612876892
1747978229642898200,2.574898193359375,9.616841316223145,1.804761290550232,0.7037814259529114
1747978229661162800,2.593162841796875,9.619914054870605,1.8355661630630493,0.569264829158783
1747978229679421400,2.61142138671875,9.613463401794434,1.9054930210113525,0.43188661336898804
1747978229697693200,2.629693115234375,9.599565505981445,1.9911620616912842,0.34600791335105896
1747978229715956700,2.647956787109375,9.581929206848145,2.076678514480591,0.33188512921333313
1747978229734219800,2.6662197265625,9.564128875732422,2.153003454208374,0.357952743768692
1747978229752481800,2.684481689453125,9.550650596618652,2.205435037612915,0.3965342938899994
1747978229770749200,2.702749267578125,9.547430038452148,2.215590000152588,0.4169456660747528
1747978229789016000,2.72101611328125,9.556143760681152,2.180220127105713,0.40354734659194946
1747978229807279600,2.739279541015625,9.572417259216309,2.116438150405884,0.35442298650741577
1747978229825544200,2.757544189453125,9.590011596679688,2.0473084449768066,0.27626216411590576
1747978229843808500,2.77580859375,9.605484008789062,1.984651803970337,0.17873556911945343
1747978229862073300,2.7940732421875,9.618231773376465,1.928908348083496,0.07100559026002884
1747978229880338000,2.812337890625,9.627664566040039,1.8823760747909546,-0.029226869344711304
1747978229898598700,2.8305986328125,9.63206958770752,1.8562798500061035,-0.11651374399662018
1747978229916866000,2.848865966796875,9.630026817321777,1.8615134954452515,-0.18292875587940216
1747978229935132700,2.867132568359375,9.622830390930176,1.8944951295852661,-0.2193719744682312
1747978229953400800,2.88540087890625,9.61458969116211,1.9367555379867554,-0.21153655648231506
1747978229971661000,2.9036611328125,9.60916805267334,1.9670133590698242,-0.17567068338394165
1747978229989925000,2.921925048828125,9.608409881591797,1.972935438156128,-0.14868462085723877
1747978230008185300,2.940185302734375,9.61093807220459,1.9592570066452026,-0.16518479585647583
1747978230026461000,2.9584609375,9.611305236816406,1.9512742757797241,-0.22683294117450714
1747978230044720600,2.976720703125,9.605149269104004,1.9713000059127808,-0.3019734025001526
1747978230062984000,2.99498388671875,9.595743179321289,2.0089733600616455,-0.3490602374076843
1747978230081248500,3.01324853515625,9.58786392211914,2.04652738571167,-0.3474142253398895
1747978230099508200,3.03150830078125,9.58681583404541,2.057363986968994,-0.3103697896003723
1747978230117777700,3.049777587890625,9.592312812805176,2.0352671146392822,-0.28517428040504456
1747978230136042000,3.0680419921875,9.59880256652832,2.000020980834961,-0.31466418504714966
1747978230154306800,3.086306884765625,9.60211181640625,1.9698572158813477,-0.3939748704433441
1747978230172571400,3.1045712890625,9.603623390197754,1.9463363885879517,-0.4672238230705261
1747978230190834700,3.122834716796875,9.606391906738281,1.9321866035461426,-0.46904072165489197
1747978230209099000,3.14109912109375,9.610762596130371,1.9358956813812256,-0.34879133105278015
1747978230227368000,3.159367919921875,9.60815715789795,1.972756266593933,-0.16632872819900513
1747978230245629700,3.177629638671875,9.59211540222168,2.055790662765503,-0.03408948704600334
1747978230263893200,3.195893310546875,9.561790466308594,2.1923484802246094,-0.043336786329746246
1747978230282159000,3.2141591796875,9.519747734069824,2.363401412963867,-0.15763451159000397
1747978230300419800,3.232419921875,9.472455978393555,2.535629987716675,-0.28155624866485596
1747978230318683600,3.25068359375,9.429075241088867,2.685321569442749,-0.3430647850036621
1747978230336938000,3.26893798828125,9.399168014526367,2.788727045059204,-0.33873629570007324
1747978230355220000,3.287219970703125,9.384288787841797,2.8429465293884277,-0.29815641045570374
1747978230373486800,3.30548681640625,9.378426551818848,2.868389844894409,-0.231428861618042
1747978230391746000,3.32374609375,9.374619483947754,2.886615514755249,-0.14169031381607056
1747978230410011100,3.34201123046875,9.368924140930176,2.9082071781158447,-0.04118252545595169
1747978230428275500,3.360275390625,9.359177589416504,2.93918514251709,0.05560804530978203
1747978230446540300,3.378540283203125,9.343212127685547,2.9868128299713135,0.13942204415798187
1747978230464801500,3.396801513671875,9.3250732421875,3.0398967266082764,0.1953195184469223
1747978230483072300,3.415072265625,9.310663223266602,3.082045555114746,0.22059045732021332
1747978230501333800,3.433333740234375,9.30301284790039,3.1044578552246094,0.22890490293502808
1747978230519598600,3.4515986328125,9.30074691772461,3.1101725101470947,0.2430184781551361
1747978230537862000,3.46986181640625,9.300190925598145,3.1093690395355225,0.2727319896221161
1747978230556129000,3.48812890625,9.297310829162598,3.113800525665283,0.3168233633041382
1747978230574395100,3.50639501953125,9.2910795211792,3.1267690658569336,0.36777541041374207
1747978230592657000,3.524656982421875,9.280823707580566,3.1524221897125244,0.40578919649124146
1747978230610916600,3.54291650390625,9.265544891357422,3.194603204727173,0.4246197044849396
1747978230629186000,3.56118603515625,9.243690490722656,3.2565603256225586,0.4302383065223694
1747978230647446500,3.579446533203125,9.215131759643555,3.3381969928741455,0.4170038402080536
1747978230665715000,3.59771484375,9.18327522277832,3.4261720180511475,0.40608710050582886
1747978230683980000,3.61597998046875,9.15446949005127,3.5022175312042236,0.4077608585357666
1747978230702244400,3.634244384765625,9.135329246520996,3.55098819732666,0.41514867544174194
1747978230720509000,3.652509033203125,9.132270812988281,3.56078839302063,0.3981557786464691
1747978230738769200,3.67076904296875,9.14369010925293,3.5394840240478516,0.31794410943984985
1747978230757038300,3.689038330078125,9.163688659667969,3.498126983642578,0.16133536398410797
1747978230775302700,3.707302734375,9.190837860107422,3.4298605918884277,-0.02568988874554634
1747978230793567200,3.725567138671875,9.234792709350586,3.3072144985198975,-0.13054698705673218
1747978230811832000,3.74383203125,9.304121017456055,3.1093215942382812,-0.03951709344983101
1747978230830096100,3.76209619140625,9.381929397583008,2.857801675796509,0.22015410661697388
1747978230848361200,3.780361328125,9.442456245422363,2.6110942363739014,0.5082427859306335
1747978230866621000,3.798620849609375,9.482599258422852,2.4248507022857666,0.6606981158256531
1747978230884889000,3.81688916015625,9.512237548828125,2.323580265045166,0.5953271389007568
1747978230903156000,3.835156005859375,9.533369064331055,2.270495653152466,0.442546546459198
1747978230921414700,3.85341455078125,9.545149803161621,2.2440567016601562,0.30073240399360657
1747978230939684400,3.871684326171875,9.551735877990723,2.2233753204345703,0.23886491358280182
1747978230957948700,3.88994873046875,9.557005882263184,2.1968042850494385,0.2716534733772278
1747978230976213000,3.908212890625,9.55967903137207,2.1690242290496826,0.37943437695503235
1747978230994477800,3.926477783203125,9.557151794433594,2.157505512237549,0.4920504689216614
1747978231012742400,3.944742431640625,9.548739433288574,2.1788482666015625,0.557039201259613
1747978231031006700,3.9630068359375,9.539055824279785,2.223268985748291,0.5473649501800537
1747978231049271800,3.981271728515625,9.532047271728516,2.2609333992004395,0.5141650438308716
1747978231067536100,3.9995361328125,9.528518676757812,2.286332368850708,0.4648929238319397
1747978231085801200,4.01780126953125,9.526817321777344,2.3068020343780518,0.39309898018836975
1747978231104063700,4.036063720703125,9.526130676269531,2.321643590927124,0.31450411677360535
1747978231122326300,4.054326171875,9.525727272033691,2.332589864730835,0.23589058220386505
1747978231140593400,4.072593505859375,9.524359703063965,2.344672679901123,0.15874621272087097
1747978231158859000,4.09085888671875,9.521800994873047,2.358863353729248,0.08470576256513596
1747978231177124900,4.109124755859375,9.517945289611816,2.3758296966552734,0.01602458767592907
1747978231195388700,4.127388671875,9.514435768127441,2.389655351638794,-0.03426409885287285
1747978231213652700,4.14565283203125,9.51455020904541,2.3886990547180176,-0.05970628559589386
1747978231231917300,4.163917236328125,9.519060134887695,2.3696980476379395,-0.09020975232124329
1747978231250182400,4.182182373046875,9.524782180786133,2.342175245285034,-0.16987156867980957
1747978231268442600,4.200442626953125,9.528203010559082,2.31775164604187,-0.2783459722995758
1747978231286711000,4.2187109375,9.532746315002441,2.2920308113098145,-0.330837219953537
1747978231304976000,4.236975830078125,9.538021087646484,2.2663607597351074,-0.3547913134098053
1747978231323240400,4.255240478515625,9.540108680725098,2.25532603263855,-0.3686995506286621
1747978231341505000,4.273505126953125,9.533349990844727,2.2787539958953857,-0.3982809782028198
1747978231359771100,4.291771240234375,9.513707160949707,2.3449690341949463,-0.47602301836013794
1747978231378029600,4.310029541015625,9.488638877868652,2.4219930171966553,-0.5794751048088074
1747978231396297500,4.32829736328125,9.471807479858398,2.4675421714782715,-0.657423198223114
1747978231414564400,4.346564453125,9.47780704498291,2.4512791633605957,-0.6312685608863831
1747978231432828400,4.364828369140625,9.499456405639648,2.3905961513519287,-0.5305588245391846
1747978231451091700,4.383091796875,9.515795707702637,2.3370814323425293,-0.4730660915374756
1747978231469356800,4.401356689453125,9.513314247131348,2.3337221145629883,-0.5354514718055725
1747978231487622000,4.419621826171875,9.49136734008789,2.379998207092285,-0.6968891024589539
1747978231505885000,4.437885009765625,9.4623384475708,2.4417307376861572,-0.8591912388801575
1747978231524151300,4.4561513671875,9.444522857666016,2.480404853820801,-0.9405797123908997
1747978231542411300,4.474411376953125,9.44864273071289,2.481955051422119,-0.893949031829834
1747978231560680200,4.49268017578125,9.464275360107422,2.468087673187256,-0.756410539150238
1747978231578945000,4.510945068359375,9.474235534667969,2.468451499938965,-0.6178361177444458
1747978231597209300,4.529209228515625,9.470661163330078,2.5020313262939453,-0.5315267443656921
1747978231615474000,4.547473876953125,9.454754829406738,2.569455623626709,-0.4915555715560913
1747978231633733600,4.565733642578125,9.433085441589355,2.6520447731018066,-0.4686841666698456
1747978231652001800,4.584001708984375,9.410459518432617,2.735313653945923,-0.44431501626968384
1747978231670268400,4.602268310546875,9.387338638305664,2.8192076683044434,-0.40749621391296387
1747978231688532200,4.6205322265625,9.361747741699219,2.9086525440216064,-0.3654204308986664
1747978231706797000,4.638797119140625,9.337137222290039,2.9923694133758545,-0.3157597482204437
1747978231725061400,4.657061279296875,9.315886497497559,3.0622060298919678,-0.27065008878707886
1747978231743325700,4.67532568359375,9.297623634338379,3.118454694747925,-0.25602954626083374
1747978231761590500,4.693590576171875,9.279180526733398,3.1743004322052,-0.2381981760263443
1747978231779854000,4.71185400390625,9.258965492248535,3.2354180812835693,-0.19937749207019806
1747978231798121200,4.730121337890625,9.238329887390137,3.2984800338745117,-0.09699069708585739
1747978231816384800,4.748384765625,9.217428207397461,3.3564202785491943,0.09785345196723938
1747978231834649000,4.766649169921875,9.190896034240723,3.4157745838165283,0.3098774552345276
1747978231852913700,4.78491357421875,9.162162780761719,3.471944570541382,0.4862934947013855
1747978231871178000,4.803177978515625,9.144295692443848,3.5051345825195312,0.5761895775794983
1747978231889439000,4.82143896484375,9.154659271240234,3.500868797302246,0.41502121090888977
1747978231907706000,4.8397060546875,9.163924217224121,3.4952616691589355,0.20429091155529022
1747978231925973200,4.85797314453125,9.173238754272461,3.4766597747802734,-0.02515370026230812
1747978231944236500,4.876236572265625,9.182296752929688,3.4484715461730957,-0.17198970913887024
1747978231962501400,4.89450146484375,9.189356803894043,3.4248907566070557,-0.24890048801898956
1747978231980760800,4.9127607421875,9.196223258972168,3.4018077850341797,-0.3054361939430237
1747978231999030500,4.931030517578125,9.210658073425293,3.361318826675415,-0.31845822930336
1747978232017294800,4.949294921875,9.236821174621582,3.2947700023651123,-0.24845930933952332
1747978232035559400,4.967559326171875,9.26721477508545,3.215759515762329,-0.11712338775396347
1747978232053824800,4.98582470703125,9.289985656738281,3.1515026092529297,0.017650114372372627
1747978232072088000,5.004088134765625,9.298537254333496,3.1237082481384277,0.12556414306163788
1747978232090353400,5.022353515625,9.289289474487305,3.147885799407959,0.1898314654827118
1747978232108613000,5.040613037109375,9.26496696472168,3.2159762382507324,0.23237156867980957
1747978232126881500,5.058881591796875,9.232342720031738,3.3048856258392334,0.2787174880504608
1747978232145148200,5.077148193359375,9.201449394226074,3.3864388465881348,0.31853294372558594
1747978232163406800,5.09540673828125,9.180659294128418,3.4405105113983154,0.3383587896823883
1747978232181676300,5.11367626953125,9.171463012695312,3.4661788940429688,0.32554638385772705
1747978232199940600,5.131940673828125,9.170326232910156,3.4731459617614746,0.2801341116428375
1747978232218205400,5.150205322265625,9.172171592712402,3.472686767578125,0.2186904102563858
1747978232236465400,5.16846533203125,9.178410530090332,3.4577627182006836,0.19174131751060486
1747978232254734300,5.186734375,9.197218894958496,3.4069440364837646,0.1999915987253189
1747978232272999200,5.204999267578125,9.230413436889648,3.3163421154022217,0.19352076947689056
1747978232291263700,5.223263671875,9.275740623474121,3.1866607666015625,0.20477710664272308
1747978232309528000,5.241528076171875,9.324488639831543,3.039062976837158,0.2326231449842453
1747978232327793200,5.259793212890625,9.366334915161133,2.90834379196167,0.22229032218456268
1747978232346057700,5.2780576171875,9.394049644470215,2.822232484817505,0.15151788294315338
1747978232364322300,5.296322265625,9.407122611999512,2.7821643352508545,0.041354142129421234
1747978232382587000,5.3145869140625,9.413471221923828,2.760301351547241,-0.058412954211235046
1747978232400850000,5.332849853515625,9.422175407409668,2.7287137508392334,-0.11332862079143524
1747978232419117000,5.351116943359375,9.430474281311035,2.700544595718384,-0.09652876108884811
1747978232437381600,5.369381591796875,9.439560890197754,2.6702232360839844,-0.026528673246502876
1747978232455645000,5.38764501953125,9.444315910339355,2.653442859649658,-0.015968527644872665
1747978232473910000,5.405909912109375,9.44440746307373,2.652289628982544,-0.06810931861400604
1747978232492169500,5.42416943359375,9.438827514648438,2.667316198348999,-0.17340335249900818
1747978232510433500,5.44243359375,9.429729461669922,2.689378499984741,-0.28905996680259705
1747978232528697600,5.460697509765625,9.421398162841797,2.7059824466705322,-0.388606995344162
1747978232556101600,5.4881015625,9.41431713104248,2.706456422805786,-0.5308851003646851
1747978232574366200,5.5063662109375,9.429888725280762,2.6470937728881836,-0.553365170955658
1747978232592629000,5.52462890625,9.468517303466797,2.525209426879883,-0.4545416533946991
1747978232610895400,5.542895263671875,9.510706901550293,2.389042854309082,-0.27395567297935486
1747978232629158700,5.56115869140625,9.5368013381958,2.2972965240478516,-0.0891638994216919
1747978232647420000,5.579419921875,9.539070129394531,2.289581060409546,0.00849088840186596
1747978232665687600,5.5976875,9.525657653808594,2.3447351455688477,-0.012870379723608494
1747978232683953700,5.61595361328125,9.512409210205078,2.396857500076294,-0.07243706285953522
1747978232702217000,5.634217041015625,9.509818077087402,2.40493106842041,-0.1256229728460312
1747978232720483000,5.652483154296875,9.520352363586426,2.3623507022857666,-0.13524456322193146
1747978232738744000,5.670744140625,9.538897514343262,2.288836717605591,-0.08225592970848083
1747978232757012000,5.689011962890625,9.556975364685059,2.213662624359131,0.005944206379354
1747978232775275300,5.707275146484375,9.568693161010742,2.1603617668151855,0.0951581746339798
1747978232793536800,5.725536865234375,9.57214069366455,2.1401689052581787,0.17294105887413025
1747978232811804400,5.743804443359375,9.564960479736328,2.1659977436065674,0.23684696853160858
1747978232830070000,5.762070068359375,9.546704292297363,2.2433433532714844,0.2528779208660126
1747978232848333800,5.780333740234375,9.519460678100586,2.362617254257202,0.18442900478839874
1747978232866599700,5.798599609375,9.490081787109375,2.483072519302368,0.09389503300189972
1747978232884861700,5.81686181640625,9.467925071716309,2.5664000511169434,0.08994384855031967
1747978232903130000,5.835130126953125,9.45130443572998,2.625047445297241,0.13449984788894653
1747978232921395500,5.8533955078125,9.435094833374023,2.678589105606079,0.20066951215267181
1747978232939658200,5.871658203125,9.418739318847656,2.729978561401367,0.26585009694099426
1747978232957921000,5.889921142578125,9.40442180633545,2.773637056350708,0.3160634934902191
1747978232976185900,5.908185791015625,9.394057273864746,2.8054840564727783,0.34213024377822876
1747978232994448100,5.9264482421875,9.38754940032959,2.8245434761047363,0.36328020691871643
1747978233012716800,5.944716796875,9.381628036499023,2.8400590419769287,0.3939964473247528
1747978233030979000,5.96297900390625,9.372888565063477,2.862032651901245,0.44026634097099304
1747978233049240800,5.98124072265625,9.360383033752441,2.890596628189087,0.5135945081710815
1747978233067509200,5.99950927734375,9.345006942749023,2.9270565509796143,0.5824885964393616
1747978233085774600,6.017774658203125,9.330070495605469,2.962998628616333,0.6375976800918579
1747978233104036600,6.03603662109375,9.319169044494629,2.987591505050659,0.6808010935783386
1747978233122305000,6.054304931640625,9.316106796264648,2.998608350753784,0.6742433905601501
1747978233140567300,6.0725673828125,9.322921752929688,2.986056327819824,0.6345984935760498
1747978233158832600,6.09083251953125,9.34207534790039,2.9304935932159424,0.6115177273750305
1747978233177097500,6.109097412109375,9.37604808807373,2.8210442066192627,0.606246829032898
1747978233195362000,6.127362060546875,9.421283721923828,2.6603689193725586,0.6308521032333374
1747978233213625600,6.14562548828125,9.468393325805664,2.4761340618133545,0.6740967035293579
1747978233231890400,6.163890380859375,9.507665634155273,2.3156394958496094,0.6915257573127747
1747978233250155800,6.18215576171875,9.532783508300781,2.2157864570617676,0.6726341247558594
1747978233268416000,6.200416015625,9.542969703674316,2.1833274364471436,0.633182168006897
1747978233286684200,6.21868408203125,9.543505668640137,2.195671319961548,0.5802003741264343
1747978233304945400,6.2369453125,9.541206359863281,2.22155499458313,0.5159154534339905
1747978233323212000,6.2552119140625,9.540928840637207,2.2364048957824707,0.4530939757823944
1747978233341480400,6.27348046875,9.544539451599121,2.232886791229248,0.38999709486961365
1747978233359742700,6.29174267578125,9.551159858703613,2.215576410293579,0.3204331398010254
1747978233378008600,6.310008544921875,9.558053970336914,2.1945924758911133,0.251954048871994
1747978233396271000,6.32827099609375,9.562844276428223,2.1792612075805664,0.19735530018806458
1747978233414537200,6.346537109375,9.564906120300293,2.1724822521209717,0.17027553915977478
1747978233432800800,6.36480078125,9.559849739074707,2.1938469409942627,0.18002064526081085
1747978233451067100,6.383067138671875,9.550951957702637,2.2320308685302734,0.18293263018131256
1747978233469329700,6.40132958984375,9.54616928100586,2.254850387573242,0.14969304203987122
1747978233487595800,6.419595703125,9.548890113830566,2.2435431480407715,0.1460137516260147
1747978233505858300,6.4378583984375,9.557280540466309,2.2068448066711426,0.1560027003288269
1747978233524126000,6.4561259765625,9.565390586853027,2.1710541248321533,0.1610434353351593
1747978233551520800,6.483520751953125,9.567243576049805,2.1652703285217285,0.12472952157258987
1747978233569785600,6.50178564453125,9.560927391052246,2.193999767303467,0.10557053238153458
1747978233588050000,6.5200498046875,9.551963806152344,2.2331502437591553,0.0955519899725914
1747978233606315000,6.53831494140625,9.548863410949707,2.247328281402588,0.06953670084476471
1747978233624579600,6.55657958984375,9.553178787231445,2.2299742698669434,-0.010301551781594753
1747978233642843000,6.5748427734375,9.558265686035156,2.2021920680999756,-0.16130158305168152
1747978233661109800,6.59310986328125,9.55721378326416,2.1876020431518555,-0.33192503452301025
1747978233679373300,6.611373291015625,9.550344467163086,2.1948132514953613,-0.458057165145874
1747978233697638000,6.629637939453125,9.541895866394043,2.22273325920105,-0.49777817726135254
1747978233715902500,6.64790234375,9.530794143676758,2.2773423194885254,-0.46237048506736755
1747978233734165500,6.66616552734375,9.507757186889648,2.376006841659546,-0.43960699439048767
1747978233752427800,6.684427734375,9.47966480255127,2.4795897006988525,-0.4729640483856201
1747978233770696200,6.7026962890625,9.46625804901123,2.5159237384796143,-0.5442415475845337
1747978233788960800,6.720960693359375,9.480767250061035,2.4538233280181885,-0.5743712782859802
1747978233807225300,6.739225341796875,9.518515586853027,2.3182389736175537,-0.5096490979194641
1747978233825490000,6.757489990234375,9.558661460876465,2.17655611038208,-0.3615305721759796
1747978233843754800,6.775754638671875,9.577028274536133,2.111539363861084,-0.24092020094394684
1747978233862014500,6.794014404296875,9.566375732421875,2.158371686935425,-0.24897576868534088
1747978233880282400,6.812282470703125,9.537013053894043,2.2703471183776855,-0.35640886425971985
1747978233898549800,6.8305498046875,9.5049409866333,2.3779969215393066,-0.4871712327003479
1747978233916813000,6.84881298828125,9.48370361328125,2.4386842250823975,-0.5901629328727722
1747978233935077000,6.8670771484375,9.480195045471191,2.4436967372894287,-0.6247951984405518
1747978233953342200,6.88534228515625,9.487104415893555,2.4255356788635254,-0.5896903872489929
1747978233971607000,6.90360693359375,9.495745658874512,2.4114315509796143,-0.5019127130508423
1747978233989869800,6.921869873046875,9.501119613647461,2.4133737087249756,-0.3747885525226593
1747978234008137000,6.940136962890625,9.502996444702148,2.421576738357544,-0.2552131414413452
1747978234026398700,6.958398681640625,9.505398750305176,2.4203810691833496,-0.15892265737056732
1747978234044665300,6.976665283203125,9.507716178894043,2.4140305519104004,-0.10913404822349548
1747978234062929700,6.9949296875,9.508251190185547,2.410661220550537,-0.1341104954481125
1747978234081194500,7.013194580078125,9.505558013916016,2.4154107570648193,-0.21507975459098816
1747978234099463700,7.031463623046875,9.500591278076172,2.425722599029541,-0.30124080181121826
1747978234117718800,7.04971875,9.495461463928223,2.443186044692993,-0.32118478417396545
1747978234135986700,7.067986572265625,9.485356330871582,2.4869041442871094,-0.28185027837753296
1747978234154254000,7.086254150390625,9.462311744689941,2.5779049396514893,-0.23487967252731323
1747978234172517400,7.104517333984375,9.427531242370605,2.707489252090454,-0.1651516854763031
1747978234190781700,7.12278173828125,9.39992618560791,2.8041000366210938,-0.12051243335008621
1747978234209044000,7.1410439453125,9.392217636108398,2.8318724632263184,-0.053480684757232666
1747978234227314200,7.159314208984375,9.396956443786621,2.816277265548706,0.043630316853523254
1747978234245576200,7.177576171875,9.401066780090332,2.799712657928467,0.13288046419620514
1747978234263839500,7.195839599609375,9.397526741027832,2.806386947631836,0.2163117527961731
1747978234282106400,7.2141064453125,9.38529109954834,2.8400979042053223,0.29369497299194336
1747978234300369700,7.23236962890625,9.37053108215332,2.878901481628418,0.37575364112854004
1747978234318629600,7.250629638671875,9.358924865722656,2.904872417449951,0.4564661383628845
1747978234336898800,7.26889892578125,9.351924896240234,2.9216854572296143,0.4912911057472229
1747978234355163600,7.28716357421875,9.353775024414062,2.9172701835632324,0.48222967982292175
1747978234373424400,7.30542431640625,9.369095802307129,2.8725688457489014,0.4522153437137604
1747978234391691000,7.32369091796875,9.3971529006958,2.7831227779388428,0.4287923574447632
1747978234409958700,7.341958740234375,9.431157112121582,2.6643691062927246,0.4364730417728424
1747978234428221700,7.3602216796875,9.463349342346191,2.5432114601135254,0.46173834800720215
1747978234446486500,7.378486572265625,9.488266944885254,2.4502453804016113,0.45298463106155396
1747978234464751400,7.39675146484375,9.502538681030273,2.4034063816070557,0.4018838405609131
1747978234483016000,7.415015869140625,9.504817962646484,2.4065070152282715,0.3213399648666382
1747978234501280500,7.433280517578125,9.50075626373291,2.430835247039795,0.2505844235420227
1747978234519545000,7.451545166015625,9.496415138244629,2.4509470462799072,0.2169581651687622
1747978234537797000,7.469797119140625,9.493120193481445,2.4649734497070312,0.20170819759368896
1747978234556077000,7.4880771484375,9.491165161132812,2.4727189540863037,0.19889399409294128
1747978234574338600,7.506338623046875,9.489538192749023,2.4794468879699707,0.192665696144104
1747978234592603100,7.52460302734375,9.486785888671875,2.4929111003875732,0.14965862035751343
1747978234610867000,7.542866943359375,9.482773780822754,2.5117032527923584,0.06673888117074966
1747978234629133800,7.5611337890625,9.478333473205566,2.5292065143585205,-0.02039596624672413
1747978234647399400,7.5793994140625,9.472164154052734,2.550722599029541,-0.08963460475206375
1747978234665663200,7.597663330078125,9.460122108459473,2.589801788330078,-0.18741115927696228
1747978234683926300,7.61592626953125,9.445822715759277,2.6322038173675537,-0.28991591930389404
1747978234702191000,7.634191162109375,9.435079574584961,2.6602678298950195,-0.3719498813152313
1747978234720451000,7.652451171875,9.43199348449707,2.664480209350586,-0.41732653975486755
1747978234738716700,7.670716552734375,9.434144973754883,2.6528549194335938,-0.44201990962028503
1747978234756985000,7.688985107421875,9.438761711120605,2.633039951324463,-0.4615039527416229
1747978234775249400,7.70724951171875,9.443379402160645,2.614011287689209,-0.47501465678215027
1747978234793514200,7.72551416015625,9.445324897766113,2.6024889945983887,-0.49899256229400635
1747978234811778800,7.74377880859375,9.443954467773438,2.598876714706421,-0.5419260859489441
1747978234830043100,7.762043212890625,9.438478469848633,2.6057066917419434,-0.6012691855430603
1747978234848308200,7.78030810546875,9.427517890930176,2.6281442642211914,-0.6714778542518616
1747978234866572500,7.798572509765625,9.413093566894531,2.663299798965454,-0.7325376272201538
1747978234884835800,7.8168359375,9.398265838623047,2.705144166946411,-0.76870197057724
1747978234903102000,7.83510205078125,9.384296417236328,2.749490737915039,-0.7819164395332336
1747978234921367800,7.853367919921875,9.369247436523438,2.797577381134033,-0.7917483448982239
1747978234939631000,7.871631103515625,9.348649024963379,2.8521902561187744,-0.8389790654182434
1747978234957896000,7.88989599609375,9.325440406799316,2.9018642902374268,-0.9227437973022461
1747978234976160000,7.908159912109375,9.315547943115234,2.9129443168640137,-0.9856152534484863
1747978234994420200,7.926420166015625,9.341005325317383,2.8459482192993164,-0.9393069744110107
1747978235012689700,7.944689697265625,9.395888328552246,2.715914726257324,-0.7597299814224243
1747978235030953700,7.96295361328125,9.442127227783203,2.606128215789795,-0.5389180779457092
1747978235049219000,7.981218994140625,9.452141761779785,2.5932579040527344,-0.41005077958106995
1747978235067483600,7.999483642578125,9.422005653381348,2.6946918964385986,-0.4478212296962738
1747978235085747700,8.017747802734375,9.369099617004395,2.847395420074463,-0.5902682542800903
1747978235104013600,8.036013671875,9.324005126953125,2.961634397506714,-0.7264676690101624
1747978235122276400,8.0542763671875,9.31056022644043,2.98580002784729,-0.7965973615646362
1747978235140542000,8.0725419921875,9.3309326171875,2.924274206161499,-0.7863991856575012
1747978235158806500,8.090806640625,9.3698148727417,2.8181300163269043,-0.7076991200447083
1747978235177071400,8.1090712890625,9.40599536895752,2.7181100845336914,-0.6125580668449402
1747978235195336000,8.1273359375,9.428605079650879,2.6557013988494873,-0.5336323380470276
1747978235213604600,8.1456044921875,9.435556411743164,2.642089605331421,-0.4751305878162384
1747978235231859000,8.16385888671875,9.430780410766602,2.6648032665252686,-0.44193339347839355
1747978235250129400,8.18212939453125,9.42270565032959,2.6966748237609863,-0.42031922936439514
1747978235268399000,8.200399169921875,9.414156913757324,2.7291924953460693,-0.4015582203865051
1747978235286659000,8.2186591796875,9.401151657104492,2.774620294570923,-0.3948734402656555
1747978235304923400,8.23692333984375,9.383468627929688,2.8359880447387695,-0.3791967034339905
1747978235323188200,8.255188232421874,9.362432479858398,2.9108173847198486,-0.3287853002548218
1747978235341449000,8.273448974609375,9.338550567626953,2.9943251609802246,-0.24820511043071747
1747978235359717400,8.29171728515625,9.310820579528809,3.0854246616363525,-0.15775100886821747
1747978235377982200,8.309982177734375,9.27955150604248,3.1809005737304688,-0.08889829367399216
1747978235396246800,8.328246826171876,9.258447647094727,3.242748737335205,-0.042833633720874786
1747978235414511400,8.346511474609375,9.250182151794434,3.266531467437744,0.0028875013813376427
1747978235432776000,8.36477587890625,9.2446928024292,3.2820188999176025,0.010841615498065948
1747978235451040800,8.383040771484374,9.237863540649414,3.30119252204895,-0.011156926862895489
1747978235469302000,8.401302001953125,9.230545997619629,3.3212642669677734,-0.04836086183786392
1747978235487565000,8.41956494140625,9.227054595947266,3.330394983291626,-0.07777074724435806
1747978235505833500,8.43783349609375,9.230154991149902,3.322082281112671,-0.06423313170671463
1747978235524099000,8.45609912109375,9.234390258789062,3.3107597827911377,-0.03177128732204437
1747978235542365000,8.474364990234376,9.23181438446045,3.3179550170898438,-0.029539842158555984
1747978235560628500,8.49262841796875,9.2223539352417,3.343503475189209,-0.07264157384634018
1747978235578893600,8.5108935546875,9.220576286315918,3.3467586040496826,-0.12766635417938232
1747978235597157400,8.529157470703124,9.247757911682129,3.270421266555786,-0.13939397037029266
1747978235615417300,8.547417236328124,9.308772087097168,3.094398021697998,-0.08698581159114838
1747978235633686800,8.565686767578125,9.376702308654785,2.883007764816284,-0.042854830622673035
1747978235651951600,8.58395166015625,9.421685218811035,2.730659246444702,-0.10699279606342316
1747978235670215700,8.602215576171876,9.426779747009277,2.694714307785034,-0.33233800530433655
1747978235688481000,8.62048095703125,9.40083122253418,2.7462852001190186,-0.5642681121826172
1747978235706745300,8.638745361328125,9.363101959228516,2.8401598930358887,-0.7084636688232422
1747978235725010200,8.65701025390625,9.32941722869873,2.933257579803467,-0.7707706689834595
1747978235743270100,8.675270263671875,9.316265106201172,2.980762481689453,-0.747239887714386
1747978235761538300,8.693538330078125,9.325222969055176,2.969949722290039,-0.675074577331543
1747978235779805200,8.71180517578125,9.346076965332031,2.9206042289733887,-0.5975078344345093
1747978235798068700,8.73006884765625,9.368863105773926,2.8586905002593994,-0.5370304584503174
1747978235816333300,8.748333251953126,9.387103080749512,2.8037564754486084,-0.5073052644729614
1747978235834598100,8.76659814453125,9.397339820861816,2.767655372619629,-0.5159314274787903
1747978235852861700,8.78486181640625,9.40125560760498,2.746917247772217,-0.5540317296981812
1747978235871128000,8.803128173828124,9.403700828552246,2.7281410694122314,-0.6031285524368286
1747978235889394700,8.821394775390624,9.406570434570312,2.7088468074798584,-0.6439672708511353
1747978235907656700,8.83965673828125,9.409231185913086,2.6929595470428467,-0.671151340007782
1747978235925921300,8.85792138671875,9.40995979309082,2.6857590675354004,-0.6895350813865662
1747978235944189200,8.876189208984375,9.405599594116211,2.6946816444396973,-0.7137934565544128
1747978235962443300,8.894443359375,9.396966934204102,2.7172486782073975,-0.74139803647995
1747978235980715000,8.912715087890625,9.38974380493164,2.7405354976654053,-0.7471904754638672
1747978235998979800,8.930979736328124,9.388474464416504,2.751864433288574,-0.721047043800354
1747978236017243400,8.949243408203126,9.390497207641602,2.7528810501098633,-0.6901583671569824
1747978236035510000,8.967510009765626,9.38887882232666,2.755552053451538,-0.7014238834381104
1747978236053773600,8.985773681640625,9.378499984741211,2.769982099533081,-0.7791352272033691
1747978236072038100,9.0040380859375,9.361382484436035,2.7942302227020264,-0.8904574513435364
1747978236090303000,9.022302978515626,9.341282844543457,2.826510429382324,-0.9936693906784058
1747978236108568000,9.040568115234375,9.317956924438477,2.869558334350586,-1.0850858688354492
1747978236126831900,9.058831787109375,9.305768966674805,2.9055964946746826,-1.0937399864196777
1747978236145097200,9.07709716796875,9.304092407226562,2.9272496700286865,-1.049369215965271
1747978236163361800,9.09536181640625,9.297469139099121,2.9454753398895264,-1.0570476055145264
1747978236181626400,9.11362646484375,9.291112899780273,2.9514377117156982,-1.0956023931503296
1747978236199892000,9.13189208984375,9.298306465148926,2.9178736209869385,-1.124107837677002
1747978236218154800,9.15015478515625,9.333429336547852,2.8188557624816895,-1.0850197076797485
1747978236236415500,9.16841552734375,9.392974853515625,2.6559247970581055,-0.9768238067626953
1747978236254680000,9.18668017578125,9.446623802185059,2.4976868629455566,-0.8711862564086914
1747978236272948500,9.204948486328124,9.48029613494873,2.3603742122650146,-0.8881005644798279
1747978236291215400,9.22321533203125,9.496183395385742,2.237936019897461,-1.024815559387207
1747978236309478700,9.241478759765625,9.496611595153809,2.142043352127075,-1.2091882228851318
1747978236327743500,9.259743408203125,9.484045028686523,2.074369430541992,-1.4092506170272827
1747978236346008300,9.27800830078125,9.459001541137695,2.022554874420166,-1.634827971458435
1747978236364273000,9.29627294921875,9.421690940856934,1.9890893697738647,-1.8738644123077393
1747978236382537700,9.314537841796875,9.381559371948242,1.9967790842056274,-2.0579919815063477
1747978236400802300,9.33280224609375,9.348718643188477,2.0818734169006348,-2.1221158504486084
1747978236419067100,9.351067138671874,9.305107116699219,2.2851481437683105,-2.1045618057250977
1747978236437331500,9.36933154296875,9.234428405761719,2.59722638130188,-2.053253650665283
1747978236455595800,9.387595703125,9.186422348022461,2.8984014987945557,-1.856076717376709
1747978236473859600,9.405859619140625,9.223749160766602,3.061610460281372,-1.3360767364501953
1747978236492126700,9.424126708984375,9.256160736083984,3.1531691551208496,-0.7855693697929382
1747978236510392000,9.44239208984375,9.282066345214844,3.1134700775146484,-0.6210165619850159
1747978236528647200,9.460647216796875,9.302901268005371,3.0145344734191895,-0.7776379585266113
1747978236546922500,9.478922607421875,9.349235534667969,2.8103623390197754,-0.9642441868782043
1747978236565184300,9.497184326171874,9.413980484008789,2.5794901847839355,-0.9794423580169678
1747978236583444000,9.51544384765625,9.46512222290039,2.413968086242676,-0.9057209491729736
1747978236601708800,9.533708740234376,9.477701187133789,2.363114833831787,-0.9082844257354736
1747978236619977000,9.55197705078125,9.455820083618164,2.395907163619995,-1.0407733917236328
1747978236638244000,9.570244140625,9.401023864746094,2.512118101119995,-1.243432641029358
1747978236656507400,9.58850732421875,9.306182861328125,2.7069458961486816,-1.5177277326583862
1747978236674772200,9.606772216796875,9.194172859191895,2.9074668884277344,-1.8027557134628296
1747978236693037000,9.625037109375,9.135019302368164,2.9898252487182617,-1.9617549180984497
1747978236711301000,9.643301025390626,9.158015251159668,2.9177300930023193,-1.963089942932129
1747978236729566500,9.66156640625,9.208654403686523,2.7918636798858643,-1.9084771871566772
1747978236747831300,9.679831298828125,9.272560119628906,2.69765567779541,-1.7258005142211914
1747978236766095000,9.69809521484375,9.328490257263184,2.6612894535064697,-1.4604538679122925
1747978236784360200,9.716360107421876,9.369976043701172,2.6618001461029053,-1.1638203859329224
1747978236802625000,9.734625,9.401057243347168,2.6664888858795166,-0.8637536764144897
1747978236820891000,9.752890869140625,9.44462776184082,2.599510908126831,-0.5269358158111572
1747978236839153000,9.77115283203125,9.490065574645996,2.48368501663208,-0.07793593406677246
1747978236857414100,9.7894140625,9.499062538146973,2.416745662689209,0.4040473699569702
1747978236875683600,9.80768359375,9.498148918151855,2.319115161895752,0.8018620014190674
1747978236893948000,9.825947998046875,9.496832847595215,2.1647791862487793,1.1661896705627441
1747978236912212500,9.84421240234375,9.455174446105957,2.0905017852783203,1.570217251777649
1747978236930477800,9.862477783203126,9.367846488952637,2.1150436401367188,2.0015358924865723
1747978236948739000,9.880739013671874,9.232110977172852,2.197505474090576,2.4849956035614014
1747978236967007000,9.899007080078125,9.028157234191895,2.3216190338134766,3.055907964706421
1747978236985271300,9.917271240234374,8.721600532531738,2.483250141143799,3.742094039916992
1747978237003536400,9.935536376953126,8.289515495300293,2.6137771606445312,4.548429012298584
1747978237021801000,9.953801025390625,7.698122978210449,2.672382354736328,5.4619951248168945
1747978237058327300,9.990327392578125,6.127588748931885,2.3657326698303223,7.286432266235352
1747978237076598300,10.008598388671874,5.27955436706543,1.986175298690796,8.026053428649902
1747978237094858200,10.026858154296875,4.457676410675049,1.5514602661132812,8.599895477294922
1747978237113125600,10.045125732421875,3.7074756622314453,1.0970652103424072,9.01594066619873
1747978237131390700,10.063390625,3.0209367275238037,0.525590181350708,9.318466186523438
1747978237149652200,10.08165234375,2.338024139404297,-0.15897585451602936,9.525989532470703
1747978237167915500,10.09991552734375,1.6680598258972168,-0.9054510593414307,9.624649047851562
1747978237186187300,10.118187255859375,0.9124978184700012,-1.5868449211120605,9.637706756591797
1747978237204440000,10.136440185546874,0.21370404958724976,-2.2181060314178467,9.553556442260742
1747978237222715100,10.154715087890626,-0.40771234035491943,-2.8735909461975098,9.37082576751709
1747978237240976600,10.1729765625,-0.8707603812217712,-3.5411152839660645,9.107051849365234
1747978237259241500,10.191241455078124,-1.150994062423706,-4.155872344970703,8.811360359191895
1747978237277506000,10.209506103515626,-1.2600206136703491,-4.667143821716309,8.536171913146973
1747978237295771100,10.227771240234375,-1.213321328163147,-5.082327365875244,8.302644729614258
1747978237314035000,10.246034912109375,-1.1030793190002441,-5.431795597076416,8.094130516052246
1747978237332302000,10.264302001953125,-0.9755787253379822,-5.748040199279785,7.889511585235596
1747978237350565000,10.282565185546876,-0.848659098148346,-6.059272289276123,7.668188571929932
1747978237368835800,10.3008359375,-0.7308394312858582,-6.352078437805176,7.439965724945068
1747978237387093800,10.31909375,-0.6239563822746277,-6.605254173278809,7.226161956787109
1747978237414486800,10.34648681640625,-0.4814732074737549,-6.941306114196777,6.91538667678833
1747978237432757200,10.36475732421875,-0.3757564127445221,-7.177735805511475,6.676453590393066
1747978237451021000,10.38302099609375,-0.21842743456363678,-7.4097089767456055,6.42531156539917
1747978237469276000,10.40127587890625,0.013501806184649467,-7.582120418548584,6.224742412567139
1747978237487549400,10.419549560546875,0.3144422173500061,-7.65903902053833,6.121796131134033
1747978237505816000,10.437816162109375,0.633446455001831,-7.667126655578613,6.086873531341553
1747978237524078300,10.456078369140625,0.9372265338897705,-7.645908355712891,6.074355602264404
1747978237542335200,10.474335205078125,1.247835636138916,-7.645588397979736,6.0186381340026855
1747978237560609000,10.492609130859375,1.56364905834198,-7.679342746734619,5.900745868682861
1747978237578869500,10.510869384765625,1.8660540580749512,-7.712981700897217,5.767483234405518
1747978237597138700,10.529138671875,2.165102958679199,-7.708999156951904,5.667431354522705
1747978237615402000,10.547402099609375,2.4675240516662598,-7.663613796234131,5.605036735534668
1747978237633667000,10.5656669921875,2.8096415996551514,-7.577413082122803,5.561009407043457
1747978237651935000,10.58393505859375,3.1920933723449707,-7.467403888702393,5.503139495849609
1747978237670193200,10.602193115234375,3.5733325481414795,-7.352380275726318,5.42309045791626
1747978237688457200,10.620457275390624,3.8772480487823486,-7.232875823974609,5.374810695648193
1747978237715844400,10.64784423828125,4.198422431945801,-7.020761966705322,5.414633750915527
1747978237734126000,10.6661259765625,4.219069004058838,-7.002831935882568,5.421800136566162
1747978237752378000,10.684378173828126,4.097360610961914,-7.029494285583496,5.4803242683410645
1747978237779774500,10.7117744140625,3.8122658729553223,-6.940154075622559,5.7911152839660645
1747978237798051600,10.730051513671874,3.487022876739502,-6.7886481285095215,6.163687705993652
1747978237816315100,10.748315185546875,3.101707696914673,-6.422206401824951,6.735784530639648
1747978237834581200,10.766581298828125,2.7370314598083496,-5.856945514678955,7.378412246704102
1747978237852841500,10.784841552734376,2.504578113555908,-5.154048442840576,7.962349891662598
1747978237871113500,10.803113525390625,2.2772696018218994,-4.519161224365234,8.404007911682129
1747978237889374000,10.8213740234375,1.9177236557006836,-3.9798974990844727,8.758930206298828
1747978237907640000,10.83964013671875,1.5514389276504517,-3.544555425643921,9.014725685119629
1747978237925898800,10.857898681640625,1.2713080644607544,-3.24692440032959,9.169371604919434
1747978237944168200,10.876168212890626,1.0592231750488281,-3.0372471809387207,9.267648696899414
1747978237962430000,10.894429931640625,0.8741149306297302,-2.7976343631744385,9.361905097961426
1747978237980699000,10.912698974609375,0.7035212516784668,-2.501788377761841,9.459505081176758
1747978237998964200,10.930964111328125,0.5768570899963379,-2.198395013809204,9.543081283569336
1747978238017228000,10.94922802734375,0.46540212631225586,-1.959727168083191,9.60098934173584
1747978238035491800,10.967491943359375,0.3011930286884308,-1.8137400150299072,9.636168479919434
1747978238053758000,10.985758056640625,-0.006720205303281546,-1.805033802986145,9.642507553100586
1747978238072021000,11.00402099609375,-0.3962424397468567,-1.9612836837768555,9.603774070739746
1747978238090286800,11.022286865234374,-0.9395031929016113,-2.190035581588745,9.516154289245605
1747978238108550700,11.040550537109375,-1.7993053197860718,-2.502581834793091,9.313200950622559
1747978238126816800,11.058816650390625,-2.810281276702881,-2.97526216506958,8.915506362915039
1747978238145079800,11.077079833984374,-3.689349412918091,-3.6007869243621826,8.346205711364746
1747978238163345700,11.095345703125,-4.054619789123535,-4.327649116516113,7.814577102661133
1747978238181604600,11.1136044921875,-4.101703643798828,-5.138793468475342,7.280450820922852
1747978238199874600,11.13187451171875,-4.111294269561768,-6.005938529968262,6.577391624450684
1747978238218139400,11.150139404296874,-4.16126823425293,-6.799206256866455,5.717583656311035
1747978238236400400,11.168400390625,-4.20036506652832,-7.414830684661865,4.8593549728393555
1747978238254668300,11.186668212890625,-4.219393253326416,-7.8168511390686035,4.162895679473877
1747978238272934400,11.204934326171875,-4.227548122406006,-8.065185546875,3.6492135524749756
1747978238291197400,11.223197509765624,-4.204626083374023,-8.23780345916748,3.2704436779022217
1747978238309464000,11.241464111328124,-4.157469272613525,-8.390575408935547,2.924006700515747
1747978238327727400,11.259727294921875,-4.122138500213623,-8.532347679138184,2.5383358001708984
1747978238345993500,11.277993408203125,-4.089616298675537,-8.667240142822266,2.095250129699707
1747978238364258600,11.296258544921875,-4.033644676208496,-8.800652503967285,1.5856752395629883
1747978238382520000,11.31452001953125,-3.910062551498413,-8.938886642456055,1.021679401397705
1747978238400786200,11.3327861328125,-3.6757824420928955,-9.085990905761719,0.41173580288887024
1747978238419052300,11.35105224609375,-3.2928617000579834,-9.237934112548828,-0.2319251447916031
1747978238437315300,11.3693154296875,-2.741340398788452,-9.37961196899414,-0.8625988364219666
1747978238455580000,11.387579833984375,-2.3467142581939697,-9.435521125793457,-1.3038265705108643
1747978238473845000,11.405844970703125,-2.458846092224121,-9.387446403503418,-1.4373786449432373
1747978238492112600,11.424112548828125,-2.6887834072113037,-9.3351411819458,-1.3644349575042725
1747978238510371600,11.44237158203125,-2.7036328315734863,-9.352306365966797,-1.2086619138717651
1747978238528638200,11.46063818359375,-2.5815651416778564,-9.407322883605957,-1.0363081693649292
1747978238546903800,11.47890380859375,-2.4172449111938477,-9.463995933532715,-0.9087485671043396
1747978238565170200,11.497170166015625,-2.3030946254730225,-9.502809524536133,-0.7927836775779724
1747978238583428000,11.515427978515625,-2.2967753410339355,-9.510644912719727,-0.7131492495536804
1747978238601699600,11.533699462890626,-2.385324478149414,-9.490104675292969,-0.695888876914978
1747978238619950600,11.55195068359375,-2.4373714923858643,-9.473483085632324,-0.7405969500541687
1747978238638229000,11.57022900390625,-2.2981276512145996,-9.501937866210938,-0.8172630071640015
1747978238656489200,11.5884892578125,-2.056147336959839,-9.549551010131836,-0.902478039264679
1747978238674761200,11.60676123046875,-1.8452330827713013,-9.584752082824707,-0.9817288517951965
1747978238693017300,11.625017333984376,-1.7091240882873535,-9.605547904968262,-1.0239492654800415
1747978238711292700,11.643292724609376,-1.6267660856246948,-9.621119499206543,-1.0118486881256104
1747978238729551000,11.661551025390626,-1.5401309728622437,-9.63955307006836,-0.9711582660675049
1747978238747817200,11.679817138671876,-1.376213788986206,-9.668636322021484,-0.9271717071533203
1747978238766080500,11.69808056640625,-1.0788013935089111,-9.707157135009766,-0.9183716177940369
1747978238784345600,11.716345703125,-0.6810703873634338,-9.744912147521973,-0.899422287940979
1747978238802611000,11.73461083984375,-0.31410571932792664,-9.766121864318848,-0.871954083442688
1747978238820875000,11.752875,-0.08108758181333542,-9.771808624267578,-0.8609949350357056
1747978238839140400,11.771140380859375,0.021596692502498627,-9.771001815795898,-0.8735886812210083
1747978238857401300,11.7894013671875,0.08631572127342224,-9.768467903137207,-0.8976210355758667
1747978238875668700,11.807668701171876,0.1843062937259674,-9.764345169067383,-0.9271912574768066
1747978238893935400,11.825935302734376,0.34394097328186035,-9.75615119934082,-0.9671394228935242
1747978238912198700,11.84419873046875,0.5519792437553406,-9.741081237792969,-1.0211536884307861
1747978238930464800,11.86246484375,0.7753978371620178,-9.719616889953613,-1.0788557529449463
1747978238948722700,11.88072265625,0.9978681802749634,-9.692964553833008,-1.134376883506775
1747978238966993000,11.898992919921875,1.2103016376495361,-9.66352653503418,-1.1779462099075317
1747978238985247500,11.91724755859375,1.410363793373108,-9.630400657653809,-1.2257152795791626
1747978239003523800,11.93552392578125,1.5883862972259521,-9.593585968017578,-1.2947063446044922
1747978239021787000,11.953786865234376,1.6970503330230713,-9.563164710998535,-1.3791425228118896
1747978239040048400,11.97204833984375,1.7318801879882812,-9.545105934143066,-1.4586549997329712
1747978239058315300,11.990315185546875,1.7425450086593628,-9.533524513244629,-1.5203901529312134
1747978239076584000,12.008583984375,1.7324538230895996,-9.526985168457031,-1.5720301866531372
1747978239094844400,12.026844482421875,1.7017028331756592,-9.525714874267578,-1.6127902269363403
1747978239113113300,12.04511328125,1.6856733560562134,-9.521698951721191,-1.6528419256210327
1747978239131375400,12.063375244140625,1.6845425367355347,-9.51339340209961,-1.7011100053787231
1747978239149642000,12.08164208984375,1.6228643655776978,-9.517285346984863,-1.738885760307312
1747978239167904800,12.09990478515625,1.387381672859192,-9.557668685913086,-1.7211171388626099
1747978239186171000,12.1181708984375,0.9593427181243896,-9.625523567199707,-1.6325099468231201
1747978239204430000,12.13643017578125,0.43995431065559387,-9.682564735412598,-1.51343834400177
1747978239222700500,12.154700439453125,-0.11453219503164291,-9.70669174194336,-1.415319800376892
1747978239240963800,12.1729638671875,-0.6904189586639404,-9.694808959960938,-1.3304530382156372
1747978239259230200,12.191230224609376,-1.2562599182128906,-9.651561737060547,-1.2268959283828735
1747978239277493800,12.20949365234375,-1.780767798423767,-9.582910537719727,-1.1103076934814453
1747978239295755300,12.22775537109375,-2.2460739612579346,-9.497413635253906,-0.9951999187469482
1747978239314022000,12.24602197265625,-2.666346549987793,-9.403614044189453,-0.8359442949295044
1747978239332290300,12.264290283203126,-3.0475988388061523,-9.304459571838379,-0.6125838756561279
1747978239350552800,12.282552734375,-3.3614487648010254,-9.208971977233887,-0.36280250549316406
1747978239368830000,12.300829833984375,-3.5885136127471924,-9.129579544067383,-0.09715646505355835
1747978239387082200,12.319082275390626,-3.759488105773926,-9.06092643737793,0.04452128708362579
1747978239405348000,12.33734814453125,-3.9004883766174316,-9.001005172729492,0.06471727788448334
1747978239423612000,12.35561181640625,-4.025547981262207,-8.94594669342041,0.03283211588859558
1747978239441877000,12.373876953125,-4.138638019561768,-8.894124984741211,-0.04827899858355522
1747978239460142000,12.39214208984375,-4.227268218994141,-8.851591110229492,-0.12502720952033997
1747978239478402800,12.41040283203125,-4.270549297332764,-8.830466270446777,-0.146196186542511
1747978239496671000,12.4286708984375,-4.257555961608887,-8.837416648864746,-0.09722399711608887
1747978239514925800,12.44692578125,-4.176987648010254,-8.876289367675781,-0.019264530390501022
1747978239533200400,12.465200439453126,-4.035113334655762,-8.941699981689453,0.0019626179710030556
1747978239551461600,12.483461669921875,-3.823141574859619,-9.034201622009277,-0.054017163813114166
1747978239569729000,12.50172900390625,-3.555340528488159,-9.141007423400879,-0.19403284788131714
1747978239587997700,12.519997802734375,-3.2364017963409424,-9.252306938171387,-0.3957512676715851
1747978239606259500,12.538259521484376,-2.861607789993286,-9.359930038452148,-0.6625901460647583
1747978239624525600,12.556525634765626,-2.4412825107574463,-9.451594352722168,-0.9714023470878601
1747978239642789400,12.574789306640625,-2.0622618198394775,-9.517718315124512,-1.1816262006759644
1747978239661055200,12.59305517578125,-1.9411967992782593,-9.547309875488281,-1.147499442100525
1747978239679318500,12.611318603515626,-2.090291738510132,-9.535051345825195,-0.9744803309440613
1747978239697584600,12.629584716796876,-2.162963390350342,-9.532721519470215,-0.8276056051254272
1747978239715847000,12.647846923828125,-2.098316192626953,-9.555282592773438,-0.7278444766998291
1747978239734114600,12.666114501953125,-2.0436975955963135,-9.569058418273926,-0.7018123865127563
1747978239752379400,12.68437939453125,-2.1266863346099854,-9.55521011352539,-0.6413130164146423
1747978239770643000,12.702642822265625,-2.3007125854492188,-9.518243789672852,-0.5881103277206421
1747978239788904000,12.720904052734374,-2.3466944694519043,-9.505005836486816,-0.6196759343147278
1747978239807173600,12.739173583984375,-2.241727113723755,-9.527586936950684,-0.6602144241333008
1747978239825431000,12.75743115234375,-2.144784927368164,-9.548674583435059,-0.6773733496665955
1747978239843704000,12.7757041015625,-2.0845232009887695,-9.559406280517578,-0.7132132649421692
1747978239861966800,12.793966796875,-2.045447587966919,-9.558286666870117,-0.8315266966819763
1747978239880232700,12.812232666015625,-2.006027936935425,-9.545807838439941,-1.0438034534454346
1747978239898491000,12.830490966796875,-1.9005711078643799,-9.542460441589355,-1.2511519193649292
1747978239916761600,12.84876171875,-1.6645443439483643,-9.572381019592285,-1.3546069860458374
1747978239935025700,12.867025634765625,-1.283704161643982,-9.631354331970215,-1.3510115146636963
1747978239953291800,12.885291748046875,-0.8075810670852661,-9.69406509399414,-1.2684699296951294
1747978239971555000,12.90355517578125,-0.35921406745910645,-9.7344331741333,-1.1609930992126465
1747978239989821400,12.921821533203126,-0.03238305076956749,-9.748958587646484,-1.0921982526779175
1747978240008084500,12.94008447265625,0.16473712027072906,-9.748379707336426,-1.085387110710144
1747978240026350600,12.9583505859375,0.28223854303359985,-9.741314888000488,-1.1239358186721802
1747978240044614100,12.9766142578125,0.3560945689678192,-9.732123374938965,-1.1811314821243286
1747978240062864000,12.99486376953125,0.4273640215396881,-9.717845916748047,-1.2715966701507568
1747978240081143800,13.013143798828125,0.549095869064331,-9.693709373474121,-1.402356505393982
1747978240099406800,13.03140673828125,0.7341029047966003,-9.657235145568848,-1.5604543685913086
1747978240117673200,13.049673095703126,0.9616429805755615,-9.607867240905762,-1.732128620147705
1747978240135939300,13.067939208984376,1.23297917842865,-9.542553901672363,-1.9119486808776855
1747978240154202400,13.086202392578125,1.5550429821014404,-9.461735725402832,-2.0720741748809814
1747978240172470300,13.10447021484375,1.859347939491272,-9.370635986328125,-2.229375123977661
1747978240190732500,13.122732666015626,2.0429415702819824,-9.284183502197266,-2.422071695327759
1747978240208998700,13.14099853515625,2.0981669425964355,-9.198610305786133,-2.6868889331817627
1747978240227262500,13.159262451171875,2.059908866882324,-9.119129180908203,-2.972269296646118
1747978240245528300,13.1775283203125,1.9924540519714355,-9.086079597473145,-3.115990161895752
1747978240263791600,13.19579150390625,2.0037004947662354,-9.085874557495117,-3.1093690395355225
1747978240282057700,13.2140576171875,2.0591044425964355,-9.130270957946777,-2.938427448272705
1747978240300321800,13.23232177734375,2.0851805210113525,-9.229296684265137,-2.5900237560272217
1747978240318591000,13.250591064453126,2.0239429473876953,-9.35310173034668,-2.158538579940796
1747978240336850000,13.268849853515626,1.864702820777893,-9.462740898132324,-1.7931876182556152
1747978240355118300,13.287118408203124,1.5848755836486816,-9.55241870880127,-1.5733981132507324
1747978240373381600,13.305381591796875,1.1764425039291382,-9.630767822265625,-1.4492807388305664
1747978240391647200,13.323647216796875,0.677641749382019,-9.699045181274414,-1.3059356212615967
1747978240409901600,13.341901611328124,0.11562986671924591,-9.740326881408691,-1.1613678932189941
1747978240428179200,13.36017919921875,-0.47791531682014465,-9.73831558227539,-1.0830148458480835
1747978240446437000,13.37843701171875,-1.0622080564498901,-9.690674781799316,-1.0948320627212524
1747978240464706600,13.39670654296875,-1.6162935495376587,-9.608736038208008,-1.1383765935897827
1747978240492103400,13.424103515625,-2.354240655899048,-9.456995010375977,-1.1220272779464722
1747978240510364700,13.44236474609375,-2.7704055309295654,-9.355761528015137,-1.0152225494384766
1747978240528629500,13.46062939453125,-3.1339268684387207,-9.258466720581055,-0.8339106440544128
1747978240546897000,13.47889697265625,-3.427678346633911,-9.168600082397461,-0.6510652899742126
1747978240565161000,13.497160888671875,-3.646742820739746,-9.090766906738281,-0.543412446975708
1747978240583421400,13.51542138671875,-3.805222272872925,-9.025748252868652,-0.5406201481819153
1747978240601685800,13.533685791015625,-3.9108190536499023,-8.977055549621582,-0.5950407385826111
1747978240619944000,13.55194384765625,-3.9793567657470703,-8.944446563720703,-0.6306403875350952
1747978240638219500,13.570219482421875,-4.03615140914917,-8.91954517364502,-0.62233966588974
1747978240656486400,13.588486328125,-4.08037805557251,-8.901086807250977,-0.597716748714447
1747978240674750000,13.60675,-4.100459098815918,-8.89281177520752,-0.5833045244216919
1747978240693015300,13.625015380859375,-4.0969624519348145,-8.893665313720703,-0.5947492718696594
1747978240711280000,13.643280029296875,-4.064721584320068,-8.904213905334473,-0.655057430267334
1747978240729545000,13.661544921875,-3.975497007369995,-8.937909126281738,-0.7384761571884155
1747978240747809300,13.679809326171876,-3.796313762664795,-9.00742244720459,-0.8309396505355835
1747978240766074600,13.69807470703125,-3.5123212337493896,-9.10925006866455,-0.9598248600959778
1747978240784339000,13.7163388671875,-3.1316728591918945,-9.225677490234375,-1.1470133066177368
1747978240802604300,13.734604248046875,-2.6636054515838623,-9.340839385986328,-1.3747942447662354
1747978240820867600,13.75286767578125,-2.1961636543273926,-9.433122634887695,-1.558572769165039
1747978240839134700,13.771134765625,-1.9519860744476318,-9.491621971130371,-1.528071641921997
1747978240857399600,13.789399658203125,-2.0835928916931152,-9.495484352111816,-1.3155081272125244
1747978240875659000,13.807658935546876,-2.2750866413116455,-9.46921443939209,-1.1807113885879517
1747978240893927200,13.82592724609375,-2.2706565856933594,-9.485289573669434,-1.0533490180969238
1747978240912182300,13.844182373046875,-2.133615255355835,-9.521991729736328,-1.007710337638855
1747978240930462700,13.862462646484374,-2.073920249938965,-9.530109405517578,-1.0545188188552856
1747978240948719900,13.880719970703124,-2.183621406555176,-9.504998207092285,-1.0596970319747925
1747978240966983000,13.89898291015625,-2.321531057357788,-9.47790813446045,-1.0079083442687988
1747978240985252000,13.917252197265626,-2.3342738151550293,-9.484630584716797,-0.9105424880981445
1747978241003517400,13.935517333984375,-2.2703664302825928,-9.51244068145752,-0.7713913321495056
1747978241021781800,13.95378173828125,-2.143432140350342,-9.550225257873535,-0.6595694422721863
1747978241040047000,13.972047119140624,-1.9586900472640991,-9.591438293457031,-0.6355982422828674
1747978241058312000,13.99031201171875,-1.7447237968444824,-9.6261568069458,-0.7274395823478699
1747978241076576800,14.00857666015625,-1.507169485092163,-9.652055740356445,-0.8957458138465881
1747978241094840600,14.026840576171875,-1.2279176712036133,-9.675992012023926,-1.050476312637329
1747978241113107500,14.045107421875,-0.8842000365257263,-9.698029518127441,-1.1842892169952393
1747978241131366400,14.063366455078125,-0.4792097508907318,-9.71031665802002,-1.3100476264953613
1747978241149635800,14.0816357421875,-0.07427162677049637,-9.70939826965332,-1.399352788925171
1747978241167901000,14.09990087890625,0.22760112583637238,-9.700398445129395,-1.444504737854004
1747978241186165800,14.118165771484374,0.3584088981151581,-9.693925857543945,-1.4613250494003296
1747978241204426200,14.13642626953125,0.3722461760044098,-9.693557739257812,-1.4603103399276733
1747978241222690300,14.154690185546874,0.34074169397354126,-9.69725513458252,-1.4433486461639404
1747978241240959200,14.172959228515625,0.358510285615921,-9.696535110473633,-1.4438858032226562
1747978241259226400,14.191226318359375,0.504230797290802,-9.682764053344727,-1.491965651512146
1747978241277490000,14.209489990234376,0.7162687182426453,-9.658228874206543,-1.5625994205474854
1747978241295754800,14.227754638671875,0.9224109053611755,-9.627763748168945,-1.6405583620071411
1747978241314019800,14.246019775390625,1.1227961778640747,-9.592971801757812,-1.7176498174667358
1747978241332284400,14.264284423828125,1.3678025007247925,-9.553491592407227,-1.7595555782318115
1747978241350549200,14.28254931640625,1.6719971895217896,-9.509346961975098,-1.7357641458511353
1747978241368810200,14.300810302734375,1.9626787900924683,-9.455094337463379,-1.7277745008468628
1747978241387078700,14.31907861328125,2.114196538925171,-9.404050827026367,-1.8248631954193115
1747978241405343000,14.337343017578124,2.0833966732025146,-9.37559986114502,-1.9984230995178223
1747978241423610000,14.355610107421874,2.02746319770813,-9.35202693939209,-2.1598849296569824
1747978241441872400,14.373872314453125,2.0083770751953125,-9.331100463867188,-2.265636444091797
1747978241460139500,14.392139404296875,1.9773489236831665,-9.32078742980957,-2.334338903427124
1747978241478398500,14.4103984375,1.9677907228469849,-9.305999755859375,-2.4004735946655273
1747978241496667000,14.4286669921875,1.9712393283843994,-9.2855224609375,-2.4757657051086426
1747978241514922000,14.446921875,1.8738534450531006,-9.289750099182129,-2.5348219871520996
1747978241533197800,14.46519775390625,1.5758638381958008,-9.346956253051758,-2.5272860527038574
1747978241551463200,14.483463134765625,1.1221643686294556,-9.437950134277344,-2.4293935298919678
1747978241569727500,14.5017275390625,0.629385769367218,-9.532968521118164,-2.2276694774627686
1747978241587992300,14.519992431640626,0.1381990909576416,-9.609110832214355,-1.970284342765808
1747978241606257200,14.538257080078125,-0.3941400647163391,-9.650212287902832,-1.7187713384628296
1747978241624522200,14.556522216796875,-0.9585855603218079,-9.644514083862305,-1.5167704820632935
1747978241642786300,14.574786376953124,-1.491858720779419,-9.595235824584961,-1.3935283422470093
1747978241661051600,14.5930517578125,-1.9541772603988647,-9.524083137512207,-1.3073397874832153
1747978241679308300,14.611308349609375,-2.3719372749328613,-9.447701454162598,-1.1623131036758423
1747978241697581300,14.629581298828125,-2.7345705032348633,-9.370878219604492,-0.972052276134491
1747978241715844900,14.647844970703124,-3.0253450870513916,-9.292847633361816,-0.8522536158561707
1747978241734106600,14.666106689453125,-3.2661256790161133,-9.212495803833008,-0.8357358574867249
1747978241752375800,14.684375732421875,-3.470259428024292,-9.134190559387207,-0.8717651963233948
1747978241770642000,14.702641845703125,-3.6244399547576904,-9.071348190307617,-0.9000988006591797
1747978241788905500,14.720905517578124,-3.7400500774383545,-9.027862548828125,-0.8636162281036377
1747978241807170800,14.7391708984375,-3.85400652885437,-8.99121379852295,-0.7354326844215393
1747978241825430500,14.757430419921874,-3.9411492347717285,-8.965704917907715,-0.5653325319290161
1747978241843700200,14.7757001953125,-3.9514269828796387,-8.968295097351074,-0.4382029175758362
1747978241861965000,14.793965087890625,-3.896106481552124,-8.993908882141113,-0.4075278639793396
1747978241880230100,14.812230224609374,-3.8262698650360107,-9.021079063415527,-0.4646238684654236
1747978241898495000,14.830494873046876,-3.74967360496521,-9.046979904174805,-0.5729190111160278
1747978241916759600,14.848759521484375,-3.622319221496582,-9.08879566192627,-0.7132182717323303
1747978241935024600,14.867024658203125,-3.4163949489593506,-9.155030250549316,-0.865929126739502
1747978241953289500,14.88528955078125,-3.1216602325439453,-9.241730690002441,-1.0400855541229248
1747978241971554300,14.90355419921875,-2.7397685050964355,-9.334137916564941,-1.2663466930389404
1747978241989814500,14.921814453125,-2.3040883541107178,-9.409087181091309,-1.5480276346206665
1747978242008082700,14.940082763671874,-1.8837510347366333,-9.457128524780273,-1.8028583526611328
1747978242026350300,14.958350341796875,-1.8132548332214355,-9.450276374816895,-1.9080122709274292
1747978242044614000,14.97661376953125,-2.055809497833252,-9.405922889709473,-1.8810532093048096
1747978242062877700,14.994877685546875,-2.102095365524292,-9.43708610534668,-1.6609411239624023
1747978242081144300,15.013144287109375,-1.9632855653762817,-9.51574420928955,-1.353598952293396
1747978242099404000,15.031404052734375,-1.7811275720596313,-9.57524299621582,-1.174070119857788
1747978242126805800,15.0588056640625,-1.6030967235565186,-9.611536979675293,-1.1333904266357422
1747978242145072000,15.077072021484375,-1.5721299648284912,-9.607080459594727,-1.2118334770202637
1747978242163335000,15.0953349609375,-1.5514642000198364,-9.58869457244873,-1.373315691947937
1747978242181601000,15.11360107421875,-1.4665895700454712,-9.585378646850586,-1.485183835029602
1747978242199864300,15.1318642578125,-1.3825007677078247,-9.597622871398926,-1.4867528676986694
1747978242218120000,15.150119873046876,-1.3351786136627197,-9.610057830810547,-1.4492143392562866
1747978242236398000,15.168398193359375,-1.3113316297531128,-9.617115020751953,-1.423943281173706
1747978242254660400,15.186660400390625,-1.2639062404632568,-9.625850677490234,-1.4077174663543701
1747978242272924700,15.204924560546875,-1.1169031858444214,-9.645744323730469,-1.3958067893981934
1747978242291186000,15.22318603515625,-0.8742106556892395,-9.670100212097168,-1.400378704071045
1747978242309448700,15.24144873046875,-0.5713286995887756,-9.689957618713379,-1.4192991256713867
1747978242327721200,15.25972119140625,-0.23535555601119995,-9.702556610107422,-1.4286826848983765
1747978242345984300,15.277984375,0.10937407612800598,-9.70763874053955,-1.4092220067977905
1747978242364249000,15.2962490234375,0.4181835353374481,-9.701635360717773,-1.3926680088043213
1747978242382514400,15.314514404296874,0.6230162978172302,-9.690105438232422,-1.3963567018508911
1747978242400779500,15.332779541015626,0.7279044389724731,-9.680870056152344,-1.4096205234527588
1747978242419043300,15.351043212890625,0.7948550581932068,-9.672989845275879,-1.42745041847229
1747978242437310000,15.36931005859375,0.9272589683532715,-9.655410766601562,-1.4660651683807373
1747978242455573000,15.387572998046876,1.1595383882522583,-9.621258735656738,-1.5241332054138184
1747978242473838000,15.405838134765625,1.4281741380691528,-9.576394081115723,-1.5776963233947754
1747978242492104000,15.42410400390625,1.6878513097763062,-9.526251792907715,-1.6241334676742554
1747978242510367200,15.4423671875,1.9380168914794922,-9.468085289001465,-1.683905839920044
1747978242528629800,15.460629638671875,2.185211420059204,-9.40207290649414,-1.7498539686203003
1747978242546894000,15.47889404296875,2.365770101547241,-9.344188690185547,-1.8235657215118408
1747978242565161200,15.4971611328125,2.441244125366211,-9.303099632263184,-1.9310033321380615
1747978242583425000,15.515425048828124,2.4775168895721436,-9.268706321716309,-2.0467369556427
1747978242601692000,15.53369189453125,2.486147880554199,-9.243714332580566,-2.1468400955200195
1747978242619946000,15.551946044921875,2.456275701522827,-9.23858642578125,-2.2025763988494873
1747978242638221800,15.570221923828125,2.4208626747131348,-9.25229549407959,-2.1841602325439453
1747978242656488200,15.58848828125,2.37453031539917,-9.282806396484375,-2.1041016578674316
1747978242674751500,15.60675146484375,2.2638156414031982,-9.33444881439209,-1.9948241710662842
1747978242693017900,15.625017822265624,2.006405830383301,-9.419412612915039,-1.8668500185012817
1747978242711281200,15.64328125,1.596339464187622,-9.528188705444336,-1.7033571004867554
1747978242729547500,15.661547607421875,1.098113775253296,-9.629668235778809,-1.5164921283721924
1747978242747810800,15.679810791015624,0.5352917313575745,-9.69881534576416,-1.3720641136169434
1747978242766077000,15.698076904296874,-0.0782000795006752,-9.72249698638916,-1.3050076961517334
1747978242784340700,15.7163408203125,-0.6744638085365295,-9.697025299072266,-1.3224650621414185
1747978242802602500,15.7346025390625,-1.1832516193389893,-9.640546798706055,-1.3769252300262451
1747978242820868600,15.75286865234375,-1.6807106733322144,-9.577805519104004,-1.2949814796447754
1747978242839137500,15.771137451171874,-2.1456267833709717,-9.507784843444824,-1.1110613346099854
1747978242857397800,15.789397705078125,-2.515838861465454,-9.43202018737793,-0.9714377522468567
1747978242875667000,15.8076669921875,-2.7721714973449707,-9.364273071289062,-0.9282200932502747
1747978242893930000,15.825929931640625,-2.9002997875213623,-9.325713157653809,-0.9249064922332764
1747978242912196400,15.8441962890625,-2.9285237789154053,-9.320769309997559,-0.8849521279335022
1747978242930462000,15.8624619140625,-3.062188148498535,-9.292201042175293,-0.7170060873031616
1747978242948722400,15.880722412109375,-3.2668540477752686,-9.238752365112305,-0.45743003487586975
1747978242966988800,15.89898876953125,-3.42020845413208,-9.190361976623535,-0.2748904824256897
1747978242985256000,15.917255859375,-3.5209150314331055,-9.153636932373047,-0.22410595417022705
1747978243003516700,15.9355166015625,-3.589141607284546,-9.125768661499023,-0.27295681834220886
1747978243021787600,15.95378759765625,-3.628997564315796,-9.106740951538086,-0.36574363708496094
1747978243040049000,15.972048828125,-3.6466031074523926,-9.095504760742188,-0.4584740698337555
1747978243058315300,15.990315185546875,-3.647841691970825,-9.089325904846191,-0.5599715113639832
1747978243076578800,16.008578857421874,-3.603036880493164,-9.096502304077148,-0.7126805782318115
1747978243094844200,16.02684423828125,-3.433913230895996,-9.142135620117188,-0.9304537177085876
1747978243113109500,16.045109619140625,-3.0981123447418213,-9.23090934753418,-1.1950414180755615
1747978243131374600,16.06337451171875,-2.580695629119873,-9.35156536102295,-1.457522988319397
1747978243149633500,16.081633544921875,-2.0305697917938232,-9.466034889221191,-1.5833752155303955
1747978243167903700,16.09990380859375,-1.680801272392273,-9.555256843566895,-1.451935887336731
1747978243186169000,16.118169189453123,-1.8147646188735962,-9.579730987548828,-1.0823755264282227
1747978243204429300,16.13642919921875,-2.0113847255706787,-9.556769371032715,-0.9266197085380554
1747978243222684200,16.15468408203125,-2.107564687728882,-9.535155296325684,-0.9354636073112488
1747978243240964000,16.172964111328124,-2.1090636253356934,-9.524690628051758,-1.0335773229599
1747978243259215000,16.191215087890626,-2.0809173583984375,-9.524672508239746,-1.089287519454956
1747978243277493800,16.20949365234375,-2.1103813648223877,-9.520465850830078,-1.0691958665847778
1747978243295745500,16.22774560546875,-2.1010429859161377,-9.528846740722656,-1.0113424062728882
1747978243314023000,16.24602294921875,-2.0291149616241455,-9.546347618103027,-0.9929987788200378
1747978243332287500,16.26428759765625,-1.96989107131958,-9.556103706359863,-1.018107533454895
1747978243350553300,16.28255322265625,-1.9066777229309082,-9.564009666442871,-1.0632232427597046
1747978243368812800,16.300812744140625,-1.7841004133224487,-9.579715728759766,-1.132319450378418
1747978243387083000,16.3190830078125,-1.5601481199264526,-9.60578727722168,-1.2373065948486328
1747978243405346000,16.337345947265625,-1.244813323020935,-9.633334159851074,-1.3731029033660889
1747978243423613000,16.355613037109375,-0.8401842713356018,-9.661377906799316,-1.4791812896728516
1747978243441875000,16.373875,-0.38031476736068726,-9.688277244567871,-1.492903232574463
1747978243460143600,16.3921435546875,0.01264533493667841,-9.704315185546875,-1.4360431432724
1747978243478400800,16.41040087890625,0.2301730215549469,-9.708571434020996,-1.3880863189697266
1747978243496672300,16.42867236328125,0.2942517101764679,-9.70927619934082,-1.3709431886672974
1747978243514930700,16.4469306640625,0.32840433716773987,-9.708221435546875,-1.3706517219543457
1747978243533202200,16.4652021484375,0.40560251474380493,-9.703731536865234,-1.3817366361618042
1747978243560600800,16.492600830078125,0.632281482219696,-9.689751625061035,-1.3946548700332642
1747978243578861800,16.51086181640625,0.8505500555038452,-9.670614242553711,-1.4113465547561646
1747978243597129000,16.52912890625,1.084418773651123,-9.641963005065918,-1.4466280937194824
1747978243615378700,16.547378662109374,1.292314052581787,-9.607329368591309,-1.505075454711914
1747978243633659100,16.5656591796875,1.471656084060669,-9.569225311279297,-1.5812257528305054
1747978243651923500,16.58392333984375,1.6556456089019775,-9.525402069091797,-1.6618273258209229
1747978243670187500,16.6021875,1.8749525547027588,-9.471639633178711,-1.7345598936080933
1747978243688448800,16.62044873046875,2.122938871383667,-9.402810096740723,-1.8211077451705933
1747978243706712300,16.63871240234375,2.3220765590667725,-9.329604148864746,-1.9500213861465454
1747978243724981800,16.656981689453126,2.4132511615753174,-9.272013664245605,-2.1076247692108154
1747978243743247000,16.6752470703125,2.4098589420318604,-9.242895126342773,-2.2355246543884277
1747978243761511400,16.693511474609377,2.3398752212524414,-9.24508285522461,-2.299900531768799
1747978243779776500,16.711776611328126,2.245506525039673,-9.265335083007812,-2.312441349029541
1747978243798029300,16.730029296875,2.1289238929748535,-9.297139167785645,-2.294994831085205
1747978243816306000,16.748305908203125,1.95321524143219,-9.347870826721191,-2.2446322441101074
1747978243834571000,16.766571044921875,1.6694859266281128,-9.429640769958496,-2.128568649291992
1747978243852835300,16.78483544921875,1.2668592929840088,-9.527932167053223,-1.9620634317398071
1747978243871101700,16.803101806640626,0.7758278846740723,-9.616620063781738,-1.7761797904968262
1747978243889366000,16.821365966796876,0.20081685483455658,-9.67625617980957,-1.6018316745758057
1747978243907630600,16.839630615234373,-0.38201382756233215,-9.690844535827637,-1.475712776184082
1747978243925895700,16.857895751953127,-0.8804192543029785,-9.668180465698242,-1.4097093343734741
1747978243953294000,16.885294189453123,-1.4910814762115479,-9.613189697265625,-1.2646706104278564
1747978243971559200,16.90355908203125,-1.9021984338760376,-9.566462516784668,-1.0490870475769043
1747978243989823000,16.921822998046874,-2.2884254455566406,-9.500306129455566,-0.8622251749038696
1747978244008088000,16.940088134765624,-2.6003074645996094,-9.42770767211914,-0.7699838876724243
1747978244026352400,16.958352294921873,-2.83120059967041,-9.363547325134277,-0.7378137111663818
1747978244044618800,16.97661865234375,-2.9789044857025146,-9.318668365478516,-0.724340558052063
1747978244062881300,16.99488134765625,-3.0539357662200928,-9.295333862304688,-0.7116184830665588
1747978244081147000,17.01314697265625,-3.162348508834839,-9.265092849731445,-0.627476155757904
1747978244099400700,17.031400634765625,-3.335005760192871,-9.215182304382324,-0.4407084584236145
1747978244117679600,17.0496796875,-3.457827091217041,-9.175415992736816,-0.3021148145198822
1747978244135942000,17.06794189453125,-3.5147104263305664,-9.154938697814941,-0.26462188363075256
1747978244154207000,17.08620703125,-3.534846067428589,-9.145942687988281,-0.3045060336589813
1747978244181604000,17.11360400390625,-3.5353729724884033,-9.141139030456543,-0.42054784297943115
1747978244199868000,17.131867919921874,-3.5202505588531494,-9.140467643737793,-0.5439234972000122
1747978244218130000,17.1501298828125,-3.455143928527832,-9.151627540588379,-0.7387852072715759
1747978244236398300,17.1683984375,-3.280334949493408,-9.190816879272461,-1.0021944046020508
1747978244254664700,17.186664794921874,-2.969731330871582,-9.256267547607422,-1.318458914756775
1747978244272928300,17.20492822265625,-2.522237777709961,-9.341458320617676,-1.616033911705017
1747978244291193300,17.223193359375,-2.148310422897339,-9.413824081420898,-1.7322759628295898
1747978244309462800,17.241462890625,-2.110393762588501,-9.451491355895996,-1.5657862424850464
1747978244327723000,17.259722900390624,-2.2627878189086914,-9.446803092956543,-1.3688685894012451
1747978244345987800,17.27798779296875,-2.314485549926758,-9.448389053344727,-1.2677676677703857
1747978244364254500,17.29625439453125,-2.3672447204589844,-9.442329406738281,-1.2143656015396118
1747978244382516500,17.3145166015625,-2.4508135318756104,-9.41679573059082,-1.2464401721954346
1747978244400782300,17.3327822265625,-2.557922840118408,-9.382169723510742,-1.2915242910385132
1747978244419047700,17.351047607421876,-2.553525924682617,-9.382353782653809,-1.2988730669021606
1747978244437312500,17.3693125,-2.4723010063171387,-9.408125877380371,-1.2692478895187378
1747978244455577000,17.3875771484375,-2.4431586265563965,-9.419812202453613,-1.238634467124939
1747978244473836300,17.405836181640623,-2.4526615142822266,-9.415210723876953,-1.2547399997711182
1747978244492107000,17.42410693359375,-2.421734094619751,-9.413105964660645,-1.328442096710205
1747978244510370000,17.4423701171875,-2.3012137413024902,-9.427990913391113,-1.4330120086669922
1747978244528635000,17.460634765625,-2.039858341217041,-9.470155715942383,-1.5463722944259644
1747978244546901800,17.47890185546875,-1.5976827144622803,-9.542193412780762,-1.6217474937438965
1747978244565166600,17.49716650390625,-1.055762529373169,-9.614889144897461,-1.635657787322998
1747978244583426600,17.515426513671876,-0.571823000907898,-9.664595603942871,-1.582635521888733
1747978244601696500,17.533696533203123,-0.27380743622779846,-9.691864013671875,-1.4929579496383667
1747978244619944200,17.551944091796877,-0.1482020765542984,-9.701559066772461,-1.4470409154891968
1747978244638230800,17.570230712890623,-0.08915863931179047,-9.700562477111816,-1.458503246307373
1747978244656491000,17.588490966796876,-0.01394582912325859,-9.695013046264648,-1.4975491762161255
1747978244674755800,17.606755859375,0.0995112806558609,-9.68940544128418,-1.5302423238754272
1747978244693020700,17.625020751953127,0.2520068287849426,-9.680992126464844,-1.5655673742294312
1747978244711285800,17.64328564453125,0.4486556947231293,-9.665203094482422,-1.618239402770996
1747978244729545700,17.661545654296877,0.6772974133491516,-9.642158508300781,-1.6751596927642822
1747978244747814400,17.679814453125,0.9172327518463135,-9.612405776977539,-1.7310267686843872
1747978244766081300,17.698081298828125,1.1653478145599365,-9.576482772827148,-1.7801828384399414
1747978244784345000,17.716344970703126,1.4307997226715088,-9.534441947937012,-1.8119992017745972
1747978244802610200,17.734610107421876,1.7014018297195435,-9.484282493591309,-1.841124176979065
1747978244820873700,17.752873779296873,1.9249407052993774,-9.429400444030762,-1.9018739461898804
1747978244839140400,17.771140380859375,2.0310540199279785,-9.383039474487305,-2.017302989959717
1747978244857400600,17.789400634765624,2.039933443069458,-9.350936889648438,-2.152848720550537
1747978244875669200,17.807669189453126,2.0213782787323,-9.33411693572998,-2.2415239810943604
1747978244893934600,17.8259345703125,1.9850866794586182,-9.33422565460205,-2.2732763290405273
1747978244912199000,17.844198974609377,1.934690237045288,-9.340371131896973,-2.2914111614227295
1747978244930464000,17.862464111328126,1.8643710613250732,-9.349496841430664,-2.3123841285705566
1747978244948724500,17.880724365234375,1.7327646017074585,-9.372814178466797,-2.320340394973755
1747978244966994000,17.898993896484374,1.4755522012710571,-9.42856216430664,-2.2718052864074707
1747978244985258500,17.917258544921875,1.0877411365509033,-9.51036548614502,-2.146134376525879
1747978245003522800,17.935522705078125,0.6178902387619019,-9.591314315795898,-1.964943289756775
1747978245021789200,17.9537890625,0.08988318592309952,-9.647359848022461,-1.7766473293304443
1747978245040053800,17.9720537109375,-0.4731585383415222,-9.662638664245605,-1.6265367269515991
1747978245058318000,17.990318115234373,-1.0063034296035767,-9.637360572814941,-1.5312587022781372
1747978245076578600,18.00857861328125,-1.4692035913467407,-9.590766906738281,-1.4473341703414917
1747978245094846700,18.0268466796875,-1.864808440208435,-9.543008804321289,-1.2998430728912354
1747978245113114400,18.0451142578125,-2.218796491622925,-9.496162414550781,-1.0658103227615356
1747978245131378000,18.0633779296875,-2.5707919597625732,-9.431832313537598,-0.8171361684799194
1747978245149642800,18.081642822265625,-2.8952553272247314,-9.350906372070312,-0.6435752511024475
1747978245167907600,18.099907470703126,-3.137059450149536,-9.27696704864502,-0.5769321918487549
1747978245186172400,18.11817236328125,-3.282269239425659,-9.225810050964355,-0.589303195476532
1747978245204432600,18.1364326171875,-3.3344695568084717,-9.205012321472168,-0.6206094622612
1747978245222701800,18.154701904296875,-3.4148056507110596,-9.17971134185791,-0.5551203489303589
1747978245240967400,18.172967529296876,-3.551908254623413,-9.136482238769531,-0.3804306983947754
1747978245259230700,18.191230712890626,-3.6451923847198486,-9.104331970214844,-0.24453115463256836
1747978245277498000,18.209498046875,-3.6741364002227783,-9.094026565551758,-0.18840840458869934
1747978245295761700,18.22776171875,-3.666079044342041,-9.097453117370605,-0.1798156350851059
1747978245314026000,18.24602587890625,-3.6464734077453613,-9.105001449584961,-0.1957191824913025
1747978245332292600,18.264292724609376,-3.623769760131836,-9.112544059753418,-0.2568354606628418
1747978245350556400,18.282556396484374,-3.579322338104248,-9.125805854797363,-0.3797971308231354
1747978245368821500,18.300821533203123,-3.4647397994995117,-9.161070823669434,-0.553610622882843
1747978245387086300,18.31908642578125,-3.252375841140747,-9.222660064697266,-0.7750616073608398
1747978245405351200,18.33735107421875,-2.9259963035583496,-9.301209449768066,-1.0780433416366577
1747978245423616000,18.355615966796876,-2.4842660427093506,-9.38391399383545,-1.416579008102417
1747978245441880000,18.373880126953125,-2.0795037746429443,-9.449731826782227,-1.616884469985962
1747978245460146700,18.392146728515623,-1.9682579040527344,-9.493184089660645,-1.497182011604309
1747978245478406100,18.41040625,-2.105215311050415,-9.504658699035645,-1.2106326818466187
1747978245496675600,18.428675537109374,-2.173773765563965,-9.50980281829834,-1.0365782976150513
1747978245514939100,18.446939208984375,-2.180694103240967,-9.520246505737305,-0.919564425945282
1747978245533206500,18.46520654296875,-2.1311049461364746,-9.533385276794434,-0.8994801640510559
1747978245551470300,18.48347021484375,-2.1157426834106445,-9.53715705871582,-0.8957794308662415
1747978245569735200,18.501735107421876,-2.219358205795288,-9.510462760925293,-0.9282458424568176
1747978245587995100,18.5199951171875,-2.2954869270324707,-9.479901313781738,-1.0480079650878906
1747978245606263800,18.538263916015627,-2.179295778274536,-9.495146751403809,-1.152814269065857
1747978245633664500,18.56566455078125,-1.9823671579360962,-9.535360336303711,-1.1761153936386108
1747978245651928600,18.583928466796873,-1.8643748760223389,-9.556129455566406,-1.2002449035644531
1747978245670191400,18.60219140625,-1.7257943153381348,-9.577569007873535,-1.2360961437225342
1747978245688454700,18.62045458984375,-1.5640448331832886,-9.59860610961914,-1.287109375
1747978245706721800,18.6387216796875,-1.37765371799469,-9.618549346923828,-1.3497076034545898
1747978245724988200,18.65698828125,-1.1246531009674072,-9.645245552062988,-1.393025517463684
1747978245743251200,18.675251220703124,-0.7378274202346802,-9.683460235595703,-1.386483073234558
1747978245761517600,18.693517578125,-0.29860007762908936,-9.713920593261719,-1.3366738557815552
1747978245779781400,18.711781494140624,0.07698985189199448,-9.723748207092285,-1.2957348823547363
1747978245798042600,18.730042724609376,0.2702682614326477,-9.71945571899414,-1.3020302057266235
1747978245816309200,18.748309326171874,0.2911338210105896,-9.714035987854004,-1.3374851942062378
1747978245834578200,18.766578125,0.2739630341529846,-9.710624694824219,-1.3655877113342285
1747978245852839700,18.784839599609374,0.33437851071357727,-9.705912590026855,-1.3854843378067017
1747978245871108400,18.8031083984375,0.5075603127479553,-9.694520950317383,-1.4123549461364746
1747978245889370400,18.821370361328125,0.7363748550415039,-9.674022674560547,-1.4516116380691528
1747978245907636500,18.839636474609375,0.9763338565826416,-9.644681930541992,-1.5043249130249023
1747978245925900300,18.857900390625,1.204248070716858,-9.609498023986816,-1.5631567239761353
1747978245944165400,18.876165283203125,1.4213058948516846,-9.569693565368652,-1.6238747835159302
1747978245962425900,18.89442578125,1.6442140340805054,-9.522117614746094,-1.6917375326156616
1747978245980696000,18.912696044921876,1.8210022449493408,-9.47304630279541,-1.7836672067642212
1747978245998959900,18.9309599609375,1.8974363803863525,-9.435030937194824,-1.9015953540802002
1747978246017225700,18.949225830078124,1.8953580856323242,-9.41254997253418,-2.0118775367736816
1747978246035489300,18.9674892578125,1.8690038919448853,-9.402239799499512,-2.0834615230560303
1747978246053751000,18.9857509765625,1.8299318552017212,-9.401191711425781,-2.1225104331970215
1747978246072018200,19.00401806640625,1.783287763595581,-9.405268669128418,-2.1440415382385254
1747978246090286800,19.022286865234374,1.7405693531036377,-9.40616512298584,-2.174994468688965
1747978246108549000,19.040549072265627,1.6406769752502441,-9.416958808898926,-2.2057197093963623
1747978246126815000,19.05881494140625,1.394689917564392,-9.460693359375,-2.187747001647949
1747978246145074000,19.077073974609377,1.0174286365509033,-9.527714729309082,-2.1032376289367676
1747978246163345000,19.095344970703124,0.5586284399032593,-9.594928741455078,-1.965047836303711
1747978246181608400,19.1136083984375,0.025012196972966194,-9.64102840423584,-1.812748670578003
1747978246199873800,19.131873779296875,-0.5510897040367126,-9.648665428161621,-1.6839525699615479
1747978246218139400,19.150139404296876,-1.10713529586792,-9.615427017211914,-1.5981066226959229
1747978246236398300,19.1683984375,-1.6124800443649292,-9.554786682128906,-1.530390977859497
1747978246254670000,19.186670166015624,-2.0580220222473145,-9.487082481384277,-1.4127858877182007
1747978246272934100,19.20493408203125,-2.4727976322174072,-9.417978286743164,-1.1929361820220947
1747978246291198000,19.223197998046874,-2.8479268550872803,-9.341756820678711,-0.9257312417030334
1747978246309469200,19.24146923828125,-3.1258597373962402,-9.269421577453613,-0.7368559241294861
1747978246327727600,19.2597275390625,-3.291670322418213,-9.218767166137695,-0.6444593667984009
1747978246345993700,19.27799365234375,-3.353609800338745,-9.198152542114258,-0.6191707253456116
1747978246364257500,19.296257568359376,-3.3464908599853516,-9.200871467590332,-0.6172993779182434
1747978246382524000,19.31452392578125,-3.406975030899048,-9.184186935424805,-0.5284874439239502
1747978246400782300,19.3327822265625,-3.540203809738159,-9.142581939697266,-0.3409622609615326
1747978246419052000,19.351052001953125,-3.6157214641571045,-9.11696720123291,-0.20877191424369812
1747978246437318400,19.369318359375,-3.6145763397216797,-9.117929458618164,-0.1851392239332199
1747978246455579000,19.387578857421875,-3.5736584663391113,-9.1331205368042,-0.22623638808727264
1747978246473845200,19.40584521484375,-3.513902425765991,-9.154541969299316,-0.2880481779575348
1747978246492105700,19.424105712890626,-3.448925256729126,-9.176796913146973,-0.35699766874313354
1747978246510374100,19.4423740234375,-3.382594108581543,-9.197419166564941,-0.4490506947040558
1747978246528640800,19.460640869140626,-3.2430551052093506,-9.238702774047852,-0.6042302250862122
1747978246546905900,19.47890576171875,-2.9257848262786865,-9.325596809387207,-0.8420964479446411
1747978246565172200,19.497172119140625,-2.431251287460327,-9.433850288391113,-1.1522114276885986
1747978246583431700,19.515431640625,-1.8374760150909424,-9.526532173156738,-1.4508517980575562
1747978246601702100,19.5337021484375,-1.3968935012817383,-9.580245971679688,-1.5823148488998413
1747978246619954700,19.55195458984375,-1.4384278059005737,-9.595495223999023,-1.4468988180160522
1747978246638231600,19.5702314453125,-1.6528151035308838,-9.581144332885742,-1.3061414957046509
1747978246656491000,19.588490966796876,-1.7269363403320312,-9.581954002380371,-1.1999893188476562
1747978246674761700,19.60676171875,-1.6728769540786743,-9.602298736572266,-1.1106255054473877
1747978246693025000,19.62502490234375,-1.6707706451416016,-9.616569519042969,-0.9829862713813782
1747978246711291400,19.64329150390625,-1.7760180234909058,-9.609869003295898,-0.8557310104370117
1747978246729555500,19.661555419921875,-1.8669581413269043,-9.594927787780762,-0.8294147253036499
1747978246747821300,19.6798212890625,-1.9077848196029663,-9.584351539611816,-0.8582978844642639
1747978246766084600,19.698084716796874,-1.7655998468399048,-9.599555015563965,-0.9835321307182312
1747978246784350700,19.716350830078124,-1.573886513710022,-9.615558624267578,-1.1402068138122559
1747978246802614800,19.73461474609375,-1.4120376110076904,-9.621309280395508,-1.2933263778686523
1747978246820879600,19.752879638671875,-1.2847622632980347,-9.622123718261719,-1.4143069982528687
1747978246839145500,19.7711455078125,-1.1499395370483398,-9.626845359802246,-1.4958724975585938
1747978246857406000,19.789406005859377,-0.9046518802642822,-9.644852638244629,-1.5474344491958618
1747978246875674600,19.807674560546875,-0.556514322757721,-9.670624732971191,-1.5509430170059204
1747978246893940700,19.825940673828125,-0.21126852929592133,-9.691190719604492,-1.5074095726013184
1747978246912199000,19.844198974609377,0.06225472316145897,-9.703058242797852,-1.443222165107727
1747978246930469000,19.86246923828125,0.2474733293056488,-9.706708908081055,-1.3981002569198608
1747978246948731400,19.8807314453125,0.37142202258110046,-9.704364776611328,-1.386885643005371
1747978246967000300,19.899000244140623,0.4710506796836853,-9.699115753173828,-1.3933290243148804
1747978246985263000,19.91726318359375,0.5739239454269409,-9.69117259979248,-1.4099379777908325
1747978247003530000,19.935530029296874,0.7220056056976318,-9.676807403564453,-1.4402152299880981
1747978247021793300,19.953793212890623,0.9348679184913635,-9.651891708374023,-1.4842888116836548
1747978247040060000,19.972059814453125,1.1742322444915771,-9.616825103759766,-1.5407718420028687
1747978247058323000,19.990322998046874,1.4136292934417725,-9.573686599731445,-1.6069494485855103
1747978247085720300,20.01772021484375,1.8004112243652344,-9.49019718170166,-1.7119592428207397
1747978247103985400,20.0359853515625,2.0594091415405273,-9.423643112182617,-1.7860302925109863
1747978247122245000,20.0542451171875,2.232678174972534,-9.362029075622559,-1.8983319997787476
1747978247140513800,20.072513671875,2.305532217025757,-9.315620422363281,-2.034663677215576
1747978247158777300,20.09077734375,2.309016227722168,-9.28878402709961,-2.1501221656799316
1747978247177044700,20.109044677734374,2.2735793590545654,-9.281878471374512,-2.2166879177093506
1747978247195309800,20.127309814453124,2.228656768798828,-9.288045883178711,-2.236386775970459
1747978247213569800,20.14556982421875,2.1868696212768555,-9.30047607421875,-2.2259464263916016
1747978247231838500,20.16383837890625,2.1172335147857666,-9.318719863891602,-2.2169597148895264
1747978247250105300,20.182105224609376,1.9240179061889648,-9.36563777923584,-2.195246934890747
1747978247268369400,20.200369384765626,1.5599550008773804,-9.451674461364746,-2.1138839721679688
1747978247286620400,20.218620361328124,1.078112244606018,-9.548468589782715,-1.9749802350997925
1747978247304901600,20.236901611328125,0.5343196392059326,-9.626106262207031,-1.8134759664535522
1747978247323164000,20.255163818359375,-0.042932599782943726,-9.66511344909668,-1.679247260093689
1747978247341424400,20.27342431640625,-0.5933558940887451,-9.661685943603516,-1.5924445390701294
1747978247359693800,20.29169384765625,-1.1007989645004272,-9.626866340637207,-1.5322436094284058
1747978247377959200,20.309959228515623,-1.5911617279052734,-9.570327758789062,-1.4536731243133545
1747978247396223700,20.3282236328125,-2.1042330265045166,-9.495610237121582,-1.2812963724136353
1747978247414490600,20.34649072265625,-2.5624945163726807,-9.405197143554688,-1.1009141206741333
1747978247432753400,20.36475341796875,-2.8988215923309326,-9.318070411682129,-1.0032716989517212
1747978247451018500,20.3830185546875,-3.1153557300567627,-9.252561569213867,-0.959582507610321
1747978247469278700,20.40127880859375,-3.2168984413146973,-9.221196174621582,-0.9258698225021362
1747978247487547000,20.419546875,-3.233621597290039,-9.218619346618652,-0.892681896686554
1747978247505814500,20.437814453125,-3.2789628505706787,-9.212455749511719,-0.7843449711799622
1747978247524076500,20.45607666015625,-3.3899874687194824,-9.188910484313965,-0.5549928545951843
1747978247542344200,20.47434423828125,-3.4472334384918213,-9.176346778869629,-0.3839053809642792
1747978247560607700,20.492607666015626,-3.4306488037109375,-9.18496322631836,-0.3212059736251831
1747978247578871800,20.510871826171876,-3.373194932937622,-9.206103324890137,-0.3245856761932373
1747978247597138700,20.529138671875,-3.30045747756958,-9.231420516967773,-0.35209304094314575
1747978247615399700,20.547399658203126,-3.235109806060791,-9.252537727355957,-0.40087518095970154
1747978247633666000,20.565666015625,-3.176488161087036,-9.268486976623535,-0.49116232991218567
1747978247651932400,20.583932373046874,-3.066326141357422,-9.295509338378906,-0.653643012046814
1747978247670197200,20.602197265625,-2.8065242767333984,-9.35584545135498,-0.9097952246665955
1747978247697595600,20.629595703125,-2.115945816040039,-9.471590042114258,-1.43104088306427
1747978247715857700,20.647857666015625,-1.6840842962265015,-9.52010440826416,-1.6636054515838623
1747978247734125800,20.666125732421875,-1.6850950717926025,-9.538433074951172,-1.5539871454238892
1747978247752390400,20.684390380859377,-1.9534857273101807,-9.515339851379395,-1.3705248832702637
1747978247770650600,20.702650634765625,-2.0679547786712646,-9.50475788116455,-1.2725096940994263
1747978247788917200,20.720917236328123,-2.077681064605713,-9.52627944946289,-1.081376552581787
1747978247807186200,20.739186279296874,-1.9585641622543335,-9.566930770874023,-0.9348859190940857
1747978247825444600,20.757444580078126,-1.8444997072219849,-9.601066589355469,-0.8083919286727905
1747978247843715000,20.775715087890624,-1.777095913887024,-9.620494842529297,-0.7239469885826111
1747978247861978600,20.793978515625,-1.772508978843689,-9.620691299438477,-0.7325541377067566
1747978247880244500,20.812244384765624,-1.8340870141983032,-9.600768089294434,-0.8351683616638184
1747978247898508300,20.83050830078125,-1.8045319318771362,-9.585037231445312,-1.0520761013031006
1747978247916774400,20.8487744140625,-1.7105491161346436,-9.581976890563965,-1.2230671644210815
1747978247935038000,20.867037841796876,-1.5816054344177246,-9.593448638916016,-1.3039852380752563
1747978247953304300,20.88530419921875,-1.4309825897216797,-9.61647891998291,-1.3083525896072388
1747978247971568000,20.903568115234375,-1.2523326873779297,-9.645777702331543,-1.2754517793655396
1747978247989833500,20.92183349609375,-0.9883989095687866,-9.680437088012695,-1.2443174123764038
1747978248008098300,20.940098388671874,-0.6199883222579956,-9.712719917297363,-1.2307798862457275
1747978248026358800,20.95835888671875,-0.26456400752067566,-9.731045722961426,-1.213606595993042
1747978248044627500,20.97662744140625,0.007606789469718933,-9.732738494873047,-1.2287681102752686
1747978248062894000,20.99489404296875,0.2047043740749359,-9.723478317260742,-1.283815860748291
1747978248081157000,21.0131572265625,0.37118637561798096,-9.709322929382324,-1.3518108129501343
1747978248099418600,21.031418701171877,0.5380959510803223,-9.692317962646484,-1.4161673784255981
1747978248117687000,21.04968701171875,0.7223156690597534,-9.670364379882812,-1.482717752456665
1747978248135953700,21.06795361328125,0.960787832736969,-9.636685371398926,-1.5643694400787354
1747978248154215700,21.086215576171874,1.2385680675506592,-9.589812278747559,-1.6545647382736206
1747978248172484000,21.104484130859376,1.5182743072509766,-9.538394927978516,-1.7175509929656982
1747978248190747000,21.122746826171873,1.7808817625045776,-9.487923622131348,-1.7446752786636353
1747978248209013000,21.141012939453127,2.016524314880371,-9.436922073364258,-1.7647216320037842
1747978248227276300,21.1592763671875,2.204127550125122,-9.385167121887207,-1.8156503438949585
1747978248245542700,21.177542724609374,2.317392587661743,-9.334664344787598,-1.931278109550476
1747978248263806500,21.195806396484375,2.3533947467803955,-9.29184627532959,-2.0878829956054688
1747978248282068000,21.21406787109375,2.3731706142425537,-9.25522232055664,-2.2237424850463867
1747978248300334800,21.2323349609375,2.3899686336517334,-9.228793144226074,-2.313772678375244
1747978248318596600,21.2505966796875,2.370026111602783,-9.220769882202148,-2.365689516067505
1747978248336867800,21.268867919921874,2.345031976699829,-9.220786094665527,-2.3904058933258057
1747978248355133000,21.2871328125,2.3037588596343994,-9.226404190063477,-2.40879487991333
1747978248373399800,21.30539990234375,2.173168897628784,-9.256582260131836,-2.414358615875244
1747978248391661600,21.32366162109375,1.8767679929733276,-9.336556434631348,-2.3542683124542236
1747978248409924900,21.3419248046875,1.4314013719558716,-9.44816780090332,-2.2179574966430664
1747978248428192500,21.360192626953125,0.913416862487793,-9.554076194763184,-2.030125379562378
1747978248446462700,21.378462646484376,0.3482227623462677,-9.629923820495605,-1.8383220434188843
1747978248464721200,21.39672119140625,-0.23097847402095795,-9.659173011779785,-1.697979211807251
1747978248482985000,21.41498486328125,-0.7518951296806335,-9.6474609375,-1.6116161346435547
1747978248501251600,21.43325146484375,-1.217297077178955,-9.610742568969727,-1.5452960729599
1747978248519515000,21.451514892578125,-1.6578547954559326,-9.564148902893066,-1.419396162033081
1747978248537776000,21.469776123046874,-2.139343023300171,-9.501587867736816,-1.1743714809417725
1747978248556043500,21.48804345703125,-2.559736967086792,-9.420793533325195,-0.965673565864563
1747978248574312200,21.506312255859374,-2.848924398422241,-9.345314979553223,-0.8858879804611206
1747978248592574500,21.524574462890627,-3.0332536697387695,-9.288201332092285,-0.8745291829109192
1747978248610839300,21.54283935546875,-3.076547145843506,-9.278346061706543,-0.826586127281189
1747978248629105400,21.56110546875,-3.0804030895233154,-9.284424781799316,-0.7393822073936462
1747978248647360500,21.579360595703125,-3.1718900203704834,-9.264775276184082,-0.5823721885681152
1747978248665634000,21.597634033203125,-3.2896931171417236,-9.233043670654297,-0.40609997510910034
1747978248683899000,21.61589892578125,-3.350410223007202,-9.215164184570312,-0.3027048110961914
1747978248702165000,21.6341650390625,-3.349518060684204,-9.216052055358887,-0.2850117087364197
1747978248720425700,21.65242578125,-3.3133978843688965,-9.227766036987305,-0.3253668546676636
1747978248738689800,21.670689697265626,-3.2717535495758057,-9.240121841430664,-0.38973039388656616
1747978248756959500,21.68895947265625,-3.241483449935913,-9.246479034423828,-0.4811808466911316
1747978248775223600,21.7072236328125,-3.208242416381836,-9.249347686767578,-0.6267896890640259
1747978248793485000,21.725485107421875,-3.1373050212860107,-9.255598068237305,-0.8528550267219543
1747978248811752200,21.743752197265625,-2.9591526985168457,-9.27997875213623,-1.1668578386306763
1747978248830020600,21.7620205078125,-2.603576421737671,-9.331171035766602,-1.544904351234436
1747978248848283600,21.78028369140625,-2.2221410274505615,-9.383830070495605,-1.8005313873291016
1747978248866549200,21.79854931640625,-2.114004135131836,-9.424236297607422,-1.7178020477294922
1747978248884808000,21.816807861328126,-2.199815034866333,-9.453023910522461,-1.427329421043396
1747978248903079000,21.835078857421873,-2.2378060817718506,-9.469609260559082,-1.246927261352539
1747978248921342500,21.853342529296874,-2.2336273193359375,-9.48898983001709,-1.0982334613800049
1747978248939609000,21.871609130859376,-2.180422067642212,-9.507376670837402,-1.0448203086853027
1747978248957871400,21.889871337890625,-2.1250319480895996,-9.522568702697754,-1.020326852798462
1747978248976139800,21.908139892578124,-2.0966131687164307,-9.53750228881836,-0.9361612200737
1747978248994398200,21.926398193359375,-2.0516388416290283,-9.553855895996094,-0.8664650321006775
1747978249012668700,21.944668701171874,-2.021336555480957,-9.560009956359863,-0.8697876930236816
1747978249030932000,21.962931884765624,-1.9239352941513062,-9.570613861083984,-0.9684685468673706
1747978249049198300,21.9811982421875,-1.7359167337417603,-9.589378356933594,-1.1254136562347412
1747978249067462700,21.999462646484375,-1.5424323081970215,-9.60379409790039,-1.2744311094284058
1747978249085728300,22.017728271484376,-1.3878345489501953,-9.614673614501953,-1.3667778968811035
1747978249103991800,22.03599169921875,-1.2556804418563843,-9.630852699279785,-1.3806121349334717
1747978249122257700,22.054257568359375,-1.0922411680221558,-9.65600299835205,-1.343397617340088
1747978249140516900,22.072516845703124,-0.8668088316917419,-9.683505058288574,-1.309378743171692
1747978249158783500,22.090783447265625,-0.580122172832489,-9.706659317016602,-1.296284794807434
1747978249177051100,22.109051025390624,-0.26441314816474915,-9.72083854675293,-1.2928706407546997
1747978249195317800,22.12731787109375,0.030656659975647926,-9.72354793548584,-1.2991563081741333
1747978249213581300,22.145581298828127,0.2744162678718567,-9.717637062072754,-1.3146575689315796
1747978249231846400,22.163846435546876,0.46527284383773804,-9.706289291381836,-1.3444644212722778
1747978249250112300,22.1821123046875,0.6295995712280273,-9.690585136413574,-1.390065312385559
1747978249268377300,22.20037744140625,0.7958069443702698,-9.670304298400879,-1.4450023174285889
1747978249286641000,22.218640869140625,0.9959843754768372,-9.642206192016602,-1.5073119401931763
1747978249304907300,22.2369072265625,1.237852692604065,-9.603086471557617,-1.5762577056884766
1747978249323169000,22.2551689453125,1.5174921751022339,-9.551318168640137,-1.644887924194336
1747978249341433300,22.273433349609373,1.826897382736206,-9.489249229431152,-1.6890010833740234
1747978249359700700,22.29170068359375,2.0982179641723633,-9.425705909729004,-1.7290632724761963
1747978249377966800,22.309966796875,2.244050979614258,-9.372671127319336,-1.8312252759933472
1747978249396225300,22.328225341796873,2.2841930389404297,-9.334395408630371,-1.971710205078125
1747978249414489600,22.346489501953126,2.298842191696167,-9.307666778564453,-2.078165054321289
1747978249432758300,22.36475830078125,2.3122034072875977,-9.291735649108887,-2.1338894367218018
1747978249451029800,22.38302978515625,2.2983574867248535,-9.282289505004883,-2.189243793487549
1747978249469289700,22.401289794921876,2.276033401489258,-9.277740478515625,-2.2314369678497314
1747978249487556400,22.419556396484374,2.252516269683838,-9.276741027832031,-2.259284019470215
1747978249505820000,22.43781982421875,2.160072088241577,-9.287010192871094,-2.3068745136260986
1747978249524085000,22.4560849609375,1.8814260959625244,-9.336772918701172,-2.3496832847595215
1747978249542350600,22.4743505859375,1.4332460165023804,-9.42566204071045,-2.310580253601074
1747978249560615700,22.49261572265625,0.9193447232246399,-9.518183708190918,-2.189774751663208
1747978249578878500,22.51087841796875,0.38172292709350586,-9.592300415039062,-2.019448757171631
1747978249597147000,22.52914697265625,-0.17905263602733612,-9.636822700500488,-1.8263983726501465
1747978249615397600,22.547397705078126,-0.7302869558334351,-9.644966125488281,-1.6362940073013306
1747978249633675800,22.56567578125,-1.2197355031967163,-9.623112678527832,-1.4642583131790161
1747978249651934500,22.5839345703125,-1.6334267854690552,-9.584247589111328,-1.3077582120895386
1747978249670204200,22.6022041015625,-1.9898968935012817,-9.540631294250488,-1.1192822456359863
1747978249688473900,22.620473876953124,-2.303892135620117,-9.491230964660645,-0.9190887808799744
1747978249706734800,22.63873486328125,-2.5905869007110596,-9.430377006530762,-0.7700555324554443
1747978249724993500,22.65699365234375,-2.850327730178833,-9.362811088562012,-0.670481264591217
1747978249743265000,22.67526513671875,-3.0592563152313232,-9.301085472106934,-0.6057063937187195
1747978249761528000,22.693528076171877,-3.198094367980957,-9.256360054016113,-0.5727856755256653
1747978249779794700,22.711794677734375,-3.287560224533081,-9.226541519165039,-0.5467775464057922
1747978249798058200,22.730058349609376,-3.3779399394989014,-9.196955680847168,-0.49156197905540466
1747978249816324400,22.748324462890626,-3.469511032104492,-9.167014122009277,-0.40551289916038513
1747978249834587600,22.766587646484375,-3.514749526977539,-9.152799606323242,-0.32999348640441895
1747978249852853000,22.78485302734375,-3.487014055252075,-9.164594650268555,-0.29509875178337097
1747978249871119000,22.803119140625,-3.4117448329925537,-9.19253158569336,-0.30578336119651794
1747978249889384700,22.821384765625,-3.327410936355591,-9.221413612365723,-0.360536128282547
1747978249907642600,22.839642578125,-3.245110034942627,-9.245903968811035,-0.46761998534202576
1747978249925912600,22.85791259765625,-3.146531343460083,-9.270543098449707,-0.6264867782592773
1747978249944177400,22.876177490234376,-2.9742062091827393,-9.309221267700195,-0.8535979390144348
1747978249962441200,22.894441162109374,-2.6390490531921387,-9.375082015991211,-1.1744670867919922
1747978249980707300,22.912707275390623,-2.1356217861175537,-9.449020385742188,-1.5463731288909912
1747978249998973400,22.930973388671877,-1.693344235420227,-9.494489669799805,-1.7953767776489258
1747978250017237000,22.949237060546874,-1.713172435760498,-9.508764266967773,-1.6984021663665771
1747978250035503900,22.96750390625,-1.936610221862793,-9.495760917663574,-1.521903395652771
1747978250053766700,22.9857666015625,-1.9991297721862793,-9.498126983642578,-1.4231001138687134
1747978250072033300,23.004033203125,-2.0088951587677,-9.508971214294434,-1.3341326713562012
1747978250090296800,23.022296875,-1.9924004077911377,-9.515471458435059,-1.3123458623886108
1747978250108563700,23.040563720703126,-1.9573646783828735,-9.520587921142578,-1.3278690576553345
1747978250126827300,23.0588271484375,-2.008584499359131,-9.504920959472656,-1.3631415367126465
1747978250145091800,23.077091796875,-2.044114828109741,-9.49822998046875,-1.356954574584961
1747978250163351600,23.0953515625,-2.0186398029327393,-9.502922058105469,-1.3622241020202637
1747978250181621500,23.11362158203125,-1.9517297744750977,-9.509531021118164,-1.4126975536346436
1747978250199886300,23.13188623046875,-1.825055480003357,-9.5275239944458,-1.4599947929382324
1747978250218153500,23.150153564453124,-1.6318399906158447,-9.556729316711426,-1.4973700046539307
1747978250236411400,23.168411376953124,-1.4016433954238892,-9.586277961730957,-1.5410399436950684
1747978250254677500,23.186677490234374,-1.1590162515640259,-9.611639022827148,-1.5840332508087158
1747978250272945400,23.2049453125,-0.9058424830436707,-9.636768341064453,-1.5963332653045654
1747978250291212000,23.2232119140625,-0.581204354763031,-9.667128562927246,-1.5636428594589233
1747978250309475800,23.241475830078127,-0.165260449051857,-9.691641807556152,-1.5102590322494507
1747978250327742200,23.2597421875,0.2379588782787323,-9.696002960205078,-1.472082495689392
1747978250346005200,23.278005126953126,0.526464581489563,-9.684895515441895,-1.4702836275100708
1747978250364271600,23.296271728515624,0.6708284020423889,-9.671610832214355,-1.4986867904663086
1747978250382535400,23.314535400390625,0.742316722869873,-9.660013198852539,-1.539227843284607
1747978250400801500,23.332801513671875,0.8503280878067017,-9.640780448913574,-1.6026257276535034
1747978250419064800,23.35106494140625,1.062288761138916,-9.606400489807129,-1.680692195892334
