time,seconds_elapsed,z,y,x
1747978227136072400,0.068072509765625,-0.04886921867728233,-0.1696678251028061,-0.5048801302909851
1747978227154349800,0.086349853515625,-0.1739438772201538,-0.33047810196876526,-0.5555819272994995
1747978227172615700,0.10461572265625,-0.25961771607398987,-0.3764457106590271,-0.5207626223564148
1747978227190877700,0.122877685546875,-0.25534167885780334,-0.15806138515472412,-0.2528982162475586
1747978227209144300,0.141144287109375,-0.17821992933750153,0.15531249344348907,0.204487144947052
1747978227227403800,0.15940380859375,-0.14065171778202057,0.26740625500679016,0.55069500207901
1747978227245673700,0.177673828125,-0.15943582355976105,0.2477058619260788,0.6383541822433472
1747978227263936300,0.195936279296875,-0.2070833146572113,0.1941024363040924,0.5193881988525391
1747978227282203100,0.214203125,-0.2551889419555664,0.15683965384960175,0.2638937830924988
1747978227300466400,0.232466552734375,-0.2929098904132843,0.03405573591589928,-0.0039706239476799965
1747978227318728000,0.25072802734375,-0.33108896017074585,-0.04795292019844055,-0.1869247704744339
1747978227336991000,0.268990966796875,-0.36682456731796265,-0.006261368747800589,-0.2796235680580139
1747978227355260200,0.28726025390625,-0.38026362657546997,0.14614951610565186,-0.29336804151535034
1747978227373513500,0.305513427734375,-0.35292738676071167,0.4378376603126526,-0.25244006514549255
1747978227391790300,0.323790283203125,-0.35094207525253296,0.6215553879737854,-0.24236078560352325
1747978227410054000,0.342053955078125,-0.44837507605552673,0.8367326855659485,-0.14385876059532166
1747978227428318500,0.360318359375,-0.5224425196647644,0.6743952035903931,-0.061391957104206085
1747978227446583000,0.3785830078125,-0.5161811113357544,0.5018258094787598,0.058184914290905
1747978227464845800,0.396845703125,-0.5309945940971375,0.3248275816440582,0.16249015927314758
1747978227483115000,0.415114990234375,-0.5262604355812073,0.23884831368923187,0.23839016258716583
1747978227501377000,0.433376953125,-0.4479169547557831,0.2675589919090271,0.2623666226863861
1747978227519641300,0.451641357421875,-0.3205515444278717,0.27977627515792847,0.22098049521446228
1747978227537907000,0.469906982421875,-0.1670716404914856,0.2154827117919922,0.12629638612270355
1747978227556170500,0.48817041015625,-0.0503963828086853,0.1466076523065567,0.027488935738801956
1747978227574430500,0.506430419921875,0.03130684420466423,0.10506882518529892,-0.026572637259960175
1747978227592694800,0.52469482421875,0.020922135561704636,0.03451388701796532,-0.08429940044879913
1747978227610964000,0.5429638671875,-0.010690141469240189,0.08857546001672745,-0.12996158003807068
1747978227629222700,0.56122265625,0.014966198243200779,0.17791450023651123,-0.08460483700037003
1747978227647493600,0.57949365234375,0.040164388716220856,0.14874568581581116,0.13988813757896423
1747978227665757700,0.5977578125,0.021991148591041565,0.05207626149058342,0.5067127346992493
1747978227684023300,0.616023193359375,0.02321287989616394,-0.06414084881544113,0.7397578358650208
1747978227702288000,0.634287841796875,0.010995574295520782,-0.03848451003432274,0.675006091594696
1747978227720552000,0.652552001953125,-0.0377209298312664,0.013133603148162365,0.3929390609264374
1747978227738816500,0.67081640625,-0.1287398487329483,0.06001751124858856,0.052381694316864014
1747978227757081900,0.689081787109375,-0.18341228365898132,0.05268712714314461,-0.2915354371070862
1747978227775344400,0.707344482421875,-0.11698069423437119,0.044745877385139465,-0.49266281723976135
1747978227793611000,0.725611083984375,-0.02367102913558483,0.1258382350206375,-0.4170682430267334
1747978227811873500,0.74387353515625,0.02519819140434265,0.45234572887420654,-0.028557950630784035
1747978227830141200,0.76214111328125,0.01160643994808197,0.8959866166114807,0.48288896679878235
1747978227848399000,0.780399169921875,0.04505131021142006,0.946382999420166,0.8407033085823059
1747978227866667000,0.7986669921875,0.10797043144702911,0.6218608021736145,0.8316930532455444
1747978227884934400,0.816934326171875,0.18219055235385895,0.20097467303276062,0.5177083015441895
1747978227903198700,0.83519873046875,0.3055853247642517,-0.12431107461452484,0.02519819140434265
1747978227921462500,0.853462646484375,0.3972151279449463,-0.3019201457500458,-0.45265114307403564
1747978227939726800,0.871726806640625,0.43829581141471863,-0.3090978264808655,-0.7449501752853394
1747978227957991200,0.8899912109375,0.46792277693748474,-0.32360586524009705,-0.8614727258682251
1747978227976257000,0.908257080078125,0.4761694669723511,-0.39797869324684143,-0.8080220222473145
1747978227994520600,0.9265205078125,0.5325217843055725,-0.4784601926803589,-0.7043276429176331
1747978228012785200,0.94478515625,0.5616905689239502,-0.39125919342041016,-0.5653557777404785
1747978228031049500,0.963049560546875,0.5487096905708313,-0.1849394589662552,-0.37858372926712036
1747978228049315300,0.9813154296875,0.45814892649650574,-0.16768251359462738,-0.1595885455608368
1747978228067578600,0.99957861328125,0.35659259557724,-0.2298380434513092,0.02367102913558483
1747978228085842200,1.01784228515625,0.30482175946235657,-0.2623666226863861,0.07559457421302795
1747978228104103200,1.036103271484375,0.25732699036598206,-0.4283692538738251,0.03695734590291977
1747978228122373600,1.05437353515625,0.12217304855585098,-0.4262312352657318,-0.040622539818286896
1747978228140638200,1.07263818359375,0.06230825558304787,-0.4101960062980652,-0.12568552792072296
1747978228158901800,1.09090185546875,0.07528914511203766,-0.3784310221672058,-0.17379115521907806
1747978228177166300,1.109166259765625,0.1137736514210701,-0.11163562536239624,-0.18219055235385895
1747978228195427600,1.127427490234375,0.19303341209888458,0.07635815441608429,-0.11789698898792267
1747978228213695500,1.145695556640625,0.24098633229732513,-0.020005837082862854,0.052839845418930054
1747978228231959800,1.163959716796875,0.24236078560352325,-0.2590068578720093,0.23258693516254425
1747978228250224400,1.182224365234375,0.21410827338695526,-0.41462478041648865,0.3162754774093628
1747978228268490500,1.200490478515625,0.19394971430301666,-0.3442225754261017,0.19593502581119537
1747978228286753800,1.21875390625,0.15622878074645996,-0.19257527589797974,-0.059406645596027374
1747978228305018000,1.23701806640625,0.05360342562198639,0.027641652151942253,-0.22892175614833832
1747978228323283000,1.255282958984375,-0.044135015457868576,0.14156801998615265,-0.2687807083129883
1747978228341548500,1.273548583984375,-0.09178250283002853,0.06902777403593063,-0.31031954288482666
1747978228359807700,1.291807861328125,-0.1281289905309677,-0.13057245314121246,-0.3770565688610077
1747978228378078700,1.31007861328125,-0.14874568581581116,-0.4158465266227722,-0.4726569950580597
1747978228396339200,1.328339111328125,-0.13545936346054077,-0.5042692422866821,-0.5051855444908142
1747978228414606800,1.34660693359375,-0.13836097717285156,-0.36713001132011414,-0.3878994286060333
1747978228432869000,1.364869140625,-0.15775595605373383,-0.26710084080696106,-0.18219055235385895
1747978228451136000,1.383135986328125,-0.19944749772548676,-0.3094032406806946,-0.02122756652534008
1747978228469387800,1.4013876953125,-0.2971859276294708,-0.4334088861942291,0.05604688450694084
1747978228487665200,1.4196650390625,-0.43737950921058655,-0.41920626163482666,0.03436116874217987
1747978228505928700,1.4379287109375,-0.5152648091316223,-0.20234911143779755,-0.01924225501716137
1747978228524195600,1.456195556640625,-0.5138903856277466,0.037110064178705215,-0.08460483700037003
1747978228542460200,1.474460205078125,-0.47769662737846375,0.21059578657150269,-0.14217889308929443
1747978228560723700,1.4927236328125,-0.4434881806373596,0.24190263450145721,-0.18585574626922607
1747978228578987000,1.510987060546875,-0.4190535545349121,0.2451096773147583,-0.19822576642036438
1747978228597251800,1.529251953125,-0.43539419770240784,0.3029891550540924,-0.19654589891433716
1747978228615516400,1.547516357421875,-0.4631885588169098,0.39996400475502014,-0.20525072515010834
1747978228633780700,1.56578076171875,-0.4834998548030853,0.461355984210968,-0.22143864631652832
1747978228652046300,1.58404638671875,-0.49037206172943115,0.40912699699401855,-0.22678372263908386
1747978228670310000,1.602309814453125,-0.4781547784805298,0.2773328125476837,-0.20555615425109863
1747978228688575200,1.6205751953125,-0.4389066696166992,0.052839845418930054,-0.1589776873588562
1747978228706834400,1.63883447265625,-0.3836233615875244,-0.2571742534637451,-0.08414668589830399
1747978228725105200,1.657105224609375,-0.3159700334072113,-0.33628132939338684,0.0065668015740811825
1747978228743368400,1.675368408203125,-0.21639901399612427,-0.2018909603357315,0.09789115190505981
1747978228761633000,1.693633056640625,-0.20754146575927734,-0.10399980843067169,0.11010845750570297
1747978228779898400,1.7118984375,-0.289702832698822,0.06688974797725677,0.1310305893421173
1747978228798162200,1.730162109375,-0.4161519408226013,0.2767219543457031,0.18829920887947083
1747978228816422000,1.748421875,-0.4674646258354187,0.3488040566444397,0.2405281960964203
1747978228834691300,1.76669140625,-0.39874228835105896,0.2557998299598694,0.26572638750076294
1747978228852957000,1.78495703125,-0.2574796974658966,0.17058411240577698,0.29474249482154846
1747978228871220500,1.803220458984375,-0.10430523753166199,0.07528914511203766,0.3423899710178375
1747978228889485000,1.821485107421875,0.043676864355802536,-0.10674870014190674,0.39965859055519104
1747978228907749400,1.839749267578125,0.15302173793315887,-0.27030786871910095,0.4369213581085205
1747978228926015700,1.858015625,0.17501288652420044,-0.14996741712093353,0.41722095012664795
1747978228944279000,1.876279052734375,0.1267545372247696,0.13209961354732513,0.30222558975219727
1747978228962538800,1.894538818359375,0.056352317333221436,0.3121521472930908,0.05451972410082817
1747978228980808000,1.912807861328125,0.045204028487205505,0.11102475970983505,-0.29825496673583984
1747978228999073800,1.93107373046875,0.02076941914856434,-0.4560109078884125,-0.5991060733795166
1747978229017337000,1.949337158203125,-0.024587325751781464,-0.731511116027832,-0.5991060733795166
1747978229035601700,1.9676015625,0.00427605677396059,-0.32681289315223694,-0.25045475363731384
1747978229053865000,1.985864990234375,0.13973543047904968,0.5238169431686401,0.2692388594150543
1747978229072132900,2.0041328125,0.2808452844619751,1.1398745775222778,0.6249151229858398
1747978229090399000,2.02239892578125,0.3770565688610077,1.0966558456420898,0.6620252132415771
1747978229108655600,2.040655517578125,0.4207334518432617,0.6327036619186401,0.4938845634460449
1747978229126924800,2.0589248046875,0.43386703729629517,0.10064005106687546,0.30741792917251587
1747978229145190000,2.07718994140625,0.4034765064716339,-0.10613783448934555,0.1420261710882187
1747978229163449900,2.095449951171875,0.3758348524570465,-0.023365596309304237,-0.006108652334660292
1747978229181718300,2.11371826171875,0.3897320330142975,0.0074830991216003895,-0.06322455406188965
1747978229199983000,2.131983154296875,0.3361285924911499,0.04214970022439957,-0.1371392458677292
1747978229218243800,2.150243896484375,0.24862214922904968,-0.06811147183179855,-0.18310685455799103
1747978229236511000,2.168510986328125,0.14355333149433136,-0.2168571650981903,-0.14508049190044403
1747978229254777600,2.186777587890625,0.04566217586398125,-0.2822197377681732,-0.10491610318422318
1747978229273041200,2.205041259765625,0.010842857882380486,-0.31459560990333557,-0.10690141469240189
1747978229291307000,2.22330712890625,0.01771509274840355,-0.2587014436721802,-0.08903361111879349
1747978229309570300,2.2415703125,0.020616702735424042,-0.16172657907009125,-0.0708603709936142
1747978229327834600,2.259834716796875,0.030695978552103043,-0.10247264802455902,-0.06108652427792549
1747978229346100000,2.278099853515625,0.03084869496524334,-0.18524488806724548,-0.048105638474226
1747978229364365600,2.296365478515625,0.027488935738801956,-0.3110831379890442,-0.01924225501716137
1747978229382624300,2.314624267578125,0.04108068719506264,-0.36942076683044434,0.04260785132646561
1747978229400892400,2.332892333984375,0.041691552847623825,-0.40714168548583984,0.09514226019382477
1747978229419159000,2.351158935546875,0.05268712714314461,-0.40744712948799133,0.13576480746269226
1747978229437419000,2.3694189453125,0.09254608303308487,-0.34055736660957336,0.22113321721553802
1747978229455687000,2.38768701171875,0.07987063378095627,-0.3625485301017761,0.32986724376678467
1747978229473947000,2.40594677734375,0.014966198243200779,-0.5204572081565857,0.413555771112442
1747978229492215000,2.424215087890625,-0.046731192618608475,-0.603076696395874,0.42730024456977844
1747978229510483000,2.44248291015625,-0.05696318298578262,-0.4424191415309906,0.37720927596092224
1747978229528741400,2.460741455078125,0.005650503560900688,-0.13805554807186127,0.2877175211906433
1747978229547010000,2.479010009765625,0.04337143152952194,-0.05864306539297104,0.12140946835279465
1747978229565274600,2.497274658203125,-0.032528575509786606,-0.24373523890972137,-0.09651670604944229
1747978229583540500,2.51554052734375,-0.20372356474399567,-0.5230533480644226,-0.3507893681526184
1747978229601804000,2.533803955078125,-0.34697145223617554,-0.5314527750015259,-0.5157229900360107
1747978229620068400,2.552068359375,-0.38759398460388184,-0.2399173229932785,-0.45875978469848633
1747978229638333200,2.570333251953125,-0.3263547718524933,0.30115658044815063,-0.18280142545700073
1747978229656598800,2.588598876953125,-0.22907446324825287,0.7293730974197388,0.15836681425571442
1747978229674861000,2.606861083984375,-0.18341228365898132,0.7652614116668701,0.3862195611000061
1747978229693128200,2.625128173828125,-0.14248432219028473,0.48579058051109314,0.4763221740722656
1747978229711394300,2.643394287109375,-0.14828753471374512,0.07040221989154816,0.4740314185619354
1747978229729652200,2.66165234375,-0.17470745742321014,-0.1661553531885147,0.4259257912635803
1747978229747919000,2.679919189453125,-0.24938572943210602,-0.26022860407829285,0.29016098380088806
1747978229766186500,2.6981865234375,-0.32391130924224854,-0.17867808043956757,0.042760565876960754
1747978229784445700,2.71644580078125,-0.37690386176109314,-0.0012217304902151227,-0.22388210892677307
1747978229802715400,2.73471533203125,-0.4236350357532501,0.19364428520202637,-0.3903428912162781
1747978229820979000,2.75297900390625,-0.4812090992927551,0.34865134954452515,-0.42241331934928894
1747978229839243500,2.771243408203125,-0.5503895878791809,0.44516804814338684,-0.38347065448760986
1747978229857508000,2.789508056640625,-0.5958990454673767,0.49785518646240234,-0.33887749910354614
1747978229875773700,2.807773681640625,-0.5688682794570923,0.45814892649650574,-0.2816088795661926
1747978229894036200,2.8260361328125,-0.4714352488517761,0.40485092997550964,-0.16371189057826996
1747978229912302600,2.844302490234375,-0.408974289894104,0.2997821271419525,0.015271631069481373
1747978229930566400,2.86256640625,-0.3729332387447357,0.1391245573759079,0.1736384481191635
1747978229948833800,2.880833740234375,-0.342695415019989,-0.10842858254909515,0.22770002484321594
1747978229967094500,2.899094482421875,-0.3481931984424591,-0.2730567753314972,0.1609629988670349
1747978229985360000,2.91735986328125,-0.38667771220207214,-0.2376265823841095,0.024892758578062057
1747978230003623400,2.93562353515625,-0.4001167416572571,0.007024950347840786,-0.08628471940755844
1747978230021893400,2.953893310546875,-0.4170682430267334,0.26282477378845215,-0.05314527451992035
1747978230040152000,2.972152099609375,-0.42577308416366577,0.34208452701568604,0.10751228034496307
1747978230058413800,2.990413818359375,-0.34773504734039307,0.19868391752243042,0.2093740701675415
1747978230076678400,3.008678466796875,-0.2519819140434265,-0.06261368840932846,0.20861047506332397
1747978230094947600,3.026947509765625,-0.1690569519996643,-0.2548835277557373,0.05726861581206322
1747978230113213400,3.04521337890625,-0.12538009881973267,-0.17867808043956757,-0.1293507218360901
1747978230131477000,3.06347705078125,-0.11423180252313614,0.13255776464939117,-0.20815233886241913
1747978230149741600,3.081741455078125,-0.1437060534954071,0.4199698567390442,-0.17959438264369965
1747978230168007200,3.100007080078125,-0.20097467303276062,0.38438695669174194,-0.1391245573759079
1747978230186270500,3.1182705078125,-0.23655757308006287,-0.016035212203860283,-0.07895433157682419
1747978230204535600,3.13653564453125,-0.24846944212913513,-0.727082371711731,0.025045474991202354
1747978230222800000,3.1547998046875,-0.1849394589662552,-1.0819950103759766,0.2142609804868698
1747978230241065500,3.1730654296875,-0.0780380368232727,-0.797789990901947,0.4761694669723511
1747978230259329000,3.1913291015625,0.08414668589830399,0.04612032696604729,0.7848091125488281
1747978230277593900,3.20959375,0.21930062770843506,0.6953173875808716,0.9847147464752197
1747978230295857000,3.22785693359375,0.32039880752563477,0.7956519722938538,0.9870055317878723
1747978230314124000,3.2461240234375,0.3732386529445648,0.4567744731903076,0.846659243106842
1747978230332377000,3.264377197265625,0.3156646192073822,0.06200282275676727,0.5787948369979858
1747978230350654700,3.28265478515625,0.2603813111782074,-0.16493362188339233,0.29917123913764954
1747978230368918000,3.30091796875,0.2996293902397156,-0.3068070709705353,0.13576480746269226
1747978230387180800,3.319180908203125,0.3929390609264374,-0.4118759036064148,0.09407325088977814
1747978230405441800,3.33744189453125,0.4331034719944,-0.45921793580055237,0.1137736514210701
1747978230423710200,3.355710205078125,0.4011857509613037,-0.4456261992454529,0.16814066469669342
1747978230441974800,3.373974853515625,0.3243694305419922,-0.39675697684288025,0.2695443034172058
1747978230460240600,3.39224072265625,0.22449298202991486,-0.2646573781967163,0.30711251497268677
1747978230478504000,3.41050390625,0.20204368233680725,-0.09468411654233932,0.24602597951889038
1747978230496768800,3.428768798828125,0.26083946228027344,0.024892758578062057,0.12996158003807068
1747978230515033000,3.447033203125,0.33948835730552673,0.015577063895761967,0.028405234217643738
1747978230533298700,3.465298583984375,0.41263946890830994,-0.04841107130050659,-0.012217304669320583
1747978230551562500,3.4835625,0.43875396251678467,-0.1186605766415596,0.021532999351620674
1747978230569827800,3.501827880859375,0.389426589012146,-0.1719585657119751,0.07147123664617538
1747978230588086300,3.520086181640625,0.2942843437194824,-0.12492194026708603,0.1437060534954071
1747978230606356200,3.538356201171875,0.17241671681404114,-0.052381694316864014,0.23686300218105316
1747978230624622000,3.5566220703125,0.05772676691412926,-0.019853120669722557,0.3507893681526184
1747978230642884400,3.57488427734375,-0.017409659922122955,0.07254024595022202,0.46990808844566345
1747978230661150700,3.593150634765625,-0.10247264802455902,0.029932396486401558,0.5076290369033813
1747978230679411000,3.611410888671875,-0.1872301995754242,-0.07864890247583389,0.4392121136188507
1747978230697679000,3.62967919921875,-0.2664899528026581,-0.1488984078168869,0.2793181240558624
1747978230715944000,3.64794384765625,-0.3173444867134094,-0.029626963660120964,0.048716504126787186
1747978230734207000,3.66620703125,-0.28695395588874817,0.35414913296699524,-0.13377949595451355
1747978230752475000,3.684474853515625,-0.19517144560813904,0.8494081497192383,-0.24862214922904968
1747978230770737400,3.7027373046875,-0.13729196786880493,1.0709995031356812,-0.4050036668777466
1747978230789002200,3.721002197265625,-0.15592335164546967,0.6010913848876953,-0.7260133624076843
1747978230807266800,3.739266845703125,-0.20952677726745605,-0.5714644193649292,-1.1690434217453003
1747978230825532400,3.757532470703125,-0.25854870676994324,-1.5789339542388916,-1.4760031700134277
1747978230843791400,3.775791259765625,-0.289702832698822,-1.7626516819000244,-1.4427109956741333
1747978230862059300,3.794059326171875,-0.3045163154602051,-0.9957103729248047,-1.0994046926498413
1747978230880326100,3.812326171875,-0.3257438838481903,0.299018532037735,-0.6010913848876953
1747978230898587100,3.830587158203125,-0.4876231849193573,0.7742717266082764,-0.3376557528972626
1747978230916853200,3.848853271484375,-0.5523748993873596,0.7136433124542236,-0.18417587876319885
1747978230935120100,3.8671201171875,-0.6003278493881226,0.24556782841682434,-0.14645494520664215
1747978230953383700,3.8853837890625,-0.6916521787643433,-0.3139847218990326,-0.18035796284675598
1747978230971649000,3.90364892578125,-0.782976508140564,-0.7869471311569214,-0.19379699230194092
1747978230989912600,3.92191259765625,-0.7967209815979004,-0.8249735236167908,-0.10705413669347763
1747978231008177200,3.94017724609375,-0.7067710757255554,-0.5462662577629089,0.08277224004268646
1747978231026438000,3.95843798828125,-0.5722280144691467,-0.07880161702632904,0.22067506611347198
1747978231044707600,3.97670751953125,-0.48838675022125244,0.07513642311096191,0.1814269721508026
1747978231062971000,3.994970947265625,-0.40973785519599915,0.18600846827030182,0.11102475970983505
1747978231081235500,4.0132353515625,-0.4105014503002167,0.31581732630729675,0.08231408894062042
1747978231099495400,4.031495361328125,-0.4766276180744171,0.3378084897994995,0.048258353024721146
1747978231117764600,4.0497646484375,-0.5141957998275757,0.3245221674442291,0.02733621932566166
1747978231136030700,4.06803076171875,-0.4645630121231079,0.32360586524009705,0.03985895588994026
1747978231154294000,4.0862939453125,-0.37201693654060364,0.3271183371543884,0.056352317333221436
1747978231172558600,4.10455859375,-0.299018532037735,0.31612277030944824,0.07360926270484924
1747978231199955200,4.131955078125,-0.3010038435459137,0.1342376321554184,0.023518312722444534
1747978231218220300,4.15022021484375,-0.29764407873153687,0.04214970022439957,-0.07559457421302795
1747978231236484400,4.168484375,-0.23625212907791138,0.23411411046981812,-0.156686931848526
1747978231254749700,4.186749755859375,-0.15531249344348907,0.5232060551643372,-0.17272214591503143
1747978231273013200,4.20501318359375,-0.12599095702171326,0.49984049797058105,-0.1417207419872284
1747978231291278600,4.223278564453125,-0.07177666574716568,0.13805554807186127,-0.18066339194774628
1747978231309542400,4.24154248046875,-0.04963280260562897,0.10094548016786575,-0.13454307615756989
1747978231327808000,4.25980810546875,-0.1365283876657486,0.058795779943466187,0.007788531947880983
1747978231346064100,4.278064208984375,-0.1739438772201538,0.2675589919090271,0.2577851414680481
1747978231364340000,4.296340087890625,-0.20983220636844635,0.48380526900291443,0.44104471802711487
1747978231382601200,4.314601318359375,-0.2825251817703247,0.5229006409645081,0.3880521357059479
1747978231400860400,4.3328603515625,-0.37308594584465027,0.11209376901388168,0.11301007121801376
1747978231419130400,4.35113037109375,-0.4213443100452423,-0.5413793325424194,-0.22357667982578278
1747978231437400000,4.369400146484375,-0.3972151279449463,-0.6472117304801941,-0.34086281061172485
1747978231455659300,4.3876591796875,-0.3058907687664032,-0.11743884533643723,-0.1589776873588562
1747978231473924600,4.405924560546875,-0.14905111491680145,0.6409503817558289,0.15836681425571442
1747978231492188700,4.424188720703125,-0.002138028386980295,0.988074541091919,0.3491095006465912
1747978231510449200,4.44244921875,0.12263119965791702,0.7808384895324707,0.30482175946235657
1747978231528716300,4.46071630859375,0.23625212907791138,0.1670716404914856,0.08231408894062042
1747978231546981600,4.478981689453125,0.33826664090156555,-0.5100724697113037,-0.09773843735456467
1747978231565247000,4.4972470703125,0.3943135142326355,-0.7628179788589478,-0.08689557760953903
1747978231583512300,4.51551220703125,0.3677408695220947,-0.5809328556060791,0.06444628536701202
1747978231601775900,4.53377587890625,0.31444287300109863,-0.26190847158432007,0.2834414839744568
1747978231620041500,4.55204150390625,0.24144448339939117,-0.11010845750570297,0.43020185828208923
1747978231638305300,4.57030517578125,0.18096883594989777,-0.07162395119667053,0.46792277693748474
1747978231656565500,4.5885654296875,0.1388191282749176,-0.14508049190044403,0.45982882380485535
1747978231674833400,4.60683349609375,0.11468994617462158,-0.2054034322500229,0.4938845634460449
1747978231693100800,4.625100830078125,0.060933809727430344,-0.24037547409534454,0.49327367544174194
1747978231711363600,4.643363525390625,0.09758572280406952,-0.29138273000717163,0.44974952936172485
1747978231729628700,4.661628662109375,0.0555887371301651,-0.17608191072940826,0.34406983852386475
1747978231747893800,4.679893798828125,0.1537853181362152,-0.02474004216492176,0.3263547718524933
1747978231766157300,4.6981572265625,0.28588494658470154,-0.06994406878948212,0.3295617997646332
1747978231784417000,4.7164169921875,0.4017966091632843,-0.20845776796340942,0.3579670190811157
1747978231802687500,4.7346875,0.2776382565498352,-0.7866417169570923,0.3326161205768585
1747978231820951300,4.752951416015625,0.03039054572582245,-1.250288486480713,0.31230485439300537
1747978231839216400,4.77121630859375,-0.10476338863372803,-1.2301298379898071,0.31642818450927734
1747978231857480400,4.78948046875,-0.1644754707813263,-1.0167851448059082,0.2606867551803589
1747978231875745500,4.80774560546875,-0.1336267739534378,0.20173825323581696,0.03833179548382759
1747978231894009600,4.826009521484375,0.036651913076639175,1.1459832191467285,-0.03833179548382759
1747978231912269800,4.844269775390625,0.13316862285137177,1.4078916311264038,-0.06185010448098183
1747978231930537700,4.862537841796875,0.14935655891895294,1.2733485698699951,-0.14798210561275482
1747978231948805000,4.88080517578125,0.19104810059070587,0.6627888083457947,-0.16249015927314758
1747978231967068200,4.899068115234375,0.25014930963516235,0.48548516631126404,-0.14004085958003998
1747978231985333000,4.9173330078125,0.30024027824401855,0.3568980097770691,-0.19715675711631775
1747978232003597000,4.93559716796875,0.2997821271419525,-0.023365596309304237,-0.33857205510139465
1747978232021861000,4.953861083984375,0.21288654208183289,-0.5407684445381165,-0.46043968200683594
1747978232040127500,4.97212744140625,0.055283304303884506,-0.7805330753326416,-0.4407392740249634
1747978232058394400,4.990394287109375,-0.10522153973579407,-0.7577783465385437,-0.2802344262599945
1747978232076655400,5.0086552734375,-0.17898350954055786,-0.5632177591323853,-0.008857546374201775
1747978232094920700,5.026920654296875,-0.13759739696979523,-0.3260493278503418,0.29474249482154846
1747978232113184800,5.045184814453125,-0.04138612002134323,-0.26633724570274353,0.48838675022125244
1747978232131446000,5.063446044921875,-0.024129176512360573,-0.26053401827812195,0.5308418869972229
1747978232149714000,5.0817138671875,-0.15454891324043274,-0.22082778811454773,0.40943244099617004
1747978232167979000,5.09997900390625,-0.3718642294406891,-0.144622340798378,0.21624629199504852
1747978232186241800,5.11824169921875,-0.5199990272521973,-0.017562376335263252,0.06215553730726242
1747978232204509400,5.136509521484375,-0.5175555944442749,0.13576480746269226,-0.013744467869400978
1747978232222772500,5.1547724609375,-0.3903428912162781,0.17073683440685272,-0.047800205647945404
1747978232241037600,5.17303759765625,-0.33276882767677307,-0.13011430203914642,-0.21135938167572021
1747978232259301400,5.19130126953125,-0.3488040566444397,-0.15622878074645996,-0.45982882380485535
1747978232277566700,5.209566650390625,-0.2721404731273651,-0.10491610318422318,-0.7017314434051514
1747978232295831300,5.227831298828125,-0.12797626852989197,-0.2145664244890213,-0.8753699064254761
1747978232314093800,5.24609375,-0.03436116874217987,-0.12064588814973831,-0.8596401214599609
1747978232332361200,5.264361328125,-0.039706241339445114,0.21105393767356873,-0.6614143252372742
1747978232350624800,5.282624755859375,-0.05619960278272629,0.5199990272521973,-0.3724750876426697
1747978232368888000,5.30088818359375,-0.017562376335263252,0.6349944472312927,-0.1713477075099945
1747978232387155200,5.3191552734375,0.08857546001672745,0.4789183437824249,-0.16768251359462738
1747978232405413400,5.337413330078125,0.17333301901817322,0.23151792585849762,-0.19013181328773499
1747978232423683300,5.355683349609375,0.16737708449363708,-0.3016147017478943,-0.20723603665828705
1747978232441946400,5.3739462890625,0.15882496535778046,-0.24678955972194672,-0.16982053220272064
1747978232460213500,5.392213623046875,0.07498370856046677,0.15103642642498016,-0.06322455406188965
1747978232478477300,5.410477294921875,-0.01771509274840355,0.4430300295352936,0.03787364438176155
1747978232496741600,5.42874169921875,0.13301590085029602,0.7050912380218506,0.11743884533643723
1747978232515000800,5.447000732421875,0.4280638098716736,0.7124215960502625,0.0959058403968811
1747978232533259000,5.465259033203125,0.6666067242622375,0.7455610036849976,0.03787364438176155
1747978232551534800,5.483534912109375,0.7272350788116455,0.7399105429649353,-0.08261952549219131
1747978232569800200,5.50180029296875,0.603076696395874,0.3205515444278717,-0.39553526043891907
1747978232588064000,5.52006396484375,0.39736783504486084,-0.44806966185569763,-0.7386888265609741
1747978232606329300,5.538329345703125,0.23335053026676178,-0.9772316813468933,-0.7980954647064209
1747978232624593200,5.55659326171875,0.12049316614866257,-1.0487029552459717,-0.5222898125648499
1747978232642857200,5.574857177734375,0.20616702735424042,-0.543059229850769,-0.03451388701796532
1747978232661123600,5.59312353515625,0.4349360466003418,0.20326541364192963,0.3260493278503418
1747978232679388200,5.61138818359375,0.5575672388076782,0.4639521539211273,0.2987131178379059
1747978232697651700,5.629651611328125,0.5624541640281677,0.4389066696166992,0.03375030308961868
1747978232715917000,5.6479169921875,0.5232060551643372,0.17562375962734222,-0.26481008529663086
1747978232734180400,5.666180419921875,0.47907108068466187,-0.20586158335208893,-0.437226802110672
1747978232752441900,5.68444189453125,0.4830417037010193,-0.4150829315185547,-0.4349360466003418
1747978232770705200,5.702705078125,0.5459607839584351,-0.41263946890830994,-0.2971859276294708
1747978232788974000,5.72097412109375,0.6356052756309509,-0.32818734645843506,-0.10262536257505417
1747978232807240400,5.739240478515625,0.7492262125015259,-0.23029619455337524,0.1667662113904953
1747978232825504300,5.757504150390625,0.8487972617149353,0.07131851464509964,0.470060795545578
1747978232843768600,5.7757685546875,0.8814785480499268,0.5861251950263977,0.7072292566299438
1747978232862033700,5.79403369140625,0.8286387324333191,0.7235698699951172,0.6898195743560791
1747978232880297500,5.81229736328125,0.703411340713501,0.18845193088054657,0.4634940028190613
1747978232898563300,5.830563232421875,0.6516404747962952,-0.10399980843067169,0.3237585723400116
1747978232916827600,5.84882763671875,0.6281222105026245,-0.23686300218105316,0.3026837408542633
1747978232935091200,5.86709130859375,0.5664247870445251,-0.24633140861988068,0.2971859276294708
1747978232953355800,5.885355712890625,0.5123631954193115,-0.17379115521907806,0.25595253705978394
1747978232971621400,5.903621337890625,0.512210488319397,-0.025503624230623245,0.19028452038764954
1747978232989884200,5.92188427734375,0.49984049797058105,0.007177666760981083,0.11621711403131485
1747978233008151300,5.9401513671875,0.4703662395477295,-0.05451972410082817,0.09743300825357437
1747978233026409500,5.958409423828125,0.4558582007884979,-0.14355333149433136,0.13775011897087097
1747978233044678700,5.9766787109375,0.39935314655303955,-0.32070425152778625,0.17928895354270935
1747978233062944800,5.99494482421875,0.299476683139801,-0.3225368559360504,0.22892175614833832
1747978233081208800,6.013208740234375,0.204487144947052,-0.2698497176170349,0.2292271852493286
1747978233099473200,6.03147314453125,0.15195272862911224,-0.22678372263908386,0.16752979159355164
1747978233117738000,6.049738037109375,0.17547103762626648,0.07483099400997162,0.08918632566928864
1747978233136001800,6.068001708984375,0.24297164380550385,0.299476683139801,-0.046731192618608475
1747978233154267100,6.08626708984375,0.2477058619260788,0.2076941877603531,-0.303600013256073
1747978233172531200,6.10453125,0.2047925740480423,0.09957103431224823,-0.6247624158859253
1747978233190796000,6.122796142578125,0.14049901068210602,-0.09178250283002853,-0.9224064946174622
1747978233209060400,6.141060302734375,0.05726861581206322,-0.22739458084106445,-1.0558805465698242
1747978233227325700,6.15932568359375,-0.031612277030944824,-0.10461067408323288,-0.9188940525054932
1747978233245589500,6.177589599609375,-0.050243668258190155,0.0981965884566307,-0.5676465034484863
1747978233263853600,6.195853515625,0.03848451003432274,0.23335053026676178,-0.1716531366109848
1747978233282115300,6.214115234375,0.1941024363040924,0.3484986126422882,0.09651670604944229
1747978233300383200,6.23238330078125,0.31932979822158813,0.4505131244659424,0.1748601794242859
1747978233318644500,6.25064453125,0.3446807265281677,0.4537201523780823,0.1014036312699318
1747978233336901400,6.2689013671875,0.3016147017478943,0.4505131244659424,-0.014966198243200779
1747978233355177200,6.28717724609375,0.2562579810619354,0.47998735308647156,-0.10002918541431427
1747978233373433600,6.30543359375,0.2344195395708084,0.46441030502319336,-0.12751811742782593
1747978233391705900,6.323705810546875,0.23609942197799683,0.3787364661693573,-0.10048733651638031
1747978233409971700,6.3419716796875,0.24602597951889038,0.2102903574705124,-0.06001751124858856
1747978233428235500,6.360235595703125,0.21334469318389893,-0.014202617108821869,0.10430523753166199
1747978233446500900,6.3785009765625,0.24144448339939117,0.036651913076639175,0.197004035115242
1747978233464764700,6.3967646484375,0.14767667651176453,0.24465152621269226,0.11209376901388168
1747978233483029800,6.41502978515625,0.0010690141934901476,0.02428189292550087,-0.0835358202457428
1747978233501293800,6.4332939453125,0.0757472887635231,-0.05467243865132332,-0.22663100063800812
1747978233519559000,6.451558837890625,0.2675589919090271,0.011453723534941673,-0.2168571650981903
1747978233537823500,6.469823486328125,0.43875396251678467,0.19578230381011963,-0.06719517707824707
1747978233556087000,6.488087158203125,0.4236350357532501,0.27779096364974976,0.08750644326210022
1747978233574353400,6.506353515625,0.3171917796134949,0.1368338167667389,0.19776763021945953
1747978233592617500,6.524617431640625,0.22418753802776337,0.14996741712093353,0.1443169116973877
1747978233610880500,6.542880615234375,0.0754418596625328,0.2893974184989929,-0.048716504126787186
1747978233629148000,6.56114794921875,-0.07757988572120667,0.6710354685783386,-0.16798794269561768
1747978233647406000,6.579406005859375,-0.1537853181362152,0.9424123764038086,-0.15302173793315887
1747978233665675800,6.59767578125,-0.06948592513799667,0.8784242272377014,-0.039095375686883926
1747978233683939800,6.61593994140625,0.1137736514210701,0.5238169431686401,0.07101308554410934
1747978233702205000,6.634204833984375,0.3119994103908539,0.04963280260562897,0.19456058740615845
1747978233720469200,6.65246923828125,0.3764457106590271,-0.1498146951198578,0.39553526043891907
1747978233738730000,6.67072998046875,0.2889392673969269,0.050854530185461044,0.6146831512451172
1747978233756998400,6.688998291015625,0.144622340798378,0.4127921760082245,0.4178318381309509
1747978233775263700,6.707263671875,0.01572977937757969,0.35521814227104187,-0.08445212244987488
1747978233793527300,6.72552734375,-0.04214970022439957,-0.06123924255371094,-0.6105598211288452
1747978233811791600,6.74379150390625,0.012980886735022068,-0.6433938145637512,-0.8558222055435181
1747978233830057700,6.7620576171875,0.13057245314121246,-0.8633053302764893,-0.6501133441925049
1747978233848322000,6.780322021484375,0.25702154636383057,-0.31291571259498596,-0.050243668258190155
1747978233866586000,6.798586181640625,0.31062498688697815,0.4398229718208313,0.5035057067871094
1747978233884845300,6.81684521484375,0.2768746614456177,0.7874053120613098,0.6682865619659424
1747978233903116300,6.8351162109375,0.20357084274291992,0.751669704914093,0.4827362596988678
1747978233921380900,6.853380859375,0.12996158003807068,0.45524731278419495,0.1609629988670349
1747978233939644400,6.87164453125,0.14034628868103027,-0.0025961773935705423,-0.08109235763549805
1747978233957909200,6.8899091796875,0.28756481409072876,-0.2893974184989929,-0.11713340878486633
1747978233976173800,6.908173828125,0.3908010423183441,-0.5827654600143433,-0.0555887371301651
1747978233994434600,6.9264345703125,0.5088507533073425,-0.616973876953125,0.022449297830462456
1747978234012702700,6.94470263671875,0.5071708559989929,-0.513126790523529,0.0009162978967651725
1747978234030967800,6.9629677734375,0.36621370911598206,-0.3599523603916168,-0.04856378585100174
1747978234049232100,6.981232177734375,0.18570303916931152,-0.031612277030944824,-0.04352414980530739
1747978234067497200,6.999497314453125,0.014202617108821869,0.32757648825645447,-0.0010690141934901476
1747978234094894800,7.026894775390625,-0.05268712714314461,0.47510045766830444,0.056352317333221436
1747978234113157000,7.0451572265625,0.04948008432984352,0.10384709388017654,0.09056077152490616
1747978234131419600,7.063419677734375,0.2838996350765228,-0.18524488806724548,0.23426681756973267
1747978234149687600,7.0816875,0.44852781295776367,-0.1667662113904953,0.5056437253952026
1747978234167952400,7.099952392578125,0.4024074673652649,-0.30925053358078003,0.7307475209236145
1747978234186217700,7.1182177734375,0.2203696370124817,-0.17806722223758698,0.5279402732849121
1747978234204481500,7.1364814453125,0.01237002108246088,-0.3828597962856293,0.1339322030544281
1747978234222745900,7.154745849609375,-0.08933904021978378,-0.6013968586921692,-0.10186178237199783
1747978234241010700,7.1730107421875,-0.06719517707824707,-0.5520694851875305,-0.10094548016786575
1747978234259276300,7.1912763671875,-0.0039706239476799965,-0.5032002329826355,0.03695734590291977
1747978234277540000,7.2095400390625,0.02871066704392433,-0.451123982667923,0.19654589891433716
1747978234295804400,7.227804443359375,0.0022907445672899485,-0.4804455041885376,0.22739458084106445
1747978234314068000,7.24606787109375,-0.04001167416572571,-0.49586987495422363,0.15027284622192383
1747978234332336000,7.264336181640625,-0.07681630551815033,-0.23518311977386475,0.0988074541091919
1747978234350593500,7.282593505859375,-0.14737124741077423,0.004123340360820293,-0.024892758578062057
1747978234368862000,7.300862060546875,-0.16783522069454193,0.12431107461452484,-0.2652682363986969
1747978234387128600,7.319128662109375,-0.10201449692249298,0.11056660860776901,-0.528245747089386
1747978234405397000,7.33739697265625,-0.07437284290790558,-0.05100724846124649,-0.6918048858642578
1747978234423657000,7.355656982421875,-0.1385136991739273,-0.17272214591503143,-0.7046330571174622
1747978234441921300,7.37392138671875,-0.22602014243602753,0.0039706239476799965,-0.5426010489463806
1747978234460186000,7.39218603515625,-0.3251330256462097,0.21960605680942535,-0.27458393573760986
1747978234478447900,7.41044775390625,-0.24862214922904968,0.41202861070632935,0.012980886735022068
1747978234496715300,7.42871533203125,-0.11988230794668198,0.39996400475502014,0.13454307615756989
1747978234514979600,7.4469794921875,-0.12171489745378494,0.19425514340400696,0.1108720451593399
1747978234533229800,7.465229736328125,-0.19685132801532745,0.07437284290790558,0.08017606288194656
1747978234551512300,7.48351220703125,-0.2541199326515198,-0.01618792861700058,0.04459316283464432
1747978234569773600,7.501773681640625,-0.2370157092809677,-0.0029016099870204926,0.03451388701796532
1747978234588038100,7.5200380859375,-0.19547687470912933,0.2154827117919922,0.07024950534105301
1747978234606303000,7.538302978515625,-0.19792033731937408,0.4512766897678375,0.098502017557621
1747978234624568800,7.55656884765625,-0.2269364446401596,0.46868637204170227,0.08445212244987488
1747978234642833000,7.5748330078125,-0.25473082065582275,0.34406983852386475,0.1036943718791008
1747978234661096000,7.593095947265625,-0.3248275816440582,0.5138903856277466,0.21914790570735931
1747978234679361300,7.611361328125,-0.4080579876899719,0.48548516631126404,0.23579397797584534
1747978234697622300,7.629622314453125,-0.3196352422237396,0.3776674270629883,0.1469130963087082
1747978234715889400,7.647889404296875,-0.08979719132184982,0.2330450862646103,-0.0024434609804302454
1747978234734155500,7.666155517578125,0.032528575509786606,0.16142113506793976,-0.1010981947183609
1747978234752415700,7.684415771484375,-0.02825251780450344,0.12599095702171326,-0.144622340798378
1747978234770685400,7.702685546875,-0.144622340798378,0.05375614017248154,-0.13011430203914642
1747978234788949200,7.72094921875,-0.2632829248905182,0.08032877743244171,-0.07452555745840073
1747978234807213800,7.7392138671875,-0.33689218759536743,0.1621847152709961,-0.021380282938480377
1747978234825478000,7.757477783203125,-0.3199406862258911,0.2539672255516052,0.043218716979026794
1747978234843744300,7.775744140625,-0.23839016258716583,0.34116822481155396,0.1333213448524475
1747978234862007600,7.794007568359375,-0.14538592100143433,0.3136793076992035,0.20204368233680725
1747978234880272100,7.812272216796875,-0.04642575979232788,0.19807305932044983,0.235030397772789
1747978234898536700,7.83053662109375,0.022602014243602753,0.08796459436416626,0.24678955972194672
1747978234916802600,7.848802490234375,0.042760565876960754,0.07024950534105301,0.2695443034172058
1747978234935065900,7.86706591796875,0.018020525574684143,0.2756529450416565,0.3121521472930908
1747978234953325600,7.88532568359375,0.012217304669320583,0.48609602451324463,0.2837468981742859
1747978234971595000,7.903594970703125,0.02779436856508255,0.3845396637916565,0.056352317333221436
1747978234989859600,7.921859619140625,0.02321287989616394,-0.2370157092809677,-0.3969096839427948
1747978235008125400,7.94012548828125,0.001527163083665073,-1.0273226499557495,-0.7573201656341553
1747978235026389500,7.958389404296875,-0.004581489134579897,-1.282817006111145,-0.6319400668144226
1747978235044653800,7.97665380859375,-0.015118914656341076,-0.7719809412956238,-0.06368270516395569
1747978235062919400,7.99491943359375,0.02580905705690384,0.20570887625217438,0.6047565937042236
1747978235081183000,8.013182861328126,0.14248432219028473,0.8585711121559143,0.8955284357070923
1747978235099443500,8.031443359375,0.21212296187877655,0.8600982427597046,0.6443101167678833
1747978235117712100,8.049712158203125,0.2148718535900116,0.47280970215797424,0.08888089656829834
1747978235135977700,8.067977783203125,0.23197607696056366,0.002138028386980295,-0.41661009192466736
1747978235154241300,8.0862412109375,0.2503020465373993,-0.3975205719470978,-0.6647741198539734
1747978235172506000,8.104506103515625,0.2353358417749405,-0.4908302128314972,-0.6157521605491638
1747978235190770400,8.1227705078125,0.17516560852527618,-0.41599923372268677,-0.3828597962856293
1747978235209032400,8.141032470703125,0.13148874044418335,-0.3119994103908539,-0.09086620807647705
1747978235227297800,8.1592978515625,0.1238529309630394,-0.16584990918636322,0.12492194026708603
1747978235245565700,8.177565673828125,0.13805554807186127,-0.09437867999076843,0.1820378452539444
1747978235263830300,8.195830322265625,0.1647808998823166,-0.0754418596625328,0.18417587876319885
1747978235282094000,8.214093994140624,0.21365012228488922,0.008704829961061478,0.25045475363731384
1747978235300358400,8.2323583984375,0.2915354371070862,-0.018478672951459885,0.3344487249851227
1747978235318618400,8.250618408203126,0.3182607889175415,-0.20494529604911804,0.4103487432003021
1747978235336886800,8.26888671875,0.24068090319633484,-0.3949243724346161,0.46868637204170227
1747978235355154200,8.287154296875,0.048716504126787186,-0.5254968404769897,0.5303837656974792
1747978235373413000,8.3054130859375,0.030237829312682152,-0.4124867618083954,0.5510004758834839
1747978235391681300,8.323681396484375,0.1287398487329483,-0.2405281960964203,0.3404046595096588
1747978235409945900,8.34194580078125,0.15546520054340363,-0.22617286443710327,0.11530081182718277
1747978235428211700,8.360211669921876,0.014202617108821869,-0.04306599870324135,0.07147123664617538
1747978235446475300,8.378475341796875,-0.22082778811454773,0.047800205647945404,0.09468411654233932
1747978235464734500,8.396734375,-0.3597996234893799,0.08261952549219131,0.1059851199388504
1747978235483004400,8.41500439453125,-0.34376442432403564,0.046273041516542435,0.05375614017248154
1747978235501271600,8.433271484375,-0.285121351480484,-0.19165897369384766,-0.04306599870324135
1747978235519533800,8.451533935546875,-0.21471913158893585,-0.28787025809288025,-0.05925392732024193
1747978235537798400,8.46979833984375,-0.12889257073402405,-0.08139779418706894,0.05146539583802223
1747978235556063200,8.488063232421876,-0.08216137439012527,0.2145664244890213,0.16523905098438263
1747978235574328800,8.506328857421876,-0.12202033400535583,0.29596421122550964,0.03375030308961868
1747978235592592100,8.524592041015625,-0.25045475363731384,0.02275473065674305,-0.43768495321273804
1747978235610856000,8.54285595703125,-0.49617528915405273,-0.44913867115974426,-1.0222829580307007
1747978235629122800,8.561122802734374,-0.6867652535438538,-0.47250425815582275,-1.2191343307495117
1747978235647388400,8.579388427734376,-0.716697633266449,0.1463022232055664,-0.8662069439888
1747978235665650700,8.597650634765625,-0.5213735103607178,1.1740829944610596,-0.18051068484783173
1747978235683915500,8.61591552734375,-0.3439171314239502,1.2681562900543213,0.328340083360672
1747978235702180400,8.634180419921876,-0.20876319706439972,0.8069530129432678,0.5580254197120667
1747978235720441300,8.65244140625,-0.12034045159816742,0.3628539443016052,0.5364924073219299
1747978235738704400,8.670704345703125,-0.1563815027475357,-0.14752395451068878,0.2713768780231476
1747978235756975400,8.688975341796874,-0.25335636734962463,-0.4703662395477295,-0.0555887371301651
1747978235775238700,8.70723876953125,-0.2649627923965454,-0.5163338780403137,-0.27122417092323303
1747978235793504800,8.7255048828125,-0.21624629199504852,-0.4063780903816223,-0.34758231043815613
1747978235811768300,8.743768310546875,-0.1872301995754242,-0.21884247660636902,-0.31322115659713745
1747978235830032600,8.76203271484375,-0.18280142545700073,0.005192354787141085,-0.20983220636844635
1747978235848297200,8.780297119140625,-0.18997909128665924,0.17928895354270935,-0.12476922571659088
1747978235866563000,8.79856298828125,-0.23594669997692108,0.23625212907791138,-0.11331550031900406
1747978235884827400,8.816827392578125,-0.29016098380088806,0.1667662113904953,-0.11331550031900406
1747978235903090700,8.835090576171876,-0.2838996350765228,0.08139779418706894,-0.09147707372903824
1747978235921356000,8.85335595703125,-0.19853121042251587,0.04566217586398125,-0.04764748737215996
1747978235939621600,8.87162158203125,-0.07192938029766083,0.1186605766415596,0.033597588539123535
1747978235957884400,8.889884521484374,-0.01817324012517929,0.17440202832221985,0.10995574295520782
1747978235976150800,8.90815087890625,-0.04932736977934837,0.0455094613134861,0.11163562536239624
1747978235994410000,8.926409912109374,-0.0861319974064827,-0.156686931848526,0.043218716979026794
1747978236012680400,8.944680419921875,-0.1365283876657486,-0.20876319706439972,-0.00931569468230009
1747978236030943700,8.96294384765625,-0.20341812074184418,0.01237002108246088,0.010690141469240189
1747978236049208300,8.981208251953126,-0.2606867551803589,0.385303258895874,0.08704829961061478
1747978236067468300,8.99946826171875,-0.25503623485565186,0.5801692605018616,0.1472185254096985
1747978236085739000,9.017739013671875,-0.1699732542037964,0.5555819272994995,0.18875735998153687
1747978236104002600,9.03600244140625,-0.07070764899253845,0.521984338760376,0.24724771082401276
1747978236122267100,9.05426708984375,-0.054825156927108765,0.030695978552103043,0.20097467303276062
1747978236140531700,9.07253173828125,-0.07284568250179291,-0.2889392673969269,0.12049316614866257
1747978236158797600,9.090797607421875,-0.14935655891895294,0.0039706239476799965,0.12034045159816742
1747978236177060900,9.109060791015626,-0.304210901260376,0.13209961354732513,0.08139779418706894
1747978236195325700,9.12732568359375,-0.24465152621269226,0.0806342139840126,-0.15546520054340363
1747978236213578500,9.14557861328125,0.10567969083786011,-0.2073887437582016,-0.5803219676017761
1747978236231854600,9.1638544921875,0.370947927236557,-0.5154175758361816,-1.000749945640564
1747978236250119400,9.182119384765626,0.17638733983039856,-0.5615378618240356,-0.9442449808120728
1747978236268386300,9.20038623046875,-0.31444287300109863,0.03298672288656235,-0.7651087045669556
1747978236286648800,9.21864892578125,-0.4161519408226013,0.6792821288108826,-0.651945948600769
1747978236304914700,9.236914794921875,0.08261952549219131,1.0514518022537231,-0.5508477091789246
1747978236323173600,9.255173583984375,0.5949827432632446,1.2487612962722778,-0.45784351229667664
1747978236341439200,9.273439208984374,0.790154218673706,1.4517213106155396,-0.4031710624694824
1747978236359707600,9.291707763671875,0.7996225953102112,1.5459471940994263,-0.33276882767677307
1747978236377973200,9.30997314453125,0.7811439037322998,1.24647057056427,-0.1313360333442688
1747978236396237000,9.328237060546876,0.7295258045196533,0.5459607839584351,0.3039054572582245
1747978236414501400,9.34650146484375,0.6747006773948669,0.07147123664617538,1.0228939056396484
1747978236432766200,9.36476611328125,0.318566232919693,-0.17333301901817322,1.7675385475158691
1747978236451031800,9.38303173828125,-0.19608774781227112,-1.1717922687530518,1.8530597686767578
1747978236469301800,9.4013017578125,-0.5725334286689758,-3.230255365371704,1.1049025058746338
1747978236487560200,9.419560302734375,-0.7139487266540527,-3.7029123306274414,0.7470881938934326
1747978236505825300,9.4378251953125,-1.1728612184524536,-1.4947872161865234,-0.10903944820165634
1747978236524089000,9.456089111328126,-0.5920811295509338,0.6317873597145081,-0.6050620079040527
1747978236542355500,9.47435546875,0.2687807083129883,1.1187996864318848,-1.2525792121887207
1747978236560618800,9.49261865234375,0.33246341347694397,0.23747386038303375,-1.374599575996399
1747978236578877700,9.510877685546875,-0.007635815534740686,-0.4360050559043884,-0.9660834074020386
1747978236597149400,9.5291494140625,0.04245513305068016,-0.003054326167330146,-0.3127630054950714
1747978236615409400,9.547409423828125,0.38667771220207214,0.88361656665802,0.1469130963087082
1747978236633677600,9.565677490234375,0.4434881806373596,1.3003793954849243,0.6194173693656921
1747978236651942100,9.583942138671874,0.28206703066825867,1.7108808755874634,1.078940749168396
1747978236679339000,9.611339111328125,0.37491855025291443,1.514182209968567,0.813825249671936
1747978236697604400,9.629604248046874,0.3452915847301483,0.5274821519851685,-0.12324206531047821
1747978236715867100,9.6478671875,0.380721777677536,-0.10216721147298813,-0.7670940160751343
1747978236734133800,9.6661337890625,0.8495608568191528,-0.40103304386138916,-0.884227454662323
1747978236752400600,9.684400634765625,1.3652838468551636,-1.0005972385406494,-0.5765040516853333
1747978236770662700,9.70266259765625,1.4370604753494263,-1.1982121467590332,-0.3871358633041382
1747978236788927200,9.72092724609375,0.8894197940826416,-1.4268285036087036,-0.05314527451992035
1747978236807192300,9.7391923828125,0.5552765130996704,-1.6250542402267456,-0.2145664244890213
1747978236825461500,9.75746142578125,0.49266281723976135,-2.023491144180298,-0.6539312601089478
1747978236843721700,9.7757216796875,0.029932396486401558,-2.7152960300445557,-0.5510004758834839
1747978236861985800,9.79398583984375,-0.4222606122493744,-2.579378604888916,-0.34834590554237366
1747978236880251000,9.8122509765625,-0.48090365529060364,-2.1934642791748047,-0.8235990405082703
1747978236898515200,9.83051513671875,-0.5248859524726868,-2.252412796020508,-0.7667886018753052
1747978236916780300,9.8487802734375,-0.6624833345413208,-2.50714373588562,-0.1817324161529541
1747978236935044600,9.867044677734375,-0.5247332453727722,-2.7429375648498535,0.28817567229270935
1747978236953309400,9.885309326171875,-0.3926336467266083,-3.0865492820739746,0.5520694851875305
1747978236971574000,9.903573974609374,-0.3072652220726013,-3.796985626220703,0.8559749126434326
1747978236989837800,9.921837890625,-0.17776179313659668,-4.606687545776367,1.0378600358963013
1747978237008104400,9.9401044921875,0.2477058619260788,-5.527719497680664,0.9613491892814636
1747978237026368300,9.9583681640625,0.7939720749855042,-6.306878089904785,0.8417723178863525
1747978237053765000,9.98576513671875,1.7912095785140991,-6.561151027679443,0.08078692853450775
1747978237072029400,10.004029541015624,2.3525948524475098,-6.146984100341797,-0.2750420868396759
1747978237090294000,10.0222939453125,2.490192174911499,-5.503284931182861,-0.4303545653820038
1747978237108560400,10.040560302734375,2.5257749557495117,-4.813159942626953,-0.4219551682472229
1747978237126823700,10.05882373046875,3.0831897258758545,-4.166711807250977,-0.5765040516853333
1747978237145088300,10.077088134765624,3.6693148612976074,-4.011094093322754,-0.7896960377693176
1747978237163353300,10.095353271484376,4.180914402008057,-3.8033998012542725,-0.12797626852989197
1747978237181619200,10.113619140625,3.877467155456543,-4.376696586608887,0.19868391752243042
1747978237199881700,10.1318818359375,3.6413676738739014,-4.259410858154297,1.063821792602539
1747978237218148000,10.150148193359374,3.7449092864990234,-4.068820476531982,1.5291484594345093
1747978237236407300,10.1684072265625,3.838677167892456,-3.4377968311309814,1.8324429988861084
1747978237254678000,10.186677978515625,3.5773797035217285,-2.6474900245666504,2.0624337196350098
1747978237272941000,10.204941162109375,3.0164525508880615,-1.785253643989563,2.0693061351776123
1747978237291206000,10.223205810546874,2.529287576675415,-0.7203628420829773,1.7753270864486694
1747978237309470700,10.241470703125,2.247373342514038,0.014049900695681572,1.1748465299606323
1747978237327736300,10.259736328125,2.147191286087036,0.4827362596988678,0.6027712821960449
1747978237345995000,10.2779951171875,2.1839959621429443,0.5459607839584351,0.4792237877845764
1747978237364266500,10.2962666015625,2.11283016204834,0.34345898032188416,0.6290385127067566
1747978237382528000,10.314528076171875,1.8681786060333252,0.08048149943351746,0.8177958726882935
1747978237400795400,10.33279541015625,1.691791296005249,-0.005497787147760391,0.8113817572593689
1747978237419059000,10.351058837890625,1.777006983757019,0.15806138515472412,0.5902485251426697
1747978237437323500,10.369323486328126,1.9703458547592163,0.3675881624221802,0.5977316498756409
1747978237455588400,10.38758837890625,1.831526756286621,0.47280970215797424,0.9723447561264038
1747978237473853000,10.40585302734375,1.1925616264343262,0.5253441333770752,1.4883731603622437
1747978237492118800,10.424118896484375,0.49846604466438293,0.6863071322441101,1.7235562801361084
1747978237510383000,10.442383056640624,0.05726861581206322,0.8910996913909912,1.5599970817565918
1747978237528642000,10.46064208984375,0.0006108652451075613,1.2683089971542358,1.2084441184997559
1747978237546913000,10.4789130859375,0.28619036078453064,1.7964019775390625,0.8874344825744629
1747978237565176600,10.497176513671874,0.5380195379257202,1.8570303916931152,0.7780895829200745
1747978237583437300,10.515437255859375,0.4784601926803589,1.4993687868118286,0.983340322971344
1747978237601701000,10.533701171875,0.3361285924911499,0.9286679029464722,1.3978123664855957
1747978237619970600,10.551970458984375,0.21380282938480377,0.38377609848976135,1.9573649168014526
1747978237638232000,10.570232177734376,0.3318525552749634,-0.05650503560900688,2.601980447769165
1747978237656500000,10.5885,0.5348125100135803,-0.11682797968387604,2.958878517150879
1747978237674767000,10.60676708984375,0.7107416987419128,-0.32940909266471863,2.8342621326446533
1747978237693025800,10.62502587890625,0.4616613984107971,-0.48380526900291443,2.507296323776245
1747978237711291100,10.643291015625,-0.06368270516395569,-0.152105450630188,1.751503348350525
1747978237729552100,10.66155224609375,-0.16493362188339233,0.4121813178062439,0.0907134860754013
1747978237747820500,10.679820556640625,-0.47479501366615295,0.2765692472457886,-0.956156849861145
1747978237784353000,10.71635302734375,-1.6391041278839111,-1.0925325155258179,-0.9001099467277527
1747978237802617600,10.73461767578125,-2.578920364379883,-1.9207130670547485,-1.1131491661071777
1747978237820881200,10.752881103515625,-4.267504692077637,-2.302962064743042,-0.8790351152420044
1747978237839149300,10.7711494140625,-4.945717811584473,-1.9541579484939575,-0.47189339995384216
1747978237857400000,10.789400146484375,-4.80460786819458,-1.1679743528366089,-0.27550023794174194
1747978237875676400,10.807676513671876,-4.0552287101745605,-1.4856243133544922,-0.7622070908546448
1747978237893941200,10.825941162109375,-3.304628372192383,-2.068237066268921,-0.8869763612747192
1747978237912206800,10.844206787109375,-2.4184155464172363,-1.6362025737762451,-0.8634580373764038
1747978237930470700,10.862470703125,-1.5946637392044067,-0.9392052888870239,-1.3622294664382935
1747978237948730600,10.880730712890625,-1.4161384105682373,-0.6131559610366821,-1.6175711154937744
1747978237966999000,10.8989990234375,-1.6604844331741333,-0.7093672752380371,-1.2638801336288452
1747978237985267000,10.917266845703125,-1.8646661043167114,-0.6569855809211731,-0.8268061280250549
1747978238003529200,10.935529296875,-1.6850718259811401,-0.5206099152565002,-0.6302602291107178
1747978238021793800,10.953793701171875,-1.2308934926986694,-0.612850546836853,-0.5032002329826355
1747978238040059000,10.972058837890625,-0.5977316498756409,-1.2391401529312134,-0.5216789245605469
1747978238058325000,10.990324951171875,0.38499781489372253,-1.6895005702972412,-0.9708175659179688
1747978238076588300,11.00858837890625,1.154382586479187,-2.074040174484253,-2.0198259353637695
1747978238094851800,11.026851806640625,1.758681058883667,-3.1557297706604004,-2.705369472503662
1747978238113118700,11.04511865234375,2.687959909439087,-5.088354587554932,-2.6170995235443115
1747978238131383800,11.0633837890625,3.933208703994751,-5.510462760925293,-1.902539849281311
1747978238149647000,11.081647216796876,4.768566608428955,-3.805385112762451,-0.8527678847312927
1747978238167912000,11.099911865234375,5.194187164306641,-1.2344059944152832,0.12324206531047821
1747978238186176500,11.118176513671875,6.005874156951904,-0.42241331934928894,0.48166725039482117
1747978238204437500,11.1364375,6.901249885559082,-0.4066835343837738,0.17012597620487213
1747978238222704600,11.15470458984375,7.001737594604492,-0.3878994286060333,-0.18020524084568024
1747978238240972000,11.172971923828126,6.073527812957764,0.18005253374576569,-0.41523563861846924
1747978238259235300,11.1912353515625,4.657236576080322,0.5300782918930054,-0.4746423065662384
1747978238277501200,11.209501220703125,3.196505069732666,0.15012013912200928,-0.1866193264722824
1747978238295764700,11.2277646484375,1.9587393999099731,-0.7632761001586914,0.4622722864151001
1747978238314028500,11.246028564453125,1.3978123664855957,-1.8694003820419312,0.8361217975616455
1747978238332295200,11.264295166015625,1.2635747194290161,-2.6285531520843506,0.9260717034339905
1747978238350560000,11.28256005859375,1.4340062141418457,-3.0610456466674805,0.942259669303894
1747978238368833300,11.300833251953126,1.7913622856140137,-3.146414279937744,1.0264062881469727
1747978238387088400,11.31908837890625,2.0557143688201904,-3.1752774715423584,1.3706289529800415
1747978238405353200,11.337353271484375,2.400853157043457,-3.1201469898223877,1.9443840980529785
1747978238423619000,11.355619140625,2.7391197681427,-2.847090244293213,2.8021914958953857
1747978238441880600,11.373880615234375,3.053562641143799,-0.8414669036865234,3.268434524536133
1747978238460144600,11.39214453125,2.493093729019165,3.07692813873291,1.4098769426345825
1747978238478406000,11.410406005859375,1.072221279144287,3.542865753173828,-0.8243626356124878
1747978238496679200,11.42867919921875,-0.4657847583293915,0.7020368576049805,-0.6650795340538025
1747978238514930400,11.446930419921875,-1.1658363342285156,-0.6757696866989136,0.2701551616191864
1747978238533206500,11.46520654296875,-0.9198103547096252,-0.22327125072479248,0.8263479471206665
1747978238551470800,11.483470947265625,-0.5893322229385376,0.418748140335083,0.8248208165168762
1747978238569737000,11.501737060546875,-0.5535966157913208,0.31932979822158813,0.33658674359321594
1747978238588000500,11.52000048828125,-0.2736676335334778,0.2816088795661926,-0.3173444867134094
1747978238606265300,11.538265380859375,0.14752395451068878,0.4915938079357147,-0.6075055003166199
1747978238624530000,11.556530029296875,0.27779096364974976,-0.1999056488275528,0.14233160018920898
1747978238642796000,11.574796142578125,0.06933320313692093,-1.3868168592453003,1.0589349269866943
1747978238661047600,11.593047607421875,0.11927144229412079,-1.4324790239334106,1.1872166395187378
1747978238679324200,11.61132421875,0.19043724238872528,-0.8393288254737854,0.8675813674926758
1747978238697571300,11.6295712890625,0.05146539583802223,-0.07620543986558914,0.5244278311729431
1747978238715853600,11.647853515625,-0.09941831976175308,0.447000652551651,0.41172316670417786
1747978238734118400,11.666118408203126,-0.19914206862449646,0.47051894664764404,0.618195652961731
1747978238752385000,11.684385009765625,-0.11621711403131485,0.25534167885780334,1.2293663024902344
1747978238770647600,11.7026474609375,-0.09666942805051804,-0.28817567229270935,1.9845484495162964
1747978238788908800,11.72090869140625,-0.19303341209888458,-0.4830417037010193,2.2375993728637695
1747978238807177200,11.73917724609375,-0.1371392458677292,-0.06230825558304787,1.7983872890472412
1747978238825438700,11.757438720703124,0.013897184282541275,0.4766276180744171,0.9996809959411621
1747978238843707000,11.775706787109375,0.12736541032791138,0.5815436840057373,0.48319441080093384
1747978238861973000,11.793972900390624,0.17073683440685272,0.27259862422943115,0.447000652551651
1747978238880236300,11.812236328125,0.20876319706439972,-0.1849394589662552,0.6878342628479004
1747978238898500900,11.8305009765625,0.3000875413417816,-0.6924157738685608,0.9841039180755615
1747978238916765700,11.848765625,0.3868304193019867,-0.9908234477043152,1.1423180103302002
1747978238935031800,11.86703173828125,0.4167627990245819,-1.0085384845733643,1.1785117387771606
1747978238953295000,11.885295166015625,0.3888157308101654,-0.8454375267028809,1.1786644458770752
1747978238971555300,11.903555419921876,0.31612277030944824,-0.6110179424285889,1.1400272846221924
1747978238989823700,11.92182373046875,0.37491855025291443,-0.3901901841163635,1.1045970916748047
1747978239008091600,11.940091552734375,0.4714352488517761,-0.16310101747512817,0.8970556259155273
1747978239026354200,11.958354248046875,0.4951062798500061,0.03985895588994026,0.45723262429237366
1747978239044619300,11.976619384765625,0.41599923372268677,0.07422012835741043,0.15806138515472412
1747978239062878000,11.9948779296875,0.3364340364933014,0.09834930300712585,0.08017606288194656
1747978239081150700,12.013150634765625,0.2970332205295563,0.09712757170200348,-0.08124507963657379
1747978239099408600,12.03140869140625,0.2733621895313263,0.0013744467869400978,-0.12858712673187256
1747978239117678000,12.049677978515625,0.2577851414680481,0.2200642079114914,0.04352414980530739
1747978239135943000,12.06794287109375,0.1495092660188675,0.8443684577941895,0.12171489745378494
1747978239154208000,12.0862080078125,-0.11636982858181,1.4701999425888062,-0.3764457106590271
1747978239172473300,12.104473388671876,-0.42638394236564636,1.1151344776153564,-1.6198619604110718
1747978239190737200,12.122737060546875,-0.6357579827308655,0.1609629988670349,-2.6736044883728027
1747978239209001500,12.14100146484375,-0.5780312418937683,-0.6565274000167847,-3.1335859298706055
1747978239227267800,12.159267822265624,-0.512210488319397,-1.1227703094482422,-3.366783857345581
1747978239245531400,12.177531494140625,-0.5705481171607971,-0.8141306638717651,-3.4064900875091553
1747978239263796000,12.1957958984375,-0.6511823534965515,0.18188512325286865,-3.1563408374786377
1747978239282060800,12.214060791015624,-0.4346306324005127,1.3266465663909912,-2.757751226425171
1747978239300327000,12.232326904296874,-0.22220222651958466,2.3218986988067627,-2.353052854537964
1747978239318586400,12.25058642578125,-0.34956762194633484,2.699566125869751,-2.146580457687378
1747978239336854000,12.26885400390625,-0.5778785347938538,2.4804184436798096,-1.962557315826416
1747978239355121400,12.287121337890625,-0.7136433124542236,2.180941581726074,-1.5974125862121582
1747978239373386200,12.30538623046875,-0.8135197758674622,1.3744467496871948,-1.1965322494506836
1747978239391649800,12.32364990234375,-0.6661485433578491,-0.5010622143745422,-0.9934195876121521
1747978239409911800,12.341911865234374,-0.7334964275360107,-1.6988162994384766,-0.8600982427597046
1747978239428181500,12.360181396484375,-0.7438811659812927,-2.403602123260498,-0.7835873961448669
1747978239446440700,12.378440673828125,-0.6908885836601257,-2.528982162475586,-0.7409795522689819
1747978239464708600,12.39670849609375,-0.6285803318023682,-1.967902421951294,-0.5502368807792664
1747978239482973200,12.41497314453125,-0.6973026990890503,-1.2055425643920898,-0.266642689704895
1747978239501237200,12.4332373046875,-0.750142514705658,-0.46105054020881653,0.15164729952812195
1747978239519506400,12.45150634765625,-0.5659666657447815,-0.14523321390151978,0.585667073726654
1747978239537766100,12.46976611328125,-0.2396118938922882,-0.39217549562454224,1.035416603088379
1747978239556032300,12.4880322265625,0.08124507963657379,-0.8910996913909912,1.429577350616455
1747978239574291500,12.50629150390625,0.3943135142326355,-1.4037683010101318,1.7096590995788574
1747978239592563200,12.524563232421874,0.6583600044250488,-1.7931948900222778,1.9804251194000244
1747978239610826200,12.542826171875,1.0096075534820557,-2.202474594116211,2.2459988594055176
1747978239629093000,12.561093017578125,1.1749993562698364,-1.8009834289550781,2.3692407608032227
1747978239647356400,12.5793564453125,0.807563841342926,0.8113817572593689,1.8834502696990967
1747978239665622300,12.597622314453124,-0.08552113175392151,3.3538029193878174,0.18600846827030182
1747978239683884800,12.615884765625,-0.4184426963329315,1.886810064315796,-0.566119372844696
1747978239702151700,12.634151611328125,-0.7284567952156067,0.27870726585388184,0.07162395119667053
1747978239720410400,12.652410400390625,-0.26419922709465027,0.4853324294090271,0.49144110083580017
1747978239738676200,12.67067626953125,-0.022907447069883347,1.1520918607711792,-0.008704829961061478
1747978239756945000,12.68894482421875,0.01970040425658226,2.2658519744873047,-0.7673994898796082
1747978239775206000,12.707205810546874,0.010842857882380486,0.6224716901779175,-0.8028296232223511
1747978239793474600,12.725474609375,0.11041389405727386,-0.4222606122493744,0.10262536257505417
1747978239811740200,12.743740234375,0.166460782289505,0.12034045159816742,0.5670356750488281
1747978239829999400,12.761999267578124,0.14477506279945374,0.2301434874534607,0.3700316250324249
1747978239848267500,12.780267578125,0.337503045797348,-0.128434419631958,0.21044307947158813
1747978239866535000,12.798534912109375,0.6609562039375305,-1.4756977558135986,0.0328340083360672
1747978239884799500,12.816799560546874,0.7148650288581848,-3.0106494426727295,-0.030543262138962746
1747978239903063300,12.835063232421875,0.2779437005519867,-3.430924654006958,0.4105014503002167
1747978239921327900,12.853327880859375,-0.1843285858631134,-2.652071475982666,1.2803735733032227
1747978239939592700,12.8715927734375,-0.48059824109077454,-1.3365731239318848,2.255620002746582
1747978239957857300,12.889857177734376,-0.6140722632408142,0.34895676374435425,2.757445812225342
1747978239976124000,12.9081240234375,-0.517250120639801,2.124589204788208,2.543795585632324
1747978239994386400,12.926386474609375,-0.24129177629947662,3.173597574234009,1.8822284936904907
1747978240012653300,12.9446533203125,0.05360342562198639,2.9323058128356934,1.2388347387313843
1747978240030918000,12.96291796875,0.23105977475643158,2.1368067264556885,0.7898487448692322
1747978240049181700,12.981181640625,0.3825543522834778,1.266018271446228,0.5479460954666138
1747978240067442400,12.9994423828125,0.6123924255371094,0.37110063433647156,0.5485569834709167
1747978240085706500,13.01770654296875,0.8726209998130798,-0.6305656433105469,0.7851145267486572
1747978240103976000,13.035975830078126,1.024420976638794,-1.2524265050888062,0.9599747061729431
1747978240122241800,13.05424169921875,1.1649199724197388,-1.4480561017990112,1.1406381130218506
1747978240140505300,13.07250537109375,1.2279918193817139,-1.780824899673462,1.3715451955795288
1747978240158766300,13.090766357421876,1.2524265050888062,-2.0245602130889893,1.5457944869995117
1747978240177036300,13.109036376953124,1.2027937173843384,-1.17545747756958,1.3264938592910767
1747978240195300000,13.127300048828126,1.2620476484298706,0.16493362188339233,0.8118399381637573
1747978240213565000,13.14556494140625,1.5318973064422607,0.8520042896270752,0.3396410644054413
1747978240231830500,13.16383056640625,1.320690631866455,0.6143777370452881,-0.16752979159355164
1747978240250094800,13.1820947265625,0.45784351229667664,0.19547687470912933,-0.1563815027475357
1747978240268359400,13.200359375,-0.31642818450927734,-0.14798210561275482,0.2122756689786911
1747978240286624000,13.2186240234375,-1.3193162679672241,-0.4254676401615143,0.19593502581119537
1747978240304885500,13.236885498046876,-2.291355609893799,-0.11178833991289139,-0.03436116874217987
1747978240323157500,13.255157470703125,-2.610685348510742,1.0587822198867798,-0.3149010241031647
1747978240341414000,13.273413818359375,-2.107027053833008,1.9364428520202637,-0.7945829629898071
1747978240359682000,13.29168212890625,-1.178053617477417,1.807550311088562,-1.594205617904663
1747978240377949400,13.309949462890625,-0.7953465580940247,0.48685958981513977,-2.447889804840088
1747978240396214000,13.328214111328125,-0.7929030656814575,-1.0616837739944458,-3.065169095993042
1747978240414462700,13.346462646484374,-0.7046330571174622,-1.9900462627410889,-3.4884986877441406
1747978240432737800,13.36473779296875,-0.32039880752563477,-1.91231369972229,-3.5744779109954834
1747978240451007200,13.38300732421875,0.06841690838336945,-1.0592403411865234,-3.4098498821258545
1747978240469273300,13.4012734375,0.19318613409996033,0.22540926933288574,-3.098613977432251
1747978240496669400,13.42866943359375,0.1036943718791008,1.9886717796325684,-2.4182627201080322
1747978240514924000,13.446924072265626,-0.13515393435955048,2.563190460205078,-2.0670151710510254
1747978240533199000,13.46519921875,-0.3735440969467163,2.359619617462158,-1.7765488624572754
1747978240551463700,13.483463623046875,-0.43127086758613586,1.3646728992462158,-1.469894528388977
1747978240569728800,13.501728759765625,-0.28267788887023926,0.22937989234924316,-1.177748203277588
1747978240587993000,13.5199931640625,-0.11545353382825851,-0.750142514705658,-0.916450560092926
1747978240606258400,13.538258544921876,-0.1996002197265625,-1.3003793954849243,-0.660803496837616
1747978240624523000,13.55652294921875,-0.4239404797554016,-1.202946424484253,-0.5138903856277466
1747978240642784500,13.574784423828126,-0.5308418869972229,-0.8816312551498413,-0.46303585171699524
1747978240661051400,13.593051513671876,-0.4662429094314575,-0.6125451326370239,-0.34926220774650574
1747978240679319000,13.611319091796876,-0.34177911281585693,-0.5496259927749634,-0.19394971430301666
1747978240697582000,13.62958203125,-0.22418753802776337,-0.7304421067237854,-0.04214970022439957
1747978240715846100,13.64784619140625,-0.06536258012056351,-1.0005972385406494,0.18448130786418915
1747978240734112000,13.666112060546874,-0.10720685124397278,-1.162629246711731,0.6155994534492493
1747978240752378400,13.68437841796875,-0.014355333521962166,-1.3209960460662842,1.2131783962249756
1747978240770641700,13.7026416015625,0.22861631214618683,-1.616654872894287,1.8170186281204224
1747978240788906800,13.72090673828125,0.5470298528671265,-1.9004018306732178,2.3218986988067627
1747978240807171000,13.739171142578124,0.721737265586853,-2.0115792751312256,2.707507371902466
1747978240825432300,13.757432373046875,0.45402559638023376,-0.532369077205658,2.300213098526001
1747978240843700700,13.77570068359375,-0.41431936621665955,2.1897990703582764,0.7979426980018616
1747978240861966000,13.793966064453125,-0.35582900047302246,3.1859676837921143,-0.7506006956100464
1747978240880230400,13.81223046875,-0.3260493278503418,1.5334244966506958,-0.3854559659957886
1747978240898491100,13.8304912109375,-0.4714352488517761,0.8013024926185608,0.617584764957428
1747978240916755000,13.8487548828125,0.16722436249256134,0.7704538106918335,0.7710646390914917
1747978240935028200,13.8670283203125,0.48685958981513977,1.3939944505691528,-0.038637228310108185
1747978240953290000,13.8852900390625,0.31612277030944824,2.191937208175659,-0.7307475209236145
1747978240971555000,13.90355517578125,0.046731192618608475,1.9106338024139404,-0.3741549551486969
1747978240989819400,13.9218193359375,-0.22418753802776337,1.7996090650558472,0.25534167885780334
1747978241008084700,13.940084716796875,-0.35873061418533325,1.586722493171692,0.5539020895957947
1747978241026349000,13.95834912109375,-0.0754418596625328,1.732261061668396,0.9146180152893066
1747978241044614400,13.976614501953126,0.30405816435813904,0.8915578126907349,1.1374311447143555
1747978241062877400,13.99487744140625,0.6811147332191467,-0.26862800121307373,1.1933252811431885
1747978241081143800,14.013143798828125,0.7260133624076843,-1.0338894128799438,1.2811371088027954
1747978241099405000,14.031405029296875,0.5662720799446106,-1.5897767543792725,1.5163202285766602
1747978241117673700,14.049673828125,0.5112941861152649,-2.1838431358337402,1.8416060209274292
1747978241135935200,14.067935302734375,0.4764748811721802,-2.5411994457244873,2.02929425239563
1747978241154206000,14.0862060546875,0.3488040566444397,-1.945605754852295,1.8762725591659546
1747978241172468500,14.104468505859375,0.18341228365898132,0.0403171069920063,1.318858027458191
1747978241190733300,14.1227333984375,0.01664607785642147,2.057852268218994,0.7260133624076843
1747978241208997400,14.140997314453125,-0.12446379661560059,2.5784621238708496,0.3173444867134094
1747978241227263000,14.159262939453125,-0.12079860270023346,2.040900707244873,0.17073683440685272
1747978241245522400,14.1775224609375,0.11591167747974396,0.6637051105499268,0.5342016816139221
1747978241263792600,14.195792724609374,0.4109596014022827,-0.5861251950263977,0.9728028774261475
1747978241282056700,14.214056640625,0.527634859085083,-1.1618657112121582,1.0351111888885498
1747978241300322000,14.232322021484375,0.6068946123123169,-1.3602441549301147,0.9094256162643433
1747978241318586000,14.250586181640625,0.6159048676490784,-1.668120265007019,0.9385944604873657
1747978241336850700,14.2688505859375,0.3770565688610077,-2.113288402557373,1.224173903465271
1747978241355117000,14.287116943359376,0.13087788224220276,-1.887115478515625,1.510364294052124
1747978241373382700,14.305382568359375,0.26679539680480957,-0.4688390791416168,1.4051427841186523
1747978241391645400,14.3236455078125,0.5467243790626526,1.2431107759475708,0.683863639831543
1747978241409902800,14.34190283203125,0.6455318331718445,1.8849774599075317,0.048105638474226
1747978241428178200,14.36017822265625,0.6328563690185547,0.9845620393753052,0.10445795953273773
1747978241446438000,14.37843798828125,0.46303585171699524,0.3539963960647583,-0.049785517156124115
1747978241464705300,14.396705322265625,0.3917173445224762,0.10308351367712021,-0.11255192011594772
1747978241482971000,14.414970947265624,0.5065600275993347,-0.08231408894062042,0.04734205827116966
1747978241501230300,14.433230224609375,0.48976120352745056,0.005955935921519995,-0.07040221989154816
1747978241519500300,14.451500244140625,0.08567385375499725,0.8301658630371094,-0.7692320346832275
1747978241537764600,14.4697646484375,-0.4508185386657715,1.2733485698699951,-1.8400788307189941
1747978241556030200,14.4880302734375,-0.8984300494194031,0.8665123581886292,-2.5589144229888916
1747978241574294300,14.506294189453126,-1.3014483451843262,-0.12568552792072296,-2.8435776233673096
1747978241592559900,14.524559814453125,-1.4362969398498535,-0.9495900273323059,-3.0524935722351074
1747978241610824200,14.54282421875,-1.3894129991531372,-1.0322095155715942,-3.332880735397339
1747978241629089300,14.56108935546875,-0.998153805732727,-0.3871358633041382,-3.2699615955352783
1747978241647353900,14.579353759765626,-0.4277583956718445,1.0783299207687378,-2.774549961090088
1747978241665619200,14.597619140625,-0.16233743727207184,2.261423110961914,-2.2518019676208496
1747978241683883000,14.615883056640625,-0.5250386595726013,2.218967914581299,-2.0613646507263184
1747978241702150000,14.63414990234375,-0.5659666657447815,1.5485434532165527,-1.7886134386062622
1747978241720408300,14.652408203125,-0.251676470041275,0.5838344693183899,-1.5445728302001953
1747978241738674000,14.670673828125,-0.09453139454126358,-0.5354233980178833,-1.4237741231918335
1747978241756938200,14.688938232421876,-0.29764407873153687,-1.4676038026809692,-1.3025174140930176
1747978241775207200,14.707207275390624,-0.574976921081543,-1.5987870693206787,-1.0421360731124878
1747978241793474000,14.72547412109375,-0.8550586104393005,-0.979216992855072,-0.8469646573066711
1747978241811738000,14.743738037109376,-1.034194827079773,-0.16630806028842926,-0.7531968355178833
1747978241830002200,14.762002197265625,-1.0157161951065063,-0.003359758760780096,-0.4384485185146332
1747978241848267800,14.780267822265625,-0.8420777320861816,-0.5268712639808655,0.03985895588994026
1747978241866531800,14.79853173828125,-0.513737678527832,-1.1650726795196533,0.27748554944992065
1747978241884797400,14.81679736328125,-0.20983220636844635,-1.4120149612426758,0.29397889971733093
1747978241903061800,14.835061767578125,-0.012217304669320583,-1.5140295028686523,0.43478333950042725
1747978241921327000,14.8533271484375,0.22647829353809357,-1.2611312866210938,0.8439103364944458
1747978241939591700,14.871591796875,0.5099197626113892,-0.8382598161697388,1.3904820680618286
1747978241957855700,14.889855712890625,0.8078693151473999,-0.645684540271759,1.957212209701538
1747978241976122600,14.90812255859375,1.214552879333496,-0.7771732807159424,2.393064498901367
1747978241994387200,14.92638720703125,1.3697125911712646,-1.0361801385879517,2.520888090133667
1747978242012646100,14.944646240234375,1.1200214624404907,-0.18799377977848053,1.9472856521606445
1747978242030915000,14.9629150390625,0.5603161454200745,1.7366899251937866,-0.5212207436561584
1747978242049182000,14.981181884765626,-0.03833179548382759,1.9863810539245605,-0.6252205967903137
1747978242067441700,14.999441650390626,-1.198823094367981,2.043649673461914,0.7602217793464661
1747978242085710300,15.01771044921875,-1.182482361793518,1.4460707902908325,1.2906055450439453
1747978242103975700,15.0359755859375,-0.44257187843322754,1.6175711154937744,0.9908234477043152
1747978242122240000,15.054239990234375,0.15271630883216858,1.1943942308425903,0.6496551632881165
1747978242140505300,15.07250537109375,0.3090978264808655,-0.4599815309047699,0.08659014850854874
1747978242158767000,15.09076708984375,0.44425174593925476,-3.076622724533081,-0.2600758671760559
1747978242177035300,15.10903515625,0.10277807712554932,-3.679852247238159,-0.06505715101957321
1747978242195299800,15.1272998046875,-0.3110831379890442,-1.965153455734253,0.11301007121801376
1747978242213561600,15.1455615234375,-0.247094988822937,0.2422080636024475,0.2122756689786911
1747978242231833300,15.163833251953125,0.009621127508580685,1.611920714378357,0.2889392673969269
1747978242250093800,15.18209375,0.10415252298116684,1.8910861015319824,0.4358523488044739
1747978242268354300,15.200354248046875,-0.007024950347840786,0.8550586104393005,0.8602510094642639
1747978242286623200,15.218623291015625,-0.08445212244987488,-0.6896668672561646,1.2160799503326416
1747978242304889000,15.23688916015625,-0.060322944074869156,-1.8635971546173096,1.4086552858352661
1747978242323154700,15.25515478515625,-0.06536258012056351,-2.422691583633423,1.532508134841919
1747978242341414000,15.273413818359375,-0.15424346923828125,-2.4014639854431152,1.6140587329864502
1747978242359684000,15.29168408203125,-0.09376781433820724,-1.4230105876922607,1.5774067640304565
1747978242377948200,15.3099482421875,-0.0064140851609408855,0.13255776464939117,1.2260065078735352
1747978242396213800,15.3282138671875,-0.0027488935738801956,1.107956886291504,0.797789990901947
1747978242414461700,15.346461669921876,0.006108652334660292,1.2655600309371948,0.58062744140625
1747978242432743200,15.3647431640625,0.15561792254447937,0.794277548789978,0.8636107444763184
1747978242451007700,15.3830078125,0.35292738676071167,-0.04886921867728233,1.31916344165802
1747978242469267500,15.401267333984375,0.4222606122493744,-0.6472117304801941,1.4590516090393066
1747978242487537200,15.419537109375,0.44028112292289734,-0.8665123581886292,1.3880385160446167
1747978242505802800,15.437802734375,0.526107668876648,-0.7588473558425903,1.3602441549301147
1747978242524060700,15.456060791015625,0.5309945940971375,-0.5557346343994141,1.4098769426345825
1747978242542332400,15.47433251953125,0.44852781295776367,-0.07666359096765518,1.1424707174301147
1747978242560598000,15.492597900390624,0.5013676285743713,0.5091561675071716,0.6339253783226013
1747978242578861000,15.510861083984375,0.55695641040802,0.5639813542366028,0.4072943925857544
1747978242597128000,15.5291279296875,0.5412266254425049,0.4103487432003021,0.20876319706439972
1747978242615391700,15.547391845703125,0.3862195611000061,0.1290452778339386,-0.09697485715150833
1747978242633659100,15.5656591796875,0.06352998316287994,-0.2561052441596985,-0.22632557153701782
1747978242651921700,15.583921630859376,-0.2721404731273651,-0.42928555607795715,-0.31841349601745605
1747978242670186000,15.60218603515625,-0.5528330206871033,-0.08857546001672745,-0.5899431109428406
1747978242688448000,15.620447998046876,-0.8263479471206665,0.5345070958137512,-1.3019065856933594
1747978242706715600,15.638715576171874,-1.038318157196045,0.6038402915000916,-2.182774305343628
1747978242724981200,15.656981201171876,-1.1308642625808716,0.27061331272125244,-2.744617462158203
1747978242743245600,15.67524560546875,-0.8865181803703308,-0.10094548016786575,-3.1447343826293945
1747978242761511200,15.69351123046875,-0.4683809280395508,-0.3225368559360504,-3.4909422397613525
1747978242779770600,15.7117705078125,0.010995574295520782,0.24159720540046692,-3.3967161178588867
1747978242798039600,15.73003955078125,0.45204028487205505,2.182468891143799,-2.643671989440918
1747978242816306000,15.748305908203125,-0.005803219974040985,3.2957706451416016,-2.3664920330047607
1747978242834570800,15.76657080078125,-0.4210388660430908,3.38602614402771,-2.2620339393615723
1747978242852834300,15.784834228515624,-0.08949175477027893,3.1836769580841064,-1.8597792387008667
1747978242871096300,15.803096435546875,0.3306308090686798,2.2124011516571045,-1.3646728992462158
1747978242889364500,15.821364501953125,0.23716843128204346,0.7713701128959656,-0.8072584271430969
1747978242907630000,15.839630126953125,-0.44226643443107605,-0.9669997096061707,-0.299476683139801
1747978242925894700,15.857894775390625,-1.1998920440673828,-0.9812023043632507,-0.850782573223114
1747978242944158200,15.876158203125,-1.534035325050354,-0.04138612002134323,-1.274264931678772
1747978242962420200,15.894420166015625,-1.1887437105178833,-0.09758572280406952,-1.0109820365905762
1747978242980689400,15.912689453125,-0.6591235995292664,-0.651029646396637,-0.70692378282547
1747978242998954000,15.9309541015625,-0.24556782841682434,-1.0708467960357666,-0.53328537940979
1747978243017219000,15.949218994140624,0.029474247246980667,-1.0033462047576904,-0.38469240069389343
1747978243035483600,15.967483642578125,0.18784105777740479,-0.5526803135871887,-0.23518311977386475
1747978243053749000,15.9857490234375,0.31261029839515686,-0.3029891550540924,-0.07864890247583389
1747978243072013300,16.004013427734375,0.42730024456977844,-0.8060367107391357,0.20891591906547546
1747978243090279000,16.02227880859375,0.5739079117774963,-1.536631464958191,0.8765916228294373
1747978243108543200,16.040543212890626,0.8420777320861816,-1.7887661457061768,1.8176295757293701
1747978243126803700,16.0588037109375,1.0294606685638428,-1.6800321340560913,2.9049696922302246
1747978243145071600,16.077071533203124,0.7814493775367737,-0.13545936346054077,3.3205108642578125
1747978243163339500,16.095339599609375,-0.09162978827953339,2.6616926193237305,2.6668848991394043
1747978243181602600,16.1136025390625,-1.2794572114944458,4.741230487823486,-0.06398813426494598
1747978243199866600,16.13186669921875,-0.7884743213653564,0.43050727248191833,-1.010829210281372
1747978243218130200,16.150130126953126,-0.3599523603916168,-1.5961909294128418,-0.7053966522216797
1747978243236404000,16.168404052734374,0.23579397797584534,-1.050840973854065,-0.21135938167572021
1747978243254658800,16.186658935546873,0.46639561653137207,0.9871582388877869,0.14782938361167908
1747978243272930600,16.2049306640625,0.44394633173942566,2.8987083435058594,0.044287730008363724
1747978243291188700,16.223188720703124,0.09697485715150833,2.403754711151123,0.252287358045578
1747978243309466400,16.24146630859375,0.07956519722938538,1.17240309715271,0.47769662737846375
1747978243327721500,16.259721435546876,0.18631389737129211,0.3878994286060333,0.31062498688697815
1747978243345987000,16.277987060546874,0.2226603776216507,-0.14233160018920898,0.25182920694351196
1747978243364250400,16.29625048828125,0.2721404731273651,-0.7044803500175476,0.5056437253952026
1747978243382513000,16.314512939453124,0.37858372926712036,-1.3242031335830688,1.0141890048980713
1747978243400781000,16.332781005859374,0.547182559967041,-1.677588701248169,1.4946345090866089
1747978243419046700,16.351046630859376,0.44944411516189575,-1.856266736984253,1.9787452220916748
1747978243437311000,16.36931103515625,0.021380282938480377,-1.6262760162353516,2.3657283782958984
1747978243455576300,16.387576416015627,-0.3390302062034607,-0.6557638645172119,2.197740316390991
1747978243473839400,16.40583935546875,-0.31841349601745605,0.7800748944282532,1.4424055814743042
1747978243492107300,16.424107177734374,-0.15882496535778046,1.6853772401809692,0.6621779203414917
1747978243510368800,16.44236865234375,-0.051312681287527084,1.534340739250183,0.41370847821235657
1747978243528632300,16.46063232421875,0.04612032696604729,0.8330674767494202,0.531758189201355
1747978243546888400,16.478888427734375,0.050854530185461044,0.2151772826910019,0.7680103182792664
1747978243565165600,16.49716552734375,0.09789115190505981,-0.26908615231513977,1.0648908615112305
1747978243583425500,16.515425537109376,0.19593502581119537,-0.6814202070236206,1.2373075485229492
1747978243601695500,16.533695556640627,0.3530801236629486,-0.782976508140564,1.2011138200759888
1747978243619947800,16.55194775390625,0.46211954951286316,-0.5439754724502563,1.0459539890289307
1747978243638220300,16.57022021484375,0.5108360648155212,-0.22510384023189545,1.0025825500488281
1747978243656488000,16.588488037109375,0.4763221740722656,-0.15195272862911224,1.1380419731140137
1747978243674756000,16.606756103515625,0.4772384762763977,-0.2811507284641266,1.3675745725631714
1747978243693019100,16.62501904296875,0.6375905871391296,-0.18677204847335815,1.4072808027267456
1747978243711284700,16.64328466796875,0.7912232279777527,0.39965859055519104,1.0613783597946167
1747978243729548800,16.661548828125,0.6934847831726074,0.9566149711608887,0.5710062980651855
1747978243747814400,16.679814453125,0.4479169547557831,0.8639161586761475,0.0529925599694252
1747978243766078500,16.698078369140624,0.24755313992500305,0.17928895354270935,-0.40485092997550964
1747978243784344000,16.716343994140626,0.16814066469669342,-0.43218716979026794,-0.6565274000167847
1747978243802608600,16.734608642578124,0.041691552847623825,-0.5965099334716797,-0.9066767692565918
1747978243820872400,16.75287255859375,-0.35475999116897583,-0.1774563491344452,-1.2669345140457153
1747978243839139000,16.77113916015625,-0.8539896011352539,0.2811507284641266,-1.881770372390747
1747978243857399600,16.789399658203124,-1.0031934976577759,-0.07177666574716568,-2.512946844100952
1747978243875668000,16.80766796875,-1.0239628553390503,-0.5042692422866821,-3.079677104949951
1747978243893933300,16.825933349609375,-0.9095783233642578,-0.37491855025291443,-3.4292447566986084
1747978243912196600,16.844196533203124,-0.588263213634491,0.0705549344420433,-3.1621439456939697
1747978243930464300,16.86246435546875,-0.23976461589336395,1.220050573348999,-2.450485944747925
1747978243948723200,16.88072314453125,-0.3367394804954529,2.467437505722046,-1.9590448141098022
1747978243966993000,16.898992919921874,-0.6904304623603821,3.0917418003082275,-1.957212209701538
1747978243985257200,16.91725732421875,-0.531147301197052,2.674673557281494,-1.952478051185608
1747978244003522800,16.935522705078125,-0.18814650177955627,1.5386168956756592,-1.7099645137786865
1747978244021786600,16.95378662109375,-0.10873401165008545,0.3804163336753845,-1.3952162265777588
1747978244040052500,16.972052490234375,-0.3142901659011841,-0.7168503403663635,-1.0332785844802856
1747978244058316500,16.990316650390625,-0.5340489149093628,-1.4489723443984985,-0.6495024561882019
1747978244076582400,17.00858251953125,-0.79840087890625,-1.1227703094482422,-0.722959041595459
1747978244094843400,17.026843505859375,-1.0836749076843262,0.06276640295982361,-1.0838276147842407
1747978244113115000,17.045114990234374,-0.9071348905563354,-0.050854530185461044,-0.8232936263084412
1747978244131376600,17.063376708984375,-0.607810914516449,-0.7437284588813782,-0.45891252160072327
1747978244149636900,17.081636962890624,-0.27550023794174194,-1.0167851448059082,-0.24877487123012543
1747978244167904800,17.09990478515625,0.014049900695681572,-0.7046330571174622,-0.1385136991739273
1747978244186172700,17.118172607421876,0.29016098380088806,-0.35521814227104187,-0.041233405470848083
1747978244204431600,17.136431640625,0.5578727126121521,-0.5254968404769897,0.13026700913906097
1747978244222701000,17.154701171875,0.7122688889503479,-1.3322970867156982,0.5761986374855042
1747978244240960500,17.17296044921875,0.9541715383529663,-1.8368717432022095,1.241125464439392
1747978244259231000,17.19123095703125,1.256244421005249,-1.922087550163269,2.084730386734009
1747978244277495300,17.209495361328123,1.1050552129745483,-1.073595643043518,2.5831964015960693
1747978244295760600,17.2277607421875,0.33200526237487793,1.3713924884796143,1.8527542352676392
1747978244314024200,17.246024169921874,-0.7156286239624023,2.8961122035980225,-0.1788308024406433
1747978244332291300,17.264291259765624,-0.645684540271759,0.2971859276294708,-0.5016731023788452
1747978244350555000,17.282554931640625,-0.6333145499229431,-0.35582900047302246,-0.2793181240558624
1747978244368826400,17.300826416015624,0.012217304669320583,0.7108944058418274,-0.35414913296699524
1747978244387084500,17.31908447265625,0.7000515460968018,1.976759910583496,-0.41233405470848083
1747978244405350000,17.337349853515626,0.6435465216636658,2.093740701675415,-0.22815817594528198
1747978244423614200,17.3556142578125,0.15745051205158234,1.19912850856781,0.4210388660430908
1747978244441878800,17.373878662109377,0.06612616032361984,1.073290228843689,0.42012256383895874
1747978244460145400,17.3921455078125,-0.03588833287358284,0.1310305893421173,-0.07131851464509964
1747978244478405000,17.410405029296875,0.07116580009460449,-0.8443684577941895,-0.20952677726745605
1747978244496669200,17.428669189453124,0.16691893339157104,-1.5549575090408325,0.076052725315094
1747978244514926600,17.446926513671876,0.2687807083129883,-1.751808762550354,0.656069278717041
1747978244533204700,17.465204833984377,0.23197607696056366,-1.718363881111145,1.6597208976745605
1747978244551469000,17.483468994140626,0.04260785132646561,-1.4249958992004395,2.6172521114349365
1747978244569733400,17.5017333984375,-0.17180584371089935,-0.5965099334716797,2.9356656074523926
1747978244587998700,17.519998779296873,-0.42348232865333557,0.6204863786697388,2.439795732498169
1747978244606263600,17.538263671875,-0.43050727248191833,1.7218763828277588,1.485318899154663
1747978244624510000,17.556510009765624,-0.07635815441608429,2.046093225479126,0.825584352016449
1747978244642793000,17.57479296875,0.18341228365898132,1.5233452320098877,0.5948300361633301
1747978244661058300,17.593058349609375,0.25961771607398987,0.5404630303382874,0.6140722632408142
1747978244679321600,17.611321533203125,0.1992947906255722,-0.14645494520664215,0.7026477456092834
1747978244697589200,17.62958935546875,0.29245173931121826,-0.35323283076286316,0.9074403047561646
1747978244715851300,17.647851318359375,0.3675881624221802,-0.3423899710178375,1.1522445678710938
1747978244734118400,17.666118408203126,0.3793473243713379,-0.24908030033111572,1.2965614795684814
1747978244752379000,17.68437890625,0.3764457106590271,-0.2993239760398865,1.350928544998169
1747978244770647600,17.7026474609375,0.3462078869342804,-0.6707300543785095,1.378722906112671
1747978244788911900,17.720911865234374,0.32650747895240784,-1.156978726387024,1.4020884037017822
1747978244807177200,17.73917724609375,0.417679101228714,-1.1815661191940308,1.3448197841644287
1747978244825438000,17.75743798828125,0.5710062980651855,-0.43050727248191833,1.0149526596069336
1747978244843707100,17.77570703125,0.6814202070236206,0.5505422949790955,0.5007568001747131
1747978244861971700,17.7939716796875,0.5908594131469727,0.7596109509468079,0.18005253374576569
1747978244880237000,17.812237060546874,0.3533855378627777,0.24953845143318176,-0.041691552847623825
1747978244898501600,17.830501708984375,0.21914790570735931,-0.16844609379768372,-0.2616030275821686
1747978244916766700,17.8487666015625,0.2356412708759308,-0.2594650089740753,-0.35552358627319336
1747978244935031000,17.867031005859374,0.1840231567621231,-0.06933320313692093,-0.48685958981513977
1747978244953296600,17.885296630859376,-0.09117163717746735,0.37522396445274353,-0.9071348905563354
1747978244971561000,17.90356103515625,-0.5132794976234436,0.5132794976234436,-1.6899586915969849
1747978244989827300,17.921827392578123,-0.8515461683273315,-0.01618792861700058,-2.4303274154663086
1747978245008085200,17.940085205078127,-1.0134254693984985,-0.6385068893432617,-2.933680295944214
1747978245026354700,17.958354736328126,-0.9954048991203308,-1.0033462047576904,-3.2815680503845215
1747978245044621600,17.97662158203125,-0.7707592248916626,-0.8455902338027954,-3.3341023921966553
1747978245062884900,17.994884765625,-0.4813618063926697,0.09269879758358002,-2.9126055240631104
1747978245081151000,18.01315087890625,-0.35323283076286316,1.7904460430145264,-2.27516770362854
1747978245099411000,18.031410888671875,-0.5308418869972229,2.9210047721862793,-1.7931948900222778
1747978245117679900,18.049679931640625,-0.7124215960502625,3.2122349739074707,-1.6713273525238037
1747978245135945500,18.067945556640623,-0.6597344875335693,2.338697671890259,-1.7954856157302856
1747978245154210800,18.0862109375,-0.5505422949790955,0.574976921081543,-1.683544635772705
1747978245172473900,18.104473876953126,-0.46639561653137207,-0.9069821834564209,-1.2904528379440308
1747978245190739500,18.122739501953124,-0.4784601926803589,-1.8570303916931152,-0.7858781218528748
1747978245209005000,18.141005126953125,-0.7079927921295166,-2.1255056858062744,-0.4628831446170807
1747978245227269000,18.15926904296875,-1.152855396270752,-0.9601274728775024,-0.850171685218811
1747978245245534700,18.17753466796875,-1.1230757236480713,-0.2168571650981903,-0.8385652899742126
1747978245263794700,18.195794677734376,-0.8747590184211731,-0.5502368807792664,-0.4911356568336487
1747978245282063400,18.2140634765625,-0.6116288304328918,-0.8726209998130798,-0.16539175808429718
1747978245300329700,18.232329833984377,-0.384845107793808,-0.7072292566299438,-0.01038470957428217
1747978245318590000,18.25058984375,-0.15500704944133759,-0.5366451144218445,0.05604688450694084
1747978245336857300,18.268857421875,0.09407325088977814,-0.7235698699951172,0.11071932315826416
1747978245355125000,18.287125,0.3439171314239502,-0.9958630800247192,0.35735616087913513
1747978245373387000,18.305386962890626,0.5618433356285095,-1.124755620956421,0.8419250249862671
1747978245391655200,18.3236552734375,0.9828822016716003,-1.0922271013259888,1.4439327716827393
1747978245409917000,18.3419169921875,1.4770721197128296,-1.3826935291290283,2.141693592071533
1747978245428184600,18.3601845703125,1.3515393733978271,-1.5790866613388062,2.557234525680542
1747978245446443500,18.378443603515624,0.5948300361633301,0.32528573274612427,1.891238808631897
1747978245464713200,18.396713134765626,-0.8988882303237915,2.814103364944458,0.16722436249256134
1747978245482977500,18.4149775390625,-0.9476047158241272,1.2570079565048218,-0.47189339995384216
1747978245501243100,18.4332431640625,-0.9318749308586121,-0.33292156457901,-0.16539175808429718
1747978245519502600,18.451502685546874,-0.5345070958137512,-0.413097620010376,0.11224649101495743
1747978245537771800,18.469771728515624,-0.15913039445877075,-0.10751228034496307,0.2028072625398636
1747978245556038100,18.4880380859375,0.1846340149641037,0.9920451641082764,-0.23029619455337524
1747978245574302700,18.506302734375,0.6875288486480713,1.685835361480713,-0.6983717083930969
1747978245592566800,18.52456689453125,0.7423539757728577,-0.24342979490756989,0.12476922571659088
1747978245610827800,18.542827880859374,0.06627888232469559,-0.8512406945228577,0.637132465839386
1747978245629096200,18.56109619140625,-0.041233405470848083,-0.31031954288482666,0.6038402915000916
1747978245647362300,18.5793623046875,0.1371392458677292,0.08506298810243607,0.5946773290634155
1747978245665616000,18.597615966796877,0.24633140861988068,0.15454891324043274,0.7185302376747131
1747978245683891200,18.61589111328125,0.26908615231513977,-0.21563543379306793,0.8194757103919983
1747978245702146800,18.634146728515624,0.2535090744495392,-0.804051399230957,0.8848382830619812
1747978245720416500,18.65241650390625,0.1059851199388504,-1.2860240936279297,1.173930287361145
1747978245738681900,18.670681884765624,-0.1846340149641037,-1.7137824296951294,1.9029979705810547
1747978245756951300,18.688951416015627,-0.380721777677536,-1.4094188213348389,2.2982277870178223
1747978245775215600,18.707215576171876,-0.28725937008857727,-0.3784310221672058,2.160783052444458
1747978245793480000,18.72547998046875,-0.014813481830060482,0.9205739498138428,1.3361150026321411
1747978245811746600,18.74374658203125,0.16859880089759827,1.5700763463974,0.4034765064716339
1747978245830011100,18.76201123046875,0.1569923609495163,1.3480268716812134,0.096211276948452
1747978245848275200,18.780275146484374,0.12324206531047821,0.7664831876754761,0.4173736870288849
1747978245866536000,18.798535888671875,0.1774563491344452,0.007177666760981083,0.9575312733650208
1747978245884804900,18.816804931640625,0.27947086095809937,-0.6194173693656921,1.208902359008789
1747978245903070200,18.8350703125,0.4079052805900574,-1.0190759897232056,1.2368494272232056
1747978245921334500,18.85333447265625,0.479834645986557,-1.0986411571502686,1.1665998697280884
1747978245939600100,18.87160009765625,0.4795292317867279,-0.859029233455658,1.141707181930542
1747978245957863700,18.88986376953125,0.4836525619029999,-0.6081163287162781,1.238071084022522
1747978245976131000,18.908131103515625,0.5688682794570923,-0.2542726695537567,1.0645854473114014
1747978245994397700,18.926397705078124,0.656069278717041,0.2243402600288391,0.5861251950263977
1747978246012659700,18.94465966796875,0.5816964507102966,0.5583308339118958,0.17058411240577698
1747978246030924000,18.962924072265626,0.41172316670417786,0.3494149148464203,-0.02932153269648552
1747978246049188400,18.981188232421875,0.31383201479911804,-0.08170322328805923,-0.20616702735424042
1747978246067462700,18.999462646484375,0.2542726695537567,-0.3075706362724304,-0.30573806166648865
1747978246085719000,19.017718994140626,0.266642689704895,-0.15806138515472412,-0.22678372263908386
1747978246103983600,19.035983642578124,0.15821409225463867,0.42760565876960754,-0.38499781489372253
1747978246122244000,19.054244140625,-0.1973094791173935,0.9279043078422546,-1.106735110282898
1747978246140512300,19.07251220703125,-0.5138903856277466,0.6559165716171265,-1.944536805152893
1747978246158775800,19.09077587890625,-0.7267768979072571,-0.10064005106687546,-2.582738161087036
1747978246177043200,19.109043212890626,-0.816726803779602,-0.816421389579773,-3.135265827178955
1747978246195308500,19.12730859375,-0.7851145267486572,-1.3277156352996826,-3.4933855533599854
1747978246213572600,19.145572509765625,-0.6311765313148499,-1.245248794555664,-3.4203872680664062
1747978246231837400,19.16383740234375,-0.4001167416572571,0.08994990587234497,-2.97277569770813
1747978246250103800,19.182103759765624,-0.19303341209888458,2.6007587909698486,-2.246609687805176
1747978246268368100,19.2003681640625,-0.34574973583221436,3.879757881164551,-1.8866573572158813
1747978246286632700,19.2186328125,-0.5818491578102112,3.5472943782806396,-1.793653130531311
1747978246304899300,19.2368994140625,-0.4378376603126526,2.2592852115631104,-1.476919412612915
1747978246323160600,19.25516064453125,-0.260992169380188,0.9045386910438538,-0.9967793822288513
1747978246341422600,19.273422607421875,-0.33276882767677307,-0.5085453391075134,-0.5112941861152649
1747978246359692000,19.291692138671873,-0.5988006591796875,-1.7705929279327393,-0.14278975129127502
1747978246377952800,19.309952880859374,-1.0858129262924194,-1.8008307218551636,-0.46792277693748474
1747978246396220700,19.328220703125,-1.4106405973434448,-0.8339837789535522,-0.9089674949645996
1747978246414492000,19.346491943359375,-1.1313223838806152,-0.7354817390441895,-0.5922338366508484
1747978246432751400,19.36475146484375,-0.7560984492301941,-1.3434454202651978,-0.13454307615756989
1747978246451016000,19.383015869140625,-0.45142942667007446,-1.53525710105896,0.10262536257505417
1747978246469282300,19.4012822265625,-0.22861631214618683,-1.2528846263885498,0.2119702398777008
1747978246487544600,19.419544677734375,-0.078343465924263,-0.8999572396278381,0.2765692472457886
1747978246505813200,19.437813232421874,0.09743300825357437,-0.7171558141708374,0.3260493278503418
1747978246524075000,19.456074951171875,0.3065016269683838,-1.173624873161316,0.7205155491828918
1747978246542342000,19.474341796875,0.5615378618240356,-1.9905043840408325,1.6751452684402466
1747978246560606200,19.492606201171874,1.021824836730957,-2.35091495513916,2.6587910652160645
1747978246578869500,19.510869384765623,1.3158037662506104,-1.781130313873291,3.2795827388763428
1747978246597137200,19.52913720703125,0.9272934198379517,0.6540839672088623,2.8243355751037598
1747978246615394800,19.547394775390625,-0.14538592100143433,4.15739631652832,0.5476406812667847
1747978246633663700,19.565663818359376,-0.3930917978286743,2.202627420425415,-0.8177958726882935
1747978246651929000,19.58392919921875,-0.6441574096679688,-0.6363688707351685,-0.4720461070537567
1747978246670196700,19.60219677734375,-0.5174028873443604,-0.18555031716823578,0.21700987219810486
1747978246688456000,19.6204560546875,-0.43829581141471863,1.8448129892349243,0.10613783448934555
1747978246706722000,19.63872216796875,-0.33337971568107605,2.6418395042419434,-0.47082439064979553
1747978246724989700,19.65698974609375,0.15546520054340363,2.129934310913086,-0.4300491213798523
1747978246743242000,19.675241943359374,0.21609358489513397,0.7840455174446106,-0.23396138846874237
1747978246761519400,19.693519287109375,0.18585574626922607,-2.459954261779785,0.5619960427284241
1747978246779773000,19.71177294921875,0.3243694305419922,-2.8015806674957275,0.7197519540786743
1747978246798049300,19.73004931640625,0.5671883821487427,-1.6351335048675537,0.6472117304801941
1747978246816314400,19.748314453125,0.585667073726654,-0.6012440919876099,0.5823072791099548
1747978246834579200,19.7665791015625,0.42042800784111023,-0.38438695669174194,0.6473644375801086
1747978246852843500,19.784843505859374,0.21899518370628357,-1.0192286968231201,1.1846203804016113
1747978246871110100,19.803110107421876,-0.04444044828414917,-1.387580394744873,1.7290540933609009
1747978246889369300,19.821369384765624,-0.2623666226863861,-0.9755517840385437,1.8145751953125
1747978246907637500,19.839637451171875,-0.3761402666568756,-0.22418753802776337,1.5625933408737183
1747978246925905200,19.8579052734375,-0.2997821271419525,0.49357911944389343,1.176831841468811
1747978246944167200,19.876167236328126,-0.11438451707363129,0.7875580191612244,0.8573493957519531
1747978246962430000,19.894429931640627,0.0022907445672899485,0.7458664774894714,0.6892086863517761
1747978246980693000,19.91269287109375,0.06994406878948212,0.6571382880210876,0.6763805150985718
1747978246998963500,19.93096337890625,0.16523905098438263,0.2945897579193115,0.8733845949172974
1747978247017228000,19.94922802734375,0.28756481409072876,-0.3013092875480652,1.1696542501449585
1747978247035493600,19.96749365234375,0.4075998365879059,-0.6789767146110535,1.2846496105194092
1747978247053757400,19.98575732421875,0.4957171380519867,-0.7535023093223572,1.2788463830947876
1747978247081154300,20.013154296875,0.5215262174606323,-0.6162103414535522,1.4546228647232056
1747978247099415600,20.03141552734375,0.5143485069274902,-0.4277583956718445,1.5065463781356812
1747978247117684700,20.049684814453126,0.6301075220108032,0.08017606288194656,1.134834885597229
1747978247135951000,20.067951171875,0.7072292566299438,0.4715879559516907,0.6352998614311218
1747978247154214000,20.0862138671875,0.5911648273468018,0.5820018649101257,0.23335053026676178
1747978247172480800,20.104480712890624,0.375071257352829,0.36300668120384216,-0.06459899991750717
1747978247190741200,20.1227412109375,0.20204368233680725,-0.014508049935102463,-0.22403483092784882
1747978247209008600,20.141008544921874,0.055741455405950546,-0.17119498550891876,-0.23380866646766663
1747978247227275500,20.159275634765624,-0.03298672288656235,0.17699819803237915,-0.27091872692108154
1747978247245544700,20.177544677734375,-0.2480112910270691,0.8038986921310425,-0.8185594081878662
1747978247263805400,20.195805419921875,-0.5624541640281677,0.7110471725463867,-1.8417587280273438
1747978247282054000,20.214053955078125,-0.7409795522689819,-0.14340060949325562,-2.7391197681427
1747978247300337400,20.23233740234375,-0.8275696635246277,-0.9103419184684753,-3.235905885696411
1747978247318595800,20.250595947265627,-0.749531626701355,-1.1627819538116455,-3.4804046154022217
1747978247336863700,20.26886376953125,-0.5531384944915771,-0.8489499688148499,-3.3176090717315674
1747978247355129900,20.2871298828125,-0.3300199508666992,0.5754350423812866,-2.8710665702819824
1747978247373397200,20.305397216796877,-0.10018189996480942,2.6311492919921875,-2.42360782623291
1747978247391658500,20.323658447265625,-0.35445454716682434,3.378390312194824,-2.45063853263855
1747978247409925000,20.341925048828124,-0.3962988257408142,2.846937417984009,-2.3179280757904053
1747978247428187600,20.360187744140624,-0.08827003091573715,1.8726073503494263,-1.822821855545044
1747978247446448600,20.37844873046875,0.04993823543190956,1.0390818119049072,-1.269836187362671
1747978247464716800,20.396716796875,-0.19975294172763824,-0.038637228310108185,-0.722959041595459
1747978247482985000,20.41498486328125,-0.5256495475769043,-1.0728321075439453,-0.2857322096824646
1747978247501248000,20.433248046875,-0.9312640428543091,-1.1455250978469849,-0.3643811047077179
1747978247519512800,20.451512939453124,-1.3642147779464722,-0.06704246252775192,-0.7278459668159485
1747978247537777400,20.46977734375,-1.11391282081604,-0.10690141469240189,-0.4509712755680084
1747978247556043800,20.488043701171875,-0.746630072593689,-0.7509061098098755,-0.043676864355802536
1747978247574307300,20.506307373046877,-0.43279802799224854,-0.9228646755218506,0.19562959671020508
1747978247592572200,20.524572265625,-0.23655757308006287,-0.7296785116195679,0.29733866453170776
1747978247610836200,20.542836181640624,-0.05345070734620094,-0.4873177409172058,0.2929098904132843
1747978247629104000,20.561104248046874,0.2064724564552307,-0.3926336467266083,0.28695395588874817
1747978247647367000,20.579366943359375,0.4616613984107971,-0.8868235945701599,0.5642867684364319
1747978247665631700,20.5976318359375,0.751669704914093,-1.7901406288146973,1.333060622215271
1747978247702163700,20.634163818359376,1.3930782079696655,-2.3437371253967285,2.738661527633667
1747978247720421600,20.652421630859376,0.7086036801338196,0.6550002694129944,1.782657504081726
1747978247738687500,20.6706875,-0.5371032953262329,4.3759331703186035,-0.471129834651947
1747978247756956400,20.688956298828124,-0.3188716471195221,0.9787588119506836,-0.9199630618095398
1747978247775222300,20.70722216796875,-0.9761626720428467,-0.7695375084877014,-0.37720927596092224
1747978247793481500,20.7254814453125,-0.9717338681221008,0.3827070891857147,0.37110063433647156
1747978247811751200,20.743751220703125,-0.39813143014907837,2.12703275680542,0.8330674767494202
1747978247830016300,20.762016357421874,-0.1293507218360901,2.917034149169922,0.5732970237731934
1747978247848282000,20.7802822265625,-0.004734205547720194,1.6201673746109009,0.32391130924224854
1747978247866546000,20.7985458984375,0.3361285924911499,0.7345654368400574,-0.23273965716362
1747978247884810500,20.816810546875,0.6565274000167847,-1.7429512739181519,-0.27030786871910095
1747978247903075600,20.83507568359375,0.5627595782279968,-3.366478443145752,-0.007177666760981083
1747978247921341400,20.853341552734374,0.2698497176170349,-2.381152629852295,0.2298380434513092
1747978247939605000,20.87160498046875,0.08170322328805923,-0.6114761233329773,0.6073527932167053
1747978247957869000,20.889869140625,-0.01817324012517929,0.9860892295837402,0.9669997096061707
1747978247976135000,20.908135009765626,-0.03756821155548096,1.7516560554504395,1.350928544998169
1747978247994399000,20.92639892578125,-0.001832595793530345,1.1707231998443604,1.962557315826416
1747978248012665000,20.9446650390625,-0.06582073122262955,0.5543602108955383,2.2047653198242188
1747978248030930000,20.962929931640623,-0.028557950630784035,0.5868887901306152,1.8903224468231201
1747978248049194800,20.98119482421875,0.20372356474399567,0.8022187948226929,1.4321736097335815
1747978248067459000,20.999458984375,0.3706424832344055,0.6721044778823853,1.1136072874069214
1747978248085727200,21.017727294921876,0.40973785519599915,0.3043636083602905,0.9801332950592041
1747978248113122800,21.045122802734376,0.4242459237575531,-0.08246681094169617,1.0186177492141724
1747978248131387600,21.0633876953125,0.5532912015914917,-0.5293147563934326,1.2718214988708496
1747978248149651200,21.081651123046875,0.6774495840072632,-0.9372199773788452,1.4492777585983276
1747978248167916800,21.099916748046876,0.5861251950263977,-1.130711555480957,1.4530956745147705
1747978248186181000,21.11818115234375,0.37491855025291443,-1.0836749076843262,1.3993395566940308
1747978248204442400,21.1364423828125,0.26450464129447937,-0.8101600408554077,1.3167200088500977
1747978248222710800,21.154710693359377,0.32818734645843506,-0.3295617997646332,1.1316279172897339
1747978248240976400,21.172976318359375,0.5775730609893799,0.275958389043808,0.8119926452636719
1747978248259236000,21.191236083984375,0.7881689071655273,0.5929974317550659,0.4063780903816223
1747978248277505000,21.209505126953125,0.7797694802284241,0.30604347586631775,0.23273965716362
1747978248295771600,21.227771728515624,0.5890268087387085,0.055894169956445694,0.16523905098438263
1747978248314035000,21.246034912109376,0.3646865487098694,0.10567969083786011,-0.04703662544488907
1747978248332301600,21.264301513671874,0.18417587876319885,0.20387627184391022,-0.044745877385139465
1747978248350561000,21.28256103515625,0.039095375686883926,0.5719226002693176,-0.015271631069481373
1747978248368831200,21.300831298828125,-0.18096883594989777,1.16293466091156,-0.34956762194633484
1747978248387094800,21.3190947265625,-0.5371032953262329,1.1207849979400635,-1.322981357574463
1747978248405360000,21.337360107421876,-0.7832819819450378,0.2474004179239273,-2.440101146697998
1747978248423625200,21.355625244140626,-0.944855809211731,-0.7861835956573486,-3.095712423324585
1747978248441891800,21.373891845703124,-1.003498911857605,-1.344361662864685,-3.446959972381592
1747978248460153300,21.3921533203125,-0.8142833709716797,-1.3104586601257324,-3.5524868965148926
1747978248487551000,21.419551025390625,-0.4392121136188507,-0.05421429127454758,-2.8985555171966553
1747978248505819600,21.437819580078123,-0.18738290667533875,2.4023802280426025,-2.2204952239990234
1747978248524080600,21.45608056640625,-0.4262312352657318,3.9603919982910156,-2.062891960144043
1747978248542348000,21.47434814453125,-0.7202101349830627,3.425426959991455,-2.2409591674804688
1747978248560607200,21.492607177734374,-0.4378376603126526,1.7357735633850098,-1.9185750484466553
1747978248578876700,21.510876708984377,-0.07116580009460449,0.5852088928222656,-1.374904990196228
1747978248597143000,21.52914306640625,-0.08628471940755844,-0.09086620807647705,-0.9453139901161194
1747978248615403300,21.5474033203125,-0.4648684561252594,-0.22892175614833832,-0.0607810914516449
1747978248633671000,21.5656708984375,-0.9518807530403137,-1.0500773191452026,-0.30024027824401855
1747978248651937800,21.583937744140623,-1.30496084690094,-0.7457137703895569,-0.8084801435470581
1747978248670201300,21.602201416015625,-1.1099421977996826,-0.5732970237731934,-0.6864598393440247
1747978248688462000,21.620462158203125,-0.7243334650993347,-0.7939720749855042,-0.3271183371543884
1747978248706731300,21.638731201171876,-0.38026362657546997,-0.9943358898162842,-0.028405234217643738
1747978248724997400,21.656997314453125,-0.10949759185314178,-0.8286387324333191,0.09987647086381912
1747978248743261200,21.67526123046875,0.11698069423437119,-0.4697553813457489,0.10033461451530457
1747978248761526000,21.693526123046876,0.38438695669174194,-0.289244681596756,0.08628471940755844
1747978248779790800,21.711790771484374,0.7102835774421692,-0.5416847467422485,0.20295998454093933
1747978248798057000,21.730056884765624,0.9799805879592896,-1.2750284671783447,0.5291619896888733
1747978248816315600,21.748315673828124,1.2050844430923462,-2.459648847579956,1.2435688972473145
1747978248834584300,21.766584228515626,1.2154691219329834,-3.2068898677825928,2.0218112468719482
1747978248852850700,21.7848505859375,0.6255260109901428,-0.4066835343837738,1.602452278137207
1747978248871117600,21.80311767578125,-0.521984338760376,3.780034065246582,0.6137668490409851
1747978248889381000,21.821381103515623,-0.6801984310150146,2.696206569671631,0.062460970133543015
1747978248907645400,21.8396455078125,-0.879187822341919,0.05253441259264946,0.007024950347840786
1747978248925910000,21.857909912109374,-0.7855727076530457,-0.6534730792045593,0.1469130963087082
1747978248944175400,21.87617529296875,-0.2952006161212921,-0.3703370690345764,0.2515237629413605
1747978248962437000,21.89443701171875,-0.12202033400535583,1.0002918243408203,0.1823432743549347
1747978248980704800,21.912704833984375,-0.18707747757434845,1.704161286354065,0.21762074530124664
1747978248998969900,21.930969970703124,0.011759156361222267,1.2838860750198364,0.275958389043808
1747978249017235500,21.9492353515625,0.2591595947742462,0.3020728528499603,0.2220495194196701
1747978249035499300,21.967499267578123,0.39324450492858887,-1.873218297958374,0.6777549982070923
1747978249053764400,21.985764404296877,0.3718642294406891,-2.725069761276245,0.8028296232223511
1747978249072029200,22.004029296875,0.38866302371025085,-1.7765488624572754,0.73685622215271
1747978249090295300,22.02229541015625,0.24862214922904968,-0.20341812074184418,0.6801984310150146
1747978249108559000,22.04055908203125,0.007941247895359993,0.9030115604400635,0.8520042896270752
1747978249126824000,22.058823974609375,-0.10018189996480942,1.301142930984497,1.2050844430923462
1747978249145089000,22.077089111328124,-0.04092797264456749,0.988074541091919,1.5526667833328247
1747978249163355100,22.095355224609374,-0.01038470957428217,0.3813326358795166,1.7733417749404907
1747978249181617400,22.113617431640623,0.01191187184303999,-0.17638733983039856,1.7493653297424316
1747978249199883800,22.1318837890625,0.06627888232469559,-0.4535674452781677,1.5092953443527222
1747978249218149400,22.1501494140625,0.13301590085029602,-0.22632557153701782,1.23394775390625
1747978249236409900,22.168409912109375,0.21670444309711456,0.17928895354270935,1.0395399332046509
1747978249254678300,22.18667822265625,0.28130343556404114,0.3735440969467163,0.9784533977508545
1747978249272943400,22.204943359375,0.3404046595096588,0.2041817009449005,1.0586295127868652
1747978249291208200,22.223208251953125,0.4213443100452423,-0.2330450862646103,1.232573390007019
1747978249309474600,22.241474609375,0.5241223573684692,-0.6905831694602966,1.3886494636535645
1747978249327733200,22.259733154296875,0.5642867684364319,-1.1273517608642578,1.5615242719650269
1747978249346001700,22.278001708984377,0.44180828332901,-1.2878566980361938,1.6183347702026367
1747978249364269000,22.29626904296875,0.4867068827152252,-0.5296201705932617,1.2713632583618164
1747978249382534000,22.314533935546876,0.6618725061416626,0.42668938636779785,0.6669121384620667
1747978249400797400,22.33279736328125,0.698066234588623,0.4694499373435974,0.27870726585388184
1747978249419057700,22.3510576171875,0.5068654417991638,-0.03222314268350601,0.14095716178417206
1747978249437314800,22.369314697265626,0.3683517575263977,-0.04642575979232788,0.03436116874217987
1747978249455593200,22.38759326171875,0.3219259977340698,0.22388210892677307,-0.02977968007326126
1747978249473856000,22.40585595703125,0.16814066469669342,0.3139847218990326,0.010995574295520782
1747978249492123600,22.42412353515625,0.06108652427792549,0.6954700946807861,0.030543262138962746
1747978249510384600,22.442384521484374,0.039095375686883926,1.3379476070404053,-0.5560401082038879
1747978249528651300,22.4606513671875,-0.1722639948129654,1.298241376876831,-1.7493653297424316
1747978249546916900,22.478916748046874,-0.5071708559989929,0.58062744140625,-2.6400067806243896
1747978249565182000,22.497181884765624,-0.7840455174446106,-0.06215553730726242,-3.023630142211914
1747978249583442700,22.515442626953124,-0.9917397499084473,-0.23900102078914642,-3.1783318519592285
1747978249601713000,22.533712890625,-1.0899362564086914,0.14905111491680145,-3.1873421669006348
1747978249619974700,22.551974609375,-0.9976956844329834,0.7283040881156921,-2.903289794921875
1747978249638241300,22.5702412109375,-0.7504479289054871,1.6394095420837402,-2.383901596069336
1747978249656506000,22.588506103515623,-0.5395467281341553,2.4863743782043457,-1.8857409954071045
1747978249674767600,22.606767578125,-0.6450737118721008,2.548224449157715,-1.64414381980896
1747978249693035000,22.625034912109374,-0.561079740524292,1.9402607679367065,-1.5410603284835815
1747978249711302100,22.64330224609375,-0.47448956966400146,0.8330674767494202,-1.5486961603164673
1747978249729566000,22.66156591796875,-0.5566509366035461,-0.2545780837535858,-1.4631749391555786
1747978249747832800,22.679832763671875,-0.6453791260719299,-1.1155925989151,-1.1898127794265747
1747978249766094800,22.6980947265625,-0.7333437204360962,-1.731955647468567,-0.8248208165168762
1747978249784360700,22.716360595703126,-0.8257371187210083,-1.7704402208328247,-0.6618725061416626
1747978249802625500,22.73462548828125,-0.8611672520637512,-1.069472312927246,-0.6867652535438538
1747978249820893000,22.752892822265625,-0.7504479289054871,-0.43188172578811646,-0.5665774941444397
