time,seconds_elapsed,z,y,x
1747543309798605600,0.13960546875,0.3273582458496094,0.36486196517944336,-0.19648659229278564
1747543309816872200,0.1578720703125,-0.0026674270629882812,0.16974401473999023,-0.5720101594924927
1747543309835136000,0.176135986328125,0.34769630432128906,-0.06636190414428711,-0.4767914414405823
1747543309853402600,0.194402587890625,-0.17012453079223633,0.2710747718811035,-0.7936151623725891
1747543309871666400,0.21266650390625,-0.7334146499633789,1.537853717803955,-1.0609983205795288
1747543309889932500,0.2309326171875,-0.38869476318359375,0.9164652824401855,-0.9282220602035522
1747543309908196600,0.249196533203125,0.04132509231567383,-1.3361330032348633,-1.1403851509094238
1747543309926462700,0.267462646484375,0.3846745491027832,-1.68473482131958,0.21940314769744873
1747543309944726800,0.285726806640625,-0.33167457580566406,-1.697270393371582,1.0131663084030151
1747543309962993200,0.3039931640625,-0.7470836639404297,-1.3690075874328613,0.9200778007507324
1747543309981253600,0.322253662109375,-0.2062826156616211,-0.5590567588806152,1.3826454877853394
1747543309999526400,0.3405263671875,-0.33150243759155273,-0.06482505798339844,2.1664481163024902
1747543310017787100,0.358787109375,2.148959159851074,-0.09446048736572266,2.9363279342651367
1747543310036053200,0.37705322265625,-0.2266097068786621,0.027693748474121094,-2.4244656562805176
1747543310054316000,0.39531591796875,-2.0641627311706543,-0.4731473922729492,-3.7198939323425293
1747543310072583400,0.41358349609375,-1.521280288696289,-0.9611124992370605,-2.9561221599578857
1747543310090847500,0.431847412109375,-0.7720284461975098,-1.0108304023742676,-0.7432292699813843
1747543310109113600,0.450113525390625,-0.4207911491394043,-0.7320566177368164,-0.5349435806274414
1747543310127377700,0.468377685546875,-1.1983270645141602,-0.18410110473632812,-0.7747466564178467
1747543310145643800,0.486643798828125,-1.4229588508605957,-0.3674445152282715,-1.2328317165374756
1747543310163907800,0.504907958984375,-0.9940900802612305,-0.5121912956237793,-1.8873995542526245
1747543310182174000,0.523174072265625,-0.38057947158813477,-1.0159039497375488,-0.0882863998413086
1747543310200438000,0.54143798828125,1.041440486907959,-0.09313344955444336,-1.516327142715454
1747543310218704000,0.559703857421875,-0.19265031814575195,0.5013875961303711,-5.213945388793945
1747543310236967700,0.5779677734375,-1.4691061973571777,-1.0643715858459473,-3.109884262084961
1747543310255234600,0.596234619140625,-0.9311718940734863,-0.2716183662414551,-2.137460470199585
1747543310273498000,0.614498046875,0.7076201438903809,0.6880602836608887,-0.5511884689331055
1747543310291764700,0.6327646484375,1.995272159576416,0.8545851707458496,-0.0018205642700195312
1747543310310028300,0.6510283203125,2.7433223724365234,-0.0582585334777832,-0.505434513092041
1747543310328294700,0.669294677734375,1.717024326324463,-0.09672975540161133,-2.9658539295196533
1747543310346558500,0.687558349609375,-0.7474174499511719,0.5756487846374512,-5.960780620574951
1747543310364824800,0.705824951171875,-2.691347122192383,-0.14749789237976074,-4.555703163146973
1747543310383089000,0.7240888671875,-1.104660987854004,0.6102793216705322,-2.5169477462768555
1747543310401355000,0.74235498046875,1.9180541038513184,0.9221746921539307,-0.6980085372924805
1747543310419618600,0.76061865234375,0.6341676712036133,1.629594087600708,-2.755689859390259
1747543310437885000,0.778885009765625,0.7820382118225098,2.1606225967407227,-3.3760428428649902
1747543310456149000,0.79714892578125,0.15985918045043945,2.8021929264068604,-1.5631427764892578
1747543310474403000,0.815403076171875,-0.9697422981262207,2.803798198699951,-1.3795742988586426
1747543310492679200,0.83367919921875,-2.914926052093506,1.9774844646453857,-2.6290624141693115
1747543310510945500,0.851945556640625,-5.620429039001465,1.746019721031189,-2.74985408782959
1747543310529209600,0.870209716796875,-5.088772773742676,1.4392685890197754,-1.2338676452636719
1747543310547475700,0.888475830078125,-4.083840847015381,1.5478392839431763,-0.9113821983337402
1747543310565739800,0.90673974609375,0.04022645950317383,0.7723989486694336,-0.5308980941772461
1747543310584005600,0.925005615234375,2.5930557250976562,0.1346750259399414,0.5711650848388672
1747543310602269200,0.943269287109375,2.430384635925293,1.174617886543274,2.578336715698242
1747543310620530400,0.961530517578125,1.3436157703399658,2.47082781791687,2.508190155029297
1747543310638799600,0.979799560546875,0.6339237689971924,1.9501374959945679,1.9370718002319336
1747543310657064200,0.998064208984375,2.300600290298462,1.6655216217041016,2.1494083404541016
1747543310675329300,1.016329345703125,2.8598673343658447,2.2090721130371094,1.9963550567626953
1747543310693597000,1.034596923828125,2.1305885314941406,2.417311668395996,1.8626489639282227
1747543310711854600,1.0528544921875,1.0585992336273193,1.7073137760162354,1.903188705444336
1747543310730120200,1.0711201171875,0.21163088083267212,1.025545597076416,2.826488494873047
1747543310748391000,1.089390869140625,-1.029008388519287,0.7729055881500244,2.7568588256835938
1747543310766654700,1.10765478515625,0.3272678852081299,1.2739145755767822,2.7948923110961914
1747543310784921000,1.125921142578125,2.56007719039917,1.550583839416504,2.432405471801758
1747543310803185700,1.144185546875,3.621866226196289,1.8950533866882324,0.7524213790893555
1747543310821442300,1.1624423828125,0.9197559356689453,2.18825364112854,0.29639244079589844
1747543310839714800,1.18071484375,1.1839252710342407,2.03688645362854,2.172727584838867
1747543310857979100,1.198979248046875,1.7626233100891113,1.9729442596435547,3.08465576171875
1747543310876246000,1.21724609375,2.967191696166992,1.0645570755004883,2.102816581726074
1747543310894511600,1.23551171875,2.495575189590454,0.014857769012451172,0.38637542724609375
1747543310912771600,1.253771484375,2.653453826904297,-0.035121917724609375,-0.2063589096069336
1747543310931036000,1.272035888671875,5.148902416229248,-0.701322078704834,0.7770605087280273
1747543310949306600,1.290306640625,-3.8474440574645996,-2.7416348457336426,3.162875175476074
1747543310967569400,1.3085693359375,-2.536653518676758,-2.016174793243408,2.8002147674560547
1747543310985841400,1.32684130859375,2.8321690559387207,0.11843991279602051,3.472017288208008
1747543311004102000,1.345101806640625,3.7430076599121094,-0.6679801940917969,1.6970300674438477
1747543311022361900,1.36336181640625,1.8991236686706543,-0.6021449565887451,-0.3028879165649414
1747543311040626000,1.3816259765625,-1.6186318397521973,-0.6164405345916748,-0.3792552947998047
1747543311058897400,1.3998974609375,-4.228609085083008,-1.1291403770446777,-0.9525346755981445
1747543311077159700,1.41815966796875,-3.441103219985962,-0.2299637794494629,0.006351470947265625
1747543311095427800,1.436427734375,0.4155857563018799,0.44538378715515137,0.9290838241577148
1747543311113687800,1.454687744140625,4.5652570724487305,0.5131444931030273,0.22902584075927734
1747543311131952600,1.47295263671875,4.520719528198242,0.03282523155212402,-0.9678330421447754
1747543311150216400,1.491216552734375,2.2253024578094482,0.04951810836791992,-0.20450687408447266
1747543311168487400,1.5094873046875,1.2430658340454102,0.39174675941467285,1.2739648818969727
1747543311186750200,1.527750244140625,-0.5986077785491943,1.0439753532409668,1.5491838455200195
1747543311205007600,1.546007568359375,2.3021891117095947,0.28900861740112305,0.6191387176513672
1747543311223270100,1.564270263671875,3.3187084197998047,0.7322206497192383,2.196660041809082
1747543311241543000,1.58254296875,2.723600149154663,1.0311973094940186,2.8582611083984375
1747543311259811600,1.6008115234375,2.296093463897705,0.8094475269317627,2.9338502883911133
1747543311278076700,1.61907666015625,1.216988444328308,0.7709500789642334,0.2225961685180664
1747543311296330200,1.637330322265625,-0.36948561668395996,1.3177759647369385,2.06113338470459
1747543311314611200,1.655611083984375,-2.2892043590545654,2.8244991302490234,4.404077529907227
1747543311332871700,1.67387158203125,-0.5951330661773682,2.9500677585601807,7.009305953979492
1747543311351132200,1.692132080078125,2.7997887134552,2.517481565475464,6.467489242553711
1747543311369403000,1.71040283203125,3.8137388229370117,0.5936026573181152,3.0110158920288086
1747543311387667500,1.72866748046875,0.71207594871521,-0.46753931045532227,1.4374284744262695
1747543311405932000,1.74693212890625,-3.1518681049346924,1.3144707679748535,0.41849327087402344
1747543311424199700,1.76519970703125,-1.8192338943481445,0.12716460227966309,-0.8846826553344727
1747543311442457900,1.783457763671875,0.8686258792877197,-1.420960545539856,-3.0983166694641113
1747543311460723200,1.80172314453125,2.3364951610565186,-1.673642635345459,-3.132040023803711
1747543311478997500,1.81999755859375,0.9470682144165039,-1.4047352075576782,-1.8872284889221191
1747543311497257200,1.83825732421875,-0.38855409622192383,0.29954108595848083,0.6984052658081055
1747543311515522600,1.8565224609375,0.9992470741271973,0.9258496165275574,1.827347755432129
1747543311533790000,1.8747900390625,1.7406044006347656,0.5849534273147583,-0.1963510513305664
1747543311552047900,1.8930478515625,2.9513323307037354,1.7628966569900513,-0.374636173248291
1747543311570314000,1.91131396484375,3.561710834503174,2.349550247192383,0.11754417419433594
1747543311588582700,1.929582763671875,3.5844998359680176,2.2206177711486816,-0.9410085678100586
1747543311606847500,1.947847412109375,0.30165767669677734,2.9948723316192627,-1.0775952339172363
1747543311625115000,1.966114990234375,-2.5695409774780273,3.665480136871338,-1.9216198921203613
1747543311643378400,1.98437841796875,-2.939075469970703,1.228183627128601,-2.494516372680664
1747543311661638100,2.00263818359375,-0.771183967590332,-1.7880828380584717,-2.7095978260040283
1747543311679904300,2.020904296875,0.3074073791503906,-3.5552234649658203,-1.681792140007019
1747543311698171600,2.039171630859375,-3.900289535522461,-3.9230904579162598,-0.9872877597808838
1747543311716439800,2.057439697265625,-0.22398757934570312,-3.039116382598877,-0.27547740936279297
1747543311734699300,2.07569921875,3.0409798622131348,-4.920704364776611,-0.24544572830200195
1747543311752969200,2.09396923828125,3.278547763824463,-3.6929919719696045,-0.13007497787475586
1747543311771228200,2.112228271484375,0.6256575584411621,0.9486737251281738,-1.088125228881836
1747543311789499400,2.13049951171875,-0.42346763610839844,3.682342767715454,0.03751993179321289
1747543311807762200,2.14876220703125,-0.6784534454345703,3.127271890640259,0.23269128799438477
1747543311826031400,2.16703125,-0.4791526794433594,1.3318073749542236,-1.6324152946472168
1747543311844294700,2.185294677734375,-0.7649674415588379,0.9526300430297852,-2.5972580909729004
1747543311862555000,2.203554931640625,1.7526955604553223,-0.3225209712982178,0.2594156265258789
1747543311880818700,2.221818603515625,1.5438885688781738,-1.142209529876709,1.3139147758483887
1747543311899089700,2.240089599609375,0.515601634979248,1.5290842056274414,0.051352500915527344
1747543311917352400,2.2583525390625,1.9665050506591797,1.5545551776885986,1.6659903526306152
1747543311935619600,2.27661962890625,2.2103629112243652,1.3284058570861816,4.167259216308594
1747543311953885000,2.294885009765625,1.2348875999450684,0.44943857192993164,0.2644634246826172
1747543311972143900,2.313143798828125,0.02361917495727539,0.48826122283935547,-0.01361227035522461
1747543311990410000,2.331409912109375,-0.5385160446166992,0.5231399536132812,0.04004478454589844
1747543312008682800,2.349682861328125,0.6226863861083984,0.32709312438964844,-0.6517705917358398
1747543312026942700,2.367942626953125,1.457298755645752,-0.7181527614593506,-2.723809003829956
1747543312045211400,2.38621142578125,0.8553848266601562,-2.7269067764282227,-4.302746772766113
1747543312063474000,2.404473876953125,0.7127432823181152,-3.277933359146118,-3.609104871749878
1747543312081735700,2.422735595703125,0.3616781234741211,-2.1904890537261963,-1.93695068359375
1747543312099996000,2.440995849609375,1.6955418586730957,-0.3891456127166748,-0.5149364471435547
1747543312118275600,2.459275634765625,0.6098766326904297,1.5737210512161255,1.922379493713379
1747543312136519700,2.477519775390625,-2.2195653915405273,4.230723857879639,4.009804725646973
1747543312154801700,2.4958017578125,-2.298126220703125,5.699190139770508,4.867432117462158
1747543312173064400,2.514064453125,-0.6548490524291992,4.607539176940918,4.384161472320557
1747543312191325700,2.53232568359375,0.05265188217163086,3.5551013946533203,3.0012030601501465
1747543312209594000,2.550593994140625,-0.2644319534301758,3.7921106815338135,0.8972396850585938
1747543312227859200,2.568859130859375,-0.5372085571289062,2.8424482345581055,-0.6437139511108398
1747543312246124500,2.58712451171875,0.6911706924438477,0.8677160739898682,-0.29406118392944336
1747543312264392000,2.605391845703125,1.05672025680542,-1.118463158607483,0.1273641586303711
1747543312282649600,2.623649658203125,1.158818244934082,-0.4085729122161865,-0.6317610740661621
1747543312300916000,2.641916015625,0.46954822540283203,-0.4642428755760193,-1.3947935104370117
1747543312319184400,2.660184326171875,0.2965846061706543,0.08360874652862549,-0.7485723495483398
1747543312337451800,2.67845166015625,0.5799717903137207,2.2960054874420166,0.6167235374450684
1747543312355708200,2.696708251953125,0.7287564277648926,2.8691656589508057,0.8437275886535645
1747543312373983000,2.71498291015625,-0.5929064750671387,1.3989403247833252,0.5728535652160645
1747543312392240000,2.733240234375,0.6493983268737793,0.14752012491226196,-0.3927187919616699
1747543312410506000,2.751506103515625,2.5531249046325684,-1.353337049484253,0.24029207229614258
1747543312428775000,2.76977490234375,1.3784661293029785,-2.808954954147339,0.7210640907287598
1747543312447039700,2.788039794921875,0.22519159317016602,-1.1409423351287842,0.027206897735595703
1747543312465305300,2.806305419921875,-0.3571348190307617,0.40231722593307495,0.1434164047241211
1747543312483572200,2.824572265625,-0.45357656478881836,0.9884850978851318,0.3021731376647949
1747543312501830100,2.842830078125,-0.18229103088378906,1.4962997436523438,0.5024480819702148
1747543312520090000,2.861090087890625,-0.8535218238830566,0.8382737636566162,0.6206755638122559
1747543312538353700,2.879353759765625,0.734889030456543,-0.5242587327957153,-0.26438140869140625
1747543312556632800,2.8976328125,0.5210881233215332,-0.5796658992767334,-0.18349838256835938
1747543312574896400,2.915896484375,0.6009254455566406,1.543797254562378,-0.0644536018371582
1747543312593162200,2.934162353515625,1.0278325080871582,0.734768807888031,0.27777624130249023
1747543312611421000,2.9524208984375,0.8291277885437012,0.0011883974075317383,0.04033088684082031
1747543312629686000,2.97068603515625,0.2629985809326172,-0.6370296478271484,0.1296977996826172
1747543312647954200,2.9889541015625,-0.7191109657287598,-1.0648902654647827,-0.16484880447387695
1747543312666221800,3.007221923828125,-0.8580679893493652,-1.3715167045593262,1.099158763885498
1747543312684487000,3.02548681640625,0.8885049819946289,0.4870563745498657,1.107858657836914
1747543312702746600,3.04374658203125,1.7698760032653809,0.6946799755096436,0.5205259323120117
1747543312721006600,3.062006591796875,0.6272544860839844,1.6259396076202393,2.7868027687072754
1747543312739281200,3.08028125,-0.19655990600585938,3.196613311767578,1.1703219413757324
1747543312757544700,3.098544677734375,-1.2566170692443848,2.895177125930786,-0.7992115020751953
1747543312775811800,3.116811767578125,-1.2643742561340332,2.6609630584716797,-1.505220890045166
1747543312794077000,3.135076904296875,0.9489059448242188,2.9109718799591064,-1.8082079887390137
1747543312812337200,3.153337158203125,1.807054042816162,2.28714656829834,-2.4868171215057373
1747543312830601000,3.17160107421875,1.0423598289489746,0.7151885628700256,-1.9432048797607422
1747543312848872000,3.189871826171875,1.0355181694030762,0.6091479063034058,-1.4718804359436035
1747543312867134700,3.208134765625,-0.23262977600097656,0.04468894004821777,-0.24838972091674805
1747543312885400300,3.226400390625,-1.2205901145935059,-1.2747400999069214,0.06900930404663086
1747543312903669000,3.2446689453125,0.17269229888916016,-1.2925153970718384,-0.846461296081543
1747543312921926000,3.26292578125,0.4735126495361328,-0.09776866436004639,0.6116695404052734
1747543312940193000,3.281193115234375,0.14594411849975586,1.8053545951843262,3.2544918060302734
1747543312958463500,3.29946337890625,0.5473599433898926,3.798121929168701,6.819799900054932
1747543312976728600,3.317728515625,0.29778051376342773,3.2444164752960205,4.043980121612549
1747543312994998800,3.335998779296875,0.12371969223022461,1.1499884128570557,1.161954402923584
1747543313013256200,3.354256103515625,1.439725399017334,0.8825867176055908,0.06445026397705078
1747543313031517400,3.372517333984375,1.2568349838256836,3.4263086318969727,-0.3769807815551758
1747543313049786400,3.390786376953125,-1.0659427642822266,5.6043806076049805,-0.2413954734802246
1747543313068051200,3.40905126953125,-2.545858383178711,4.7174530029296875,0.3387885093688965
1747543313086316300,3.42731640625,-0.2607889175415039,2.853610038757324,0.273439884185791
1747543313104583700,3.445583740234375,-0.5520124435424805,1.5515706539154053,1.6130547523498535
1747543313122857500,3.463857421875,0.29355859756469727,1.090585708618164,0.14578580856323242
1747543313141108200,3.482108154296875,3.2975616455078125,-2.836514949798584,-3.2668628692626953
1747543313159376100,3.500376220703125,4.424818515777588,-3.0891242027282715,-0.1473546028137207
1747543313177641500,3.518641357421875,1.7807321548461914,-2.721921920776367,0.895477294921875
1747543313195906600,3.536906494140625,-0.4678335189819336,-1.8297240734100342,0.20578289031982422
1747543313214162400,3.555162353515625,-0.5720295906066895,-0.7203872203826904,0.7350325584411621
1747543313232431400,3.573431396484375,-0.6635851860046387,0.6224817037582397,2.087338447570801
1747543313250699300,3.59169921875,0.2771773338317871,-0.8651552200317383,0.6426191329956055
1747543313268966700,3.609966552734375,-0.6162042617797852,-2.8262174129486084,0.05272674560546875
1747543313287231700,3.628231689453125,-0.5951633453369141,-2.290367603302002,0.04840421676635742
1747543313305497000,3.6464970703125,-2.336085319519043,-0.26682472229003906,2.472416400909424
1747543313323764000,3.664763916015625,-1.983940601348877,-3.9766945838928223,0.2771778106689453
1747543313342023200,3.683023193359375,-0.8716692924499512,-2.6206610202789307,0.5979156494140625
1747543313360288000,3.7012880859375,-1.0736494064331055,-2.183140993118286,0.22939252853393555
1747543313378556700,3.719556640625,1.0372934341430664,0.08075666427612305,3.767998695373535
1747543313396821800,3.73782177734375,1.997453212738037,2.3789069652557373,6.292481422424316
1747543313415088400,3.75608837890625,2.4650087356567383,5.647466659545898,5.59861421585083
1747543313433353000,3.77435302734375,2.0232796669006348,5.661163330078125,-2.0896124839782715
1747543313451612200,3.792612060546875,4.051416873931885,1.9037835597991943,-5.613207817077637
1747543313469878300,3.810878173828125,3.809206962585449,2.111036777496338,-1.9002001285552979
1747543313488146000,3.82914599609375,4.633130073547363,1.6219892501831055,-1.9748907089233398
1747543313506413000,3.8474130859375,1.0232696533203125,1.2815545797348022,-2.59831166267395
1747543313524679000,3.865678955078125,-6.741918563842773,1.9138060808181763,1.5307340621948242
1747543313542943500,3.883943603515625,-1.7217683792114258,2.098262071609497,4.594668388366699
1747543313561202200,3.9022021484375,2.137584686279297,-0.3512507677078247,0.19467639923095703
1747543313579473200,3.92047314453125,3.2601356506347656,-2.2816853523254395,-1.4449137449264526
1747543313597736000,3.93873583984375,2.9612607955932617,-1.2836600542068481,4.713128089904785
1747543313616000300,3.957000244140625,-0.35627174377441406,0.6172094941139221,2.0686426162719727
1747543313634270000,3.97527001953125,-3.792116165161133,1.8816204071044922,1.1258702278137207
1747543313652528400,3.9935283203125,-1.3721065521240234,1.2915643453598022,-0.8237912654876709
1747543313670792700,4.011792724609375,-0.2691373825073242,0.5812586545944214,0.36811113357543945
1747543313689063400,4.0300634765625,-0.9475221633911133,0.3056480884552002,1.0849418640136719
1747543313707326200,4.048326171875,-1.7860383987426758,1.6625347137451172,0.10762643814086914
1747543313725585200,4.066585205078125,2.015976905822754,1.606147289276123,0.5424904823303223
1747543313743858400,4.0848583984375,0.9014925956726074,0.9268195033073425,0.5800952911376953
1747543313762118000,4.103117919921875,-1.0041685104370117,0.28992128372192383,0.36710572242736816
1747543313780383500,4.121383544921875,0.7283620834350586,-0.9525249004364014,0.3171513080596924
1747543313798653400,4.1396533203125,1.308316707611084,-0.2929117679595947,1.4016132354736328
1747543313816916200,4.157916259765625,1.9137167930603027,0.8174289464950562,1.9813296794891357
1747543313835185200,4.17618505859375,-0.009131431579589844,0.9166488647460938,0.10463309288024902
1747543313853448200,4.1944482421875,-2.1169958114624023,-0.08228945732116699,-0.28319239616394043
1747543313871714000,4.212714111328125,-0.7447729110717773,0.43147313594818115,0.7480909824371338
1747543313889978000,4.23097802734375,-0.03120899200439453,0.4889662265777588,2.131354570388794
1747543313908244200,4.249244140625,6.116336822509766,1.8622431755065918,4.236783027648926
1747543313926507800,4.2675078125,-2.0050125122070312,-0.4404120445251465,-2.9281885623931885
1747543313944774100,4.285774169921875,-1.254532814025879,0.7247928380966187,-1.5500154495239258
1747543313963038200,4.3040380859375,0.3655118942260742,0.6417245864868164,-0.11601591110229492
1747543313981301800,4.3223017578125,2.743903636932373,-0.27535414695739746,-0.7625613212585449
1747543313999566300,4.34056640625,2.595256805419922,0.8867663145065308,0.05446577072143555
1747543314017839000,4.358839111328125,-3.1082763671875,1.6271467208862305,0.9579670429229736
1747543314036098300,4.377098388671875,-2.1052398681640625,-0.6084836721420288,1.4745545387268066
1747543314054364400,4.395364501953125,1.3806438446044922,-0.08664083480834961,1.5168547630310059
1747543314072628200,4.413628173828125,1.9239325523376465,0.5383332967758179,0.8968641757965088
1747543314090894600,4.43189453125,0.8144235610961914,0.012050449848175049,0.3011515140533447
1747543314109158400,4.450158447265625,0.7327194213867188,-0.29875481128692627,0.16831398010253906
1747543314127424000,4.468424072265625,1.5784449577331543,-0.13849788904190063,-0.5722091197967529
1747543314145688300,4.486688232421875,-0.5488615036010742,0.37060850858688354,-0.020565509796142578
1747543314163954400,4.504954345703125,-0.6532497406005859,0.3164728879928589,0.5695028305053711
1747543314182218500,4.523218505859375,-0.4639606475830078,0.3749324083328247,1.220367431640625
1747543314200484600,4.541484619140625,-0.23807239532470703,-0.0662757158279419,2.278822422027588
1747543314218748400,4.55974853515625,0.08901405334472656,1.4648066759109497,0.6606144905090332
1747543314237014500,4.5780146484375,0.5645456314086914,1.2087572813034058,-0.5091032981872559
1747543314255278000,4.596278076171875,1.3396415710449219,0.34527742862701416,-0.21394920349121094
1747543314273544700,4.614544677734375,0.5700473785400391,0.12772822380065918,0.436098575592041
1747543314291799800,4.6327998046875,-0.08193397521972656,-0.042238712310791016,0.9089131355285645
1747543314310074600,4.65107470703125,-0.10010242462158203,0.780712366104126,1.2789831161499023
1747543314328338200,4.669338134765625,-0.25067758560180664,1.8137712478637695,0.7269630432128906
1747543314346604800,4.687604736328125,-0.35106658935546875,1.583876132965088,0.4739995002746582
1747543314364868400,4.705868408203125,-0.14467430114746094,1.351029396057129,0.33107662200927734
1747543314383134700,4.724134765625,-0.29610776901245117,1.1148051023483276,0.8637890815734863
1747543314401398300,4.742398193359375,-1.3098688125610352,-0.2175348997116089,0.9098572731018066
1747543314419664600,4.76066455078125,-2.374516487121582,4.522328853607178,0.5678982734680176
1747543314437928400,4.778928466796875,-1.9409666061401367,3.050475835800171,1.2380056381225586
1747543314456194800,4.79719482421875,0.9394917488098145,-0.6146390438079834,0.6630945205688477
1747543314474458400,4.815458251953125,4.285376071929932,-3.236941337585449,0.6789042949676514
1747543314492724700,4.833724853515625,4.421928405761719,-3.578245162963867,-0.5705771446228027
1747543314510988300,4.85198828125,2.9172139167785645,-1.5875416994094849,-0.22851061820983887
1747543314529255000,4.8702548828125,1.1280174255371094,-0.6104881763458252,-0.4563932418823242
1747543314547518700,4.888518798828125,-0.573822021484375,0.4379217028617859,-0.008180618286132812
1747543314565784800,4.906784912109375,0.1612863540649414,1.7863073348999023,0.6226711273193359
1747543314584049000,4.925048828125,-1.8007850646972656,2.5271449089050293,0.10031843185424805
1747543314602315000,4.94331494140625,-2.733102798461914,1.6926206350326538,0.9856643676757812
1747543314620567300,4.9615673828125,-0.8570775985717773,1.0382493734359741,1.1612129211425781
1747543314638845000,4.979844970703125,0.6406335830688477,-0.1258983612060547,0.5949840545654297
1747543314657108700,4.998108642578125,1.300178050994873,-0.2740134000778198,0.6040635108947754
1747543314675374800,5.016374755859375,1.280494213104248,0.30599546432495117,0.6634578704833984
1747543314693639000,5.034638916015625,1.01826810836792,0.5757659673690796,0.5458178520202637
1747543314711905300,5.0529052734375,0.8446722030639648,0.4094530940055847,0.3117542266845703
1747543314730168800,5.0711689453125,0.3821139335632324,-0.564054012298584,-0.23741817474365234
1747543314748435000,5.08943505859375,-0.8990039825439453,0.12912285327911377,0.41722822189331055
1747543314766699000,5.107698974609375,-0.9198446273803711,0.8324018120765686,1.2890777587890625
1747543314784965000,5.125965087890625,-0.10218238830566406,0.8565852046012878,0.8606047630310059
1747543314803229000,5.14422900390625,0.815610408782959,0.6202117800712585,0.737769603729248
1747543314821494800,5.162494873046875,-0.38194847106933594,0.7859553098678589,0.17124652862548828
1747543314839759000,5.180759033203125,-0.1026163101196289,0.06109881401062012,0.18609619140625
1747543314858025200,5.199025146484375,0.23727893829345703,-0.04523158073425293,0.23528337478637695
1747543314876288800,5.217288818359375,-0.36105918884277344,-0.11769914627075195,-0.0602421760559082
1747543314894555000,5.235554931640625,1.3914837837219238,0.28505539894104004,0.06895589828491211
1747543314912818700,5.253818603515625,1.3654141426086426,0.7671720385551453,0.1268153190612793
1747543314931085000,5.2720849609375,0.35382080078125,0.9506512880325317,0.6799392700195312
1747543314949349000,5.29034912109375,-0.42557430267333984,1.2197948694229126,1.157031536102295
1747543314967615000,5.308614990234375,0.000850677490234375,1.365383505821228,1.1413569450378418
1747543314985876500,5.32687646484375,1.3993945121765137,0.9136250019073486,0.12604665756225586
1747543315004145000,5.345144775390625,0.6590628623962402,-0.7664905786514282,-0.17382287979125977
1747543315022408400,5.363408447265625,-0.011857032775878906,0.42946362495422363,0.6216144561767578
1747543315040672000,5.381672119140625,0.4290952682495117,0.16337871551513672,0.6416239738464355
1747543315058942000,5.39994189453125,0.21600723266601562,0.17656612396240234,0.3855876922607422
1747543315077203000,5.418202880859375,-0.4504823684692383,0.30731356143951416,0.5924034118652344
1747543315095471000,5.43647119140625,-0.39724254608154297,0.4172995686531067,0.5471234321594238
1747543315113735000,5.45473486328125,0.011582374572753906,0.3522297143936157,0.14205026626586914
1747543315131999000,5.4729990234375,0.8839201927185059,0.2846691608428955,-0.4495081901550293
1747543315150265000,5.49126513671875,0.4222698211669922,0.5858744382858276,-0.08903026580810547
1747543315168529000,5.50952880859375,0.08479022979736328,0.8331467509269714,0.04080820083618164
1747543315186794800,5.527794677734375,0.8877339363098145,0.8199871778488159,-0.1968073844909668
1747543315205059000,5.54605908203125,0.6428394317626953,0.037393808364868164,-1.3715388774871826
1747543315223325000,5.564324951171875,0.14170265197753906,1.181959867477417,-1.0849318504333496
1747543315241589200,5.58258935546875,-0.5353116989135742,1.7477375268936157,-0.32621002197265625
1747543315259854800,5.600854736328125,0.19472122192382812,1.4875216484069824,0.6232566833496094
1747543315278119200,5.619119140625,0.9959230422973633,0.557640016078949,1.1098179817199707
1747543315296374000,5.6373740234375,1.2131495475769043,0.1574065089225769,1.3602652549743652
1747543315314649000,5.655649169921875,1.220552921295166,0.25292426347732544,0.6031551361083984
1747543315332916000,5.673916015625,0.3961477279663086,1.3539810180664062,1.0556292533874512
1747543315351179000,5.692178955078125,-0.4618091583251953,0.1468871831893921,1.6745386123657227
1747543315369432800,5.710432861328125,-0.7135343551635742,-0.3519599437713623,0.6620774269104004
1747543315387708400,5.72870849609375,0.21722030639648438,-0.4355289936065674,0.65826416015625
1747543315405974800,5.746974853515625,0.5110616683959961,0.039763689041137695,0.4275360107421875
1747543315424238800,5.76523876953125,0.42243289947509766,-0.06141841411590576,0.48097658157348633
1747543315442505000,5.7835048828125,0.22000455856323242,-0.1397639513015747,1.2246336936950684
1747543315460769000,5.80176904296875,-0.08233642578125,0.07487821578979492,0.861351490020752
1747543315479034600,5.82003466796875,0.1962261199951172,-0.19491231441497803,0.5331306457519531
1747543315497298700,5.838298583984375,0.3112778663635254,-0.8899440765380859,0.27494382858276367
1747543315515561000,5.85656103515625,-0.27166318893432617,-0.2643113136291504,0.4872002601623535
1747543315533832400,5.87483251953125,-0.14022397994995117,-0.2694035768508911,0.6926021575927734
1747543315552094700,5.8930947265625,-0.6035051345825195,0.04103410243988037,0.514183521270752
1747543315570358800,5.91135888671875,0.5659723281860352,0.7666932344436646,0.49141693115234375
1747543315588625000,5.929625,1.3745651245117188,0.7577635049819946,0.26473569869995117
1747543315606888700,5.947888671875,0.0703277587890625,0.8164269924163818,-0.4243659973144531
1747543315625154300,5.966154296875,-0.2004561424255371,1.065795660018921,-0.5620017051696777
1747543315643419000,5.9844189453125,0.35050153732299805,1.699474811553955,0.5443382263183594
1747543315661684700,6.002684814453125,0.9301552772521973,0.7557896971702576,0.6152801513671875
1747543315679948800,6.02094873046875,-0.2157306671142578,1.2221653461456299,0.9279050827026367
1747543315698215000,6.03921484375,-0.0841665267944336,0.8434430956840515,0.5341153144836426
1747543315716476000,6.057475830078125,0.8599004745483398,-0.09783774614334106,-0.10571718215942383
1747543315734744300,6.075744384765625,0.6661820411682129,0.4573971629142761,0.054981231689453125
1747543315753005000,6.094005126953125,0.4276280403137207,0.7099794745445251,-0.2208099365234375
1747543315771274800,6.112274658203125,0.9318337440490723,1.8472251892089844,0.030714988708496094
1747543315789538600,6.13053857421875,1.545083999633789,2.2051002979278564,-0.06015634536743164
1747543315807805000,6.148804931640625,1.483449935913086,2.349085569381714,0.19008684158325195
1747543315826068200,6.167068115234375,1.467841625213623,3.6283297538757324,-0.11777400970458984
1747543315844334600,6.18533447265625,1.1091609001159668,0.7380141615867615,2.2075047492980957
1747543315862598700,6.2035986328125,-0.2389059066772461,-0.7623978853225708,1.5039196014404297
1747543315880864500,6.221864501953125,-2.167194366455078,-3.6748204231262207,-0.08103322982788086
1747543315899128600,6.240128662109375,-0.9035491943359375,-1.4888076782226562,-0.7141499519348145
1747543315917394700,6.258394775390625,1.466855525970459,-1.372860074043274,-1.146042823791504
1747543315935658200,6.276658203125,0.879824161529541,-0.4190746545791626,0.22693157196044922
1747543315953924600,6.294924560546875,-0.14350271224975586,0.22635185718536377,1.1477179527282715
1747543315972188400,6.3131884765625,-0.25577831268310547,0.6924020051956177,1.5618247985839844
1747543315990454800,6.331454833984375,-0.13845109939575195,2.8945841789245605,1.5626683235168457
1747543316008718300,6.34971826171875,-0.7701067924499512,2.359923839569092,-0.41927480697631836
1747543316026984000,6.36798388671875,0.6732230186462402,2.618861675262451,-1.5016899108886719
1747543316045248500,6.38624853515625,2.9488067626953125,0.2254047393798828,-2.2892303466796875
1747543316063514400,6.404514404296875,2.694650411605835,-0.758131742477417,-1.3650288581848145
1747543316081778200,6.422778076171875,1.5106396675109863,2.8170995712280273,-0.29009103775024414
1747543316100044300,6.441044189453125,0.21503639221191406,0.01592862606048584,-1.2776236534118652
1747543316118308000,6.45930810546875,-1.0951995849609375,-3.8738348484039307,-0.3979668617248535
1747543316136574500,6.477574462890625,-2.0334954261779785,-4.546171188354492,2.086367607116699
1747543316154837200,6.495837158203125,-1.4256081581115723,-2.4850292205810547,3.360261917114258
1747543316173105400,6.51410546875,0.6262731552124023,0.03734636306762695,2.2226667404174805
1747543316191368200,6.5323681640625,0.34825563430786133,-0.45009660720825195,1.8905067443847656
1747543316209634300,6.55063427734375,0.24636363983154297,-0.14946460723876953,1.3488712310791016
1747543316227897600,6.568897705078125,-0.05006599426269531,-0.24547231197357178,0.5243616104125977
1747543316246164200,6.587164306640625,0.21438312530517578,-0.3090395927429199,0.13002300262451172
1747543316264428000,6.605427978515625,-0.5387978553771973,-0.8081793785095215,-0.7289867401123047
1747543316282694400,6.6236943359375,-0.6485261917114258,-0.43497323989868164,-0.5556440353393555
1747543316300958000,6.6419580078125,0.28350114822387695,0.49832308292388916,-0.29836511611938477
1747543316319224000,6.66022412109375,1.3070323467254639,1.0036230087280273,0.0023860931396484375
1747543316337488000,6.67848779296875,1.1828064918518066,1.2638581991195679,-0.42555952072143555
1747543316355754000,6.69675390625,1.242617130279541,0.8231083154678345,-0.6509799957275391
1747543316374018000,6.71501806640625,1.4011809825897217,0.5365490317344666,-0.5136284828186035
1747543316392284000,6.733283935546875,1.2850308418273926,-0.12344110012054443,-0.5421657562255859
1747543316410536700,6.75153662109375,-0.45902442932128906,0.33041882514953613,0.0883932113647461
1747543316428813300,6.769813232421875,-1.4878296852111816,0.4647371768951416,0.39462852478027344
1747543316447066000,6.788066162109375,-0.7772793769836426,1.0384154319763184,0.5443325042724609
1747543316465344000,6.806343994140625,-0.23507261276245117,1.383527398109436,0.25363922119140625
1747543316483607300,6.824607177734375,0.6103520393371582,0.8144720792770386,-0.34775543212890625
1747543316501873700,6.842873779296875,1.1193628311157227,0.47586703300476074,-0.38548755645751953
1747543316520145400,6.8611455078125,0.9158205986022949,0.4644012451171875,-0.08872318267822266
1747543316538403800,6.87940380859375,0.38216590881347656,0.892479658126831,0.28229427337646484
1747543316556667400,6.89766748046875,0.12026453018188477,1.0067700147628784,0.4638795852661133
1747543316574933500,6.91593359375,-0.34833288192749023,0.9628129005432129,1.130289077758789
1747543316593197300,6.934197265625,0.1080179214477539,0.4368384778499603,0.9383888244628906
1747543316611463400,6.95246337890625,0.23462629318237305,0.18821623921394348,0.15562915802001953
1747543316629727200,6.970727294921875,0.20191526412963867,0.23438721895217896,0.0058879852294921875
1747543316647993600,6.98899365234375,0.66090989112854,0.43155181407928467,-0.12663936614990234
1747543316666257200,7.007257080078125,0.9961163997650146,0.6879780888557434,-0.2834930419921875
1747543316684523300,7.025523193359375,0.08048486709594727,0.5481690764427185,-0.26444244384765625
1747543316702787300,7.043787353515625,-0.0800633430480957,0.39679205417633057,0.047743797302246094
1747543316721038000,7.0620380859375,0.24162912368774414,0.5537378787994385,0.30559730529785156
1747543316739320300,7.0803203125,0.0612034797668457,0.5738154649734497,0.3117551803588867
1747543316757583400,7.098583251953125,0.19365978240966797,0.30702510476112366,0.28965187072753906
1747543316775847200,7.11684716796875,0.5127601623535156,0.23515766859054565,0.49395275115966797
1747543316794113300,7.13511328125,0.2962381839752197,0.1464194357395172,0.5062341690063477
1747543316812376800,7.153376953125,0.01352691650390625,0.36481520533561707,0.21777725219726562
1747543316830643000,7.171642822265625,0.08040142059326172,0.6765795946121216,-0.02140045166015625
1747543316848906800,7.18990673828125,0.4040718078613281,0.7185206413269043,-0.046276092529296875
1747543316867173000,7.208173095703125,1.2299189567565918,1.5625754594802856,2.0435123443603516
1747543316885437000,7.22643701171875,0.2049269676208496,0.20604434609413147,0.8120260238647461
1747543316903702800,7.244702880859375,0.015801429748535156,0.4449712038040161,0.5246391296386719
1747543316921966300,7.26296630859375,0.35442304611206055,0.526253879070282,-0.20807456970214844
1747543316940233000,7.28123291015625,-0.35665416717529297,0.6702925562858582,0.43457794189453125
1747543316958496800,7.299496826171875,0.3027381896972656,-0.6955664157867432,-0.43927955627441406
1747543316976762600,7.3177626953125,0.9489638805389404,-0.9331474304199219,-0.28311634063720703
1747543316995026400,7.3360263671875,0.6972312927246094,-0.18549871444702148,-0.19972705841064453
1747543317013292800,7.354292724609375,0.07190227508544922,0.7072069644927979,-0.37847423553466797
1747543317031556400,7.372556396484375,1.4591255187988281,2.206765651702881,-1.509965419769287
1747543317049822500,7.390822509765625,0.03902864456176758,1.2882134914398193,-0.046883583068847656
1747543317068086300,7.409086181640625,0.443753719329834,1.45448899269104,-0.7662210464477539
1747543317086352000,7.427351806640625,0.6270871162414551,0.9104996919631958,-1.3617324829101562
1747543317104616400,7.445616455078125,-0.022657394409179688,0.39964938163757324,-0.5132884979248047
1747543317122882000,7.463882080078125,-0.9244060516357422,-0.6715118885040283,0.9150667190551758
1747543317141146000,7.48214599609375,-1.6744086742401123,-2.532197952270508,2.0385026931762695
1747543317159412200,7.500412109375,0.23534083366394043,-0.7166476249694824,2.512248992919922
1747543317177676000,7.518676025390625,1.4096128940582275,0.5968027114868164,0.9768466949462891
1747543317195942000,7.53694189453125,0.8568880558013916,1.204624891281128,0.02641010284423828
1747543317214206000,7.5552060546875,0.19878768920898438,1.2949117422103882,-0.4896998405456543
1747543317232469500,7.573469482421875,0.433551549911499,0.6200449466705322,-0.8289484977722168
1747543317250738200,7.59173828125,0.0745229721069336,-0.2534005641937256,-0.39583683013916016
1747543317269001700,7.610001708984375,0.10213804244995117,-0.16290664672851562,-0.006000518798828125
1747543317287265500,7.628265625,0.34122657775878906,0.06996417045593262,0.4826784133911133
1747543317305531600,7.64653173828125,0.20292425155639648,0.5692112445831299,0.7029237747192383
1747543317323795500,7.66479541015625,-0.18531560897827148,0.42240381240844727,0.20137882232666016
1747543317342061800,7.683061767578125,0.17218446731567383,0.03722715377807617,0.09487438201904297
1747543317360325400,7.701325439453125,0.8275754451751709,0.346160888671875,0.12044525146484375
1747543317378591500,7.719591552734375,0.4908723831176758,0.6341519355773926,-0.0045375823974609375
1747543317396855300,7.737855224609375,-0.057041168212890625,0.8635445833206177,-1.02821683883667
1747543317415121400,7.756121337890625,1.5974841117858887,1.9144423007965088,-1.3117032051086426
1747543317433385200,7.77438525390625,0.9311928749084473,0.33786487579345703,1.0747480392456055
1747543317451651000,7.792651123046875,0.9096083641052246,-0.4066352844238281,0.8911066055297852
1747543317469915000,7.810914794921875,-1.0017523765563965,-0.778388500213623,1.1222844123840332
1747543317488180700,7.8291806640625,-0.35968589782714844,-0.5971975326538086,1.082949161529541
1747543317506445000,7.847445068359375,-0.28813600540161133,-0.14075970649719238,0.6889238357543945
1747543317524710400,7.86571044921875,0.5778999328613281,0.8464179039001465,-0.19097280502319336
1747543317542974700,7.883974609375,0.9322953224182129,1.1926640272140503,-0.35492849349975586
1747543317561240600,7.902240478515625,0.5728397369384766,1.0862082242965698,-0.21190738677978516
1747543317579504400,7.92050439453125,0.4673590660095215,0.0824434757232666,-0.15654802322387695
1747543317597770500,7.9387705078125,0.5801873207092285,-0.14597296714782715,-0.04009723663330078
1747543317616031700,7.95703173828125,-0.23656225204467773,-0.29978346824645996,0.2511587142944336
1747543317634303200,7.97530322265625,-1.022132396697998,0.18223857879638672,0.4105038642883301
1747543317652564200,7.993564208984375,1.0996038913726807,0.6954026222229004,-0.043137550354003906
1747543317670830300,8.011830322265626,1.1287126541137695,0.7778811454772949,-0.00624847412109375
1747543317689094100,8.03009423828125,0.8145205974578857,1.100097894668579,-0.5395164489746094
1747543317707360000,8.048360107421875,0.7870609760284424,1.25070059299469,-0.7851085662841797
1747543317725612000,8.066612060546875,-0.17363929748535156,0.7171354293823242,-0.3799934387207031
1747543317743889700,8.0848896484375,-0.4049191474914551,0.10420465469360352,0.3260641098022461
1747543317762154000,8.103154052734375,-0.4242563247680664,-0.4884333610534668,1.0530462265014648
1747543317780420000,8.121420166015625,-0.698890209197998,-0.7208333015441895,1.1854486465454102
1747543317798684000,8.139683837890624,-0.1127786636352539,-0.617607593536377,0.6802310943603516
1747543317816950000,8.157949951171876,0.9323220252990723,-0.2591381072998047,0.8535127639770508
1747543317835213600,8.176213623046875,0.6055710315704346,0.5772073268890381,0.6709671020507812
1747543317853480000,8.19447998046875,-0.11262893676757812,0.7526273727416992,0.42062950134277344
1747543317871743500,8.212743408203124,0.09317159652709961,0.3678247928619385,0.0753030776977539
1747543317890009600,8.231009521484374,0.2937142848968506,-0.26378607749938965,-0.6456279754638672
1747543317908273400,8.2492734375,0.7688155174255371,0.5484588146209717,-0.5775027275085449
1747543317926539000,8.2675390625,0.2050337791442871,0.527545690536499,-0.29227256774902344
1747543317944803000,8.285802978515624,-0.0010352134704589844,0.49245190620422363,0.19019222259521484
1747543317963069200,8.304069091796874,0.2865598201751709,0.733444094657898,0.2093191146850586
1747543317981331500,8.32233154296875,0.24506068229675293,0.29981350898742676,-0.15071964263916016
1747543317999601000,8.340600830078126,-0.08789587020874023,-0.22149229049682617,0.12965679168701172
1747543318017863000,8.35886279296875,0.47630929946899414,0.02004241943359375,0.20403575897216797
1747543318036129000,8.37712890625,0.6051125526428223,0.39755702018737793,0.35303401947021484
1747543318054392800,8.395392822265626,-0.1864612102508545,0.38504981994628906,0.7668857574462891
1747543318072659000,8.413658935546875,-0.31272459030151367,0.44493651390075684,0.4338245391845703
1747543318090922500,8.431922607421875,-0.06720733642578125,0.24180054664611816,0.15172195434570312
1747543318109188600,8.450188720703125,0.18726754188537598,0.18483257293701172,0.08983039855957031
1747543318127452200,8.4684521484375,0.8943922519683838,0.6413171291351318,-0.17969703674316406
1747543318145718500,8.486718505859375,0.35343074798583984,0.4942286014556885,-0.2898225784301758
1747543318163982300,8.504982421875,-0.18857359886169434,0.21960902214050293,-0.058124542236328125
1747543318182248200,8.523248291015625,-0.2876441478729248,-0.42458295822143555,0.1612386703491211
1747543318200512000,8.541511962890626,1.1758568286895752,0.1778581142425537,-0.25789546966552734
1747543318218778000,8.559778076171876,0.4205179214477539,0.7773224115371704,0.49573707580566406
1747543318237042000,8.5780419921875,0.6449487209320068,0.6391580104827881,0.4732789993286133
1747543318255308000,8.59630810546875,0.1943979263305664,-0.11229586601257324,0.745793342590332
1747543318273568800,8.61456884765625,0.2509500980377197,-0.3007676601409912,0.7906179428100586
1747543318291840800,8.6328408203125,0.290447473526001,-0.010344266891479492,0.3057394027709961
1747543318310098400,8.651098388671874,0.2963533401489258,0.41539549827575684,-0.08044147491455078
1747543318328370200,8.6693701171875,-0.08179807662963867,0.44970130920410156,-0.4385995864868164
1747543318346631200,8.687631103515624,-0.09293651580810547,0.2995462417602539,-0.5573244094848633
1747543318364897500,8.7058974609375,0.34470582008361816,0.40578293800354004,-0.06241798400878906
1747543318383161000,8.7241611328125,0.3192293643951416,0.1970078945159912,0.01778888702392578
1747543318401427200,8.74242724609375,0.006921052932739258,0.1709895133972168,0.21522903442382812
1747543318419691000,8.76069091796875,-0.02513265609741211,0.304318904876709,0.3969306945800781
1747543318437956900,8.778956787109376,0.200178861618042,0.27988624572753906,0.14176368713378906
1747543318456221000,8.797220947265625,0.47575902938842773,0.13046908378601074,0.061542510986328125
1747543318474487000,8.815487060546875,0.2866251468658447,0.04037642478942871,-0.047524452209472656
1747543318492750600,8.83375048828125,0.23617196083068848,0.1316208839416504,0.08492088317871094
1747543318511016700,8.8520166015625,0.28518176078796387,0.08869767189025879,0.33646106719970703
1747543318529268500,8.8702685546875,0.1846299171447754,0.18059849739074707,0.4566383361816406
1747543318547546600,8.888546630859375,0.007785320281982422,0.17986464500427246,0.18580150604248047
1747543318565807000,8.90680712890625,0.3502988815307617,0.2910940647125244,0.24563312530517578
1747543318584076300,8.925076171875,0.5284380912780762,0.1117699146270752,0.20751285552978516
1747543318602339800,8.94333984375,0.4544026851654053,0.24822354316711426,0.4561271667480469
1747543318620604000,8.96160400390625,0.12413263320922852,0.352703332901001,0.07534980773925781
1747543318638869500,8.979869384765625,-0.10373234748840332,0.19185614585876465,-0.01771259307861328
1747543318657135900,8.998135986328125,0.21146893501281738,0.3515660762786865,-0.0055103302001953125
1747543318675399400,9.0163994140625,0.05794239044189453,0.5321547985076904,0.04909992218017578
1747543318693665500,9.03466552734375,0.0363314151763916,0.36867260932922363,-0.06573295593261719
1747543318711929000,9.05292919921875,0.2834815979003906,0.3596229553222656,-0.08422183990478516
1747543318730195500,9.071195556640625,0.308582067489624,0.4834144115447998,-0.11754417419433594
1747543318748458800,9.089458740234376,0.05373048782348633,0.39994215965270996,-0.21477890014648438
1747543318766725000,9.10772509765625,0.08906793594360352,0.42124128341674805,-0.16244125366210938
1747543318784989000,9.125989013671875,0.0574793815612793,0.39357638359069824,-0.08377456665039062
1747543318803255000,9.144255126953125,-0.04299497604370117,0.10889196395874023,-0.04857826232910156
1747543318821518600,9.1625185546875,0.20277023315429688,-0.3211634159088135,-0.15952587127685547
1747543318839785000,9.180784912109376,0.2850966453552246,-0.3734917640686035,0.17092227935791016
1747543318858048800,9.199048828125,0.1533679962158203,0.07763051986694336,0.3761587142944336
1747543318876314600,9.217314697265625,0.14389944076538086,0.27879953384399414,0.3581275939941406
1747543318894566700,9.235566650390625,0.13307857513427734,0.31357312202453613,0.2340545654296875
1747543318912841700,9.253841796875,0.2051544189453125,0.05517101287841797,-0.05391120910644531
1747543318931110100,9.272110107421875,0.6594295501708984,-0.42044830322265625,-0.2769479751586914
1747543318949374000,9.2903740234375,0.3845376968383789,-0.2304978370666504,-0.27442073822021484
1747543318967638000,9.308637939453124,0.285874605178833,-0.07784485816955566,-0.0896148681640625
1747543318985896400,9.326896484375,0.01047658920288086,-0.023904085159301758,0.17067337036132812
1747543319004167700,9.345167724609375,-0.016753196716308594,0.15667247772216797,0.05857086181640625
1747543319022433500,9.36343359375,0.09931612014770508,0.2852911949157715,0.08082962036132812
1747543319040697300,9.381697265625,0.21285295486450195,0.4773118495941162,0.25977420806884766
1747543319058963500,9.39996337890625,0.37558984756469727,0.48526978492736816,0.09678173065185547
1747543319077227300,9.418227294921875,0.2685985565185547,0.8750710487365723,0.5211811065673828
1747543319095493400,9.436493408203125,0.33292102813720703,1.9010202884674072,0.7711191177368164
1747543319113757200,9.454757080078124,0.08297014236450195,1.6247919797897339,0.9677305221557617
1747543319132022800,9.473022705078124,-0.3198251724243164,-0.348813533782959,-0.8982696533203125
1747543319150286800,9.491286865234375,1.3838133811950684,2.1649608612060547,1.0475759506225586
1747543319168553000,9.509552978515625,1.0433249473571777,-1.4042303562164307,-1.778646469116211
1747543319186816300,9.527816162109374,0.8234384059906006,-1.3740887641906738,-0.6392483711242676
1747543319205082400,9.546082275390624,-0.45769500732421875,-1.1768913269042969,0.21856307983398438
1747543319223346200,9.56434619140625,-0.3554210662841797,0.7616286277770996,1.7934226989746094
1747543319241612500,9.582612548828125,-0.3280611038208008,-0.11420917510986328,-0.14632320404052734
1747543319259876000,9.6008759765625,0.5684401988983154,1.2034800052642822,0.5934658050537109
1747543319278142200,9.61914208984375,0.1038823127746582,-0.016317367553710938,-0.33332061767578125
1747543319296405800,9.63740576171875,0.825150728225708,-0.2945866584777832,-0.8478450775146484
1747543319314671900,9.655671875,0.5756289958953857,-0.6328756809234619,-0.898097038269043
1747543319332935700,9.673935791015625,0.7240667343139648,0.1457524299621582,-0.058945655822753906
1747543319351201500,9.692201416015624,-0.25478172302246094,-0.8854427337646484,-0.5032000541687012
1747543319369465300,9.71046533203125,0.19556665420532227,0.4684906005859375,0.6067972183227539
1747543319387729400,9.7287294921875,0.4756345748901367,1.259428858757019,0.8463296890258789
1747543319405996500,9.74699658203125,0.3813779354095459,0.9862501621246338,0.27126312255859375
1747543319424261000,9.76526123046875,0.43880295753479004,1.179194688796997,0.5507593154907227
1747543319442524700,9.783524658203126,0.39282679557800293,0.9728001356124878,0.03334617614746094
1747543319460790800,9.801790771484375,0.047905921936035156,0.2893853187561035,-0.6076145172119141
1747543319479054600,9.8200546875,-0.15832042694091797,-0.2663581371307373,-0.6761994361877441
1747543319497320700,9.83832080078125,-0.06012916564941406,-0.07695508003234863,-0.2528257369995117
1747543319515582700,9.856582763671875,-0.09218120574951172,-0.14830541610717773,0.07676124572753906
1747543319533852000,9.874851806640624,0.21556949615478516,0.2620663642883301,0.7699594497680664
1747543319552114200,9.8931142578125,0.07470321655273438,-0.018311262130737305,0.49376392364501953
1747543319570380000,9.911380126953125,0.04560708999633789,-0.2900264263153076,-0.16048049926757812
1747543319588644000,9.92964404296875,-0.015616893768310547,-0.4341564178466797,-0.26219844818115234
1747543319606909200,9.9479091796875,0.0196990966796875,-0.42844581604003906,-0.16746139526367188
1747543319625173500,9.966173583984375,-0.14862966537475586,-0.44776439666748047,-0.15534305572509766
1747543319643428600,9.9844287109375,-0.2167372703552246,-0.47713184356689453,-0.13575363159179688
1747543319661703200,10.002703125,-0.1616077423095703,-0.430896520614624,0.22179126739501953
1747543319679968800,10.02096875,-0.39945125579833984,-0.3584718704223633,0.3503532409667969
1747543319698233000,10.039233154296875,-0.5779318809509277,0.0077228546142578125,0.45717811584472656
1747543319716499000,10.0574990234375,-0.6841697692871094,0.46204304695129395,0.5985078811645508
1747543319734762800,10.0757626953125,-0.3016090393066406,1.1435149908065796,-0.23218822479248047
1747543319753028400,10.0940283203125,0.668471097946167,2.761017084121704,-0.005078315734863281
1747543319771292400,10.11229248046875,1.3347134590148926,1.184253454208374,-2.3437414169311523
1747543319789558300,10.130558349609375,1.5346450805664062,0.4102654457092285,-1.1553850173950195
1747543319807822000,10.148822021484374,1.3605756759643555,-0.5004746913909912,-0.42746734619140625
1747543319826087700,10.167087646484376,0.3815178871154785,-0.8719420433044434,0.4154548645019531
1747543319844352000,10.18535205078125,-0.48182010650634766,-0.37508153915405273,1.0775527954101562
1747543319862617600,10.20361767578125,-0.6755681037902832,-0.4248971939086914,0.37287235260009766
1747543319880881700,10.221881591796874,-0.224761962890625,-0.6298260688781738,0.3733053207397461
1747543319899147300,10.240147216796874,0.3681349754333496,0.13074517250061035,0.47403812408447266
1747543319917411300,10.258411376953125,0.555229663848877,0.4858936071395874,0.28667163848876953
1747543319935677700,10.276677734375,0.5128459930419922,0.14579987525939941,-0.06019401550292969
1747543319953941000,10.29494091796875,0.4151585102081299,0.6103144884109497,-0.34123992919921875
1747543319972206800,10.313206787109374,0.3871622085571289,0.5649749636650085,-0.1659250259399414
1747543319990471000,10.331470947265625,0.09761333465576172,0.5478349328041077,0.3185567855834961
1747543320008736800,10.34973681640625,0.12549304962158203,0.467642605304718,0.7430706024169922
1747543320026999800,10.367999755859374,0.05760622024536133,-0.00791013240814209,0.7546100616455078
1747543320045266400,10.386266357421874,0.12446928024291992,-0.1386094093322754,0.4832010269165039
1747543320063530500,10.404530517578126,0.20080852508544922,0.0017014741897583008,0.12645912170410156
1747543320081796400,10.42279638671875,0.24615883827209473,0.231520414352417,-0.050375938415527344
1747543320100060000,10.441059814453125,0.28243589401245117,0.4172554016113281,-0.09862804412841797
1747543320118325800,10.45932568359375,0.2850313186645508,0.44717633724212646,-0.057834625244140625
1747543320136589800,10.47758984375,0.26641416549682617,0.3536672592163086,0.008912086486816406
1747543320154855400,10.49585546875,0.17044973373413086,0.2921925187110901,0.0875711441040039
1747543320173119200,10.514119140625,0.13414716720581055,0.261463463306427,0.1081399917602539
1747543320191385300,10.53238525390625,0.2088637351989746,0.21669018268585205,0.0673685073852539
1747543320209649200,10.550649169921876,0.2805924415588379,0.22835147380828857,0.06062602996826172
1747543320227914500,10.56891455078125,0.2936887741088867,0.24906927347183228,0.0627279281616211
1747543320246178600,10.587178466796875,0.2488398551940918,0.24573403596878052,0.08849906921386719
1747543320264444700,10.605444580078125,0.2249608039855957,0.1908075213432312,0.09128475189208984
1747543320282708500,10.62370849609375,0.1894392967224121,0.10799336433410645,0.09994697570800781
1747543320300974600,10.641974609375,0.1816096305847168,0.06786835193634033,0.09152698516845703
1747543320319238100,10.660238037109375,0.16552734375,0.06895279884338379,0.06022930145263672
1747543320337504000,10.67850390625,0.12539339065551758,0.07884562015533447,-0.01010894775390625
1747543320355767800,10.696767822265626,0.1228494644165039,0.1075747013092041,-0.05689239501953125
1747543320374034000,10.715033935546876,0.13274812698364258,0.1358802318572998,-0.08542442321777344
1747543320392298800,10.733298828125,0.11231470108032227,0.14078164100646973,-0.05252552032470703
1747543320410562300,10.751562255859374,0.1154322624206543,0.11250245571136475,0.008870124816894531
1747543320428824800,10.769824951171875,0.11861228942871094,0.09266996383666992,0.046296119689941406
1747543320447094800,10.7880947265625,0.11844444274902344,0.06770086288452148,0.05564594268798828
1747543320465357300,10.806357421875,0.12506914138793945,0.0612943172454834,0.06108856201171875
1747543320483622700,10.82462255859375,0.15425634384155273,0.04846656322479248,0.07751750946044922
1747543320501886500,10.842886474609376,0.13872766494750977,0.09113240242004395,0.06169605255126953
1747543320520140300,10.861140380859375,0.11165237426757812,0.13653349876403809,0.03240013122558594
1747543320538416000,10.879416015625,0.08083677291870117,0.19171613454818726,0.013437271118164062
1747543320556682000,10.897681884765625,0.08365917205810547,0.2008858323097229,0.009160995483398438
1747543320574945500,10.915945556640626,0.05782938003540039,0.18722933530807495,-0.0230255126953125
1747543320593212000,10.9342119140625,0.06137228012084961,0.1647394895553589,-0.026732444763183594
1747543320611475700,10.952475830078125,0.08781623840332031,0.16429603099822998,-0.016653060913085938
1747543320629741300,10.9707412109375,0.10297632217407227,0.2110198736190796,-0.021915435791015625
1747543320648005400,10.98900537109375,0.07367420196533203,0.24366533756256104,-0.042166709899902344
1747543320666271000,11.00727099609375,0.05414390563964844,0.28026795387268066,-0.0674142837524414
1747543320684532000,11.025531982421874,0.10992622375488281,0.23124730587005615,-0.08311748504638672
1747543320702800600,11.043800537109375,0.09247207641601562,0.19276970624923706,-0.061489105224609375
1747543320721051400,11.062051513671875,0.06778144836425781,0.14924782514572144,-0.04109954833984375
1747543320739329300,11.080329345703126,0.0853281021118164,0.13810628652572632,-0.016397476196289062
1747543320757594000,11.098593994140625,0.108062744140625,0.1496114730834961,0.0084228515625
1747543320775860200,11.116860107421875,0.1408982276916504,0.1563422679901123,0.02386760711669922
1747543320794123500,11.13512353515625,0.12681961059570312,0.1634313464164734,0.03474998474121094
1747543320812390100,11.15339013671875,0.09325027465820312,0.15145045518875122,0.03620719909667969
1747543320830653200,11.171653076171875,0.09473085403442383,0.11621052026748657,0.028882980346679688
1747543320848919300,11.189919189453125,0.1204214096069336,0.09096723794937134,0.0412750244140625
1747543320867183000,11.20818310546875,0.12237167358398438,0.12343525886535645,0.05328369140625
1747543320885449200,11.22644921875,0.14517688751220703,0.17982858419418335,0.030557632446289062
1747543320903712500,11.24471240234375,0.15141725540161133,0.2239115834236145,0.049971580505371094
1747543320921978600,11.262978515625,0.17660045623779297,0.25502556562423706,0.06953048706054688
1747543320940242200,11.2812421875,0.2265768051147461,0.27361220121383667,0.06573963165283203
1747543320958508500,11.299508544921874,0.2708425521850586,0.25907689332962036,0.08553314208984375
1747543320976771800,11.317771728515625,0.3224649429321289,0.23063695430755615,0.11795616149902344
1747543320995038200,11.3360380859375,0.3530921936035156,0.15450245141983032,0.12636852264404297
1747543321013302000,11.354302001953124,0.32740259170532227,0.0790756344795227,0.16861820220947266
1747543321031567400,11.3725673828125,0.2951645851135254,0.02807438373565674,0.23159027099609375
1747543321049831400,11.39083154296875,0.2829136848449707,0.014206528663635254,0.21118450164794922
1747543321068097300,11.40909716796875,0.2946434020996094,0.04887056350708008,0.16937541961669922
1747543321086360800,11.42736083984375,0.32787275314331055,0.17839807271957397,0.16202163696289062
1747543321104627200,11.445627197265624,0.4023861885070801,0.3457443118095398,0.1307058334350586
1747543321122890500,11.463890380859375,0.5525271892547607,0.5759396553039551,0.15742111206054688
1747543321141156600,11.482156494140625,0.6659245491027832,0.8449952602386475,0.2078847885131836
1747543321159420400,11.50042041015625,0.6417229175567627,0.8337320685386658,0.11673355102539062
1747543321177685800,11.518685791015624,0.6099133491516113,0.4935140013694763,-0.022513389587402344
1747543321195950000,11.5369501953125,0.4821281433105469,0.1001596450805664,-0.0777730941772461
1747543321214215700,11.555215576171875,0.2578139305114746,-0.21210062503814697,0.06581497192382812
1747543321232479700,11.573479736328125,-0.09634208679199219,-0.37542641162872314,0.1940593719482422
1747543321250745600,11.59174560546875,-0.43831300735473633,-0.3544508218765259,0.16395092010498047
1747543321269009200,11.610009033203125,-0.5664339065551758,-0.20149409770965576,0.04255867004394531
1747543321287274800,11.628274658203125,-0.5634937286376953,0.027103185653686523,-0.10660743713378906
1747543321305538600,11.64653857421875,-0.48531341552734375,0.15265750885009766,-0.3773384094238281
1747543321323804700,11.6648046875,-0.38686513900756836,0.16701066493988037,-0.5658588409423828
1747543321342068200,11.683068115234375,-0.47229957580566406,0.08272266387939453,-0.7031393051147461
1747543321360334300,11.701334228515625,-0.6690173149108887,-0.061696529388427734,-0.7513551712036133
1747543321378598100,11.71959814453125,-0.7239947319030762,-0.10172462463378906,-0.5803356170654297
1747543321396863700,11.73786376953125,-0.6202049255371094,-0.12913084030151367,-0.3587312698364258
1747543321415127600,11.75612744140625,-0.5040421485900879,-0.13234126567840576,-0.21363449096679688
1747543321433393700,11.7743935546875,-0.47286272048950195,-0.14007723331451416,-0.1018972396850586
1747543321451657200,11.7926572265625,-0.48003721237182617,-0.15852749347686768,-0.036368370056152344
1747543321469920300,11.810920166015626,-0.46188831329345703,-0.14886319637298584,0.0000400543212890625
1747543321488189700,11.829189697265624,-0.34322309494018555,-0.14856863021850586,-0.024305343627929688
1747543321506449700,11.84744970703125,-0.17795467376708984,-0.11773347854614258,-0.03361797332763672
1747543321524719400,11.86571923828125,-0.02302265167236328,-0.059884071350097656,-0.02365875244140625
1747543321542979300,11.883979248046876,0.10411262512207031,-0.04081439971923828,-0.010622024536132812
1747543321561249300,11.902249267578124,0.20383930206298828,-0.031435608863830566,0.008364677429199219
1747543321579512000,11.920511962890625,0.3015007972717285,-0.07233035564422607,0.051006317138671875
1747543321597776000,11.93877587890625,0.3348727226257324,-0.06325578689575195,0.10298538208007812
1747543321616041500,11.95704150390625,0.4181694984436035,0.0062874555587768555,0.09910774230957031
1747543321634305300,11.97530517578125,0.44508981704711914,0.07978993654251099,0.17805194854736328
1747543321652571000,11.99357080078125,0.4736638069152832,0.16473311185836792,0.18259048461914062
1747543321670835000,12.0118349609375,0.5025286674499512,0.21598553657531738,0.20664501190185547
1747543321689100300,12.030100341796874,0.47722625732421875,0.22777849435806274,0.23509502410888672
1747543321707364400,12.0483642578125,0.47151994705200195,0.21385681629180908,0.2677011489868164
1747543321725630500,12.06663037109375,0.48908424377441406,0.18516463041305542,0.2782917022705078
1747543321743894300,12.084894287109375,0.48090028762817383,0.21497398614883423,0.3000297546386719
1747543321762159400,12.103159423828124,0.4392409324645996,0.2425917387008667,0.21891212463378906
1747543321780423700,12.121423583984376,0.41820335388183594,0.2848106026649475,0.14602947235107422
1747543321798684400,12.139684326171874,0.4638652801513672,0.32414501905441284,0.08969593048095703
1747543321816953300,12.157953369140625,0.5197916030883789,0.34559866786003113,0.1071157455444336
1747543321835219000,12.176218994140624,0.5590939521789551,0.3308906555175781,0.1831531524658203
1747543321853482800,12.194482666015626,0.5875420570373535,0.3034040927886963,0.20349502563476562
1747543321871748400,12.212748291015625,0.6397876739501953,0.31733042001724243,0.26300716400146484
1747543321890012400,12.231012451171875,0.6752719879150391,0.38979536294937134,0.3576650619506836
1747543321908277800,12.24927783203125,0.6903972625732422,0.4388267993927002,0.43889808654785156
1747543321926541800,12.267541748046876,0.7361745834350586,0.43284279108047485,0.36339282989501953
1747543321944807400,12.285807373046875,0.7985038757324219,0.45120009779930115,0.24113750457763672
1747543321963071500,12.304071533203125,0.8371281623840332,0.4474243223667145,0.20476150512695312
1747543321981334500,12.32233447265625,0.7983560562133789,0.38560622930526733,0.2820558547973633
1747543321999603500,12.340603515625,0.6953935623168945,0.3244807720184326,0.35175418853759766
1747543322017866800,12.35886669921875,0.6093063354492188,0.26269781589508057,0.4109153747558594
1747543322036130600,12.377130615234375,0.5196633338928223,0.21342116594314575,0.4062385559082031
1747543322054396700,12.395396728515625,0.331784725189209,0.1637282371520996,0.3456888198852539
1747543322072660000,12.413659912109376,0.14510822296142578,0.14130806922912598,0.2218303680419922
1747543322090926300,12.43192626953125,0.008667945861816406,0.0906032919883728,0.10885906219482422
1747543322109177300,12.45017724609375,-0.07106447219848633,0.016000032424926758,-0.0057888031005859375
1747543322127456300,12.468456298828125,-0.13860416412353516,-0.07240724563598633,-0.14720535278320312
1747543322145719600,12.486719482421876,-0.32775449752807617,-0.15213847160339355,-0.28690433502197266
1747543322163985200,12.504985107421875,-0.38416433334350586,-0.2003638744354248,-0.40790271759033203
1747543322182249000,12.5232490234375,-0.3851480484008789,-0.18278241157531738,-0.45348453521728516
1747543322200515000,12.54151513671875,-0.40788698196411133,-0.1854393482208252,-0.41657161712646484
1747543322218778400,12.5597783203125,-0.47608184814453125,-0.1897141933441162,-0.3498849868774414
1747543322237044200,12.578044189453125,-0.5413284301757812,-0.24438369274139404,-0.27239513397216797
1747543322255308000,12.59630810546875,-0.6395506858825684,-0.33901655673980713,-0.2500152587890625
1747543322273574000,12.614573974609375,-0.699221134185791,-0.40810060501098633,-0.22391414642333984
1747543322291837400,12.63283740234375,-0.683929443359375,-0.34398090839385986,-0.22476673126220703
1747543322310103300,12.651103271484375,-0.5524110794067383,-0.18601834774017334,-0.29844093322753906
1747543322328367000,12.6693671875,-0.4573335647583008,-0.05961501598358154,-0.3554058074951172
1747543322346633000,12.687633056640625,-0.37304210662841797,0.049735188484191895,-0.36289310455322266
1747543322364896500,12.705896484375,-0.2892947196960449,0.07569324970245361,-0.3064689636230469
1747543322383162600,12.72416259765625,-0.2593412399291992,0.0524064302444458,-0.23981571197509766
1747543322401426200,12.74242626953125,-0.2850356101989746,-0.020221710205078125,-0.1620197296142578
1747543322419692300,12.7606923828125,-0.2668743133544922,-0.09497439861297607,-0.11518096923828125
1747543322437955600,12.77895556640625,-0.17583608627319336,-0.12443530559539795,-0.06075859069824219
1747543322456221700,12.7972216796875,-0.07025527954101562,-0.07456028461456299,-0.0372314453125
1747543322474485500,12.815485595703125,0.014066696166992188,0.0053637027740478516,-0.05026054382324219
1747543322492751000,12.833751220703125,0.11373043060302734,0.06613123416900635,-0.005253791809082031
1747543322511014700,12.8520146484375,0.18404054641723633,0.12729263305664062,0.04004955291748047
1747543322529280800,12.87028076171875,0.22458600997924805,0.141215980052948,0.0660085678100586
1747543322547544300,12.88854443359375,0.28773021697998047,0.11741280555725098,0.10123920440673828
1747543322565810400,12.906810546875,0.35884761810302734,0.09981822967529297,0.11223030090332031
1747543322584073700,12.92507373046875,0.37072086334228516,0.06627833843231201,0.12754154205322266
1747543322602339800,12.94333984375,0.3984503746032715,0.07109171152114868,0.1414022445678711
1747543322620603400,12.961603271484375,0.4320225715637207,0.12865304946899414,0.16275691986083984
1747543322638869200,12.979869140625,0.43955326080322266,0.1444641351699829,0.17933940887451172
1747543322657132800,12.9981328125,0.47713756561279297,0.17017483711242676,0.16016292572021484
1747543322675399000,13.01639892578125,0.48511648178100586,0.1891639232635498,0.1573028564453125
1747543322693662500,13.034662353515625,0.4595670700073242,0.2244105339050293,0.21866416931152344
1747543322711928300,13.05292822265625,0.4612126350402832,0.26037782430648804,0.24826431274414062
1747543322730192100,13.071192138671876,0.4692964553833008,0.27925992012023926,0.22361373901367188
1747543322748458000,13.0894580078125,0.488494873046875,0.25562816858291626,0.22590351104736328
1747543322766721500,13.107721435546875,0.5279192924499512,0.22762703895568848,0.21656227111816406
1747543322784987400,13.1259873046875,0.49089956283569336,0.21566540002822876,0.19996166229248047
1747543322803251000,13.1442509765625,0.47356271743774414,0.2339475154876709,0.16675281524658203
1747543322821517000,13.16251708984375,0.43357324600219727,0.25906890630722046,0.13178062438964844
1747543322839780000,13.180780029296875,0.3991551399230957,0.2574322819709778,0.1186971664428711
1747543322858046500,13.19904638671875,0.3316483497619629,0.22913068532943726,0.12728023529052734
1747543322876300500,13.217300537109375,0.259737491607666,0.19726407527923584,0.11026668548583984
1747543322894575900,13.235575927734375,0.19016790390014648,0.1611430048942566,0.08188056945800781
1747543322912839200,13.253839111328125,0.1438279151916504,0.16288864612579346,0.043666839599609375
1747543322931105500,13.27210546875,0.13143539428710938,0.16060972213745117,0.005892753601074219
1747543322949368800,13.290368896484376,0.1002817153930664,0.15479058027267456,0.011639595031738281
1747543322967635200,13.30863525390625,0.08375167846679688,0.15933328866958618,0.027292251586914062
1747543322985893600,13.3268935546875,0.06798362731933594,0.13112789392471313,0.014164924621582031
1747543323004164400,13.345164306640624,0.05238533020019531,0.09776991605758667,0.016529083251953125
1747543323022428000,13.363427978515626,0.029076099395751953,0.055603742599487305,0.010096549987792969
1747543323040694000,13.381694091796875,-0.0064697265625,0.02212703227996826,-0.009525299072265625
1747543323058957300,13.399957275390625,-0.015803813934326172,-0.011345505714416504,-0.022856712341308594
1747543323077223400,13.418223388671874,-0.03618574142456055,-0.03180539608001709,-0.053955078125
1747543323095487000,13.436487060546876,-0.06016826629638672,-0.03397798538208008,-0.09406566619873047
1747543323113753000,13.454753173828125,-0.09813976287841797,-0.017435014247894287,-0.12443256378173828
1747543323132016400,13.473016357421875,-0.12938356399536133,-0.015011906623840332,-0.1490306854248047
1747543323150282500,13.491282470703124,-0.16307926177978516,-0.02780550718307495,-0.16765213012695312
1747543323168546300,13.50954638671875,-0.20067644119262695,-0.08814454078674316,-0.19032001495361328
1747543323186811600,13.527811767578125,-0.23632049560546875,-0.18662917613983154,-0.16926956176757812
1747543323205075700,13.54607568359375,-0.2460770606994629,-0.21160733699798584,-0.1474323272705078
1747543323223341300,13.56434130859375,-0.25304269790649414,-0.15449094772338867,-0.13414764404296875
1747543323241605000,13.582605224609376,-0.2426013946533203,-0.08625388145446777,-0.18221092224121094
1747543323259871000,13.60087109375,-0.22510957717895508,-0.014202237129211426,-0.2044057846069336
1747543323278134500,13.619134521484375,-0.2176532745361328,-0.009243369102478027,-0.1676483154296875
1747543323296400400,13.637400390625,-0.22766399383544922,-0.015067756175994873,-0.14686298370361328
1747543323314664200,13.655664306640626,-0.18731689453125,-0.007932126522064209,-0.08508968353271484
1747543323332929800,13.6739296875,-0.14187192916870117,0.011866748332977295,-0.06775093078613281
1747543323351193600,13.692193603515625,-0.1355290412902832,0.05809527635574341,-0.07654094696044922
1747543323369459500,13.71045947265625,-0.0913853645324707,0.1078178882598877,-0.07409191131591797
1747543323387722800,13.72872265625,-0.028937816619873047,0.14692503213882446,-0.060217857360839844
1747543323405988900,13.74698876953125,0.06613588333129883,0.15246319770812988,-0.04122734069824219
1747543323424252400,13.76525244140625,0.1277446746826172,0.13494354486465454,-0.017432212829589844
1747543323442518300,13.783518310546874,0.17302846908569336,0.11838388442993164,0.005610466003417969
1747543323460781800,13.80178173828125,0.22109651565551758,0.10207831859588623,0.03262805938720703
1747543323479047700,13.820047607421875,0.2625093460083008,0.10174763202667236,0.05828666687011719
1747543323497311500,13.8383115234375,0.30777406692504883,0.10744369029998779,0.09354305267333984
1747543323515577600,13.85657763671875,0.3405008316040039,0.12344163656234741,0.1234903335571289
1747543323533841000,13.8748408203125,0.37062788009643555,0.13493108749389648,0.14678096771240234
1747543323552106800,13.893106689453125,0.4069809913635254,0.14768731594085693,0.16353416442871094
1747543323570370300,13.911370361328125,0.42496395111083984,0.1520276665687561,0.15901660919189453
1747543323588636200,13.92963623046875,0.4250473976135254,0.1817951798439026,0.18614673614501953
1747543323606899700,13.947899658203125,0.4312615394592285,0.20702087879180908,0.1683206558227539
1747543323625165600,13.96616552734375,0.470583438873291,0.21989727020263672,0.13327884674072266
1747543323643429400,13.984429443359375,0.4786491394042969,0.21567505598068237,0.14681625366210938
1747543323661695000,14.002695068359374,0.44194459915161133,0.21815109252929688,0.1280536651611328
1747543323679959000,14.020958984375,0.36713361740112305,0.2184373140335083,0.0876922607421875
1747543323698224400,14.039224365234375,0.331723690032959,0.2056947946548462,0.0645761489868164
1747543323716488400,14.057488525390625,0.3254270553588867,0.1653064489364624,0.07738208770751953
1747543323734753800,14.07575390625,0.2820310592651367,0.12676608562469482,0.08833599090576172
1747543323753017600,14.094017578125,0.268801212310791,0.09367471933364868,0.10713958740234375
1747543323771283500,14.112283447265625,0.23334789276123047,0.08446043729782104,0.09601974487304688
1747543323789547300,14.13054736328125,0.15877485275268555,0.06676536798477173,0.08396720886230469
1747543323807813000,14.148813232421874,0.08934497833251953,0.04332625865936279,0.07735919952392578
1747543323826076400,14.167076416015625,0.055516719818115234,0.0388181209564209,0.057933807373046875
1747543323844342500,14.185342529296875,0.06684350967407227,0.023612499237060547,0.010677337646484375
1747543323862606000,14.203606201171874,0.05402851104736328,0.018335998058319092,-0.02756500244140625
1747543323880872000,14.221871826171874,-0.0017900466918945312,0.00878053903579712,-0.05483436584472656
1747543323899135700,14.2401357421875,-0.0614161491394043,-0.014243364334106445,-0.08681488037109375
1747543323917389000,14.25838916015625,-0.10165882110595703,-0.057348549365997314,-0.07999897003173828
1747543323935665000,14.276664794921874,-0.10666561126708984,-0.09117370843887329,-0.1018972396850586
1747543323953916700,14.294916748046875,-0.0966649055480957,-0.10252726078033447,-0.11329364776611328
1747543323972194300,14.3131943359375,-0.10499238967895508,-0.09581965208053589,-0.1290903091430664
1747543323990460000,14.3314599609375,-0.13543319702148438,-0.0617404580116272,-0.12003231048583984
1747543324008723700,14.3497236328125,-0.1669621467590332,-0.014203548431396484,-0.0948343276977539
1747543324026989300,14.3679892578125,-0.1637554168701172,0.02179187536239624,-0.09097862243652344
1747543324045253400,14.38625341796875,-0.13267946243286133,0.041223883628845215,-0.10382080078125
1747543324063519000,14.40451904296875,-0.12019014358520508,0.0736161470413208,-0.11470413208007812
1747543324081782800,14.42278271484375,-0.08593416213989258,0.08181548118591309,-0.10491085052490234
1747543324100048100,14.441048095703126,-0.08232307434082031,0.08476060628890991,-0.10328102111816406
1747543324118312200,14.459312255859375,-0.05790090560913086,0.08698052167892456,-0.09609794616699219
1747543324136577800,14.477577880859375,-0.0481257438659668,0.064017653465271,-0.10325241088867188
1747543324154841300,14.49584130859375,-0.05663633346557617,0.03942841291427612,-0.09131240844726562
1747543324173107000,14.51410693359375,-0.045533180236816406,0.04277825355529785,-0.10313987731933594
1747543324191371000,14.53237109375,-0.013918876647949219,0.07493960857391357,-0.08583450317382812
1747543324209636900,14.550636962890625,0.025992393493652344,0.11173456907272339,-0.07360553741455078
1747543324227900400,14.568900390625,0.07432222366333008,0.1057204008102417,-0.057145118713378906
1747543324246166300,14.587166259765626,0.0916604995727539,0.058502793312072754,-0.04146862030029297
1747543324264429800,14.605429931640625,0.07113027572631836,0.03476744890213013,-0.011509895324707031
1747543324282695400,14.6236953125,0.09971189498901367,0.03468763828277588,0.013980865478515625
1747543324300959500,14.64195947265625,0.12703371047973633,0.03452104330062866,0.02985858917236328
1747543324319224800,14.660224853515626,0.14926528930664062,0.0440518856048584,0.02620983123779297
1747543324337488600,14.678488525390625,0.14290857315063477,0.06858736276626587,0.027112960815429688
1747543324355754800,14.696754638671875,0.13093090057373047,0.08830446004867554,0.032677650451660156
1747543324374017800,14.715017822265626,0.15204334259033203,0.07975023984909058,0.02850627899169922
1747543324392284000,14.733283935546876,0.18161535263061523,0.08163833618164062,0.038211822509765625
1747543324410547500,14.75154736328125,0.17563962936401367,0.060491323471069336,0.02780914306640625
1747543324428813300,14.769813232421875,0.15877914428710938,0.04480934143066406,0.0072269439697265625
1747543324447077000,14.7880771484375,0.14140558242797852,0.024960756301879883,0.024666786193847656
1747543324465342700,14.8063427734375,0.12900400161743164,0.05631756782531738,0.02782154083251953
1747543324483609300,14.824609375,0.12158346176147461,0.078926682472229,0.026317596435546875
1747543324501872000,14.8428720703125,0.09586763381958008,0.09232288599014282,0.02529430389404297
1747543324520135700,14.8611357421875,0.12833213806152344,0.08258700370788574,0.0008106231689453125
1747543324538401500,14.879401611328126,0.1465001106262207,0.10202163457870483,0.014760017395019531
1747543324556665000,14.8976650390625,0.13053655624389648,0.0944591760635376,0.03322315216064453
1747543324574930700,14.9159306640625,0.11820745468139648,0.0671696662902832,-0.03026294708251953
1747543324593194500,14.934194580078126,0.09499311447143555,0.05078756809234619,-0.17533206939697266
1747543324611460600,14.952460693359376,0.038347721099853516,0.06259137392044067,-0.3298454284667969
1747543324629724000,14.970723876953125,-0.07628393173217773,0.02970641851425171,-0.3018465042114258
1747543324647989500,14.988989501953125,-0.13580846786499023,-0.056447625160217285,-0.06842327117919922
1747543324666253300,15.00725341796875,-0.08645915985107422,-0.06362563371658325,0.21943950653076172
1747543324684519200,15.025519287109375,0.002410888671875,-0.0059947967529296875,0.37839698791503906
1747543324702779600,15.043779541015626,0.05686807632446289,0.08810043334960938,0.28777122497558594
1747543324721051400,15.062051513671875,0.030100345611572266,0.1308743953704834,0.015504837036132812
1747543324739309800,15.080309814453125,0.009781360626220703,0.10936868190765381,-0.25026798248291016
1747543324757580000,15.098580078125,0.05051612854003906,0.06556731462478638,-0.3612241744995117
1747543324775841300,15.11684130859375,0.10119390487670898,0.05920875072479248,-0.27634620666503906
1747543324794107000,15.13510693359375,0.11411237716674805,0.09154963493347168,-0.021406173706054688
1747543324812371000,15.153370849609376,0.08978796005249023,0.11284661293029785,0.25057411193847656
1747543324830636500,15.171636474609375,0.08332681655883789,0.08439064025878906,0.33977699279785156
1747543324848900000,15.189900146484375,0.11541461944580078,0.02086538076400757,0.27110958099365234
1747543324867166200,15.208166259765624,0.1316385269165039,0.010000407695770264,0.08569908142089844
1747543324885429500,15.226429443359375,0.16971921920776367,0.0759243369102478,-0.1418161392211914
1747543324903695400,15.2446953125,0.2174816131591797,0.16927200555801392,-0.2735633850097656
1747543324921958700,15.262958740234374,0.23720932006835938,0.22283536195755005,-0.29224205017089844
1747543324940224800,15.281224853515624,0.20943403244018555,0.20298761129379272,-0.14104461669921875
1747543324958488300,15.29948828125,0.13890886306762695,0.06408965587615967,0.056011199951171875
1747543324976754000,15.31775390625,0.05285930633544922,-0.07561087608337402,0.2039356231689453
1747543324995005400,15.33600537109375,-0.01629781723022461,-0.12544000148773193,0.22983837127685547
1747543325013283600,15.35428369140625,-0.03757762908935547,-0.10580325126647949,0.15700435638427734
1747543325031542800,15.372542724609374,-0.0008769035339355469,-0.020827174186706543,-0.027982711791992188
1747543325049812700,15.390812744140625,0.08058738708496094,0.09287428855895996,-0.18307209014892578
1747543325068076000,15.409075927734374,0.12755346298217773,0.15031808614730835,-0.2527799606323242
1747543325086342100,15.427342041015624,0.13820123672485352,0.14242053031921387,-0.1805706024169922
1747543325104605400,15.44560546875,0.08782005310058594,0.09270501136779785,-0.03805732727050781
1747543325122871800,15.463871826171875,0.017323017120361328,0.023880302906036377,0.09432411193847656
1747543325141134800,15.482134765625,-0.03209352493286133,-0.018526852130889893,0.14623355865478516
1747543325159401000,15.50040087890625,-0.06323814392089844,-0.023467719554901123,0.10429763793945312
1747543325177664300,15.518664306640625,-0.013689041137695312,-0.0016117691993713379,-0.021727561950683594
1747543325195930400,15.536930419921875,0.051465511322021484,0.04484158754348755,-0.1278848648071289
1747543325214193400,15.555193359375,0.06724786758422852,0.05921810865402222,-0.18656349182128906
1747543325232459800,15.573459716796876,0.07224178314208984,0.06939899921417236,-0.16476058959960938
1747543325250723000,15.59172314453125,0.07598018646240234,0.0746164321899414,-0.07215309143066406
1747543325268977400,15.609977294921874,0.06792831420898438,0.03643596172332764,0.019576072692871094
1747543325287252500,15.62825244140625,0.021348953247070312,-0.0014433860778808594,0.0872182846069336
1747543325305523500,15.6465234375,-0.004546165466308594,-0.01665961742401123,0.07423782348632812
1747543325323783700,15.66478369140625,0.019328594207763672,0.0059740543365478516,-0.0143585205078125
1747543325342047700,15.6830478515625,0.06847286224365234,0.06603860855102539,-0.09270858764648438
1747543325360311300,15.701311279296876,0.12162542343139648,0.11654496192932129,-0.1523122787475586
1747543325378577200,15.7195771484375,0.1192331314086914,0.13427305221557617,-0.12243175506591797
1747543325396840700,15.7378408203125,0.09417581558227539,0.10588669776916504,-0.046482086181640625
1747543325415106600,15.7561064453125,0.053029537200927734,0.025908291339874268,0.028672218322753906
1747543325433369900,15.774369873046876,0.05478858947753906,-0.0061220526695251465,0.05111122131347656
1747543325451635700,15.7926357421875,0.015006542205810547,-0.0009223818778991699,0.021657943725585938
1747543325469899300,15.810899169921875,0.03984498977661133,0.03144007921218872,-0.006636619567871094
1747543325488164900,15.829164794921875,0.07013797760009766,0.04489243030548096,-0.02983570098876953
1747543325506428700,15.8474287109375,0.08077144622802734,0.06886333227157593,-0.057990074157714844
1747543325524694500,15.865694580078125,0.07179450988769531,0.059922099113464355,-0.0671834945678711
1747543325542957800,15.883957763671875,0.062462806701660156,0.046585798263549805,-0.028665542602539062
1747543325561223700,15.9022236328125,0.057978153228759766,0.047006189823150635,0.009824752807617188
1747543325579475200,15.92047509765625,0.05807304382324219,0.042049288749694824,0.01942729949951172
1747543325597753300,15.93875341796875,0.05821514129638672,0.0415075421333313,0.00030040740966796875
1747543325616016600,15.9570166015625,0.058528900146484375,0.050592899322509766,-0.01873016357421875
1747543325634282200,15.9752822265625,0.05987405776977539,0.06005048751831055,-0.04675102233886719
1747543325652546000,15.993546142578126,0.06663370132446289,0.0650320053100586,-0.04569721221923828
1747543325670812000,16.01181201171875,0.07777214050292969,0.060487568378448486,-0.04006385803222656
1747543325689075200,16.0300751953125,0.07884407043457031,0.04160428047180176,-0.010760307312011719
1747543325707341300,16.04834130859375,0.0841522216796875,0.012978732585906982,-0.005692481994628906
1747543325725604900,16.06660498046875,0.07535886764526367,0.0038582682609558105,-0.014871597290039062
1747543325743870500,16.084870361328125,0.06691694259643555,0.031663715839385986,-0.019095420837402344
1747543325762134000,16.103134033203126,0.05412578582763672,0.054937660694122314,-0.037487030029296875
1747543325780399600,16.121399658203124,0.05149650573730469,0.03549307584762573,-0.04117298126220703
1747543325798663400,16.139663330078125,0.0681452751159668,0.002881467342376709,-0.030366897583007812
1747543325816929000,16.157928955078123,0.06925678253173828,0.018252074718475342,-0.039246559143066406
1747543325835192600,16.176192626953124,0.04483318328857422,0.05692398548126221,-0.025043487548828125
1747543325853458200,16.194458251953126,0.04848432540893555,0.07638317346572876,-0.020821571350097656
1747543325871722000,16.212721923828123,0.056868553161621094,0.07162350416183472,-0.031014442443847656
1747543325889987600,16.230987548828125,0.06487655639648438,0.08150357007980347,-0.050942420959472656
1747543325908251400,16.24925146484375,0.06219196319580078,0.07281637191772461,-0.042687416076660156
1747543325926517200,16.267517333984376,0.02546072006225586,0.0547642707824707,-0.044266700744628906
1747543325944780500,16.285780517578125,0.013494491577148438,0.04196131229400635,-0.050205230712890625
1747543325963046400,16.30404638671875,-0.011621475219726562,0.03777468204498291,-0.03640270233154297
1747543325981305600,16.3223056640625,0.036135196685791016,0.01875549554824829,-0.03165912628173828
1747543325999580000,16.340579833984375,0.04030752182006836,0.013635694980621338,-0.03680229187011719
1747543326017839000,16.358839111328123,0.034647464752197266,0.003557741641998291,-0.037314414978027344
1747543326036105000,16.37710498046875,0.025087356567382812,0.0029964447021484375,-0.023009300231933594
1747543326054368300,16.3953681640625,0.02143239974975586,0.0068438053131103516,-0.01773357391357422
1747543326072633900,16.4136337890625,0.06156635284423828,0.015363216400146484,-0.03602027893066406
1747543326090898000,16.43189794921875,0.08264398574829102,0.03285396099090576,-0.020761489868164062
1747543326109159000,16.450158935546874,0.0934910774230957,0.0560489296913147,-0.0058135986328125
1747543326127427000,16.468427001953124,0.0798182487487793,0.06499135494232178,-0.0055217742919921875
1747543326145692400,16.4866923828125,0.0992279052734375,0.05979961156845093,-0.0006380081176757812
1747543326163956200,16.504956298828127,0.10863113403320312,0.06007707118988037,-0.0102691650390625
1747543326182221800,16.523221923828125,0.13165569305419922,0.056352972984313965,-0.015415191650390625
1747543326200485600,16.541485595703126,0.13892602920532227,0.09009218215942383,-0.03088855743408203
1747543326218751000,16.5597509765625,0.1302647590637207,0.07581567764282227,-0.028123855590820312
1747543326237015000,16.57801513671875,0.1202688217163086,0.060968756675720215,-0.026117324829101562
1747543326255280400,16.5962802734375,0.08472824096679688,0.023123562335968018,-0.0201263427734375
1747543326273544200,16.614544189453124,0.058455467224121094,0.00013446807861328125,-0.014234542846679688
1747543326291809800,16.632809814453125,0.018828392028808594,0.0007183551788330078,-0.017360687255859375
1747543326310073600,16.651073486328126,-0.00466156005859375,0.025107622146606445,-0.009998321533203125
1747543326328339000,16.6693388671875,0.007109642028808594,0.06266063451766968,-0.03049755096435547
1747543326346603000,16.68760302734375,0.03874826431274414,0.07654392719268799,-0.04108428955078125
1747543326364868400,16.705868408203123,0.07454919815063477,0.08514869213104248,-0.07112312316894531
1747543326383132200,16.724132080078125,0.06512737274169922,0.0847165584564209,-0.07835674285888672
1747543326401397800,16.742397705078126,0.020828723907470703,0.04631620645523071,-0.08154106140136719
1747543326419661300,16.760661376953124,0.018532276153564453,0.011197328567504883,-0.07579421997070312
1747543326437927000,16.778927001953125,0.006144046783447266,-0.02397066354751587,-0.06559371948242188
1747543326456190500,16.7971904296875,-0.0008234977722167969,-0.055054664611816406,-0.05506706237792969
1747543326474456300,16.815456298828124,0.0030493736267089844,-0.03830564022064209,-0.039099693298339844
1747543326492719600,16.8337197265625,0.0033965110778808594,-0.03663831949234009,-0.03691291809082031
1747543326510985700,16.85198583984375,0.023615360260009766,-0.035836100578308105,-0.04879570007324219
1747543326529249000,16.8702490234375,0.014956474304199219,-0.030833840370178223,-0.05603599548339844
1747543326547514600,16.8885146484375,0.02934741973876953,-0.026590585708618164,-0.04937744140625
1747543326565778700,16.90677880859375,0.03338766098022461,-0.017135024070739746,-0.047913551330566406
1747543326584044000,16.9250439453125,-0.00044155120849609375,-0.012271642684936523,-0.041426658630371094
1747543326602307600,16.9433076171875,0.019475460052490234,-0.0032233595848083496,-0.04400444030761719
1747543326620573200,16.9615732421875,0.04501152038574219,0.00971996784210205,-0.03182411193847656
1747543326638837000,16.9798369140625,0.05617952346801758,0.03292924165725708,-0.024420738220214844
1747543326657102600,16.9981025390625,0.07155561447143555,0.060075998306274414,-0.026899337768554688
1747543326675366400,17.016366455078124,0.0633840560913086,0.07775616645812988,-0.048676490783691406
1747543326693631700,17.0346318359375,0.08645439147949219,0.08054560422897339,-0.06146240234375
1747543326711895600,17.0528955078125,0.07137918472290039,0.06438714265823364,-0.06996631622314453
1747543326730161200,17.0711611328125,0.07807111740112305,0.048615992069244385,-0.054978370666503906
1747543326748424700,17.0894248046875,0.0657811164855957,0.01929342746734619,-0.05447864532470703
1747543326766690600,17.107690673828124,0.09068107604980469,0.008803009986877441,-0.059329986572265625
1747543326784954000,17.1259541015625,0.09466552734375,-0.012246966361999512,-0.05557441711425781
1747543326803219700,17.1442197265625,0.07696771621704102,-0.019845187664031982,-0.01964092254638672
1747543326821483300,17.162483154296876,0.05846977233886719,-0.022133171558380127,0.030328750610351562
1747543326839748900,17.180748779296874,0.07013988494873047,-0.008671164512634277,0.041998863220214844
1747543326858012200,17.19901220703125,0.10978031158447266,-0.0031125545501708984,0.03558158874511719
1747543326876278300,17.2172783203125,0.1625199317932129,0.03292053937911987,-0.005062103271484375
1747543326894541800,17.235541748046874,0.20327234268188477,0.07991594076156616,-0.04672431945800781
1747543326912807400,17.253807373046875,0.25213003158569336,0.17795157432556152,-0.027230262756347656
1747543326931071000,17.272071044921876,0.27467989921569824,0.22086036205291748,0.03425407409667969
1747543326949336600,17.290336669921874,0.2455446720123291,0.225227952003479,0.1197671890258789
1747543326967600000,17.30860009765625,0.21702909469604492,0.18566572666168213,0.16761398315429688
1747543326985854000,17.32685400390625,0.20275259017944336,0.12896889448165894,0.1632251739501953
1747543327004129300,17.34512939453125,0.14700984954833984,0.06432312726974487,0.16907310485839844
1747543327022395400,17.3633955078125,0.08449554443359375,0.029576480388641357,0.12374019622802734
1747543327040658400,17.381658447265625,0.06365776062011719,0.008656024932861328,0.03695201873779297
1747543327058924300,17.39992431640625,0.0506744384765625,-0.003174901008605957,-0.04814624786376953
1747543327077187800,17.418187744140624,0.030159473419189453,-0.002013683319091797,-0.10396766662597656
1747543327095453700,17.43645361328125,0.010291576385498047,-0.007390201091766357,-0.11177730560302734
1747543327113717200,17.45471728515625,-0.05649566650390625,0.013117432594299316,-0.11487293243408203
1747543327131982800,17.47298291015625,-0.029310226440429688,-0.017162680625915527,-0.1806659698486328
1747543327150246000,17.491245849609374,-0.0545496940612793,-0.0891423225402832,-0.19133567810058594
1747543327168512000,17.509511962890624,-0.1090841293334961,-0.09805232286453247,-0.1516866683959961
1747543327186763500,17.527763427734374,-0.14071130752563477,-0.07830017805099487,-0.11273479461669922
1747543327205041200,17.546041259765627,-0.18885278701782227,-0.04441946744918823,-0.09560775756835938
1747543327223304400,17.564304443359376,-0.17493391036987305,-0.0292360782623291,-0.11036205291748047
1747543327241570300,17.5825703125,-0.16241693496704102,0.012938380241394043,-0.07578563690185547
1747543327259833900,17.600833740234375,-0.18367385864257812,0.041681110858917236,-0.033992767333984375
1747543327278099700,17.619099609375,-0.13986587524414062,0.033231377601623535,-0.06743526458740234
1747543327296362800,17.63736279296875,-0.04838991165161133,0.02975332736968994,-0.07251930236816406
1747543327314628900,17.65562890625,-0.023201465606689453,0.05025362968444824,-0.07699298858642578
1747543327332892200,17.67389208984375,-0.013371467590332031,0.04550832509994507,-0.10116100311279297
1747543327351158300,17.692158203125,-0.01906299591064453,0.030286312103271484,-0.10677719116210938
1747543327369421600,17.710421630859376,-0.0505528450012207,0.04269087314605713,-0.08460140228271484
1747543327387687200,17.728687255859374,-0.08159112930297852,0.026683509349822998,-0.06724834442138672
1747543327405950500,17.746950439453126,-0.058713436126708984,-0.0020505189895629883,-0.048656463623046875
1747543327424216800,17.765216796875,-0.008833885192871094,-0.01521754264831543,-0.071929931640625
1747543327442480000,17.783480224609374,0.013996124267578125,-0.05614131689071655,-0.084808349609375
1747543327460746000,17.80174609375,0.04755830764770508,-0.07250320911407471,-0.08726882934570312
1747543327479009300,17.82000927734375,0.10254669189453125,-0.08438825607299805,-0.060273170471191406
1747543327497275000,17.83827490234375,0.15587210655212402,-0.09229099750518799,-0.04425048828125
1747543327515538400,17.856538330078124,0.13590168952941895,-0.06215834617614746,-0.023215293884277344
1747543327533804300,17.87480419921875,0.11050009727478027,0.0003821253776550293,-0.02676677703857422
1747543327552067800,17.89306787109375,0.08714890480041504,0.06320679187774658,-0.024840354919433594
1747543327570333400,17.91133349609375,0.06488847732543945,0.12249460816383362,-0.041237831115722656
1747543327588596700,17.9295966796875,0.05408430099487305,0.1586083471775055,-0.042359352111816406
1747543327606862600,17.947862548828127,0.03968524932861328,0.13760784268379211,-0.06144237518310547
1747543327625126400,17.96612646484375,0.04874372482299805,0.1063913106918335,-0.06761455535888672
1747543327643392000,17.98439208984375,0.05109834671020508,0.11329135298728943,-0.05971813201904297
1747543327661655300,18.0026552734375,0.06576061248779297,0.17767521739006042,-0.01889801025390625
1747543327679921200,18.020921142578125,0.077972412109375,0.267624169588089,-0.017705917358398438
1747543327698184400,18.039184326171874,0.1264500617980957,0.2649703919887543,-0.007701873779296875
1747543327716450300,18.0574501953125,0.17183613777160645,0.14648562669754028,0.015130043029785156
1747543327734713600,18.075713623046877,0.15909028053283691,-0.040857017040252686,0.02878284454345703
1747543327752979200,18.093979248046875,0.14582252502441406,-0.20649009943008423,0.024559974670410156
1747543327771242800,18.11224267578125,0.09378576278686523,-0.2532960772514343,0.007946968078613281
1747543327789508600,18.130508544921874,0.015743255615234375,-0.2106003761291504,0.0310821533203125
1747543327807772200,18.148772216796875,0.016893863677978516,-0.10901373624801636,0.07352924346923828
1747543327826038000,18.1670380859375,-0.000052928924560546875,0.012708902359008789,0.1115255355834961
1747543327844301300,18.18530126953125,-0.06046342849731445,0.09117990732192993,0.0789651870727539
1747543327862567200,18.203567138671875,-0.0670619010925293,0.09683150053024292,0.008342742919921875
1747543327880830200,18.221830322265625,-0.029770374298095703,0.08089292049407959,-0.0710000991821289
1747543327899096300,18.240096435546874,0.0237884521484375,0.08470964431762695,-0.11132431030273438
1747543327917359600,18.258359619140624,0.08977890014648438,0.15969422459602356,-0.10471534729003906
1747543327935625200,18.276625244140625,0.15536212921142578,0.25806960463523865,-0.0960988998413086
1747543327953889000,18.294888916015626,0.17990684509277344,0.3344203531742096,-0.052371978759765625
1747543327972154600,18.313154541015624,0.19885540008544922,0.3326682150363922,-0.015867233276367188
1747543327990418200,18.331418212890625,0.15898609161376953,0.26892411708831787,0.029793739318847656
1747543328008683800,18.349683837890623,0.1461787223815918,0.18215927481651306,0.09562015533447266
1747543328026947300,18.367947265625,0.17113447189331055,0.09987974166870117,0.17392253875732422
1747543328045213000,18.386212890625,0.17288541793823242,0.04942280054092407,0.2066020965576172
1747543328063476500,18.4044765625,0.16494226455688477,0.06850367784500122,0.18875885009765625
1747543328081742000,18.4227421875,0.15007925033569336,0.06876683235168457,0.1722431182861328
1747543328100005600,18.441005615234374,0.06078290939331055,0.08110976219177246,0.1336212158203125
1747543328118271000,18.45927099609375,-0.025424480438232422,0.052867233753204346,0.10573291778564453
1747543328136534800,18.47753466796875,-0.0018725395202636719,0.016913115978240967,0.08025646209716797
1747543328154800400,18.49580029296875,0.03167295455932617,0.004932582378387451,0.017168045043945312
1747543328173064200,18.514064208984376,0.08231687545776367,-0.017525970935821533,-0.0899648666381836
1747543328191329500,18.53232958984375,0.0759572982788086,-0.05103331804275513,-0.19486427307128906
1747543328209593000,18.550593017578127,0.0578913688659668,-0.09619998931884766,-0.25998401641845703
1747543328227858200,18.568858154296876,-0.002898693084716797,-0.12333738803863525,-0.27504730224609375
1747543328246122200,18.587122314453126,-0.038249969482421875,-0.11699873208999634,-0.24382781982421875
1747543328264379000,18.60537890625,-0.0553889274597168,-0.07124632596969604,-0.17974853515625
1747543328282651400,18.6236513671875,-0.08791875839233398,-0.024724841117858887,-0.1397247314453125
1747543328300916700,18.641916748046874,-0.0815134048461914,-0.012852072715759277,-0.11861419677734375
1747543328319180500,18.6601806640625,-0.06464242935180664,-0.05095970630645752,-0.12117481231689453
1747543328337446000,18.67844580078125,-0.06652688980102539,-0.06658720970153809,-0.12851715087890625
1747543328355709700,18.696709716796875,-0.06828022003173828,-0.06479674577713013,-0.11676025390625
1747543328373974800,18.714974853515624,-0.09334516525268555,-0.0639190673828125,-0.12391853332519531
1747543328392239000,18.733239013671874,-0.06950235366821289,-0.054032325744628906,-0.1449575424194336
1747543328410504200,18.751504150390623,-0.049874305725097656,-0.07360374927520752,-0.14663314819335938
1747543328428768000,18.76976806640625,0.01621532440185547,-0.12760770320892334,-0.10573101043701172
1747543328447033000,18.788033203125,0.015067577362060547,-0.11078321933746338,-0.12277793884277344
1747543328465297200,18.806297119140623,0.013331413269042969,-0.07926678657531738,-0.09701156616210938
1747543328483562500,18.8245625,0.03719282150268555,-0.030263185501098633,-0.09952449798583984
1747543328501814300,18.842814208984375,0.046030521392822266,0.008357882499694824,-0.0878610610961914
1747543328520082200,18.861082275390626,0.07775449752807617,0.03623795509338379,-0.052855491638183594
1747543328538355500,18.87935546875,0.08416366577148438,0.0509188175201416,-0.008923530578613281
1747543328556620800,18.897620849609375,0.08544397354125977,0.06175309419631958,0.020269393920898438
1747543328574884600,18.915884521484376,0.11778545379638672,0.03021150827407837,-0.0037393569946289062
1747543328593150200,18.934150146484374,0.12981176376342773,0.028304755687713623,-0.018982887268066406
1747543328611413800,18.952413818359375,0.14977121353149414,0.055236637592315674,0.01766681671142578
1747543328629679600,18.9706796875,0.13858985900878906,0.07802939414978027,0.038733482360839844
1747543328647943000,18.98894287109375,0.14053106307983398,0.0765833854675293,0.04479026794433594
1747543328666208500,19.00720849609375,0.14700889587402344,0.06085646152496338,0.011857986450195312
1747543328684471800,19.025471923828125,0.13431119918823242,0.05040693283081055,0.0034351348876953125
1747543328702737700,19.043737548828126,0.08313608169555664,0.038856685161590576,0.009823799133300781
1747543328721001200,19.062001220703124,0.028541088104248047,-0.010560691356658936,-0.002849578857421875
1747543328739266600,19.0802666015625,-0.004580020904541016,-0.054952025413513184,0.009606361389160156
1747543328757530400,19.0985302734375,-0.03075885772705078,-0.09481960535049438,-0.029227256774902344
1747543328775796000,19.1167958984375,-0.02959299087524414,-0.0880555510520935,-0.07149887084960938
1747543328794059300,19.135059326171874,-0.03667783737182617,-0.06398767232894897,-0.10367488861083984
1747543328812325000,19.1533251953125,-0.08096122741699219,-0.040396273136138916,-0.12136268615722656
1747543328830588400,19.17158837890625,-0.09690332412719727,-0.037174761295318604,-0.12470626831054688
1747543328848854300,19.189854248046874,-0.0925288200378418,-0.043743789196014404,-0.10362529754638672
1747543328867117800,19.208117919921875,-0.09583282470703125,-0.02860480546951294,-0.07212066650390625
1747543328885383400,19.226383544921877,-0.08773279190063477,-0.004245340824127197,-0.08285808563232422
1747543328903646500,19.244646484375,-0.07712888717651367,0.04298245906829834,-0.0687398910522461
1747543328921912300,19.262912353515624,-0.047387123107910156,0.06178736686706543,-0.0830526351928711
1747543328940176000,19.28117578125,0.0005617141723632812,0.05633658170700073,-0.0975503921508789
1747543328958441500,19.29944140625,-0.004921436309814453,0.051066815853118896,-0.09358024597167969
1747543328976705000,19.317705078125,0.013048171997070312,0.007868468761444092,-0.080230712890625
1747543328994970400,19.335970458984374,-0.002013683319091797,-0.010547220706939697,-0.05224323272705078
1747543329013234000,19.35423388671875,0.031304359436035156,-0.02510625123977661,-0.019161224365234375
1747543329031499800,19.372499755859376,0.0556025505065918,-0.02912008762359619,0.0046901702880859375
1747543329049763000,19.39076318359375,0.07592964172363281,-0.03284299373626709,0.005077362060546875
1747543329068029200,19.409029296875,0.0921630859375,-0.027440190315246582,-0.008557319641113281
1747543329086292000,19.4272919921875,0.09935188293457031,-0.027463853359222412,-0.007610321044921875
1747543329104557800,19.445557861328126,0.14414405822753906,-0.005388379096984863,-0.007121086120605469
1747543329122821400,19.4638212890625,0.14361953735351562,0.027224421501159668,-0.031673431396484375
1747543329141087200,19.482087158203125,0.10823535919189453,0.05135786533355713,-0.014057159423828125
1747543329159350500,19.5003505859375,0.10947179794311523,0.0944976806640625,0.0029897689819335938
1747543329177616100,19.5186162109375,0.11491537094116211,0.07054251432418823,-0.00897979736328125
1747543329195879700,19.536879638671873,0.08657979965209961,0.0383530855178833,-0.016175270080566406
1747543329214145300,19.555145263671875,0.08686304092407227,0.055100321769714355,-0.008355140686035156
1747543329232408600,19.57340869140625,0.10505247116088867,0.06775075197219849,0.0030717849731445312
1747543329250674400,19.59167431640625,0.13068103790283203,0.08554816246032715,0.0033016204833984375
1747543329268937700,19.609937744140623,0.13935041427612305,0.07559186220169067,0.0075702667236328125
1747543329287203300,19.628203369140625,0.14113378524780273,0.052248358726501465,-0.02751636505126953
1747543329305453000,19.646453125,0.1459975242614746,0.023659586906433105,-0.03955841064453125
1747543329323732700,19.664732666015624,0.13497161865234375,0.03827089071273804,-0.052392005920410156
1747543329342001400,19.68300146484375,0.08425235748291016,0.05350464582443237,-0.060517311096191406
1747543329360262000,19.701261962890626,0.06599235534667969,0.026749014854431152,-0.02241039276123047
1747543329378525000,19.71952490234375,0.0710897445678711,0.0062937140464782715,-0.022186279296875
1747543329396790800,19.737790771484374,0.060651302337646484,-0.004743397235870361,-0.07963943481445312
1747543329415054000,19.75605419921875,0.06476068496704102,0.026913583278656006,-0.1181192398071289
1747543329433320000,19.77431982421875,0.044677734375,0.06926524639129639,-0.09895610809326172
1747543329451583000,19.7925830078125,0.03260231018066406,0.06899333000183105,-0.0808248519897461
1747543329469849000,19.81084912109375,-0.014571666717529297,0.0265236496925354,-0.0921783447265625
1747543329488112000,19.829112060546876,-0.04773235321044922,-0.0022007226943969727,-0.07975101470947266
1747543329506378000,19.8473779296875,-0.03179454803466797,0.01209336519241333,-0.06726455688476562
1747543329524641300,19.865641357421875,0.008685111999511719,0.03615313768386841,-0.07768821716308594
1747543329542907400,19.883907470703125,0.023412704467773438,0.03841596841812134,-0.08855438232421875
1747543329561170200,19.902170166015626,0.004660129547119141,0.036699891090393066,-0.09959602355957031
1747543329579436000,19.92043603515625,-0.06305551528930664,-0.0032023191452026367,-0.08249855041503906
1747543329597699600,19.938699462890625,-0.15410804748535156,-0.12048417329788208,-0.055708885192871094
1747543329615965400,19.95696533203125,-0.2020120620727539,-0.20299172401428223,-0.060202598571777344
1747543329634228700,19.975228759765624,-0.18105554580688477,-0.1733277440071106,-0.05673789978027344
1747543329652494300,19.993494384765626,-0.07882118225097656,-0.04990971088409424,-0.017566680908203125
1747543329670758000,20.0117578125,0.009197235107421875,0.01063162088394165,0.0024013519287109375
1747543329689023500,20.0300234375,0.03737211227416992,-0.01015692949295044,-0.04111194610595703
1747543329707286500,20.04828662109375,0.011466026306152344,-0.0454135537147522,-0.08535385131835938
1747543329725552600,20.066552734375,-0.04702472686767578,-0.04616546630859375,-0.10038185119628906
1747543329743816000,20.08481591796875,-0.08380126953125,-0.033487558364868164,-0.06630611419677734
1747543329762081500,20.10308154296875,-0.0611567497253418,-0.00839167833328247,-0.0313720703125
1747543329780345000,20.121344970703124,-0.02283954620361328,0.031063199043273926,-0.0009260177612304688
1747543329798610700,20.139610595703125,0.01002359390258789,0.07919907569885254,-0.0040378570556640625
1747543329816874000,20.1578740234375,0.013806819915771484,0.11288213729858398,0.002231597900390625
1747543329835139800,20.176139892578124,0.013827323913574219,0.09407788515090942,0.01375579833984375
1747543329853403100,20.194403076171874,0.06843757629394531,0.06541049480438232,-0.012048721313476562
1747543329871669000,20.2126689453125,0.13360834121704102,0.07154971361160278,-0.0324249267578125
1747543329889932000,20.23093212890625,0.16991853713989258,0.10352307558059692,-0.05740070343017578
1747543329908198000,20.249197998046874,0.17519664764404297,0.09007567167282104,-0.06869125366210938
1747543329926461400,20.26746142578125,0.14042091369628906,0.034616708755493164,-0.06677627563476562
1747543329944726800,20.285726806640625,0.10354232788085938,-0.03057807683944702,-0.03244209289550781
1747543329962990300,20.303990234375,0.0139617919921875,-0.07146459817886353,-0.00772857666015625
1747543329981253000,20.322253173828123,-0.015902042388916016,-0.051754891872406006,-0.020185470581054688
1747543329999522000,20.34052197265625,0.03436470031738281,0.029627680778503418,-0.021493911743164062
1747543330017785000,20.35878515625,0.09467840194702148,0.08453547954559326,0.016204833984375
1747543330036048400,20.37704833984375,0.1491832733154297,0.09221172332763672,0.019890785217285156
1747543330054314000,20.39531396484375,0.1560978889465332,0.07659238576889038,-0.026205062866210938
1747543330072577300,20.413577392578127,0.08447599411010742,0.07701718807220459,-0.040307044982910156
1747543330090841300,20.43184130859375,0.045842647552490234,0.039061903953552246,-0.03044414520263672
1747543330109108700,20.450108642578126,0.028502941131591797,-0.004476428031921387,-0.052689552307128906
1747543330127369000,20.468368896484375,0.04721546173095703,0.009905397891998291,-0.016454696655273438
1747543330145639000,20.486638916015625,0.06188154220581055,0.057145535945892334,0.02942371368408203
1747543330163901400,20.5049013671875,0.06103706359863281,0.07132267951965332,0.05586528778076172
1747543330182164700,20.523164794921875,0.03665447235107422,0.04321551322937012,0.034674644470214844
1747543330200430000,20.54143017578125,0.0034742355346679688,-0.022804081439971924,-0.00490570068359375
1747543330218693600,20.559693603515626,0.0009770393371582031,-0.07907521724700928,-0.05811023712158203
1747543330236959200,20.577959228515624,-0.005268573760986328,-0.05449056625366211,-0.08204174041748047
1747543330255222800,20.596222900390625,0.026642799377441406,0.022100746631622314,-0.07731342315673828
1747543330273488600,20.614488525390627,0.033014774322509766,0.03638988733291626,-0.06870079040527344
1747543330291751700,20.632751708984376,0.009237289428710938,0.0018922090530395508,-0.07050323486328125
1747543330310017500,20.651017578125,-0.015621185302734375,-0.042753756046295166,-0.07299327850341797
1747543330328281000,20.669281005859375,-0.026407241821289062,-0.05936992168426514,-0.056560516357421875
1747543330346546400,20.68754638671875,-0.05597543716430664,-0.06294262409210205,-0.05437755584716797
1747543330364809700,20.705809814453126,-0.08015966415405273,-0.07723408937454224,-0.041835784912109375
1747543330383064300,20.724064208984377,-0.08444786071777344,-0.11187988519668579,-0.053623199462890625
1747543330401339000,20.7423388671875,-0.058936119079589844,-0.10652852058410645,-0.0560760498046875
1747543330419588000,20.760588134765626,-0.04217529296875,-0.07357722520828247,-0.0331573486328125
1747543330437868000,20.778867919921876,-0.005875110626220703,-0.04284733533859253,0.002960205078125
1747543330456133000,20.797133056640625,0.021524429321289062,-0.017890095710754395,0.044345855712890625
1747543330474397000,20.81539697265625,0.07670783996582031,0.02942723035812378,0.05675315856933594
1747543330492662300,20.833662353515624,0.13556718826293945,0.08582639694213867,0.07816696166992188
1747543330510925800,20.85192578125,0.16871070861816406,0.11624819040298462,-0.02082061767578125
1747543330529191400,20.87019140625,0.19426774978637695,0.14921581745147705,-0.21575355529785156
1747543330547455000,20.888455078125,0.21897172927856445,0.18184590339660645,-0.3924417495727539
1747543330565720300,20.90672021484375,0.25066328048706055,0.2573058009147644,-0.41687488555908203
1747543330583983400,20.9249833984375,0.1901688575744629,0.26952552795410156,-0.18127727508544922
1747543330602249200,20.943249267578125,0.030872821807861328,0.015876591205596924,0.01691436767578125
1747543330620513000,20.961512939453126,-0.1827402114868164,-0.31591570377349854,0.022321701049804688
1747543330638778400,20.9797783203125,-0.32122373580932617,-0.3973192572593689,0.07109546661376953
1747543330657042000,20.9980419921875,-0.30789995193481445,-0.2444027066230774,0.2212047576904297
1747543330675307500,21.0163076171875,-0.07988643646240234,-0.02590036392211914,0.20794677734375
1747543330693571000,21.034571044921876,0.15976381301879883,0.10521775484085083,-0.03174877166748047
1747543330711836700,21.052836669921874,0.24353933334350586,0.16449636220932007,-0.3270559310913086
1747543330730100000,21.071099853515626,0.2597494125366211,0.2441112995147705,-0.42779541015625
1747543330748365600,21.089365478515624,0.24977540969848633,0.29472148418426514,-0.23891258239746094
1747543330766629000,21.107629150390625,0.06881523132324219,0.057154953479766846,-0.07779312133789062
1747543330784894700,21.125894775390623,-0.22087669372558594,-0.327501118183136,-0.1045389175415039
1747543330803158000,21.144157958984376,-0.4231681823730469,-0.4489153027534485,-0.07294464111328125
1747543330821423600,21.162423583984374,-0.3104701042175293,-0.23780661821365356,0.1340465545654297
1747543330839687200,21.180687255859375,-0.0559844970703125,0.06687343120574951,0.4204740524291992
1747543330857952800,21.198952880859373,0.1677412986755371,0.16064465045928955,0.38324928283691406
1747543330876216000,21.217216064453126,0.1624155044555664,0.02758389711380005,-0.019095420837402344
1747543330894481700,21.235481689453124,-0.06251001358032227,-0.052805185317993164,-0.3227405548095703
1747543330912745200,21.2537451171875,-0.13890504837036133,-0.04134845733642578,-0.34475040435791016
1747543330931010600,21.272010498046875,0.14960527420043945,0.07157552242279053,-0.25077247619628906
1747543330949273900,21.29027392578125,0.5103120803833008,0.3681131601333618,-0.11406135559082031
1747543330967540000,21.3085400390625,0.5777902603149414,0.5629509687423706,0.1014719009399414
1747543330985803000,21.326802978515627,0.19352340698242188,-0.0017837285995483398,-0.0249481201171875
1747543331004068600,21.345068603515625,-0.338956356048584,-0.6457844972610474,-0.3489189147949219
1747543331022332200,21.363332275390626,-0.6486101150512695,-0.6035675406455994,-0.2111034393310547
1747543331040597800,21.38159765625,-0.36359739303588867,-0.1632288098335266,0.3509807586669922
1747543331058861000,21.399861083984376,0.1201486587524414,0.155969500541687,0.6418132781982422
1747543331077126700,21.418126708984374,0.4376397132873535,0.20318812131881714,0.24437999725341797
1747543331095390200,21.43639013671875,0.22354984283447266,0.1927202343940735,-0.2039480209350586
1747543331113655600,21.454655517578125,-0.0816187858581543,0.06740278005599976,-0.3092918395996094
1747543331131919000,21.472919189453126,0.0034761428833007812,-0.06127810478210449,-0.3027210235595703
1747543331150184700,21.491184814453124,0.36880970001220703,0.22477632761001587,-0.22614383697509766
1747543331168446700,21.50944677734375,0.5424723625183105,0.6096158027648926,-0.06305694580078125
1747543331186714600,21.527714599609375,0.3278055191040039,0.3123858571052551,-0.035307884216308594
1747543331204975600,21.5459755859375,-0.14252138137817383,-0.4393478035926819,-0.3096351623535156
1747543331223243800,21.564243896484374,-0.5114107131958008,-0.6797467470169067,-0.26555824279785156
1747543331241506000,21.582506103515627,-0.5163536071777344,-0.26457518339157104,0.3598155975341797
1747543331259771400,21.600771484375,-0.0667409896850586,0.027740418910980225,0.7027311325073242
1747543331278035000,21.619034912109374,0.29094743728637695,0.06658560037612915,0.2850189208984375
1747543331296300500,21.637300537109375,0.1598505973815918,0.1328340768814087,-0.1817159652709961
1747543331314563800,21.655563720703125,-0.03528928756713867,0.09268635511398315,-0.38750457763671875
1747543331332829700,21.67382958984375,0.1510334014892578,0.026512622833251953,-0.49747180938720703
1747543331351092700,21.6920927734375,0.3744387626647949,0.31822776794433594,-0.31005001068115234
1747543331369358300,21.7103583984375,0.3306245803833008,0.4223114848136902,-0.018410682678222656
1747543331387621600,21.72862158203125,-0.012446403503417969,-0.15991157293319702,-0.0832223892211914
1747543331405887500,21.746887451171876,-0.36625099182128906,-0.60514235496521,-0.29479217529296875
1747543331424150500,21.765150634765625,-0.5485467910766602,-0.3702419400215149,0.0878305435180664
1747543331442416400,21.78341650390625,-0.2683296203613281,-0.015769481658935547,0.6071395874023438
1747543331460667400,21.80166748046875,0.15305805206298828,0.025224804878234863,0.49297618865966797
1747543331478945500,21.819945556640626,0.2027144432067871,0.0245131254196167,-0.03711700439453125
1747543331497201200,21.838201171875,0.00727081298828125,0.12144839763641357,-0.3644132614135742
1747543331515474400,21.856474365234376,0.11970710754394531,0.17093974351882935,-0.5067157745361328
1747543331533737500,21.874737548828126,0.39907121658325195,0.3460899591445923,-0.3700828552246094
1747543331552003300,21.89300341796875,0.42956972122192383,0.38087230920791626,-0.05315971374511719
1747543331570266400,21.911266357421876,0.07248544692993164,-0.1186710000038147,-0.03251457214355469
1747543331588532000,21.929531982421874,-0.38991546630859375,-0.5989545583724976,-0.2073650360107422
1747543331606795300,21.947795166015624,-0.6187467575073242,-0.4778541922569275,0.06137561798095703
1747543331625061400,21.966061279296873,-0.3115882873535156,-0.09788286685943604,0.5032339096069336
1747543331643313000,21.98431298828125,0.15369606018066406,0.059684693813323975,0.4811210632324219
1747543331661590000,22.002590087890624,0.3883485794067383,0.12887686491012573,-0.007450103759765625
1747543331679853300,22.020853271484373,0.23667001724243164,0.24628233909606934,-0.35279083251953125
1747543331698119200,22.039119140625,0.07860851287841797,0.2238737940788269,-0.42704105377197266
1747543331716372000,22.0573720703125,0.0628509521484375,0.011138617992401123,-0.3986539840698242
1747543331734649900,22.07564990234375,0.09583139419555664,-0.03903394937515259,-0.22704029083251953
1747543331752911400,22.093911376953123,0.09896326065063477,0.03999483585357666,0.05416107177734375
1747543331771177000,22.112177001953125,0.03214693069458008,0.042989492416381836,0.3149280548095703
1747543331789440300,22.130440185546874,-0.0782766342163086,-0.13182765245437622,0.30274200439453125
1747543331807706000,22.1487060546875,-0.11987924575805664,-0.20002275705337524,0.08616065979003906
1747543331825969200,22.16696923828125,-0.045078277587890625,-0.0784299373626709,-0.13199520111083984
1747543331844234800,22.18523486328125,0.07128381729125977,0.06691479682922363,-0.24850082397460938
1747543331862498300,22.203498291015624,0.1474461555480957,0.1288129687309265,-0.25636863708496094
1747543331880763600,22.221763671875,0.14630126953125,0.12112182378768921,-0.1801919937133789
1747543331899027500,22.24002734375,0.055325984954833984,0.06745976209640503,-0.048737525939941406
1747543331917292800,22.258292724609376,-0.03653717041015625,-0.04376864433288574,0.09212970733642578
1747543331935556400,22.276556396484374,-0.06809139251708984,-0.14289093017578125,0.17209529876708984
1747543331953822000,22.294822021484375,-0.048027992248535156,-0.12931084632873535,0.1007070541381836
1747543331972085200,22.313085205078124,0.007103443145751953,-0.01686650514602661,-0.05096626281738281
1747543331990350600,22.3313505859375,0.0534672737121582,0.06344562768936157,-0.17792415618896484
1747543332008614000,22.34961376953125,0.08847713470458984,0.07780313491821289,-0.23450279235839844
1747543332026879700,22.367879638671877,0.08678579330444336,0.027432739734649658,-0.17836761474609375
1747543332045142800,22.386142822265626,0.030359745025634766,-0.04172563552856445,-0.050896644592285156
1747543332063408600,22.40440869140625,-0.020097732543945312,-0.06813621520996094,0.043341636657714844
1747543332081672000,22.422671875,-0.020653724670410156,-0.03376549482345581,0.09579086303710938
1747543332099937500,22.4409375,0.014200210571289062,-0.005184948444366455,0.08697128295898438
1747543332118200800,22.459200927734376,0.039156436920166016,-0.009651362895965576,-0.012960433959960938
1747543332136466400,22.477466552734374,0.03412342071533203,-0.00456690788269043,-0.12759971618652344
1747543332154729700,22.495729736328126,0.019736289978027344,0.020564377307891846,-0.19388771057128906
1747543332172995300,22.513995361328124,0.02449321746826172,0.05050081014633179,-0.16977310180664062
1747543332191258600,22.532258544921874,0.04297018051147461,0.038264691829681396,-0.09870243072509766
1747543332209524500,22.5505244140625,0.03162813186645508,-0.016630589962005615,-0.013266563415527344
1747543332227787500,22.56878759765625,0.006239891052246094,-0.04292339086532593,0.033725738525390625
