time,seconds_elapsed,z,y,x
1747980194331717000,0.046717041015625,5.400002479553223,4.205984115600586,-1.4422738552093506
1747980194349983200,0.064983154296875,6.555736064910889,4.1868414878845215,-1.1341979503631592
1747980194368253700,0.083253662109375,7.437490940093994,3.769293785095215,-1.0648061037063599
1747980194386523000,0.10152294921875,8.688339233398438,4.182055950164795,0.04247260093688965
1747980194404790300,0.119790283203125,10.450055122375488,3.2231321334838867,-0.21595224738121033
1747980194423054600,0.1380546875,11.71585750579834,3.896113395690918,-0.9020941257476807
1747980194441320200,0.1563203125,11.80738353729248,4.0905303955078125,-0.973878800868988
1747980194459580700,0.17458056640625,10.672587394714355,3.4546377658843994,-1.2400803565979004
1747980194477850000,0.19285009765625,9.369695663452148,2.6673989295959473,-1.7593228816986084
1747980194496111600,0.211111572265625,8.9312105178833,2.669193744659424,-1.5242279767990112
1747980194514380000,0.229380126953125,8.861818313598633,2.242672920227051,0.005982056725770235
1747980194532636200,0.24763623046875,8.571688652038574,1.3986048698425293,-0.20039889216423035
1747980194550912300,0.265912353515625,13.292129516601562,2.9862427711486816,-1.074377417564392
1747980194569177300,0.28417724609375,15.075979232788086,2.145763635635376,-2.2031915187835693
1747980194587443000,0.30244287109375,12.704691886901855,3.7286159992218018,-4.1042890548706055
1747980194605708300,0.320708251953125,8.701499938964844,5.685346603393555,-4.532604217529297
1747980194623969300,0.33896923828125,7.609774112701416,4.134199142456055,-1.5625132322311401
1747980194642238700,0.35723876953125,9.984052658081055,3.126222848892212,0.5880361795425415
1747980194660504000,0.375504150390625,11.95454216003418,3.0454649925231934,0.35413774847984314
1747980194678769400,0.393769287109375,11.941381454467773,3.3684961795806885,0.35473597049713135
1747980194697034200,0.4120341796875,8.722436904907227,2.6668007373809814,0.7812566161155701
1747980194715295200,0.430295166015625,6.415157318115234,2.0404794216156006,-0.6825526356697083
1747980194733564000,0.44856396484375,5.602794170379639,2.421536445617676,-6.926623344421387
1747980194751832600,0.46683251953125,6.092724800109863,1.6031911373138428,-4.566103935241699
1747980194770095600,0.485095703125,5.865406513214111,2.117648124694824,-2.9150562286376953
1747980194788360400,0.5033603515625,8.001599311828613,2.5399811267852783,-2.6943182945251465
1747980194806627600,0.521627685546875,10.200004577636719,1.0139585733413696,-3.0071799755096436
1747980194824892200,0.53989208984375,8.802596092224121,1.1341979503631592,-4.47697114944458
1747980194843157000,0.558156982421875,3.9828531742095947,2.207977056503296,-1.85383939743042
1747980194861421800,0.576421875,5.170291423797607,5.962316036224365,2.960519790649414
1747980194879689000,0.59468896484375,5.863611698150635,6.932605266571045,1.9848463535308838
1747980194897949200,0.61294921875,6.760322093963623,6.480959892272949,0.5330012440681458
1747980194916214800,0.63121484375,6.965506553649902,7.606783390045166,2.523829698562622
1747980194934483700,0.649483642578125,6.686144828796387,7.791628837585449,-0.5413761138916016
1747980194952749300,0.667749267578125,5.79063081741333,5.2384867668151855,-5.1343994140625
1747980194971010000,0.686010009765625,5.234299659729004,2.286342144012451,-5.36650276184082
1747980194989279500,0.704279541015625,7.232904434204102,1.8263218402862549,-3.348755359649658
1747980195007545600,0.722545654296875,7.738986492156982,2.5118656158447266,-4.41057014465332
1747980195025811000,0.74081103515625,9.57906723022461,1.8203397989273071,-2.5980072021484375
1747980195044076500,0.75907666015625,8.090133666992188,3.252444267272949,-2.7457640171051025
1747980195062341600,0.777341552734375,7.307680130004883,5.86002254486084,-1.0474581718444824
1747980195080606700,0.795606689453125,12.414562225341797,3.826721668243408,-0.20997019112110138
1747980195098872300,0.813872314453125,7.384250640869141,3.617349624633789,-1.1365907192230225
1747980195117137400,0.832137451171875,8.769096374511719,2.850450038909912,-1.5810575485229492
1747980195135401500,0.8504013671875,8.295916557312012,2.496910333633423,-1.2598211765289307
1747980195153669400,0.86866943359375,6.21356201171875,3.4139597415924072,-1.2113664150238037
1747980195171929000,0.88692919921875,4.614558696746826,2.0685951709747314,1.0001999139785767
1747980195190199600,0.905199462890625,5.784050464630127,0.5952146053314209,1.397408366203308
1747980195208464100,0.923464111328125,8.919844627380371,-1.913659930229187,1.113858938217163
1747980195226725000,0.94172509765625,11.334800720214844,-2.760719060897827,2.3030917644500732
1747980195244994000,0.959994140625,9.755537986755371,-1.2699905633926392,3.978067636489868
1747980195263262000,0.978261962890625,6.939185619354248,-1.1276177167892456,5.653641700744629
1747980195281525500,0.996525390625,8.26839828491211,-0.625723123550415,5.703890800476074
1747980195299791400,1.014791259765625,9.801599502563477,-1.4404792785644531,5.3934221267700195
1747980195318056400,1.033056396484375,10.514062881469727,-1.0307083129882812,5.215754985809326
1747980195336324000,1.051323974609375,11.364112854003906,-0.40737804770469666,6.343372821807861
1747980195354587000,1.0695869140625,13.789836883544922,0.37507495284080505,7.223931789398193
1747980195372852200,1.087852294921875,12.987045288085938,0.8249256014823914,6.217151641845703
1747980195391118000,1.1061181640625,9.973284721374512,1.057029366493225,5.204987525939941
1747980195409382400,1.12438232421875,8.73320484161377,0.7537391185760498,4.25084924697876
1747980195427649800,1.14264990234375,8.538188934326172,0.1178465187549591,3.844069480895996
1747980195445914000,1.1609140625,9.09392261505127,0.16809579730033875,4.373481750488281
1747980195464179500,1.179179443359375,8.569893836975098,0.23210379481315613,4.704887390136719
1747980195482445300,1.1974453125,7.548757076263428,0.09451649338006973,5.051248550415039
1747980195500708600,1.21570849609375,7.225726127624512,-0.43609192967414856,4.7401814460754395
1747980195518973000,1.233972900390625,6.628716945648193,-0.6610172390937805,4.956732273101807
1747980195537240800,1.25224072265625,7.17786979675293,-1.703689694404602,4.905884742736816
1747980195555506700,1.270506591796875,9.940383911132812,-2.0781664848327637,4.770689964294434
1747980195573770800,1.288770751953125,9.172286987304688,-2.2360928058624268,5.087738990783691
1747980195592034300,1.307034423828125,8.503493309020996,-1.6432709693908691,5.989234924316406
1747980195610305000,1.325304931640625,8.790632247924805,-0.6323033571243286,6.558726787567139
1747980195628568000,1.343568115234375,8.071588516235352,-0.5521438121795654,8.913862228393555
1747980195646832600,1.36183251953125,8.38863754272461,-3.184846878051758,10.119247436523438
1747980195665098500,1.380098388671875,8.172087669372559,-2.111067771911621,7.8113694190979
1747980195683362800,1.39836279296875,7.274778842926025,-2.9288148880004883,7.1234331130981445
1747980195701629400,1.41662939453125,8.393424034118652,-3.817748546600342,7.439883708953857
1747980195719895300,1.434895263671875,7.4015984535217285,-2.496910333633423,7.487142086029053
1747980195738155300,1.4531552734375,3.9332022666931152,-1.9674984216690063,7.682157039642334
1747980195756424000,1.471423828125,3.105883836746216,-1.9214365482330322,7.052844524383545
1747980195774691800,1.48969189453125,2.548356056213379,-3.139383316040039,7.472784996032715
1747980195792951300,1.507951416015625,4.24367094039917,-4.353740692138672,7.630113124847412
1747980195811221500,1.526221435546875,7.27537727355957,-5.0566325187683105,8.803792953491211
1747980195829482200,1.544482177734375,7.255038261413574,-4.314857482910156,9.18305492401123
1747980195847752400,1.56275244140625,5.076373100280762,-3.5306098461151123,9.20279598236084
1747980195866017300,1.581017333984375,3.5359935760498047,-3.1621150970458984,9.063413619995117
1747980195884283000,1.599282958984375,2.7361927032470703,-3.4055848121643066,8.61057186126709
1747980195902548500,1.617548583984375,2.049452543258667,-4.034298896789551,8.046463966369629
1747980195920814000,1.63581396484375,2.400001049041748,-4.463810443878174,7.5673017501831055
1747980195939078700,1.65407861328125,2.9892337322235107,-3.9110686779022217,7.375277519226074
1747980195957344300,1.67234423828125,2.4161527156829834,-4.23649263381958,6.056233882904053
1747980195975609300,1.690609375,1.3483555316925049,-4.132404804229736,4.556532382965088
1747980195993875700,1.708875732421875,1.0211371183395386,-4.135993957519531,3.696312665939331
1747980196012140000,1.72714013671875,-0.09930214285850525,-6.973881721496582,8.47298526763916
1747980196030405400,1.7454052734375,2.0709879398345947,-1.9698911905288696,3.8697924613952637
1747980196048672300,1.76367236328125,1.1389836072921753,-2.547757863998413,8.112865447998047
1747980196066929400,1.781929443359375,0.0364905446767807,-4.565505504608154,9.504291534423828
1747980196085200000,1.800199951171875,-0.024526432156562805,-4.337589263916016,9.490532875061035
1747980196103466200,1.81846630859375,0.3888336718082428,-3.840480327606201,9.743574142456055
1747980196121732900,1.83673291015625,0.4654040038585663,-4.244269371032715,10.374082565307617
1747980196139999200,1.854999267578125,-0.7806583642959595,-3.961916208267212,11.888739585876465
1747980196158263300,1.87326318359375,-2.404188632965088,-3.503690481185913,10.883753776550293
1747980196176528600,1.891528564453125,-3.765106439590454,-3.7639100551605225,9.360722541809082
1747980196194793700,1.909793701171875,-3.6155550479888916,-4.206582069396973,8.800203323364258
1747980196213059600,1.9280595703125,-3.418147087097168,-3.851248025894165,9.010771751403809
1747980196231324700,1.94632470703125,-2.4747767448425293,-3.2476584911346436,9.019146919250488
1747980196249590500,1.964590576171875,-2.781656265258789,-2.8241288661956787,7.982456207275391
1747980196267856000,1.98285595703125,-3.0993034839630127,-2.2953150272369385,7.921439170837402
1747980196286117600,2.00111767578125,-3.346362352371216,-2.626721143722534,7.17069149017334
1747980196304385300,2.01938525390625,-3.494119167327881,-3.989433526992798,7.566105365753174
1747980196322653400,2.0376533203125,-3.6059837341308594,-6.3499531745910645,6.56829833984375
1747980196340913400,2.055913330078125,-1.5649060010910034,-6.20638370513916,9.132207870483398
1747980196359183000,2.07418310546875,1.3597214221954346,-9.037691116333008,9.102895736694336
1747980196377448200,2.0924482421875,3.965505361557007,-11.709277153015137,11.145169258117676
1747980196395713800,2.1107138671875,2.2995026111602783,-14.508281707763672,11.733205795288086
1747980196413974500,2.128974609375,-0.5539384484291077,-16.553546905517578,8.106285095214844
1747980196432243700,2.14724365234375,-1.8945173025131226,-15.891931533813477,7.536194801330566
1747980196450510600,2.165510498046875,-0.5778666734695435,-12.618550300598145,11.182258605957031
1747980196468775000,2.18377490234375,2.155933141708374,-10.507482528686523,12.944572448730469
1747980196487040300,2.202040283203125,3.01196551322937,-9.267401695251465,11.562119483947754
1747980196505306400,2.220306396484375,2.60339093208313,-8.867202758789062,9.951749801635742
1747980196523570700,2.23857080078125,3.16749906539917,-8.647661209106445,8.008777618408203
1747980196541835800,2.256835693359375,5.31266450881958,-8.47298526763916,6.450451850891113
1747980196560103000,2.27510302734375,6.969694137573242,-8.120043754577637,6.198606967926025
1747980196578366700,2.29336669921875,7.657032489776611,-8.13260555267334,6.187241077423096
1747980196596617700,2.31161767578125,6.92482852935791,-7.46919584274292,6.223133563995361
1747980196614896600,2.329896728515625,4.996213912963867,-5.9060845375061035,7.63609504699707
1747980196633164500,2.34816455078125,3.2787652015686035,-3.9589250087738037,8.833105087280273
1747980196651430400,2.366430419921875,2.692523717880249,-2.4496521949768066,10.443474769592285
1747980196669682200,2.38468212890625,0.5156532526016235,-1.113858938217163,10.25922679901123
1747980196687955200,2.402955078125,-6.473183631896973,-1.6761722564697266,7.466204643249512
1747980196706210800,2.4212109375,-6.005386829376221,-1.7018951177597046,7.555935859680176
1747980196733612500,2.448612548828125,-4.8574299812316895,-3.091526746749878,3.232703447341919
1747980196751890000,2.466889892578125,-3.1513473987579346,-1.5960127115249634,9.013164520263672
1747980196770154000,2.485154052734375,-0.9708877801895142,-2.094916343688965,11.126625061035156
1747980196788420900,2.5034208984375,2.0961127281188965,-4.938187599182129,5.1804609298706055
1747980196806672400,2.52167236328125,3.466003656387329,-1.3052847385406494,6.866204738616943
1747980196824950000,2.539949951171875,2.9282166957855225,-0.17647066712379456,7.624729156494141
1747980196843215600,2.558215576171875,2.740380048751831,-0.39421752095222473,7.380661487579346
1747980196861482500,2.576482421875,1.3459627628326416,0.605384111404419,7.466803073883057
1747980196879746300,2.594746337890625,0.1908276081085205,0.18783657252788544,8.118846893310547
1747980196898008300,2.61300830078125,-0.064606212079525,-1.9148563146591187,8.638090133666992
1747980196916274400,2.6312744140625,-0.06161518394947052,-4.094717979431152,9.610174179077148
1747980196934544100,2.649544189453125,-0.4618147611618042,-4.420141696929932,10.299306869506836
1747980196952808200,2.66780810546875,-0.3122633695602417,-3.132802963256836,12.55872917175293
1747980196971074300,2.68607421875,0.6993024349212646,-3.855435371398926,11.727822303771973
1747980196989339400,2.70433935546875,-0.4145565330982208,-4.609772682189941,12.231511116027832
1747980197007605800,2.722605712890625,-1.4063814878463745,-1.887937068939209,12.132208824157715
1747980197025869800,2.740869873046875,-0.07178468257188797,-0.2273181527853012,10.596614837646484
1747980197044136400,2.759136474609375,1.0737791061401367,0.6687939167022705,9.1986083984375
1747980197062399700,2.777399658203125,0.08973085135221481,-0.36670008301734924,8.806783676147461
1747980197080668200,2.795668212890625,-0.5533402562141418,-4.211368083953857,9.654440879821777
1747980197098927400,2.81392724609375,-1.0719845294952393,-8.606983184814453,11.547761917114258
1747980197117198000,2.832197998046875,-1.5134602785110474,-9.279964447021484,9.826126098632812
1747980197135462400,2.85046240234375,-1.9148563146591187,-7.21735143661499,8.289934158325195
1747980197153724000,2.868723876953125,-2.0859432220458984,-5.6685967445373535,6.340980052947998
1747980197171991600,2.886991455078125,-2.469393014907837,-4.935794830322266,4.606781959533691
1747980197190260700,2.9052607421875,-1.9722840785980225,-4.677370071411133,4.5200419425964355
1747980197208524000,2.92352392578125,-1.445863127708435,-5.430510997772217,4.13060998916626
1747980197226790700,2.941790771484375,0.8482556343078613,-5.86421012878418,3.9768712520599365
1747980197245055000,2.960054931640625,7.491927623748779,-4.42193603515625,6.757331371307373
1747980197263321300,2.9783212890625,1.2263215780258179,-3.8464624881744385,5.102694511413574
1747980197281584400,2.99658447265625,-0.8273184299468994,-5.26181697845459,4.899304389953613
1747980197299853300,3.014853271484375,-1.9417755603790283,-5.935994625091553,5.31685209274292
1747980197318116400,3.033116455078125,-4.3794636726379395,-5.790032386779785,7.551149845123291
1747980197336377600,3.051377685546875,-2.146361827850342,-5.8683977127075195,5.3318071365356445
1747980197354648600,3.069648681640625,-0.7896314859390259,-5.0255255699157715,2.513062000274658
1747980197372901600,3.087901611328125,-0.6951149702072144,-4.6749773025512695,1.690529227256775
1747980197391178200,3.10617822265625,-1.074975609779358,-5.162514686584473,1.5092729330062866
1747980197409433000,3.12443310546875,-1.4476577043533325,-6.486343860626221,1.5032907724380493
1747980197436841700,3.151841796875,-2.5052852630615234,-10.51944637298584,1.160519003868103
1747980197455102500,3.1701025390625,-13.288540840148926,-14.656637191772461,4.210171222686768
1747980197473371000,3.188370849609375,-18.796817779541016,-18.071792602539062,9.760323524475098
1747980197491637800,3.2066376953125,-11.504093170166016,-18.833906173706055,8.456833839416504
1747980197509905000,3.22490478515625,-6.02811861038208,-15.844673156738281,5.833103179931641
1747980197528169200,3.243169189453125,-3.6777684688568115,-9.253643035888672,3.5754752159118652
1747980197546436000,3.26143603515625,-2.857628345489502,-8.209176063537598,-0.12203395366668701
1747980197564688000,3.27968798828125,1.817348837852478,-8.788837432861328,-2.6057839393615723
1747980197582961000,3.2979609375,4.633700847625732,-7.698906898498535,-0.6400800347328186
1747980197601230600,3.316230712890625,1.6546368598937988,-11.1373929977417,0.8488538265228271
1747980197619493000,3.3344931640625,1.098305583000183,-15.054443359375,0.34277185797691345
1747980197637762600,3.352762451171875,0.8135597109794617,-15.756736755371094,-1.412961721420288
1747980197656025300,3.371025390625,0.9780662655830383,-10.794022560119629,-2.8319056034088135
1747980197674294500,3.38929443359375,1.2681959867477417,-7.170093059539795,-1.3872389793395996
1747980197692557300,3.407557373046875,1.3100703954696655,-5.877968788146973,-0.037088751792907715
1747980197710818000,3.425818115234375,0.8865407705307007,-7.433303356170654,0.8608179688453674
1747980197729087000,3.4440869140625,1.5026925802230835,-10.105487823486328,1.6067804098129272
1747980197747355600,3.462355712890625,2.053640127182007,-11.233704566955566,2.1678972244262695
1747980197765617700,3.48061767578125,1.7593228816986084,-11.066206932067871,2.4370899200439453
1747980197783884800,3.498884765625,-1.0043872594833374,-9.518648147583008,2.2301106452941895
1747980197802149600,3.517149658203125,-3.5198421478271484,-8.671588897705078,0.9355936646461487
1747980197820416500,3.53541650390625,-3.6358940601348877,-8.566305160522461,0.22791635990142822
1747980197838679800,3.5536796875,-1.1234302520751953,-9.047860145568848,1.5900306701660156
1747980197856941300,3.57194140625,0.9355936646461487,-9.5324068069458,2.8666014671325684
1747980197875211500,3.59021142578125,1.5607185363769531,-9.635298728942871,2.974876642227173
1747980197893477400,3.608477294921875,1.3902299404144287,-9.035896301269531,2.431107759475708
1747980197911729200,3.626729248046875,1.0289137363433838,-8.39282512664795,2.179263114929199
1747980197930009000,3.645009033203125,-0.02153540402650833,-8.658429145812988,2.506481647491455
1747980197948259000,3.663259033203125,-2.11824631690979,-9.279964447021484,3.1028928756713867
1747980197966534000,3.681533935546875,-3.37687087059021,-9.783055305480957,2.5884358882904053
1747980197984802600,3.699802490234375,-2.132603168487549,-9.779465675354004,1.9016958475112915
1747980198003070700,3.71807080078125,-0.4588237404823303,-9.90149974822998,1.43389892578125
1747980198021334800,3.736334716796875,0.4181457459926605,-10.152746200561523,1.2454642057418823
1747980198039600600,3.7546005859375,0.2757728099822998,-10.123434066772461,1.561316728591919
1747980198057865200,3.772865234375,-0.047258246690034866,-10.28315544128418,2.4323041439056396
1747980198076126700,3.791126708984375,-0.18424734473228455,-10.690533638000488,3.4983067512512207
1747980198094395400,3.8093955078125,-0.2183450609445572,-10.84726333618164,3.5605201721191406
1747980198112663300,3.827663330078125,-0.1423729509115219,-10.800004959106445,3.4648072719573975
1747980198130922800,3.8459228515625,-1.2687941789627075,-11.389237403869629,2.5770699977874756
1747980198149193000,3.86419287109375,-3.8494534492492676,-12.527024269104004,1.3854442834854126
1747980198167458000,3.8824580078125,-5.100301265716553,-14.159527778625488,1.8831514120101929
1747980198185724200,3.90072412109375,-3.5611183643341064,-14.641083717346191,3.376272678375244
1747980198203988700,3.91898876953125,-1.950150489807129,-14.08834171295166,3.4259238243103027
1747980198222250200,3.937250244140625,-1.4428720474243164,-11.45982551574707,1.721037745475769
1747980198240518700,3.9555185546875,-1.1647064685821533,-9.997811317443848,1.8418751955032349
1747980198258787000,3.973787109375,-0.11006984114646912,-11.779866218566895,0.7896314859390259
1747980198277050600,3.992050537109375,-0.03469592705368996,-14.764313697814941,-0.7304090857505798
1747980198295316500,4.01031640625,0.711864709854126,-15.860824584960938,-2.0105693340301514
1747980198313581800,4.028581787109375,0.5210371017456055,-13.028321266174316,-0.6717849373817444
1747980198331846400,4.046846435546875,0.6089733839035034,-10.567901611328125,-0.09511470049619675
1747980198350113500,4.065113525390625,-0.3565305769443512,-9.584450721740723,-0.13459627330303192
1747980198368376800,4.083376953125,-2.0315065383911133,-8.673981666564941,0.722034215927124
1747980198386644700,4.101644775390625,-7.184450149536133,-9.440881729125977,4.778466701507568
1747980198404910000,4.11991015625,-5.744568824768066,-11.033903121948242,4.677370071411133
1747980198423174100,4.138174072265625,-3.507878065109253,-12.507284164428711,5.976074695587158
1747980198450572000,4.165572021484375,-3.644867181777954,-11.440683364868164,-0.5988038778305054
1747980198468839000,4.1838388671875,-4.11206579208374,-8.303692817687988,-1.4063814878463745
1747980198487108600,4.202108642578125,-3.9176487922668457,-6.376274108886719,-1.217348575592041
1747980198505368800,4.220368896484375,-2.8390841484069824,-4.153341770172119,-1.1545369625091553
1747980198523630600,4.238630615234375,-2.0231316089630127,-2.812762975692749,-1.536790370941162
1747980198551032600,4.266032470703125,-3.3068809509277344,-1.9938194751739502,-0.6143572330474854
1747980198569292800,4.284292724609375,-4.353740692138672,-1.1521440744400024,1.225723385810852
1747980198587563300,4.302563232421875,-4.9262237548828125,-0.2512463629245758,1.7252250909805298
1747980198605828900,4.320828857421875,-5.84147834777832,-0.4654040038585663,2.5351955890655518
1747980198624094500,4.339094482421875,-5.61236572265625,-2.048854351043701,1.2508480548858643
1747980198642358300,4.357358154296875,-5.4759745597839355,-3.3852458000183105,-0.9990034699440002
1747980198660626200,4.375626220703125,-6.032904148101807,-3.625126361846924,-1.954936146736145
1747980198678890500,4.393890380859375,-5.870790481567383,-3.4887354373931885,-2.218146562576294
1747980198697153000,4.412153076171875,-6.315855503082275,-4.037290096282959,-1.6965112686157227
1747980198715424300,4.43042431640625,-7.743174076080322,-5.697310924530029,-1.0450652837753296
1747980198733685200,4.448685302734375,-11.029715538024902,-7.281957626342773,0.5042873620986938
1747980198751947800,4.46694775390625,-17.1409854888916,-9.147162437438965,3.2745778560638428
1747980198770219000,4.485218994140625,-15.217155456542969,-13.036097526550293,5.493920803070068
1747980198788482800,4.50348291015625,-3.1788649559020996,-13.323834419250488,-0.32961133122444153
1747980198806748700,4.521748779296875,-7.155735969543457,-6.5288166999816895,-5.194219589233398
1747980198825009200,4.540009033203125,-9.234500885009766,-2.8211379051208496,-0.5455635786056519
1747980198843279600,4.558279541015625,-3.3343982696533203,-4.734199523925781,0.1704886108636856
1747980198861543700,4.576543701171875,-3.0723843574523926,-5.999404430389404,0.2350948303937912
1747980198879811800,4.594811767578125,-5.473581790924072,-9.151947975158691,-0.6340979933738708
1747980198898076000,4.613075927734375,-5.74696159362793,-11.739786148071289,-0.7663014531135559
1747980198916351700,4.631351806640625,-4.588237285614014,-11.69731330871582,0.5126622319221497
1747980198934606000,4.649606201171875,-4.455435752868652,-10.785648345947266,0.5617151260375977
1747980198952872200,4.6678720703125,-3.8111681938171387,-10.613365173339844,0.32602208852767944
1747980198971137300,4.68613720703125,-3.2620155811309814,-10.582258224487305,0.4061816334724426
1747980198989391600,4.7043916015625,-1.9363917112350464,-9.942776679992676,0.5000999569892883
1747980199007668000,4.72266796875,-1.170688509941101,-9.69930648803711,0.857228696346283
1747980199025921800,4.740921875,-1.165902853012085,-10.102497100830078,1.6360924243927002
1747980199044199700,4.75919970703125,-2.390429735183716,-10.433304786682129,2.9252257347106934
1747980199062464800,4.77746484375,-4.613960266113281,-9.558130264282227,3.8255252838134766
1747980199080725200,4.795725341796875,-4.020540237426758,-8.720044136047363,3.1651060581207275
1747980199098994200,4.813994140625,-2.4125633239746094,-8.647063255310059,2.7361927032470703
1747980199117262300,4.832262451171875,-1.6402798891067505,-8.684151649475098,2.3952155113220215
1747980199135526700,4.850526611328125,-1.5690934658050537,-8.480761528015137,1.8783657550811768
1747980199153791700,4.868791748046875,-1.784447431564331,-8.341978073120117,1.4632110595703125
1747980199172057000,4.88705712890625,-1.3022937774658203,-8.396414756774902,1.6534404754638672
1747980199190323200,4.9053232421875,-0.8859425783157349,-8.540582656860352,2.297708034515381
1747980199208588500,4.923588623046875,-0.8715856671333313,-8.616554260253906,2.4125633239746094
1747980199226853600,4.941853515625,-1.0971091985702515,-8.777471542358398,2.0398812294006348
1747980199245114400,4.9601142578125,-1.4350954294204712,-9.208179473876953,1.3226326704025269
1747980199263383800,4.9783837890625,-1.5337992906570435,-9.635896682739258,0.7435696125030518
1747980199281650700,4.996650634765625,-1.5643078088760376,-9.768698692321777,0.19322042167186737
1747980199299919000,5.014919189453125,-1.8005990982055664,-9.952945709228516,-0.47617170214653015
1747980199318181400,5.033181396484375,-1.9028922319412231,-9.976874351501465,-1.0737791061401367
1747980199336441900,5.05144189453125,-1.7389838695526123,-9.749555587768555,-0.8488538265228271
1747980199354711000,5.0697109375,-1.2448660135269165,-9.704092025756836,0.029910283163189888
1747980199372974000,5.08797412109375,-0.7441678643226624,-9.397212982177734,1.0767701864242554
1747980199391243000,5.106242919921875,-0.50129634141922,-8.851649284362793,1.908874273300171
1747980199409508900,5.1245087890625,-0.26081767678260803,-8.771489143371582,2.5256242752075195
1747980199427774200,5.142774169921875,0.030508488416671753,-8.977272033691406,2.8498518466949463
1747980199455173000,5.170173095703125,0.40319061279296875,-9.805787086486816,2.393420934677124
1747980199473437700,5.188437744140625,-0.33080771565437317,-10.082756042480469,1.4093725681304932
1747980199491703300,5.206703369140625,-1.6522440910339355,-9.620942115783691,0.9541380405426025
1747980199509965800,5.2249658203125,-2.4053850173950195,-9.289535522460938,0.9272187948226929
1747980199528222700,5.24322265625,-2.004587173461914,-10.369894981384277,0.6622136831283569
1747980199546493200,5.2614931640625,-1.179063320159912,-12.67298698425293,0.40797626972198486
1747980199564750600,5.27975048828125,-1.506281852722168,-13.978271484375,-0.43489551544189453
1747980199583028700,5.29802880859375,-4.987240791320801,-13.539188385009766,-1.4213366508483887
1747980199601297000,5.316296875,-7.733603000640869,-11.569297790527344,-1.158724308013916
1747980199619561500,5.3345615234375,-6.828517436981201,-10.062417030334473,-0.503689169883728
1747980199637827600,5.35282763671875,-6.009573936462402,-9.795019149780273,-0.050847481936216354
1747980199656092700,5.3710927734375,-6.773482799530029,-10.076774597167969,0.357128769159317
1747980199674358000,5.38935791015625,-7.444669246673584,-10.409975051879883,1.6827524900436401
1747980199692624000,5.407623779296875,-4.071387767791748,-10.202397346496582,2.3982064723968506
1747980199710889500,5.425889404296875,1.7599210739135742,-9.080761909484863,1.5547364950180054
1747980199729154300,5.444154296875,5.350351333618164,-8.618349075317383,1.179063320159912
1747980199747420700,5.462420654296875,6.355935096740723,-9.145368576049805,1.3148560523986816
1747980199765684700,5.480684814453125,-2.1996021270751953,-10.067801475524902,4.182653903961182
1747980199783946800,5.49894677734375,-13.1635160446167,-11.500503540039062,8.934800148010254
1747980199802216000,5.5172158203125,-12.935001373291016,-12.448659896850586,4.800600528717041
1747980199820482600,5.535482666015625,-5.2941203117370605,-9.665806770324707,-0.5300102233886719
1747980199838747000,5.553746826171875,1.8239290714263916,-7.058826923370361,-0.6759724020957947
1747980199857013500,5.572013427734375,0.5796613097190857,-4.47697114944458,1.6115660667419434
1747980199875278000,5.590278076171875,-3.1968109607696533,-4.103092670440674,0.7645068168640137
1747980199893539600,5.60853955078125,-5.904289722442627,-5.520840167999268,-0.9631111025810242
1747980199911807700,5.626807861328125,-6.604190349578857,-6.306283950805664,-0.924227774143219
1747980199930076700,5.64507666015625,-3.941577196121216,-5.316253662109375,-1.062413215637207
1747980199948340000,5.663340087890625,-3.792623996734619,-3.9535412788391113,-0.8027920126914978
1747980199966605800,5.681605712890625,-4.674378871917725,-3.7405800819396973,-0.5712863802909851
1747980199984871000,5.699870849609375,-4.559523582458496,-3.845266103744507,-0.2847459018230438
1747980200003137300,5.71813720703125,-5.533402442932129,-4.082753658294678,-0.12502498924732208
1747980200021400800,5.73640087890625,-6.2398834228515625,-4.473381996154785,0.6221339106559753
1747980200039669500,5.75466943359375,-6.711269378662109,-5.064409255981445,1.9854445457458496
1747980200057928000,5.772927978515625,-7.65583610534668,-5.719444274902344,3.2542388439178467
1747980200076195000,5.791195068359375,-8.871988296508789,-6.235695838928223,4.490131855010986
1747980200094463500,5.80946337890625,-6.747759819030762,-6.929614543914795,5.431109428405762
1747980200112730000,5.827730224609375,-2.4939193725585938,-8.186444282531738,2.076970100402832
1747980200130995000,5.845994873046875,-3.2793633937835693,-11.700304985046387,-2.713460922241211
1747980200149256200,5.864256103515625,-9.600004196166992,-13.931612014770508,-3.080759048461914
1747980200167524000,5.882524169921875,-7.054041385650635,-16.206586837768555,2.9557342529296875
1747980200185793500,5.90079345703125,-1.43389892578125,-19.025930404663086,3.96789813041687
1747980200204056600,5.919056640625,-3.19860577583313,-12.449257850646973,1.7904295921325684
1747980200222323000,5.937322998046875,-3.7495529651641846,-7.130611419677734,2.1720848083496094
1747980200240587500,5.95558740234375,-3.0173492431640625,-5.352744102478027,1.933998942375183
1747980200258854000,5.97385400390625,-2.38983154296875,-6.034698486328125,2.079961061477661
1747980200277118200,5.9921181640625,-2.2235305309295654,-8.230711936950684,1.373480200767517
1747980200295383800,6.0103837890625,-3.2919256687164307,-12.102298736572266,0.31824541091918945
1747980200313646000,6.02864599609375,-3.576073408126831,-13.558929443359375,1.7180466651916504
1747980200331923000,6.0469228515625,-1.9962122440338135,-11.49512004852295,1.9519450664520264
1747980200350178800,6.0651787109375,-0.8153542876243591,-8.693124771118164,2.0057835578918457
1747980200368448300,6.0834482421875,-0.8524430394172668,-7.025925636291504,1.721037745475769
1747980200386711300,6.101711181640625,-1.542174220085144,-5.963512420654297,1.0977073907852173
1747980200404973000,6.11997314453125,-1.7533408403396606,-6.266204357147217,1.088136076927185
1747980200423241200,6.1382412109375,-1.7234305143356323,-7.325626373291016,1.4213366508483887
1747980200441510100,6.15651025390625,-1.6474584341049194,-8.670392990112305,1.490728497505188
1747980200459771600,6.174771728515625,-1.4554343223571777,-9.79681396484375,1.6947166919708252
1747980200478041300,6.193041259765625,-1.4673985242843628,-10.25324535369873,1.550549030303955
1747980200496300000,6.211300048828125,-1.7958134412765503,-9.824331283569336,1.1934202909469604
1747980200514570800,6.22957080078125,-2.3712873458862305,-9.108877182006836,1.033101201057434
1747980200532835000,6.2478349609375,-2.1302103996276855,-8.910273551940918,1.5014961957931519
1747980200551101700,6.266101806640625,-1.1425727605819702,-9.342177391052246,2.015354871749878
1747980200569365000,6.284364990234375,-0.15553347766399384,-9.603593826293945,2.0889341831207275
1747980200587634000,6.302634033203125,0.3924229145050049,-9.768099784851074,1.781456470489502
1747980200605890800,6.320890869140625,0.529412031173706,-9.730413436889648,1.2837493419647217
1747980200624163800,6.339163818359375,0.4001995921134949,-9.512067794799805,0.7393822073936462
1747980200642429700,6.3574296875,0.16929219663143158,-9.677172660827637,0.29012975096702576
1747980200660694800,6.37569482421875,-0.004187439568340778,-9.82373332977295,0.0891326442360878
1747980200678954800,6.393954833984375,-0.3409772217273712,-9.484550476074219,0.19561325013637543
1747980200697225700,6.412225830078125,-0.7208378314971924,-9.211769104003906,0.7232306599617004
1747980200715489800,6.43048974609375,-0.8763712644577026,-9.239286422729492,1.4787644147872925
1747980200733744400,6.448744384765625,-0.8327022790908813,-9.282357215881348,1.828116536140442
1747980200752017200,6.46701708984375,-0.7992027401924133,-9.400801658630371,1.975873351097107
1747980200770286800,6.485286865234375,-1.2484551668167114,-9.451051712036133,2.000998020172119
1747980200788551700,6.5035517578125,-2.2480568885803223,-9.79801082611084,1.801795482635498
1747980200806818600,6.521818603515625,-2.6273193359375,-11.582457542419434,1.7330018281936646
1747980200825082600,6.54008251953125,-2.4023938179016113,-12.562318801879883,1.6259230375289917
1747980200843350500,6.5583505859375,-1.6671991348266602,-12.385250091552734,1.3710874319076538
1747980200861611800,6.57661181640625,-0.6317051649093628,-12.001201629638672,0.6089733839035034
1747980200879881700,6.5948818359375,0.2847459018230438,-11.502298355102539,-0.267397940158844
1747980200898145000,6.61314501953125,0.8003991842269897,-11.044073104858398,-0.9667003750801086
1747980200916405800,6.63140576171875,0.8195417523384094,-10.607382774353027,-1.5254244804382324
1747980200934675700,6.64967578125,-0.16331014037132263,-10.080363273620605,-2.196611166000366
1747980200952938800,6.667938720703125,-3.015554666519165,-9.853045463562012,-1.3483555316925049
1747980200971206400,6.686206298828125,-7.610372543334961,-10.613365173339844,2.4675984382629395
1747980200989473500,6.7044736328125,-10.549356460571289,-10.996814727783203,5.644070625305176
1747980201007733000,6.72273291015625,-7.276573657989502,-10.96032428741455,4.852644443511963
1747980201026002200,6.741002197265625,-1.9268203973770142,-10.953743934631348,2.2582263946533203
1747980201044269000,6.75926904296875,1.2801600694656372,-9.972088813781738,0.349352091550827
1747980201062535400,6.777535400390625,1.1479566097259521,-9.150154113769531,-0.37148571014404297
1747980201080800000,6.795800048828125,-0.49651068449020386,-9.303893089294434,-0.966102123260498
1747980201099066600,6.814066650390625,-2.1589243412017822,-9.448657989501953,-1.350150227546692
1747980201117330700,6.83233056640625,-2.661417007446289,-8.428717613220215,0.39840495586395264
1747980201135597300,6.850597412109375,-5.466403484344482,-8.59920597076416,3.4271202087402344
1747980201153861600,6.868861572265625,-7.871190071105957,-11.251649856567383,5.977869033813477
1747980201172128000,6.8871279296875,-5.546562671661377,-12.99661636352539,4.980062007904053
1747980201190391600,6.9053916015625,-1.200000524520874,-9.656235694885254,0.7088736891746521
1747980201208660500,6.923660400390625,-1.8478572368621826,-6.584449768066406,0.14117653667926788
1747980201226924000,6.941924072265625,-3.3649067878723145,-4.910071849822998,-0.21714866161346436
1747980201245190400,6.9601904296875,-4.252045631408691,-4.625924587249756,-0.3529413342475891
1747980201263449900,6.978449951171875,-4.0558342933654785,-4.773681163787842,0.11964113265275955
1747980201281721000,6.99672119140625,-3.451646566390991,-4.453640937805176,0.7070791125297546
1747980201299987000,7.014987060546875,-3.7561333179473877,-4.1383867263793945,0.6699903607368469
1747980201318252300,7.033252197265625,-4.11206579208374,-3.914059638977051,-0.7112665176391602
1747980201336516600,7.0515166015625,-3.583251953125,-3.565305709838867,-1.74496591091156
1747980201354783500,7.069783447265625,-3.1339993476867676,-3.2297122478485107,-0.2147558331489563
1747980201373047600,7.088047607421875,-4.6199421882629395,-4.489533424377441,3.1680972576141357
1747980201391314400,7.106314453125,-7.29093074798584,-6.25723123550415,4.959722995758057
1747980201409578800,7.124578857421875,-8.201399803161621,-7.6636128425598145,5.701498031616211
1747980201427845400,7.142845458984375,-7.95553731918335,-7.931010723114014,5.269593715667725
1747980201446108700,7.161108642578125,-6.145366668701172,-7.758727550506592,5.275575637817383
1747980201464364000,7.179364013671875,-2.0518453121185303,-9.033503532409668,2.7110681533813477
1747980201482642000,7.197641845703125,-3.8781673908233643,-11.711071968078613,-1.669592022895813
1747980201500907800,7.21590771484375,-12.468400955200195,-13.063016891479492,-4.164109706878662
1747980201519167000,7.2341669921875,-8.915059089660645,-15.829119682312012,-0.9708877801895142
1747980201537437200,7.252437255859375,-1.4578272104263306,-18.218952178955078,2.7493531703948975
1747980201555704000,7.2707041015625,-0.11605189740657806,-11.570493698120117,1.9669002294540405
1747980201573965300,7.28896533203125,-2.00518536567688,-6.900900363922119,2.661417007446289
1747980201592233700,7.307233642578125,-3.7459638118743896,-5.510072231292725,2.8869404792785645
1747980201610500400,7.325500244140625,-2.9563324451446533,-6.806384086608887,2.022533416748047
1747980201628764700,7.3437646484375,-1.4691931009292603,-9.227322578430176,1.2221341133117676
1747980201647031000,7.362031005859375,-2.6811578273773193,-11.33539867401123,0.9732806086540222
1747980201665284400,7.380284423828125,-3.7507495880126953,-11.938390731811523,1.6965112686157227
1747980201683552500,7.398552490234375,-2.3916261196136475,-10.186843872070312,2.193620204925537
1747980201701826600,7.41682666015625,-1.8215361833572388,-8.436494827270508,2.2235305309295654
1747980201720090000,7.435090087890625,-2.2582263946533203,-7.5086774826049805,1.5846468210220337
1747980201738357200,7.453357177734375,-2.468794822692871,-7.29392147064209,1.0498509407043457
1747980201756624600,7.471624755859375,-2.4323041439056396,-7.574480056762695,0.9349954724311829
1747980201774883800,7.4898837890625,-2.1571295261383057,-8.178668022155762,1.191625714302063
1747980201793153800,7.50815380859375,-1.8143577575683594,-8.807381629943848,1.6636099815368652
1747980201811419600,7.526419677734375,-1.867598056793213,-9.053842544555664,1.9070796966552734
1747980201829687000,7.54468701171875,-2.011167526245117,-9.157930374145508,1.825723648071289
1747980201847945500,7.562945556640625,-1.7874385118484497,-9.083154678344727,1.6199408769607544
1747980201866214000,7.5812138671875,-1.0516455173492432,-8.953344345092773,1.5900306701660156
1747980201884481800,7.599481689453125,-0.7280163168907166,-9.011968612670898,1.3639088869094849
1747980201902748000,7.617747802734375,-1.0019944906234741,-9.153742790222168,0.8386843204498291
1747980201921012500,7.636012451171875,-1.5822539329528809,-9.592825889587402,0.39421752095222473
1747980201939279000,7.654279052734375,-1.80717933177948,-9.753145217895508,0.47617170214653015
1747980201957543400,7.67254345703125,-1.2717852592468262,-9.76989459991455,0.7950153350830078
1747980201975810600,7.690810546875,-0.5455635786056519,-9.8871431350708,1.113858938217163
1747980201994074600,7.70907470703125,-0.06759724020957947,-9.870393753051758,1.337587833404541
1747980202012341500,7.727341552734375,0.010169495828449726,-9.528818130493164,1.4811571836471558
1747980202030605300,7.745605224609375,-0.16331014037132263,-9.128618240356445,1.9986051321029663
1747980202048872000,7.763871826171875,-0.12861421704292297,-9.114261627197266,2.3814568519592285
1747980202067136300,7.78213623046875,-0.09810572862625122,-9.589835166931152,2.117648124694824
1747980202085402400,7.80040234375,-0.4773681163787842,-9.953543663024902,1.9076778888702393
1747980202103668700,7.818668701171875,-1.3256237506866455,-9.522237777709961,1.7808582782745361
1747980202121929700,7.8369296875,-2.317448616027832,-9.075976371765137,1.5589239597320557
1747980202140198700,7.85519873046875,-3.1339993476867676,-9.176474571228027,1.4506487846374512
1747980202158465300,7.87346533203125,-3.682554006576538,-10.171290397644043,1.316650629043579
1747980202176729600,7.8917294921875,-3.9840497970581055,-11.315059661865234,0.9182456731796265
1747980202194996200,7.909996337890625,-4.1006999015808105,-12.022139549255371,1.2335001230239868
1747980202213260800,7.9282607421875,-3.8673996925354004,-13.652249336242676,1.8711873292922974
1747980202231527400,7.94652734375,-3.3338000774383545,-15.308082580566406,2.0207388401031494
1747980202249791200,7.964791259765625,-3.881756544113159,-14.036895751953125,2.35872483253479
1747980202268058000,7.98305810546875,-4.76829719543457,-11.557332992553711,2.7661030292510986
1747980202286317800,8.00131787109375,-4.0181474685668945,-10.1216402053833,2.6422743797302246
1747980202304587800,8.019587890625,-3.473181962966919,-9.54496955871582,1.9674984216690063
1747980202322854700,8.037854736328125,-1.3926228284835815,-9.037691116333008,0.9876375198364258
1747980202341120300,8.056120361328125,-0.7884350419044495,-8.546564102172852,1.164108157157898
1747980202359383300,8.07438330078125,0.5335994362831116,-8.196614265441895,0.6406782865524292
1747980202377647400,8.0926474609375,0.08554340898990631,-7.734200954437256,0.09690931439399719
1747980202395917300,8.110917236328126,-6.3014984130859375,-8.795417785644531,1.898106575012207
1747980202414182100,8.12918212890625,-7.03788948059082,-9.827920913696289,1.2430713176727295
1747980202432446500,8.147446533203125,-0.7184450030326843,-9.268598556518555,1.6654045581817627
1747980202450713000,8.165713134765625,-2.9892337322235107,-10.282557487487793,3.835096597671509
1747980202468973600,8.1839736328125,-3.704089403152466,-10.40339469909668,2.6937201023101807
1747980202487244000,8.202244140625,-3.738187074661255,-8.579465866088867,1.5098711252212524
1747980202505507600,8.220507568359375,-4.00618314743042,-7.04925537109375,0.7238288521766663
1747980202523776000,8.23877587890625,-3.2721848487854004,-5.794219970703125,0.04007977992296219
1747980202542036500,8.257036376953126,-3.3272199630737305,-4.8059844970703125,-0.5180460810661316
1747980202560309000,8.27530908203125,-4.036691665649414,-4.232903480529785,-0.7262216806411743
1747980202578570800,8.29357080078125,-3.8470606803894043,-4.67078971862793,-0.4546363055706024
1747980202596837000,8.311837158203126,-4.045066833496094,-5.495715618133545,-0.005982056725770235
1747980202615101400,8.330101318359375,-4.07258415222168,-5.1774702072143555,-0.0771685317158699
1747980202633362200,8.348362060546876,-3.6711881160736084,-4.043870449066162,0.1052841991186142
1747980202651632400,8.36663232421875,-4.075575351715088,-3.988835334777832,2.454437732696533
1747980202669899800,8.384899658203125,-5.863013744354248,-5.285147190093994,5.54177713394165
1747980202688163600,8.40316357421875,-3.5671002864837646,-6.345167636871338,6.931408882141113
1747980202706430000,8.421429931640626,-0.9236295223236084,-7.299903869628906,4.140779495239258
1747980202724694300,8.4396943359375,-9.822537422180176,-12.509078979492188,-0.882951557636261
1747980202742957000,8.45795703125,-5.380859851837158,-18.581464767456055,-0.007178467698395252
1747980202761224700,8.476224609375,-1.8999011516571045,-17.946168899536133,2.9563324451446533
1747980202779492000,8.4944921875,-7.386045455932617,-13.143177032470703,-0.9900303483009338
1747980202797742300,8.512742431640625,-1.7724833488464355,-8.223533630371094,0.4588237404823303
1747980202816022800,8.531022705078126,-0.6729813814163208,-6.87517786026001,0.778863787651062
1747980202834287400,8.549287353515625,-2.2642083168029785,-7.560721397399902,1.2550355195999146
1747980202852554000,8.567553955078125,-3.991826295852661,-9.81356430053711,1.3226326704025269
1747980202870818000,8.585818115234375,-3.7639100551605225,-11.96172046661377,2.1750757694244385
1747980202889080300,8.604080322265625,-2.2295124530792236,-12.096915245056152,3.1758737564086914
1747980202907349800,8.622349853515624,-1.693520188331604,-10.484152793884277,3.0000014305114746
1747980202925615400,8.640615478515626,-2.0368902683258057,-8.606385231018066,2.11824631690979
1747980202943880000,8.6588798828125,-1.882553219795227,-7.8287177085876465,1.578664779663086
1747980202962147000,8.67714697265625,-1.511067509651184,-7.953742504119873,1.4297115802764893
1747980202980409900,8.695409912109374,-1.3980066776275635,-8.319844245910645,1.4620146751403809
1747980202998678800,8.7136787109375,-1.7288143634796143,-8.5704927444458,1.3716856241226196
1747980203016937200,8.731937255859375,-1.8251254558563232,-8.873783111572266,1.4769697189331055
1747980203035208700,8.750208740234376,-1.7922241687774658,-9.18724250793457,1.7682958841323853
1747980203053473300,8.768473388671875,-1.5672988891601562,-9.207581520080566,1.882553219795227
1747980203071738000,8.786738037109375,-1.2281162738800049,-9.004789352416992,1.7288143634796143
1747980203090005500,8.805005615234375,-1.0654042959213257,-8.687142372131348,1.5086746215820312
1747980203108270600,8.8232705078125,-1.0929217338562012,-8.402397155761719,1.2987045049667358
1747980203126535200,8.84153515625,-1.2801600694656372,-8.397012710571289,1.069591760635376
1747980203144797000,8.859796875,-1.0474581718444824,-8.830113410949707,1.140179991722107
1747980203163064800,8.87806494140625,-0.8105686902999878,-9.401400566101074,1.2394821643829346
1747980203181334000,8.896333984375,-0.8973084688186646,-9.500701904296875,1.1868400573730469
1747980203199597300,8.914597412109375,-0.9541380405426025,-9.419944763183594,1.2448660135269165
1747980203217863700,8.93286376953125,-0.9625129103660583,-9.239286422729492,1.469791293144226
1747980203236124000,8.9511240234375,-0.8327022790908813,-9.31047248840332,1.765903115272522
1747980203254393900,8.969393798828126,-0.6472585201263428,-9.714859962463379,2.310270309448242
1747980203272659700,8.98765966796875,-0.6897311210632324,-9.966704368591309,2.802593469619751
1747980203290922800,9.0059228515625,-0.9720842242240906,-10.055238723754883,2.616551637649536
1747980203309190400,9.0241904296875,-1.3758729696273804,-9.873384475708008,1.350150227546692
1747980203327456800,9.042456787109375,-1.825723648071289,-9.463613510131836,0.18963119387626648
1747980203345721000,9.06072119140625,-1.9525432586669922,-9.81954574584961,-0.1501496136188507
1747980203363988000,9.078988037109376,-1.5619150400161743,-10.14437198638916,-0.02273181453347206
1747980203382252000,9.097251953125,-1.3812568187713623,-10.5152587890625,0.23449662327766418
1747980203400518700,9.1155185546875,-1.8819550275802612,-10.821540832519531,0.9385846853256226
1747980203418783200,9.133783203125,-2.0213370323181152,-11.898908615112305,2.090130567550659
1747980203437049600,9.152049560546875,-1.2885349988937378,-12.623933792114258,2.417349100112915
1747980203455314200,9.170314208984376,-0.9505487680435181,-12.412169456481934,1.6755740642547607
1747980203473580300,9.188580322265626,-2.4269204139709473,-12.158530235290527,0.8231309652328491
1747980203491845000,9.20684521484375,-5.487340450286865,-12.21057415008545,0.8249256014823914
1747980203510111700,9.22511181640625,-7.910671710968018,-11.780464172363281,2.547757863998413
1747980203528374800,9.243374755859374,-4.78803825378418,-10.051051139831543,3.9349968433380127
1747980203546643500,9.2616435546875,-2.6195425987243652,-8.602795600891113,3.8321053981781006
1747980203564894700,9.279894775390625,-0.771087110042572,-8.612366676330566,2.4885356426239014
1747980203583171000,9.298171142578125,-0.6323033571243286,-9.150154113769531,1.6175481081008911
1747980203601440300,9.316440185546876,-1.6372889280319214,-9.511469841003418,1.0785647630691528
1747980203619701500,9.334701416015625,-0.6167500615119934,-9.003593444824219,0.03888336941599846
1747980203637968000,9.3529677734375,0.13878370821475983,-8.342576026916504,-0.49710890650749207
1747980203656232400,9.371232421875,-4.659423828125,-8.912666320800781,1.8945173025131226
1747980203674498800,9.389498779296876,-7.478767395019531,-10.703095436096191,3.782454490661621
1747980203692767700,9.407767822265624,-5.240281581878662,-11.151749610900879,2.4329023361206055
1747980203711031000,9.426031005859375,-2.184048891067505,-9.979267120361328,0.9020941257476807
1747980203729297700,9.444297607421875,-1.8059829473495483,-8.190631866455078,0.33439695835113525
1747980203747556900,9.462556884765625,-2.0859432220458984,-6.7070817947387695,0.6197410821914673
1747980203765828000,9.480828125,-3.2620155811309814,-5.9886369705200195,0.656829833984375
1747980203784092700,9.4990927734375,-4.746163845062256,-5.8343000411987305,0.550349235534668
1747980203802358500,9.517358642578126,-4.641477584838867,-5.687739372253418,0.2727817893028259
1747980203820624600,9.535624755859375,-3.8805601596832275,-5.938985824584961,-0.3798605799674988
1747980203838890000,9.553889892578125,-4.01037073135376,-6.185446739196777,-0.5234299302101135
1747980203857154600,9.572154541015625,-4.463810443878174,-6.011966705322266,-0.7896314859390259
1747980203875419600,9.590419677734374,-4.171886444091797,-5.401198863983154,-1.3872389793395996
1747980203893685800,9.608685791015626,-4.374678134918213,-4.701896667480469,-1.4530415534973145
1747980203911947500,9.626947509765625,-4.786243438720703,-4.926821708679199,0.34576287865638733
1747980203930217000,9.645217041015625,-6.083751678466797,-5.903093338012695,2.2749760150909424
1747980203948470300,9.66347021484375,-8.093124389648438,-6.505486488342285,5.171487808227539
1747980203966749400,9.68174951171875,-7.488338470458984,-7.210172653198242,7.5272216796875
1747980203985014000,9.700013916015624,-2.2031915187835693,-9.548559188842773,7.540980339050293
1747980204003274000,9.71827392578125,-0.41994038224220276,-11.720643043518066,2.6943182945251465
1747980204021544000,9.7365439453125,-16.000804901123047,-14.327025413513184,-0.14057832956314087
1747980204039810800,9.754810791015625,-9.1052885055542,-17.1469669342041,2.977867841720581
1747980204058076200,9.773076171875,-2.355135679244995,-11.019546508789062,-0.9499505758285522
1747980204076341000,9.791341064453125,-0.8949156403541565,-4.936991214752197,-1.1838489770889282
1747980204094606600,9.809606689453124,0.841675341129303,-3.799204111099243,0.2584248483181
1747980204112871700,9.82787158203125,0.09930214285850525,-6.864409923553467,0.4139583110809326
1747980204131138300,9.84613818359375,-2.4323041439056396,-11.621341705322266,1.5553346872329712
1747980204149401300,9.8644013671875,-4.754538536071777,-14.687743186950684,3.6125640869140625
1747980204167669800,9.882669677734375,-4.3172502517700195,-13.47757339477539,4.804189682006836
1747980204185929200,9.90092919921875,-2.306680917739868,-10.281360626220703,3.7429728507995605
1747980204204200200,9.9192001953125,-1.3800604343414307,-8.215158462524414,2.6434707641601562
1747980204222464800,9.93746484375,-1.6217355728149414,-7.202396392822266,1.7611174583435059
1747980204240731100,9.955731201171876,-2.2821545600891113,-7.16650390625,1.1120643615722656
1747980204258990600,9.973990478515624,-2.3497519493103027,-7.394420146942139,1.0785647630691528
1747980204277262000,9.992261962890625,-1.643869161605835,-7.905287742614746,1.6259230375289917
1747980204295526700,10.010526611328125,-1.0336993932724,-8.473583221435547,2.159522533416748
1747980204313793000,10.02879296875,-0.6813562512397766,-9.025727272033691,2.679363250732422
1747980204332057600,10.0470576171875,-1.1210373640060425,-9.075976371765137,2.68953275680542
1747980204350324200,10.06532421875,-1.947757601737976,-9.181859016418457,2.3946173191070557
1747980204368588500,10.083588623046875,-2.4011974334716797,-8.975478172302246,2.142772674560547
1747980204386855000,10.10185498046875,-2.00518536567688,-8.644669532775879,1.6450655460357666
1747980204405119200,10.120119140625,-1.4279168844223022,-8.529216766357422,1.2275179624557495
1747980204423385000,10.138385009765624,-0.8883354067802429,-8.536395072937012,1.3316057920455933
1747980204441650700,10.156650634765626,-0.11186445504426956,-8.882157325744629,1.2580264806747437
1747980204459919600,10.174919677734374,0.2470589429140091,-9.649057388305664,0.8350951075553894
1747980204478182700,10.1931826171875,0.16091732680797577,-10.470394134521484,0.21714866161346436
1747980204496448000,10.211447998046875,-0.5054838061332703,-10.809576034545898,-0.4468596279621124
1747980204514707700,10.229707763671875,-1.073180913925171,-10.427323341369629,-0.8991031050682068
1747980204532973300,10.247973388671875,-1.1186445951461792,-9.980463027954102,-0.6065805554389954
1747980204551244500,10.26624462890625,-0.6574280261993408,-9.763314247131348,0.11964113265275955
1747980204569510000,10.284510009765626,-0.3074777126312256,-9.755537986755371,0.7740781307220459
1747980204587774500,10.3027744140625,0.029312077909708023,-9.65683364868164,1.5002998113632202
1747980204606041000,10.321041015625,0.3080759048461914,-9.454042434692383,1.968694806098938
1747980204624305200,10.33930517578125,0.19381862878799438,-9.272786140441895,1.820937991142273
1747980204642571800,10.35757177734375,-0.2189432680606842,-9.537193298339844,1.3094722032546997
1747980204660836000,10.375836181640626,-0.898504912853241,-9.634101867675781,0.9475577473640442
1747980204679102500,10.3941025390625,-1.3286148309707642,-9.712467193603516,0.9002995491027832
1747980204697366800,10.41236669921875,-1.2759727239608765,-9.70349407196045,0.9481559991836548
1747980204715634000,10.430634033203125,-1.036690354347229,-9.628120422363281,0.9625129103660583
1747980204733898000,10.44889794921875,-0.8685946464538574,-9.57188892364502,1.210768222808838
1747980204752164900,10.467164794921874,-0.6323033571243286,-9.358927726745605,1.7653049230575562
1747980204770423600,10.485423583984375,-0.3732803463935852,-9.298508644104004,2.334198474884033
1747980204788694500,10.503694580078125,-0.3008974492549896,-9.398408889770508,2.659024238586426
1747980204806956800,10.521956787109374,-0.23449662327766418,-9.422337532043457,2.6488547325134277
1747980204825226500,10.5402265625,-0.16809579730033875,-9.42772102355957,2.3330020904541016
1747980204843490800,10.55849072265625,-0.01136590726673603,-9.381061553955078,1.9597218036651611
1747980204861756400,10.57675634765625,0.053240302950143814,-9.623932838439941,1.5720844268798828
1747980204880023000,10.59502294921875,-0.18484555184841156,-10.444670677185059,1.2939188480377197
1747980204898288600,10.61328857421875,-0.13160525262355804,-11.20499038696289,0.7573283910751343
1747980204916552200,10.63155224609375,-0.1256231814622879,-11.685349464416504,0.2063809484243393
1747980204934819600,10.649819580078125,-0.3164508044719696,-11.83609676361084,0.5413761138916016
1747980204953077500,10.668077392578125,-0.23629122972488403,-11.365907669067383,1.0917253494262695
1747980204971351800,10.686351806640625,0.21296121180057526,-10.49372386932373,1.8191434144973755
1747980204989613800,10.70461376953125,0.914058268070221,-10.3681001663208,3.2620155811309814
1747980205007881500,10.722881591796876,1.2634103298187256,-11.571690559387207,3.556332588195801
1747980205026141000,10.741140869140626,1.6666009426116943,-14.162519454956055,2.9204399585723877
1747980205044411100,10.7594111328125,1.3597214221954346,-16.000205993652344,1.550549030303955
1747980205062677500,10.777677490234375,-0.6855437159538269,-15.241084098815918,-0.4289134442806244
1747980205080938200,10.795938232421875,-3.2350962162017822,-11.927024841308594,-0.15553347766399384
1747980205099207400,10.81420751953125,-3.7986059188842773,-10.451251029968262,1.34476637840271
1747980205117469400,10.832469482421875,-3.2590243816375732,-11.22772216796875,2.428116798400879
1747980205135738400,10.85073828125,-3.5048868656158447,-11.919845581054688,2.7290141582489014
1747980205154005000,10.8690048828125,-4.136591911315918,-11.075778007507324,2.569293260574341
1747980205172269300,10.887269287109374,-3.5539398193359375,-9.715457916259766,2.383251428604126
1747980205190536400,10.905536376953124,-2.148754835128784,-8.981459617614746,1.8837496042251587
1747980205208800300,10.92380029296875,0.16749759018421173,-8.526823043823242,1.5445669889450073
1747980205227067400,10.9420673828125,2.36291241645813,-8.276175498962402,0.9326026439666748
1747980205245331700,10.960331787109375,3.2004003524780273,-8.290532112121582,-0.07357929646968842
1747980205263598000,10.97859814453125,3.279961585998535,-8.215158462524414,-0.747757077217102
1747980205281862400,10.9968623046875,2.913261651992798,-8.151748657226562,-0.5940182209014893
1747980205300128000,11.0151279296875,0.519242525100708,-8.338987350463867,0.6735795736312866
1747980205318393600,11.0333935546875,-4.764110088348389,-9.17288589477539,2.6213371753692627
1747980205336661200,11.0516611328125,-4.570291042327881,-9.90149974822998,1.103689432144165
1747980205354923800,11.069923828125,-3.4534413814544678,-9.583852767944336,0.3888336718082428
1747980205373186300,11.088186279296876,-3.759124279022217,-8.983254432678223,1.404586911201477
1747980205391454000,11.106453857421876,-4.023531436920166,-9.495318412780762,1.4757733345031738
1747980205409723400,11.124723388671875,-3.2303106784820557,-9.964909553527832,0.4977070987224579
1747980205427987000,11.142987060546876,-1.9860427379608154,-9.092127799987793,0.2907279431819916
1747980205446248700,11.161248779296875,-1.5840486288070679,-7.830512046813965,0.6933203339576721
1747980205464511700,11.17951171875,-2.730210542678833,-7.306483745574951,1.5242279767990112
1747980205482784000,11.197783935546875,-4.2000017166137695,-8.191828727722168,3.218944549560547
1747980205501048000,11.216048095703124,-3.5850465297698975,-8.902496337890625,4.00618314743042
1747980205519314700,11.234314697265624,-3.3894333839416504,-9.415757179260254,4.741377830505371
1747980205537579000,11.2525791015625,-3.377469062805176,-8.609375953674316,2.5184457302093506
1747980205555844400,11.27084423828125,-3.6939198970794678,-7.496713161468506,2.066202402114868
1747980205574111200,11.289111328125,-3.638286828994751,-6.661019802093506,1.8903298377990723
1747980205592375300,11.307375244140625,-4.1144585609436035,-6.007779598236084,1.428515076637268
1747980205610642200,11.32564208984375,-4.112663745880127,-5.537590026855469,1.5056836605072021
1747980205628903200,11.343903076171875,-3.929612874984741,-5.229514122009277,1.6253247261047363
1747980205647170600,11.362170654296875,-3.757927894592285,-5.221138954162598,1.4763715267181396
1747980205665429500,11.380429443359375,-4.6301116943359375,-4.8227338790893555,1.5750755071640015
1747980205683703000,11.398703125,-4.924428939819336,-4.650450706481934,1.810170292854309
1747980205701965000,11.416965087890626,-4.933402061462402,-4.540979385375977,2.011167526245117
1747980205720234000,11.43523388671875,-5.129613399505615,-4.782055854797363,2.059023857116699
1747980205738500400,11.453500244140624,-5.594419479370117,-5.26899528503418,2.149951219558716
1747980205756764700,11.4717646484375,-5.371288776397705,-6.034698486328125,2.9617161750793457
1747980205775031300,11.49003125,-4.889134883880615,-6.620940208435059,3.830310821533203
1747980205793296000,11.5082958984375,-4.840680122375488,-6.440282344818115,3.8781673908233643
1747980205811561200,11.526561279296875,-5.410171985626221,-5.563910961151123,3.8183467388153076
1747980205829827600,11.54482763671875,-5.248058319091797,-5.090131759643555,2.8767709732055664
1747980205848093000,11.563093017578124,-8.096115112304688,-6.835097789764404,0.8380861282348633
1747980205866356700,11.581356689453125,-9.20159912109375,-9.480961799621582,0.09571290761232376
1747980205884619800,11.599619873046874,-14.036895751953125,-13.272987365722656,-1.2191431522369385
1747980205902887200,11.61788720703125,-7.689933776855469,-16.71685791015625,3.190829038619995
1747980205921156400,11.63615625,2.4119651317596436,-11.998808860778809,5.241477966308594
1747980205939420000,11.654419921875,-1.6301103830337524,-5.61116886138916,1.6582261323928833
1747980205957686000,11.67268603515625,-3.61017107963562,-3.487539052963257,2.4783661365509033
1747980205975945700,11.69094580078125,-2.626721143722534,-5.140381336212158,3.2727832794189453
1747980205994214100,11.709214111328125,-3.015554666519165,-10.06421184539795,4.304089546203613
1747980206012481300,11.727481201171875,-6.0125651359558105,-16.14437484741211,5.014758110046387
1747980206030738200,11.74573828125,-4.575675010681152,-14.151751518249512,3.7663028240203857
1747980206049012200,11.76401220703125,-2.665006160736084,-10.152148246765137,1.591825246810913
1747980206067278600,11.782278564453126,-2.0159530639648438,-7.2867431640625,0.9343972206115723
1747980206085543200,11.800543212890625,-2.4699912071228027,-6.524031162261963,1.256830096244812
1747980206103809500,11.8188095703125,-2.599801778793335,-8.46161937713623,2.201396942138672
1747980206122074400,11.837074462890625,-2.596810817718506,-10.660623550415039,2.9730820655822754
1747980206140336000,11.855336181640626,-2.4496521949768066,-11.264212608337402,3.5168511867523193
1747980206158603800,11.873603759765626,-2.6596224308013916,-10.336395263671875,3.9876389503479004
1747980206176872700,11.891872802734374,-2.8396823406219482,-8.73499870300293,3.9661035537719727
1747980206195136000,11.910135986328125,-2.5052852630615234,-7.396812915802002,3.7088751792907715
1747980206213401000,11.928401123046875,-2.059622049331665,-6.777071952819824,3.455834150314331
1747980206231667000,11.9466669921875,-1.8753747940063477,-6.873383045196533,2.847458839416504
1747980206249930000,11.964929931640626,-1.5738791227340698,-7.630113124847412,2.3820550441741943
1747980206268198000,11.983197998046874,-1.3250255584716797,-8.419744491577148,2.0548365116119385
1747980206286464500,12.001464599609376,-1.1324033737182617,-9.000602722167969,1.805384635925293
1747980206304728800,12.019728759765625,-1.0534402132034302,-9.371489524841309,1.4793626070022583
1747980206322995500,12.037995361328125,-1.1545369625091553,-9.376275062561035,1.0971091985702515
1747980206341259800,12.056259765625,-0.9601200819015503,-9.500701904296875,0.7280163168907166
1747980206359526400,12.0745263671875,-0.45942193269729614,-9.559925079345703,0.7363911867141724
1747980206377790700,12.092790771484376,-0.018544375896453857,-9.438488960266113,1.074975609779358
1747980206396052500,12.111052490234375,0.5204389095306396,-9.460023880004883,0.997208833694458
1747980206414320400,12.1293203125,0.4331009089946747,-9.654440879821777,0.8153542876243591
1747980206432589600,12.147589599609375,-0.020937198773026466,-9.675976753234863,0.6586244106292725
1747980206450852600,12.1658525390625,-0.40259242057800293,-9.759725570678711,0.9511470198631287
1747980206469119200,12.184119140625,0.0364905446767807,-10.070194244384766,1.3657035827636719
1747980206487377400,12.20237744140625,0.44327038526535034,-10.12463092803955,1.6516457796096802
1747980206505651200,12.220651123046874,0.4546363055706024,-9.839286804199219,1.9010975360870361
1747980206523916000,12.238916015625,0.600000262260437,-9.455238342285156,2.135594129562378
1747980206542181000,12.25718115234375,0.9672985672950745,-9.352347373962402,2.077568292617798
1747980206560445400,12.275445556640625,1.2083754539489746,-9.648459434509277,1.550549030303955
1747980206578711800,12.2937119140625,0.5611169338226318,-9.854840278625488,0.6622136831283569
1747980206596972300,12.31197216796875,-0.4504488706588745,-9.569496154785156,0.4875376224517822
1747980206615242800,12.33024267578125,-0.7716853022575378,-9.325428009033203,1.3782658576965332
1747980206633507300,12.34850732421875,-0.4366901218891144,-9.659226417541504,2.242672920227051
1747980206651774500,12.3667744140625,-0.5814558863639832,-10.057631492614746,2.2235305309295654
1747980206670037000,12.385037109375,-1.0061819553375244,-9.637691497802734,1.7994025945663452
1747980206688305000,12.403304931640625,-0.8458628058433533,-8.97787094116211,1.7138592004776
1747980206706569000,12.42156884765625,-0.28235307335853577,-8.961718559265137,1.7222341299057007
1747980206724835600,12.439835693359376,-0.054436713457107544,-9.319445610046387,1.7832510471343994
1747980206743095000,12.458094970703126,-0.3655036687850952,-9.588638305664062,2.017747640609741
1747980206761365500,12.476365478515625,-0.49232324957847595,-9.445069313049316,2.6159534454345703
1747980206779632000,12.494632080078125,-0.13639089465141296,-9.213563919067383,3.3332018852233887
1747980206797897700,12.512897705078124,0.31764721870422363,-9.315258979797363,3.5330026149749756
1747980206816155600,12.53115576171875,0.06819544732570648,-9.281160354614258,3.145963668823242
1747980206834430000,12.549429931640624,-0.41994038224220276,-9.283554077148438,2.606382131576538
1747980206852692700,12.567692626953125,-0.07657032459974289,-9.351749420166016,2.5387847423553467
1747980206870954800,12.585954833984376,0.3194418251514435,-9.367900848388672,2.4424736499786377
1747980206889223700,12.6042236328125,0.39900317788124084,-9.411569595336914,2.059622049331665
1747980206907490300,12.622490234375,0.25004997849464417,-9.391828536987305,1.581655740737915
1747980206925753600,12.640753662109375,-0.3200400173664093,-9.745368003845215,1.414756417274475
1747980206944022300,12.659022216796876,-0.2679961323738098,-10.04985523223877,1.648654818534851
1747980206962285600,12.67728564453125,1.8759729862213135,-10.083354949951172,1.8448662757873535
1747980206980552400,12.695552490234375,0.6107679605484009,-9.350552558898926,2.5328028202056885
1747980206998811600,12.713811767578125,0.98703932762146,-10.15573787689209,1.5882359743118286
1747980207017081900,12.732081787109376,1.2687941789627075,-10.817353248596191,0.8979067206382751
1747980207035348700,12.7503486328125,0.20817556977272034,-9.842277526855469,2.6189444065093994
1747980207053613600,12.768613525390625,-0.9505487680435181,-9.166903495788574,3.9948174953460693
1747980207071878000,12.7868779296875,-0.1986042857170105,-9.707083702087402,4.030709743499756
1747980207090145000,12.80514501953125,-0.9349954724311829,-11.612966537475586,4.503292083740234
1747980207108391700,12.8233916015625,2.781656265258789,-14.269000053405762,0.43549370765686035
1747980207126677000,12.841677001953125,1.8915263414382935,-13.984851837158203,-0.906281590461731
1747980207144929300,12.85992919921875,0.31824541091918945,-12.257233619689941,0.9170492887496948
1747980207163208700,12.878208740234374,-0.12263216078281403,-11.869596481323242,1.6600207090377808
1747980207181470700,12.896470703125,0.973878800868988,-12.098709106445312,1.4470595121383667
1747980207199737300,12.9147373046875,-0.18364913761615753,-12.283555030822754,0.7363911867141724
1747980207218002000,12.933001953125,-2.503490686416626,-11.992228507995605,0.47916272282600403
1747980207236264400,12.951264404296875,-2.9001009464263916,-11.44845962524414,1.217348575592041
1747980207254528000,12.969528076171875,-2.675773859024048,-10.822138786315918,2.2360928058624268
1747980207272797700,12.987797607421875,-2.5465614795684814,-10.247262954711914,3.188436269760132
1747980207291064800,13.00606494140625,-2.613560438156128,-9.510273933410645,3.893122434616089
1747980207309330400,13.024330322265625,-2.6566312313079834,-8.683553695678711,4.338785648345947
1747980207327594500,13.042594482421874,-1.7515461444854736,-8.24566650390625,4.749154567718506
1747980207345861400,13.060861328125,-0.4145565330982208,-7.743174076080322,6.004788398742676
1747980207364125700,13.079125732421875,0.6897311210632324,-8.38564682006836,3.858426570892334
1747980207382391300,13.097391357421875,1.7629120349884033,-9.09093189239502,0.9810572862625122
1747980207400657400,13.115657470703125,1.3112667798995972,-8.894720077514648,-0.5964110493659973
1747980207418925600,13.133925537109375,0.6711867451667786,-8.620741844177246,-1.134796142578125
1747980207437187300,13.152187255859374,0.17587246000766754,-8.456833839416504,-0.8943174481391907
1747980207455454000,13.170453857421874,0.01375873014330864,-8.631509780883789,-0.5353940725326538
1747980207473718000,13.188718017578125,-0.3678964674472809,-8.796015739440918,-0.1333998590707779
1747980207491986200,13.206986083984376,-1.40279221534729,-8.933603286743164,0.37088751792907715
1747980207510244600,13.22524462890625,-2.5782663822174072,-9.169894218444824,0.4546363055706024
1747980207528514600,13.2435146484375,-2.982055187225342,-9.605388641357422,0.029312077909708023
1747980207546781200,13.26178125,-2.1296122074127197,-9.851848602294922,-0.40319061279296875
1747980207565029400,13.280029296875,-1.1318050622940063,-9.699904441833496,-0.6400800347328186
1747980207583310800,13.298310791015625,-0.6675975322723389,-9.654440879821777,-0.25363919138908386
1747980207601576700,13.31657666015625,-0.6460621356964111,-9.397810935974121,0.33499518036842346
1747980207619843300,13.33484326171875,-1.0396814346313477,-9.125029563903809,0.8099704384803772
1747980207638108400,13.3531083984375,-1.439282774925232,-8.994620323181152,1.1120643615722656
1747980207656371700,13.371371826171876,-2.1128623485565186,-9.281160354614258,1.3908281326293945
1747980207674640600,13.389640625,-3.305086374282837,-9.988240242004395,1.2538390159606934
1747980207692904400,13.407904541015625,-3.9320058822631836,-10.269994735717773,1.0683952569961548
1747980207711170300,13.42617041015625,-4.570889472961426,-10.148558616638184,1.2658032178878784
1747980207729434600,13.4444345703125,-4.187439441680908,-9.727422714233398,1.1318050622940063
1747980207747701200,13.462701171875,-3.2207393646240234,-9.123832702636719,1.1832507848739624
1747980207765961200,13.480961181640625,-2.864806890487671,-8.588438987731934,1.3357932567596436
1747980207784231000,13.49923095703125,-2.912065267562866,-8.550751686096191,1.3555340766906738
1747980207802498000,13.517498046875,-2.9724838733673096,-8.70628547668457,2.2881367206573486
1747980207820763100,13.53576318359375,-3.680161237716675,-8.987442016601562,4.2209391593933105
1747980207839027500,13.55402734375,-2.7008986473083496,-9.504291534423828,5.309075355529785
1747980207857286100,13.5722861328125,-2.778067111968994,-9.485149383544922,4.969294548034668
1747980207875561200,13.590561279296875,-5.174479007720947,-7.89332389831543,2.504088878631592
1747980207893822000,13.608822021484375,-4.651647090911865,-6.979265213012695,1.9974087476730347
1747980207912092200,13.627092041015626,-3.7052857875823975,-6.290132522583008,1.4464613199234009
1747980207930356700,13.645356689453125,-3.3690943717956543,-5.603392601013184,1.1120643615722656
1747980207948619000,13.663618896484374,-3.1657042503356934,-5.124229907989502,1.4374881982803345
1747980207966886700,13.68188671875,-4.250251293182373,-4.942973613739014,2.6739792823791504
1747980207985151000,13.70015087890625,-6.100501537322998,-5.270790100097656,3.9637107849121094
1747980208003418400,13.71841845703125,-5.353342533111572,-6.476174354553223,3.119044303894043
1747980208021680400,13.736680419921875,-3.5359935760498047,-6.960721015930176,1.5074782371520996
1747980208039944400,13.7549443359375,-4.151547431945801,-5.803791522979736,1.581655740737915
1747980208058213000,13.773213134765625,-4.66779899597168,-4.974678039550781,1.8616160154342651
1747980208076479500,13.7914794921875,-5.453841209411621,-4.884947299957275,2.318047046661377
1747980208094743600,13.80974365234375,-7.000801086425781,-5.646463394165039,3.510869026184082
1747980208113009200,13.828009033203125,-9.065208435058594,-7.4602227210998535,5.574080467224121
1747980208131274500,13.8462744140625,-9.449256896972656,-10.193424224853516,7.121040344238281
1747980208149529000,13.864529052734374,-7.2711896896362305,-10.793424606323242,6.565307140350342
1747980208167805400,13.882805419921874,-3.7190446853637695,-8.256434440612793,2.7589244842529297
1747980208186076000,13.901075927734375,-5.590830326080322,-5.789434432983398,-3.116053342819214
1747980208204336400,13.91933642578125,-10.061819076538086,-5.340780258178711,-2.9623143672943115
1747980208222602500,13.9376025390625,-8.00638484954834,-7.192226886749268,-0.8027920126914978
1747980208240867300,13.955867431640625,-3.659224033355713,-7.706085205078125,1.0139585733413696
1747980208259133400,13.974133544921875,-0.16749759018421173,-7.346563816070557,3.005983352661133
1747980208277397200,13.992397216796874,-2.960519790649414,-9.138189315795898,4.004388809204102
1747980208295664400,14.010664306640624,-5.633901119232178,-12.061022758483887,4.756931304931641
1747980208313926000,14.02892578125,-4.826323509216309,-13.803595542907715,4.063611030578613
1747980208332195600,14.047195556640625,-5.230112075805664,-12.785449981689453,3.2099716663360596
1747980208350460200,14.065460205078125,-4.579862594604492,-10.447063446044922,1.9208383560180664
1747980208368721700,14.0837216796875,-3.1304101943969727,-8.806185722351074,0.3846462368965149
1747980208386989800,14.10198974609375,-1.8903298377990723,-7.8526458740234375,0.3355933725833893
1747980208405258500,14.120258544921874,-1.2957134246826172,-7.826324462890625,1.3244273662567139
1747980208423521800,14.138521728515625,-1.4327025413513184,-8.414361000061035,2.7535407543182373
1747980208441788400,14.156788330078125,-1.5864413976669312,-9.358329772949219,3.924229145050049
1747980208460049700,14.175049560546874,-1.583450436592102,-10.070792198181152,4.392025947570801
1747980208478322200,14.193322265625,-2.2504496574401855,-9.792028427124023,4.331607341766357
1747980208496583400,14.21158349609375,-3.4923245906829834,-8.432307243347168,3.8673996925354004
1747980208514850300,14.229850341796874,-4.380061626434326,-7.588238716125488,2.6321048736572266
1747980208533114400,14.2481142578125,-3.580260992050171,-7.526025295257568,1.7790635824203491
1747980208551379700,14.266379638671875,-2.259422779083252,-7.736593723297119,1.4219348430633545
1747980208569646000,14.28464599609375,-1.5212370157241821,-8.21994400024414,1.5439687967300415
1747980208587912200,14.302912109375,-1.3471591472625732,-8.86660385131836,1.6241283416748047
1747980208606171600,14.321171630859375,-1.2299108505249023,-9.41336441040039,1.4745769500732422
1747980208624437800,14.339437744140625,-1.0444670915603638,-9.590433120727539,1.4452649354934692
1747980208642706000,14.357705810546875,-0.9678967595100403,-9.543174743652344,1.545763373374939
1747980208660971000,14.375970947265625,-1.1730812788009644,-9.309276580810547,1.23589289188385
1747980208679238000,14.39423779296875,-1.2023934125900269,-9.157332420349121,0.6622136831283569
1747980208697504800,14.4125048828125,-1.150349497795105,-9.138788223266602,0.4899304509162903
1747980208715769000,14.43076904296875,-0.7304090857505798,-9.202198028564453,0.6801598072052002
1747980208734035500,14.449035400390626,-0.2626122832298279,-9.432506561279297,0.9320043921470642
1747980208752299800,14.4672998046875,0.06281159073114395,-9.643074989318848,1.428515076637268
1747980208770566100,14.485566162109375,0.10648060590028763,-9.699904441833496,1.815554141998291
1747980208788830700,14.503830810546875,-0.1501496136188507,-9.584450721740723,2.093719720840454
1747980208807097300,14.522097412109375,-0.3080759048461914,-9.659825325012207,2.1756739616394043
1747980208825360400,14.5403603515625,-0.42412781715393066,-9.806983947753906,1.7688941955566406
1747980208843629000,14.558629150390624,-0.7345965504646301,-9.45882797241211,1.1820544004440308
1747980208861892000,14.57689208984375,-0.8685946464538574,-9.325428009033203,0.9529415965080261
1747980208880154000,14.595154052734374,-0.31465616822242737,-9.513264656066895,1.1377872228622437
1747980208898422000,14.613422119140624,-0.05742774158716202,-9.68494987487793,1.165902853012085
1747980208916691000,14.63169091796875,-0.31405797600746155,-9.550951957702637,1.4249259233474731
1747980208934949400,14.649949462890625,-0.7268198728561401,-9.259027481079102,2.0620148181915283
1747980208953220900,14.668220947265626,-0.6867401003837585,-9.20159912109375,2.6554348468780518
1747980208971483400,14.6864833984375,-0.4289134442806244,-9.373882293701172,2.9653055667877197
1747980208989752800,14.7047529296875,-0.46002015471458435,-9.720842361450195,2.5489542484283447
1747980209008016100,14.72301611328125,-0.7519445419311523,-9.605388641357422,2.190629243850708
1747980209026292200,14.741292236328125,-0.5778666734695435,-9.264410972595215,2.444268226623535
1747980209044546800,14.759546875,-0.1860419660806656,-9.29910659790039,2.6350958347320557
1747980209062813400,14.7778134765625,-0.29730820655822754,-9.602396965026855,2.5387847423553467
1747980209081077800,14.796077880859375,-0.6478567123413086,-9.914660453796387,2.1852452754974365
1747980209099344100,14.81434423828125,-0.727418065071106,-9.515059471130371,2.262413740158081
1747980209117608400,14.8326083984375,-0.3152543902397156,-9.369695663452148,2.5154547691345215
1747980209135875300,14.850875244140624,0.0364905446767807,-9.604191780090332,2.294118642807007
1747980209154138000,14.86913818359375,-0.040677983313798904,-9.46181869506836,1.7641085386276245
1747980209172405500,14.887405517578125,-0.33858439326286316,-9.583852767944336,1.2574282884597778
1747980209190670800,14.9056708984375,-0.3517449200153351,-9.650253295898438,1.8215361833572388
1747980209208932000,14.92393212890625,0.05623133108019829,-9.580862045288086,2.538186550140381
1747980209227196000,14.94219580078125,0.2566302418708801,-9.790233612060547,2.7433712482452393
1747980209245467600,14.960467529296874,0.3074777126312256,-10.094720840454102,2.6805596351623535
1747980209263731500,14.9787314453125,0.34995031356811523,-10.076175689697266,2.369492530822754
1747980209281998800,14.996998779296876,0.2626122832298279,-10.089935302734375,1.9106688499450684
1747980209300262400,15.015262451171875,-0.2871387302875519,-10.073184967041016,1.643869161605835
1747980209318529500,15.033529541015625,-1.0211371183395386,-10.107880592346191,2.1092731952667236
1747980209336793300,15.05179345703125,-0.8165507316589355,-9.54796028137207,2.803191661834717
1747980209355060500,15.070060546875,0.3451646566390991,-9.387042999267578,3.236292600631714
1747980209373324300,15.08832421875,1.3507484197616577,-10.132407188415527,3.634697675704956
1747980209391590100,15.106590087890625,2.000998020172119,-10.9573335647583,3.589233875274658
1747980209409856300,15.124856201171875,2.259422779083252,-11.68594741821289,2.96111798286438
1747980209428122000,15.1431220703125,2.059622049331665,-12.255439758300781,2.3294129371643066
1747980209446385000,15.161385009765626,1.5553346872329712,-12.690335273742676,1.7365909814834595
1747980209464636700,15.17963671875,0.5958128571510315,-13.185050964355469,0.7621139883995056
1747980209482920200,15.197920166015624,-0.7429714202880859,-13.055240631103516,-0.15732808411121368
1747980209501183700,15.216183837890625,-1.7240287065505981,-12.09631633758545,-0.7232306599617004
1747980209519448000,15.234447998046875,-2.242672920227051,-11.56152057647705,-0.9032905697822571
1747980209537714700,15.252714599609375,-2.407777786254883,-11.451451301574707,-0.26141586899757385
1747980209555975000,15.270974853515625,-2.376072883605957,-11.35633659362793,0.5946164131164551
1747980209574245400,15.289245361328126,-2.1439690589904785,-11.085947036743164,1.4602199792861938
1747980209592510000,15.307510009765625,-2.297708034515381,-10.73838996887207,2.383849620819092
1747980209610776600,15.325776611328125,-1.8203397989273071,-10.188638687133789,3.373879909515381
1747980209629041000,15.344041015625,-1.1060823202133179,-9.698110580444336,3.817748546600342
1747980209647307000,15.36230712890625,-0.3403790295124054,-9.207581520080566,3.6299118995666504
1747980209665570000,15.380570068359376,0.6275177597999573,-8.974879264831543,2.9347970485687256
1747980209683839200,15.398839111328124,1.1754741668701172,-8.717052459716797,2.0446670055389404
1747980209702102300,15.417102294921875,1.252044439315796,-8.304290771484375,1.4518451690673828
1747980209720367900,15.435367919921875,0.8195417523384094,-7.727620601654053,1.2574282884597778
1747980209738629600,15.453629638671876,-0.010169495828449726,-7.471588611602783,1.3411771059036255
1747980209756898600,15.471898681640624,-1.1802598237991333,-7.822137355804443,1.6636099815368652
1747980209775165400,15.49016552734375,-1.8454644680023193,-8.270193099975586,1.841277003288269
1747980209793430500,15.508430419921876,-1.7988044023513794,-8.541180610656738,1.7497515678405762
1747980209811694300,15.5266943359375,-1.846660852432251,-8.541180610656738,1.7306089401245117
1747980209829958400,15.54495849609375,-1.828116536140442,-8.531609535217285,1.511067509651184
1747980209848225500,15.5632255859375,-1.6582261323928833,-8.708678245544434,1.103689432144165
1747980209866492000,15.581491943359374,-1.5894324779510498,-8.994022369384766,0.4097708761692047
1747980209884756700,15.5997568359375,-1.3046865463256836,-9.100502967834473,-0.16031911969184875
1747980209903023000,15.618023193359376,-1.090528964996338,-9.092127799987793,-0.4426721930503845
1747980209921286400,15.636286376953125,-1.6277176141738892,-8.937192916870117,0.13698910176753998
1747980209939555300,15.654555419921875,-2.8666014671325684,-8.778668403625488,0.9290133714675903
1747980209957818400,15.672818359375,-3.9218363761901855,-9.025727272033691,1.1461620330810547
1747980209976085000,15.6910849609375,-4.258028030395508,-9.555737495422363,1.2610175609588623
1747980209994345500,15.709345458984375,-3.6819558143615723,-9.967302322387695,1.2831511497497559
1747980210012612000,15.727612060546875,-2.8797619342803955,-9.923633575439453,1.2335001230239868
1747980210030883000,15.745883056640626,-2.6015963554382324,-9.525827407836914,1.2382856607437134
1747980210049145300,15.764145263671875,-2.9186453819274902,-8.930612564086914,1.197009563446045
1747980210067411000,15.782410888671874,-3.7908291816711426,-8.569893836975098,1.3142578601837158
1747980210085678300,15.80067822265625,-5.047659397125244,-8.344968795776367,2.245065927505493
1747980210103937000,15.81893701171875,-5.376074314117432,-8.428717613220215,2.8145575523376465
1747980210122208300,15.837208251953125,-4.395615100860596,-8.286344528198242,3.2338998317718506
1747980210140472600,15.85547265625,-3.9320058822631836,-8.582456588745117,4.040879249572754
1747980210158739200,15.8737392578125,-4.071387767791748,-8.809774398803711,3.9499518871307373
1747980210177003500,15.89200341796875,-4.315455436706543,-8.661419868469238,3.428914785385132
1747980210195270000,15.910269775390624,-4.445266246795654,-7.835297584533691,1.8903298377990723
1747980210213534500,15.928534423828125,-4.587040901184082,-6.999006271362305,1.0648061037063599
1747980210231800800,15.94680078125,-4.3896331787109375,-6.391827583312988,0.859621524810791
1747980210250060500,15.965060546875,-4.163511276245117,-5.998806476593018,0.8309076428413391
1747980210268330200,15.983330322265624,-4.47697114944458,-5.640480995178223,1.1001001596450806
1747980210286597400,16.001597412109376,-5.057828903198242,-5.604588985443115,1.454836130142212
1747980210304858400,16.0198583984375,-5.464010715484619,-5.925227165222168,1.8957136869430542
1747980210323127000,16.038126953125,-5.615954875946045,-5.986244201660156,2.331207513809204
1747980210341379300,16.05637939453125,-5.413761138916016,-5.659623622894287,2.3982064723968506
1747980210359659800,16.07465966796875,-5.126622676849365,-5.536991596221924,2.407179594039917
1747980210377923800,16.092923828125,-4.964509010314941,-5.694917678833008,2.6219353675842285
1747980210396183800,16.111183837890625,-5.122435092926025,-5.822335720062256,2.7463622093200684
1747980210414454800,16.129454833984376,-5.145166873931885,-5.651248931884766,2.837289333343506
1747980210441851000,16.156850830078124,-6.149554252624512,-5.617151260375977,3.9397823810577393
1747980210460116500,16.175116455078125,-7.750950813293457,-7.442874908447266,4.256233215332031
1747980210478383900,16.1933837890625,-10.920842170715332,-11.917452812194824,3.620938777923584
1747980210496649500,16.2116494140625,-9.614361763000488,-13.962120056152344,2.3952155113220215
1747980210514914300,16.229914306640627,-8.227720260620117,-9.386445045471191,-1.867598056793213
1747980210533179600,16.2481796875,-6.1812591552734375,-4.599005222320557,-2.5489542484283447
1747980210551439600,16.266439697265625,-3.6837503910064697,-1.8640087842941284,-0.8189435601234436
1747980210569696800,16.28469677734375,2.991028308868408,-3.10528564453125,3.2823543548583984
1747980210587969800,16.3029697265625,0.3367897868156433,-7.92861795425415,3.3960134983062744
1747980210606239500,16.321239501953126,-9.973284721374512,-14.178071975708008,4.447659015655518
1747980210624506000,16.339506103515625,-4.884349346160889,-16.320844650268555,3.9314076900482178
1747980210642771700,16.357771728515626,-4.478167533874512,-12.385250091552734,3.5676984786987305
1747980210661037300,16.376037353515624,-2.2504496574401855,-9.327820777893066,1.9459630250930786
1747980210679303000,16.394302978515626,-3.1902308464050293,-8.763114929199219,1.3363914489746094
1747980210697567700,16.412567626953123,-4.166502475738525,-8.996415138244629,0.625723123550415
1747980210715833300,16.430833251953125,-3.4396824836730957,-9.759725570678711,0.5180460810661316
1747980210734099000,16.449098876953126,-2.3700907230377197,-10.101899147033691,1.1509476900100708
1747980210752363300,16.46736328125,-2.2474586963653564,-9.93559741973877,2.0069799423217773
1747980210770630100,16.485630126953126,-2.927020311355591,-9.618548393249512,2.788834810256958
1747980210788895200,16.503895263671875,-3.2057840824127197,-9.19442081451416,3.334996461868286
1747980210807158800,16.52215869140625,-2.4394826889038086,-8.741579055786133,3.472583770751953
1747980210825425400,16.54042529296875,-1.7527425289154053,-8.512466430664062,2.998206853866577
1747980210843679200,16.55867919921875,-1.5433706045150757,-8.37129020690918,2.447857618331909
1747980210861952300,16.5769521484375,-1.7964116334915161,-8.070990562438965,2.0231316089630127
1747980210880222000,16.595221923828124,-2.0063817501068115,-7.913064479827881,1.8418751955032349
1747980210898488000,16.613488037109374,-2.0159530639648438,-7.932207107543945,1.784447431564331
1747980210916752400,16.63175244140625,-2.05603289604187,-8.426324844360352,1.7407784461975098
1747980210935018500,16.6500185546875,-2.169692039489746,-9.133403778076172,1.3435698747634888
1747980210953283600,16.66828369140625,-1.9489539861679077,-9.80937671661377,1.1120643615722656
1747980210971548400,16.68654833984375,-1.5236297845840454,-9.839884757995605,1.322034478187561
1747980210989815000,16.70481494140625,-1.1108678579330444,-9.489934921264648,1.622931957244873
1747980211008080000,16.723079833984375,-0.6831508874893188,-8.888737678527832,1.7371892929077148
1747980211026333700,16.741333740234374,-0.6287141442298889,-8.390432357788086,1.6372889280319214
1747980211044611300,16.759611328125,-0.8015955686569214,-8.294719696044922,1.1886346340179443
1747980211062871300,16.777871337890623,-1.3489537239074707,-8.952147483825684,0.9158528447151184
1747980211081140500,16.796140380859374,-1.8251254558563232,-9.900303840637207,1.0498509407043457
1747980211099407000,16.814406982421875,-1.8305093050003052,-10.370492935180664,1.5032907724380493
1747980211117674000,16.832674072265625,-1.1216355562210083,-10.249655723571777,2.1379871368408203
1747980211135933000,16.850932861328126,-0.0891326442360878,-10.144969940185547,2.6572296619415283
1747980211154203400,16.869203369140624,0.6436693072319031,-9.735198974609375,2.799602508544922
1747980211172468500,16.887468505859374,0.8069794178009033,-9.266205787658691,2.455634355545044
1747980211190734600,16.905734619140624,0.8063812255859375,-8.924032211303711,1.7485551834106445
1747980211208999400,16.92399951171875,0.6065805554389954,-9.275178909301758,0.8350951075553894
1747980211227265300,16.942265380859375,0.2548356056213379,-9.649057388305664,0.07956135272979736
1747980211245530400,16.9605302734375,-0.275174617767334,-9.57069206237793,-0.019740786403417587
1747980211263796000,16.9787958984375,-0.5682953596115112,-9.426525115966797,0.7657032608985901
1747980211282060800,16.997060791015624,-0.4749752879142761,-9.549755096435547,1.9609181880950928
1747980211300327000,17.015326904296874,-0.7184450030326843,-9.862018585205078,2.5010979175567627
1747980211318592000,17.033592041015623,-1.1766705513000488,-9.893125534057617,2.54536509513855
1747980211336856600,17.051856689453125,-1.1850453615188599,-9.460622787475586,2.306680917739868
1747980211355124000,17.0701240234375,-0.544965386390686,-9.240483283996582,2.210369825363159
1747980211373387500,17.088387451171876,-0.23389841616153717,-9.199206352233887,2.266601324081421
1747980211391654000,17.10665380859375,-0.3529413342475891,-9.227322578430176,2.5639095306396484
1747980211409923800,17.124923828125,-0.28534409403800964,-9.460023880004883,3.1992039680480957
1747980211428184000,17.14318408203125,-0.052043892443180084,-9.655637741088867,3.3373894691467285
1747980211446444500,17.161444580078125,-0.25782662630081177,-9.531210899353027,2.778067111968994
1747980211464710100,17.179710205078123,-0.8662018179893494,-9.400801658630371,1.856830358505249
1747980211482987800,17.19798779296875,-0.7956135272979736,-9.372686386108398,1.4691931009292603
1747980211501246000,17.216245849609376,-0.18963119387626648,-9.765109062194824,1.8735800981521606
1747980211519511800,17.23451171875,0.11545369029045105,-10.089336395263672,2.2791635990142822
1747980211537777200,17.252777099609375,0.005982056725770235,-10.050453186035156,2.3700907230377197
1747980211556043000,17.27104296875,-0.4372883439064026,-9.830313682556152,2.228316068649292
1747980211574302700,17.289302734375,-1.1425727605819702,-9.78843879699707,2.6123640537261963
1747980211592572200,17.307572265625,-1.6187444925308228,-9.92841911315918,3.383451223373413
1747980211610839800,17.32583984375,-1.222732424736023,-10.28195858001709,3.93679141998291
1747980211629104400,17.3441044921875,-0.1256231814622879,-10.737792015075684,4.167698860168457
1747980211647368000,17.362367919921876,0.8183453679084778,-10.965707778930664,3.9936211109161377
1747980211665629400,17.38062939453125,1.4488540887832642,-11.553744316101074,3.178266763687134
1747980211683902200,17.398902099609376,1.8508483171463013,-12.144771575927734,2.554936408996582
1747980211702166000,17.417166015625,1.4709876775741577,-12.247662544250488,1.7515461444854736
1747980211720430800,17.435430908203124,0.02751746028661728,-11.961122512817383,0.641276478767395
1747980211738696700,17.45369677734375,-1.5535401105880737,-11.72124195098877,-0.029312077909708023
1747980211756958000,17.4719580078125,-2.255235433578491,-11.936595916748047,0.30628129839897156
1747980211775227600,17.4902275390625,-1.9022940397262573,-12.208779335021973,0.6448656916618347
1747980211793492500,17.508492431640626,-0.865005373954773,-11.96172046661377,0.7435696125030518
1747980211811757000,17.526757080078124,-0.004785645287483931,-11.676376342773438,0.6939185857772827
1747980211830019800,17.545019775390625,0.10049854964017868,-11.624332427978516,0.7369893789291382
1747980211848289000,17.5632890625,0.049651071429252625,-11.457432746887207,1.124626636505127
1747980211866554000,17.58155419921875,-0.2626122832298279,-11.146964073181152,1.7569299936294556
1747980211884817700,17.599817626953126,-1.4787644147872925,-10.461421012878418,2.8414769172668457
1747980211903085000,17.6180849609375,-3.197409152984619,-9.854242324829102,3.903291940689087
1747980211921344000,17.636343994140624,-4.080958843231201,-9.208778381347656,4.456034183502197
1747980211939613700,17.65461376953125,-2.8791637420654297,-8.986844062805176,3.6646077632904053
1747980211957882000,17.672882080078125,-0.6861419081687927,-8.940781593322754,2.421536445617676
1747980211976142300,17.691142333984374,1.028315544128418,-9.181859016418457,1.140179991722107
1747980211994413800,17.709413818359376,1.7425731420516968,-8.86780071258545,0.06759724020957947
1747980212012675800,17.72767578125,1.5391831398010254,-8.22114086151123,-0.28953152894973755
1747980212030937900,17.745937744140626,0.4307080805301666,-7.678567886352539,0.388235479593277
1747980212049208000,17.7642080078125,-1.5774682760238647,-7.540382385253906,0.7848458290100098
1747980212067474000,17.782473876953127,-3.4480574131011963,-7.678567886352539,1.3387842178344727
1747980212085739000,17.800739013671876,-3.0245277881622314,-7.8658061027526855,1.1748759746551514
1747980212104004600,17.819004638671874,-2.815753936767578,-8.37966537475586,1.4416756629943848
1747980212122270200,17.837270263671876,-3.342773199081421,-9.047262191772461,1.8532410860061646
1747980212140535600,17.85553564453125,-3.0616166591644287,-9.157332420349121,1.7994025945663452
1747980212158800600,17.873800537109375,-2.1583259105682373,-8.635098457336426,1.4159528017044067
1747980212177061000,17.89206103515625,-1.82273268699646,-8.142775535583496,1.1096714735031128
1747980212195331600,17.91033154296875,-3.1627132892608643,-8.01236629486084,1.5912270545959473
1747980212213597200,17.92859716796875,-4.355535507202148,-8.191828727722168,2.0333011150360107
1747980212231862300,17.9468623046875,-4.336392879486084,-8.647661209106445,2.826521635055542
1747980212250128100,17.965128173828123,-3.810570001602173,-9.34277629852295,4.139583110809326
1747980212268392000,17.983391845703125,-4.110869407653809,-9.30329418182373,4.111467361450195
1747980212286660000,18.00166015625,-4.11505651473999,-8.629117012023926,3.290131092071533
1747980212304923600,18.019923583984376,-3.9571304321289062,-7.765905857086182,2.186441659927368
1747980212323189500,18.038189453125,-3.9798622131347656,-7.063014030456543,1.5032907724380493
1747980212341454800,18.056454833984375,-3.882952928543091,-6.527021884918213,1.412961721420288
1747980212359721500,18.074721435546873,-4.515854358673096,-5.996413707733154,1.3244273662567139
1747980212377985800,18.09298583984375,-4.4751763343811035,-5.522036552429199,1.5493526458740234
1747980212396247800,18.111247802734376,-4.48833703994751,-5.440680503845215,1.8891334533691406
1747980212414516500,18.1295166015625,-4.746163845062256,-5.748157978057861,2.3150558471679688
1747980212432777200,18.147777099609375,-4.951946258544922,-6.179464340209961,2.77866530418396
1747980212451045600,18.166045654296877,-5.062016487121582,-6.031707763671875,2.434697151184082
1747980212469314000,18.18431396484375,-5.3318071365356445,-5.441278457641602,2.4029922485351562
1747980212487578400,18.202578369140625,-5.252843856811523,-5.4556355476379395,3.5359935760498047
1747980212505844000,18.220843994140626,-5.209773063659668,-5.925825119018555,4.147359848022461
1747980212524108800,18.23910888671875,-5.62672233581543,-6.0711894035339355,3.799204111099243
1747980212542372900,18.257372802734373,-5.232504844665527,-5.840879917144775,2.7702903747558594
1747980212560641000,18.27564111328125,-4.411766529083252,-5.379663467407227,1.7312071323394775
1747980212578905900,18.29390576171875,-5.127819061279297,-4.948955535888672,1.2167502641677856
1747980212597170200,18.312170166015626,-6.839285373687744,-4.779065132141113,1.8526428937911987
1747980212615435800,18.330435791015624,-10.289137840270996,-8.01057243347168,3.6634113788604736
1747980212633701400,18.348701416015626,-12.260225296020508,-13.444073677062988,6.725626468658447
1747980212651963000,18.366962890625,-6.774679183959961,-16.378273010253906,4.040280818939209
1747980212670231300,18.385231201171877,-4.033700942993164,-9.262616157531738,0.6346961855888367
1747980212688497400,18.403497314453126,-6.40020227432251,-4.664209365844727,-2.1230318546295166
1747980212706762800,18.4217626953125,-2.9629125595092773,-3.300898790359497,1.357926845550537
1747980212725028600,18.440028564453126,1.94297194480896,-5.523232936859131,2.262413740158081
1747980212743293400,18.45829345703125,-3.446262836456299,-9.835099220275879,1.7850457429885864
1747980212761558300,18.476558349609373,-7.033702373504639,-13.788640022277832,3.1645078659057617
1747980212779825400,18.494825439453123,-4.122235298156738,-12.629318237304688,3.050250768661499
1747980212798090200,18.51309033203125,-3.5359935760498047,-11.354541778564453,2.557927370071411
1747980212816355800,18.53135595703125,-2.053640127182007,-10.107880592346191,1.6193426847457886
1747980212834620000,18.549619873046876,-2.427518606185913,-9.274580955505371,1.6019947528839111
1747980212852885800,18.5678857421875,-2.674577474594116,-9.09272575378418,1.8370895385742188
1747980212871151400,18.5861513671875,-2.633899450302124,-9.900303840637207,2.15653133392334
1747980212889417500,18.60441748046875,-2.620738983154297,-10.484750747680664,2.4711875915527344
1747980212907681500,18.622681640625,-3.078366279602051,-10.307083129882812,2.5250260829925537
1747980212925942800,18.64094287109375,-3.4331023693084717,-9.340981483459473,2.407777786254883
1747980212944208400,18.65920849609375,-3.008974552154541,-8.36411190032959,2.293520450592041
1747980212962460200,18.677460205078123,-2.2959132194519043,-7.963912010192871,2.359323024749756
1747980212980744700,18.69574462890625,-1.5894324779510498,-7.953144073486328,2.448455810546875
1747980212999006000,18.714005859375,-1.2448660135269165,-8.015955924987793,2.7248268127441406
1747980213017275000,18.73227490234375,-1.215553879737854,-7.978269100189209,3.0167510509490967
1747980213035534800,18.750534912109377,-1.085145115852356,-7.69830846786499,3.1316065788269043
1747980213053805300,18.768805419921875,-1.2442678213119507,-7.7455668449401855,2.7349963188171387
1747980213072070400,18.7870703125,-1.5146567821502686,-8.390432357788086,2.447857618331909
1747980213090336800,18.805336669921875,-1.34476637840271,-8.989834785461426,2.5950162410736084
1747980213108601000,18.82360107421875,-0.8919246196746826,-9.214759826660156,2.7463622093200684
1747980213126867000,18.841866943359374,-0.8225327730178833,-9.434301376342773,2.191227436065674
1747980213145132000,18.860132080078124,-1.2263215780258179,-9.741181373596191,1.4985052347183228
1747980213163396900,18.87839697265625,-1.7341982126235962,-9.820143699645996,0.9110672473907471
1747980213181662500,18.896662353515627,-1.7922241687774658,-9.857831001281738,0.786640465259552
1747980213199925200,18.91492529296875,-1.275374412536621,-9.774680137634277,1.043868899345398
1747980213218193700,18.933193603515626,-0.29850462079048157,-9.626923561096191,2.0608184337615967
1747980213236459500,18.95145947265625,0.49710890650749207,-9.421140670776367,2.9108686447143555
1747980213254724400,18.969724365234374,0.9762716293334961,-9.123832702636719,3.1489546298980713
1747980213272989700,18.98798974609375,0.9421738982200623,-8.995817184448242,2.80977201461792
1747980213291250700,19.006250732421876,0.849452018737793,-9.119047164916992,2.1020946502685547
1747980213309520000,19.024519775390626,0.7471588850021362,-9.451051712036133,1.786242127418518
1747980213327787000,19.042787109375,0.43908295035362244,-9.844072341918945,1.3746765851974487
1747980213346051600,19.061051513671874,-0.035892341285943985,-9.942177772521973,0.6203392744064331
1747980213364316400,19.07931640625,-0.5084748268127441,-9.635896682739258,0.267397940158844
1747980213382582500,19.09758251953125,-0.7256234884262085,-9.264410972595215,0.6562315821647644
1747980213400847600,19.11584765625,-0.43609192967414856,-9.151350021362305,1.7078771591186523
1747980213419113200,19.13411328125,0.1818545162677765,-9.125029563903809,2.4765713214874268
1747980213437377300,19.152377197265626,0.6023930907249451,-9.278767585754395,2.8965117931365967
1747980213455645400,19.1706455078125,0.6628118753433228,-9.393623352050781,2.4323041439056396
1747980213473908200,19.188908203125,0.029910283163189888,-9.561718940734863,1.5242279767990112
1747980213492176000,19.20717578125,-0.6418746709823608,-10.152746200561523,1.0516455173492432
1747980213510440200,19.225440185546876,-0.8847461938858032,-10.398609161376953,1.6785650253295898
1747980213528705800,19.243705810546874,-0.7812566161155701,-10.027721405029297,2.448455810546875
1747980213546958000,19.2619580078125,-0.7549355626106262,-9.41037368774414,2.5118656158447266
1747980213565226200,19.280226318359375,-0.8787640929222107,-9.220144271850586,2.163111686706543
1747980213583502800,19.2985029296875,-0.9014959335327148,-9.081958770751953,2.407179594039917
1747980213601767400,19.316767333984377,-0.5653043389320374,-8.94556713104248,3.1142587661743164
1747980213620032300,19.3350322265625,0.012562318705022335,-9.09093189239502,3.342773199081421
1747980213638297600,19.353297607421876,0.43489551544189453,-9.439684867858887,2.9874391555786133
1747980213656563500,19.3715634765625,0.6957131624221802,-9.745368003845215,2.723032236099243
1747980213674828800,19.389828857421875,0.7226324677467346,-10.096514701843262,2.626721143722534
1747980213693093600,19.40809375,0.34695929288864136,-10.631909370422363,2.100898265838623
1747980213711358700,19.426358642578126,-0.21415762603282928,-11.009376525878906,1.6235301494598389
1747980213729625600,19.44462548828125,-0.4253242313861847,-11.255837440490723,1.7575281858444214
1747980213747890000,19.462889892578126,-0.28594231605529785,-11.407781600952148,2.383251428604126
1747980213766150100,19.481150146484374,-0.05563312768936157,-11.764910697937012,3.3343982696533203
1747980213784417800,19.499417724609376,0.15314064919948578,-12.477972030639648,3.9020955562591553
1747980213802684400,19.517684326171874,0.5856433510780334,-13.201800346374512,4.28734016418457
1747980213820946000,19.53594580078125,1.160519003868103,-12.786645889282227,4.296313285827637
1747980213839218200,19.55421826171875,1.2867404222488403,-11.846864700317383,3.6849467754364014
1747980213857482200,19.572482177734376,1.0492527484893799,-11.879766464233398,2.528017044067383
1747980213875748000,19.590748046875,0.6119644045829773,-12.781262397766113,0.906281590461731
1747980213894013400,19.609013427734375,-0.8207381963729858,-14.005788803100586,-1.2681959867477417
1747980213912278500,19.627278564453125,-2.8498518466949463,-13.915459632873535,-1.2640085220336914
1747980213930544000,19.645544189453126,-3.731008768081665,-12.451650619506836,0.9308080077171326
1747980213948809200,19.663809326171876,-3.857828378677368,-10.706685066223145,2.5597219467163086
1747980213967075000,19.682074951171874,-3.6083765029907227,-9.177671432495117,4.488935470581055
1747980213985340000,19.70033984375,-4.228715896606445,-8.409575462341309,5.208576679229736
1747980214003605500,19.71860546875,-2.434098720550537,-8.204390525817871,4.759922504425049
1747980214021870800,19.736870849609375,0.35533416271209717,-8.413164138793945,3.735196113586426
1747980214040136200,19.75513623046875,2.421536445617676,-8.518448829650879,1.8029918670654297
1747980214058395600,19.773395751953124,3.424727439880371,-7.664210796356201,0.6538388133049011
1747980214076660700,19.79166064453125,3.087937593460083,-7.021139621734619,0.6556333899497986
1747980214094929200,19.80992919921875,2.5351955890655518,-6.605386734008789,0.39421752095222473
1747980214113197800,19.82819775390625,2.1918256282806396,-6.25723123550415,-0.09690931439399719
1747980214131462700,19.846462646484376,1.6289139986038208,-6.415755748748779,0.38225340843200684
1747980214149728300,19.864728271484374,-1.1132607460021973,-6.682555675506592,1.6983058452606201
1747980214167993900,19.882993896484376,-5.37069034576416,-7.592426300048828,3.528815269470215
1747980214186255000,19.901255126953124,-3.308077335357666,-8.70508861541748,1.7910277843475342
1747980214204524500,19.919524658203127,-1.5667005777359009,-9.06580638885498,0.0364905446767807
1747980214222790000,19.937789794921876,-1.031306505203247,-8.71226692199707,-0.3038884699344635
1747980214241055200,19.95605517578125,-1.1718848943710327,-8.411968231201172,0.31405797600746155
1747980214259320800,19.97432080078125,-0.8943174481391907,-8.384450912475586,0.5958128571510315
1747980214277586000,19.9925859375,-0.706480860710144,-8.423334121704102,1.0971091985702515
1747980214295851300,20.010851318359375,-0.8919246196746826,-8.512466430664062,1.5326029062271118
1747980214314112300,20.0291123046875,-1.0169496536254883,-8.801400184631348,1.7336000204086304
1747980214332381700,20.047381591796874,-1.2041879892349243,-9.137591361999512,1.948355793952942
1747980214350648600,20.065648681640624,-1.3812568187713623,-9.507282257080078,2.2067806720733643
1747980214368913400,20.083913330078126,-1.7670994997024536,-9.690333366394043,2.857628345489502
1747980214387178800,20.1021787109375,-2.4197418689727783,-9.601799011230469,3.2368907928466797
1747980214405439200,20.120439208984376,-2.7768707275390625,-9.286544799804688,3.2004003524780273
1747980214423709000,20.138708984375,-2.6195425987243652,-9.121439933776855,2.7314071655273438
1747980214441967900,20.1569677734375,-2.507079839706421,-9.102895736694336,2.0231316089630127
1747980214460243000,20.175242919921875,-2.516651153564453,-8.780462265014648,1.3543375730514526
1747980214478505700,20.193505615234375,-2.706880569458008,-8.23848819732666,0.7908278703689575
1747980214496770300,20.211770263671873,-2.4819552898406982,-7.612765312194824,0.12681959569454193
1747980214515036000,20.230035888671875,-2.2648067474365234,-6.9720869064331055,0.0077766734175384045
1747980214533301500,20.248301513671876,-2.1774685382843018,-6.654439926147461,0.026919255033135414
1747980214551566000,20.266566162109374,-2.4155545234680176,-6.667600154876709,0.4145565330982208
1747980214569832400,20.28483251953125,-2.7726831436157227,-6.997809886932373,1.1754741668701172
1747980214588097500,20.30309765625,-3.119044303894043,-8.288139343261719,2.0685951709747314
1747980214606361900,20.32136181640625,-3.930809497833252,-9.546764373779297,4.053441524505615
1747980214624629800,20.339629638671877,-4.861617565155029,-9.764511108398438,6.212365627288818
1747980214642893600,20.3578935546875,-5.582455158233643,-9.936196327209473,8.294121742248535
1747980214661154300,20.376154296875,-4.818546772003174,-9.948758125305176,8.373682975769043
1747980214679423500,20.394423583984373,-3.549154281616211,-8.597412109375,6.187241077423096
1747980214697691400,20.41269140625,-2.076970100402832,-6.904489517211914,4.3310089111328125
1747980214715950800,20.430950927734376,-1.4261223077774048,-7.630711555480957,2.214557409286499
1747980214734220500,20.449220458984374,-1.3028919696807861,-9.88415241241455,-0.02273181453347206
1747980214752486100,20.467486083984376,-0.6358926296234131,-12.196216583251953,-0.7112665176391602
1747980214770751200,20.485751220703126,0.32542386651039124,-14.224732398986816,-0.706480860710144
1747980214789016600,20.5040166015625,0.5288137793540955,-14.629119873046875,-0.8033902049064636
1747980214807282400,20.522282470703125,-0.6047859191894531,-12.415160179138184,-1.319043517112732
1747980214825547300,20.54054736328125,-3.070589542388916,-10.540383338928223,0.4205385744571686
1747980214843812000,20.55881201171875,-1.8592232465744019,-9.32004451751709,1.648654818534851
1747980214862076400,20.577076416015625,0.1381855010986328,-8.69791030883789,1.5014961957931519
1747980214880346600,20.5953466796875,1.7288143634796143,-8.676973342895508,1.7132610082626343
1747980214898609000,20.61360888671875,2.4406790733337402,-8.167302131652832,1.3489537239074707
1747980214916870100,20.6318701171875,2.347957134246826,-8.062616348266602,0.35473597049713135
1747980214935138300,20.65013818359375,1.8765711784362793,-8.61176872253418,-0.15194423496723175
1747980214953405200,20.6684052734375,0.28534409403800964,-9.535996437072754,-1.2837493419647217
1747980214971670000,20.686669921875,-0.6963114142417908,-10.305887222290039,-1.3351950645446777
1747980214989932500,20.7049326171875,-0.243469700217247,-10.439885139465332,0.5144568681716919
1747980215008201000,20.723200927734375,-0.08195417374372482,-10.648658752441406,2.307279348373413
1747980215026466800,20.741466796875,-0.4707878530025482,-10.72702407836914,3.6233317852020264
1747980215044732000,20.75973193359375,-0.9535398483276367,-10.04985523223877,4.170690059661865
1747980215062997800,20.777997802734376,-0.8793623447418213,-9.385248184204102,4.147359848022461
1747980215081267500,20.796267333984375,-0.12921242415905,-9.052047729492188,3.8117663860321045
1747980215099528200,20.814528076171875,0.8279166221618652,-9.099306106567383,2.905484914779663
1747980215117790700,20.832790771484376,1.5583257675170898,-9.45045280456543,1.6839489936828613
1747980215136059100,20.85105908203125,1.4261223077774048,-9.460023880004883,0.3116651475429535
1747980215154312400,20.8693125,0.4713860750198364,-9.042476654052734,-0.3409772217273712
1747980215172584400,20.88758447265625,-0.8045865893363953,-9.18843936920166,-0.6059823632240295
1747980215190853400,20.905853271484375,-1.4416756629943848,-9.807581901550293,-0.36191442608833313
1747980215209121800,20.924121826171874,-1.140179991722107,-10.274182319641113,0.727418065071106
1747980215227383800,20.9423837890625,-0.6173482537269592,-10.432706832885742,1.8975083827972412
1747980215245652200,20.96065234375,-0.5515456199645996,-10.195219039916992,2.8977081775665283
1747980215263919000,20.978919189453126,-0.534795880317688,-9.814760208129883,3.352344512939453
1747980215282182100,20.99718212890625,-0.15493527054786682,-9.375079154968262,3.528815269470215
1747980215300446700,21.01544677734375,0.2799602448940277,-9.120243072509766,3.500101327896118
1747980215318712600,21.033712646484375,0.5222335457801819,-9.102895736694336,2.9826533794403076
1747980215336973600,21.0519736328125,0.30508488416671753,-9.18305492401123,2.1032910346984863
1747980215355243500,21.070243408203126,-0.2183450609445572,-9.503693580627441,1.567897081375122
1747980215373508000,21.088508056640624,-0.5246263742446899,-9.81117057800293,1.5589239597320557
1747980215391773000,21.10677294921875,-0.7339983582496643,-9.800403594970703,1.7982062101364136
1747980215410040000,21.1250400390625,-0.8997012972831726,-9.619147300720215,2.186441659927368
1747980215428300300,21.14330029296875,-0.8069794178009033,-9.44327449798584,2.5645077228546143
1747980215446568200,21.161568115234374,-0.600000262260437,-9.149555206298828,2.932404041290283
1747980215464819500,21.1798193359375,-0.5682953596115112,-8.612964630126953,3.315854072570801
1747980215483100700,21.1981005859375,-0.6376872062683105,-8.422137260437012,3.8087754249572754
1747980215501365500,21.216365478515623,-0.6251249313354492,-9.08255672454834,4.06121826171875
1747980215519632600,21.234632568359373,-0.7585247755050659,-9.960722923278809,3.768695592880249
1747980215537897000,21.25289697265625,-1.3208380937576294,-10.39083194732666,2.9898319244384766
1747980215556157700,21.27115771484375,-1.7886348962783813,-10.075577735900879,2.5322046279907227
1747980215574427600,21.289427734375,-1.1306086778640747,-9.327820777893066,2.7804598808288574
1747980215592692700,21.307692626953123,0.21415762603282928,-8.906085968017578,3.5192439556121826
1747980215610953700,21.32595361328125,1.420140266418457,-8.598010063171387,4.105485439300537
1747980215629224000,21.344223876953127,1.994417667388916,-8.434700012207031,4.396213531494141
1747980215647489500,21.362489501953124,2.183450698852539,-8.981459617614746,4.634299278259277
1747980215665753900,21.38075390625,2.1379871368408203,-9.993025779724121,5.091926574707031
1747980215684015000,21.39901513671875,1.6869399547576904,-10.736595153808594,5.283352375030518
1747980215702284000,21.417283935546877,0.9996016621589661,-11.806785583496094,5.106283664703369
1747980215720552400,21.435552490234375,0.06340979784727097,-12.297313690185547,3.9260237216949463
1747980215738815500,21.4538154296875,-1.428515076637268,-12.590434074401855,1.547558069229126
1747980215757081300,21.472081298828126,-1.6354942321777344,-12.214761734008789,0.2997010350227356
1747980215775342000,21.490342041015627,-1.1300104856491089,-11.946764945983887,-0.3032902777194977
1747980215793612300,21.5086123046875,-1.0480563640594482,-11.453245162963867,-0.7334001660346985
1747980215811877000,21.526877197265627,-1.0145567655563354,-10.237093925476074,-0.6789634227752686
1747980215830142700,21.545142822265625,-0.6023930907249451,-8.965906143188477,-0.08973085135221481
1747980215848407000,21.563406982421874,-0.28594231605529785,-8.763114929199219,0.12502498924732208
1747980215866674400,21.58167431640625,0.4983053207397461,-9.351150512695312,-0.37028929591178894
1747980215884933600,21.59993359375,1.0079765319824219,-10.441082000732422,0.7082754969596863
1747980215903204000,21.6182041015625,1.2305090427398682,-11.373085975646973,1.5242279767990112
1747980215921469700,21.6364697265625,1.5337992906570435,-11.155339241027832,2.1266210079193115
1747980215939733800,21.654733642578126,0.4983053207397461,-10.095916748046875,2.5746772289276123
1747980215958001400,21.67300146484375,-0.04366901144385338,-8.606385231018066,2.9419753551483154
1747980215976261400,21.691261474609377,-0.5742774605751038,-7.871788501739502,3.441477060317993
1747980215994530800,21.70953076171875,-0.3122633695602417,-8.082356452941895,3.4737801551818848
1747980216012797000,21.727796875,-0.07597211748361588,-8.425128936767578,3.214757204055786
1747980216031056100,21.74605615234375,0.054436713457107544,-8.820542335510254,2.5776681900024414
1747980216049326800,21.764326904296876,0.2949153780937195,-9.187840461730957,1.8544375896453857
1747980216067592400,21.782592529296874,0.4205385744571686,-9.416953086853027,1.1078768968582153
1747980216085858000,21.800858154296876,0.3900300860404968,-9.578469276428223,0.5670989751815796
1747980216104123100,21.819123046875,0.243469700217247,-9.915258407592773,-0.1740778535604477
1747980216122387500,21.837387451171875,0.0568295381963253,-9.748359680175781,-0.5946164131164551
1747980216140655000,21.855655029296877,-0.3320041298866272,-9.100502967834473,-0.7124629616737366
1747980216158923000,21.873923095703127,-0.776470959186554,-8.984451293945312,-1.0893324613571167
1747980216177184500,21.8921845703125,-1.1958130598068237,-9.524630546569824,-1.672582983970642
1747980216195446300,21.9104462890625,-1.4482558965682983,-10.331011772155762,-2.132004976272583
1747980216213714400,21.92871435546875,-2.181057929992676,-10.855039596557617,-2.193620204925537
1747980216231986000,21.94698583984375,-4.035495281219482,-11.472986221313477,-2.190030813217163
1747980216250246000,21.965245849609374,-7.343572616577148,-11.462218284606934,-2.0919251441955566
1747980216268511000,21.983510986328124,-10.547562599182129,-10.823933601379395,-1.409970760345459
1747980216286772200,22.001772216796876,-8.395816802978516,-10.335199356079102,-0.8925228714942932
1747980216305041000,22.020041015625,-6.119643688201904,-10.359725952148438,0.747757077217102
1747980216323308500,22.03830859375,-4.625326156616211,-10.328021049499512,2.4329023361206055
1747980216341571300,22.0565712890625,-3.355933666229248,-9.958329200744629,3.5545380115509033
1747980216359839500,22.074839599609376,-2.0608184337615967,-9.113663673400879,4.700700283050537
1747980216378103600,22.093103515625,-1.6169499158859253,-8.616554260253906,5.709274768829346
1747980216396367600,22.11136767578125,-1.8574285507202148,-8.657232284545898,7.025327205657959
1747980216414635300,22.12963525390625,-4.322035789489746,-9.661619186401367,7.904689788818359
1747980216432899600,22.147899658203126,-6.043073654174805,-10.75693416595459,5.07517671585083
1747980216451165000,22.1661650390625,-4.692923545837402,-10.441679954528809,2.428116798400879
1747980216469430300,22.18443017578125,-3.119642496109009,-9.299705505371094,1.7515461444854736
1747980216487696000,22.20269580078125,-2.0476579666137695,-8.3359956741333,1.0809576511383057
1747980216505956400,22.220956298828124,-2.252244234085083,-7.338188648223877,-0.20338992774486542
1747980216524226800,22.239226806640627,-2.097907304763794,-6.095117568969727,-1.316650629043579
1747980216542486500,22.257486572265623,-1.8556339740753174,-4.90408992767334,-1.8029918670654297
1747980216560755700,22.275755615234374,-2.544168710708618,-4.244867324829102,-1.470389485359192
1747980216579024000,22.29402392578125,-3.6466617584228516,-4.7336015701293945,-0.607776939868927
1747980216597288200,22.3122880859375,-4.0905303955078125,-5.519045352935791,0.7645068168640137
1747980216615553300,22.33055322265625,-3.9930226802825928,-5.822933673858643,2.012363910675049
1747980216633818600,22.348818603515625,-3.6197423934936523,-5.796014785766602,2.33180570602417
1747980216652084000,22.367083984375,-3.160918712615967,-5.570491313934326,2.12542462348938
1747980216670350000,22.38535009765625,-2.950350284576416,-5.295914649963379,1.866999864578247
1747980216688613400,22.40361328125,-2.4358935356140137,-5.341378211975098,1.5738791227340698
1747980216706880000,22.4218798828125,-1.5978072881698608,-7.6498541831970215,0.607776939868927
1747980216725145300,22.440145263671877,-6.628118515014648,-14.845071792602539,2.9617161750793457
1747980216743396600,22.458396728515623,-19.923837661743164,-28.645078659057617,11.111071586608887
1747980216761678000,22.476677978515625,-10.673185348510742,-22.180269241333008,11.707483291625977
1747980216779937500,22.4949375,0.43489551544189453,-7.327421188354492,-0.3194418251514435
1747980216798202000,22.5132021484375,0.15732808411121368,-0.534795880317688,-3.6807594299316406
1747980216816471000,22.531470947265625,-1.2711870670318604,1.5912270545959473,-3.593421459197998
1747980216834738400,22.549738525390627,0.5048855543136597,0.42831525206565857,-3.594019651412964
1747980216853002800,22.568002685546876,1.534995675086975,-4.3178486824035645,-4.215555191040039
1747980216871267800,22.586267822265626,-2.6524438858032227,-12.011371612548828,-1.797009825706482
1747980216889534000,22.604533935546876,-3.8087754249572754,-18.05085563659668,3.4193434715270996
1747980216907798500,22.622798583984373,-2.279761791229248,-15.847664833068848,6.059225082397461
1747980216926064400,22.641064453125,-3.0975089073181152,-10.828719139099121,3.303889751434326
1747980216944329700,22.659329833984376,-2.472982168197632,-8.424530029296875,1.2161520719528198
1747980216962595000,22.677594970703126,-1.852044701576233,-8.688339233398438,1.7114664316177368
1747980216980856800,22.69585693359375,-1.3824533224105835,-9.683155059814453,1.9722840785980225
1747980216999128800,22.71412890625,-1.069591760635376,-10.259825706481934,1.9513468742370605
1747980217017388500,22.732388427734374,-1.4572290182113647,-10.329216957092285,1.7228323221206665
1747980217035659000,22.750658935546873,-2.2342982292175293,-9.869196891784668,1.5912270545959473
1747980217053926100,22.768926025390623,-2.2504496574401855,-9.17587661743164,1.6689938306808472
1747980217072185300,22.787185302734375,-1.7282161712646484,-8.646464347839355,1.5822539329528809
1747980217090453800,22.805453857421874,-1.5044872760772705,-8.566903114318848,1.0558329820632935
1747980217108718000,22.823718017578123,-1.5936198234558105,-9.131608963012695,0.8111668825149536
1747980217126989000,22.841989013671874,-1.4075778722763062,-9.588638305664062,1.2598211765289307
1747980217145243600,22.86024365234375,-0.9206385016441345,-9.870991706848145,1.7988044023513794
1747980217163513900,22.878513916015624,-0.26620152592658997,-9.764511108398438,1.8837496042251587
1747980217181781000,22.896781005859374,0.04426721855998039,-9.500103950500488,1.4769697189331055
1747980217200042800,22.915042724609375,-0.023330021649599075,-9.362516403198242,0.989432156085968
1747980217218310000,22.933309814453125,-0.3152543902397156,-9.380462646484375,0.7268198728561401
1747980217236561400,22.9515615234375,-0.5587241053581238,-9.397810935974121,0.7848458290100098
1747980217254840800,22.9698408203125,-0.3810569941997528,-9.517452239990234,1.3100703954696655
1747980217273105200,22.988105224609374,0.14356936514377594,-9.923633575439453,1.638485312461853
1747980217291370000,23.006369873046875,0.4372883439064026,-10.25743293762207,1.4362918138504028
1747980217309637600,23.0246376953125,0.20099709928035736,-10.361519813537598,0.6717849373817444
1747980217327902500,23.04290234375,-0.3206382393836975,-10.231111526489258,-0.1782652884721756
1747980217346162000,23.061161865234375,-0.7794619798660278,-9.848857879638672,-0.8129615187644958
1747980217364420600,23.079420654296875,-1.098903775215149,-9.538987159729004,-1.2945170402526855
1747980217382697700,23.09769775390625,-1.0546365976333618,-9.31585693359375,-0.9882357716560364
1747980217400959000,23.115958984375,-0.5545366406440735,-9.1986083984375,0.19202402234077454
1747980217419228200,23.134228271484375,0.08793623000383377,-9.32004451751709,1.4530415534973145
1747980217437494000,23.152493896484376,0.3415754437446594,-9.577272415161133,2.1361923217773438
