time,seconds_elapsed,z,y,x
1747979066996912000,0.063912109375,-0.9043859839439392,0.6666067242622375,0.617584764957428
1747979067015191000,0.08219091796875,-1.2528846263885498,0.5713117122650146,0.33139440417289734
1747979067033455600,0.10045556640625,-1.427744746208191,0.12370020896196365,0.015882495790719986
1747979067051716600,0.118716552734375,-1.5025757551193237,-0.09056077152490616,0.09483683109283447
1747979067069979100,0.136979248046875,-1.6223053932189941,-0.8872817754745483,0.16310101747512817
1747979067088248800,0.155248779296875,-1.6988162994384766,-1.5969544649124146,0.2834414839744568
1747979067106509300,0.17350927734375,-1.7176003456115723,-1.461647868156433,0.24190263450145721
1747979067124779300,0.191779296875,-1.4089607000350952,0.6966918110847473,-0.15546520054340363
1747979067143044000,0.210044189453125,-0.2298380434513092,1.9062049388885498,-0.6363688707351685
1747979067161308000,0.228307861328125,0.6436992287635803,1.2707524299621582,-0.8770498037338257
1747979067179576300,0.246576416015625,0.6620252132415771,1.2342532873153687,-0.46563202142715454
1747979067197834800,0.264834716796875,0.6985244154930115,0.916450560092926,0.03726277872920036
1747979067216105000,0.28310498046875,0.7081455588340759,0.4476115107536316,0.44516804814338684
1747979067234370000,0.3013701171875,0.6041457056999207,0.06520986557006836,0.7976372838020325
1747979067252635100,0.31963525390625,0.5523748993873596,-0.15821409225463867,1.1169670820236206
1747979067270900500,0.337900390625,0.5401576161384583,-0.2926044464111328,0.9996809959411621
1747979067289165300,0.356165283203125,0.7730499505996704,-0.32971450686454773,0.6152940392494202
1747979067307429400,0.374429443359375,1.2198978662490845,-0.2880229651927948,0.3260493278503418
1747979067325696800,0.39269677734375,1.371850609779358,-0.285121351480484,0.2396118938922882
1747979067343964200,0.410964111328125,1.147204875946045,-0.5494732856750488,0.21181751787662506
1747979067362226000,0.429225830078125,1.2568552494049072,-0.6160575747489929,0.06627888232469559
1747979067380491000,0.447490966796875,1.5578590631484985,-0.8089383244514465,-0.18936823308467865
1747979067398756000,0.465756103515625,1.6406313180923462,-1.316261887550354,-0.3735440969467163
1747979067417027800,0.48402783203125,1.5430456399917603,-2.0705277919769287,-0.7177666425704956
1747979067435286500,0.50228662109375,1.4020884037017822,-2.699108123779297,-1.0403034687042236
1747979067453546800,0.520546630859375,1.25761878490448,-2.1668918132781982,-0.6786713004112244
1747979067471815400,0.5388154296875,1.2906055450439453,-1.5781704187393188,-0.14049901068210602
1747979067490083000,0.5570830078125,1.5085316896438599,-1.3300063610076904,0.10002918541431427
1747979067508347000,0.575346923828125,1.6844608783721924,-1.175152063369751,-0.24358251690864563
1747979067526611700,0.59361181640625,1.320385217666626,-2.303267478942871,-1.1313223838806152
1747979067544876800,0.611876708984375,1.242347240447998,-2.898097515106201,-1.543809175491333
1747979067563142400,0.630142333984375,1.6285667419433594,-2.2458460330963135,-1.154077172279358
1747979067581406200,0.64840625,1.9078848361968994,-1.6090190410614014,-0.523511528968811
1747979067599672800,0.6666728515625,1.7832683324813843,-1.7235562801361084,-0.4729624092578888
1747979067617939000,0.68493896484375,1.494939923286438,-2.241722822189331,-0.9230173826217651
1747979067636202800,0.70320263671875,1.3700180053710938,-2.4559836387634277,-1.21974515914917
1747979067654468000,0.721468017578125,1.480737328529358,-2.5085182189941406,-1.130711555480957
1747979067672733400,0.7397333984375,1.7837265729904175,-3.2172744274139404,-0.5864306092262268
1747979067690993700,0.75799365234375,2.054187059402466,-4.333477973937988,0.03145955875515938
1747979067709258500,0.776258544921875,2.228283643722534,-5.418680191040039,0.4482223689556122
1747979067727527200,0.794527099609375,2.512641429901123,-5.61079740524292,0.5742133259773254
1747979067745794800,0.812794921875,2.9500210285186768,-5.294980049133301,0.3969096839427948
1747979067764055800,0.831055908203125,3.3214271068573,-5.264436721801758,0.17821992933750153
1747979067782326500,0.849326416015625,3.5158348083496094,-5.63278865814209,0.7499898076057434
1747979067800588800,0.8675888671875,3.3574681282043457,-5.6741743087768555,1.3306171894073486
1747979067818854100,0.885854248046875,2.978273391723633,-5.100113868713379,0.9558513760566711
1747979067837119200,0.904119140625,2.6613872051239014,-4.257883548736572,0.053297992795705795
1747979067855384800,0.922384765625,2.9043588638305664,-3.821420192718506,-0.6959282159805298
1747979067873649700,0.940649658203125,3.44451642036438,-3.587611675262451,-1.003804326057434
1747979067891914800,0.958914794921875,3.7220020294189453,-3.637549877166748,-0.7415903806686401
1747979067910180000,0.97718017578125,3.72994327545166,-3.7452147006988525,0.08857546001672745
1747979067928444000,0.99544384765625,2.889698028564453,-3.6074647903442383,0.802524209022522
1747979067946707500,1.01370751953125,1.7521142959594727,-3.073415756225586,1.1481212377548218
1747979067964970200,1.03197021484375,1.2838860750198364,-2.0838141441345215,1.0534371137619019
1747979067983239000,1.050239013671875,1.2533427476882935,-1.588555097579956,1.1974486112594604
1747979068001503500,1.06850341796875,1.2202032804489136,-0.7344127297401428,1.4857770204544067
1747979068019772700,1.086772705078125,0.9970847964286804,-0.49144110083580017,1.4489723443984985
1747979068038037200,1.105037353515625,0.5998696684837341,-0.5203045010566711,1.64414381980896
1747979068056301000,1.123301025390625,0.49037206172943115,-0.34574973583221436,1.4952454566955566
1747979068074566100,1.141566162109375,0.5606215596199036,0.33047810196876526,0.6692028641700745
1747979068092831000,1.1598310546875,0.40943244099617004,1.4865405559539795,0.36682456731796265
1747979068111096300,1.178096435546875,0.2692388594150543,1.977676272392273,1.1290316581726074
1747979068129362000,1.19636181640625,-0.003512475173920393,1.7143932580947876,1.8077030181884766
1747979068147626800,1.214626708984375,-0.04382958263158798,1.75608491897583,1.7792977094650269
1747979068165889000,1.232888916015625,-0.11927144229412079,1.9453003406524658,1.5256359577178955
1747979068184152800,1.25115283203125,-0.32299500703811646,1.4798210859298706,1.5054774284362793
1747979068202420500,1.26942041015625,-0.5473352670669556,1.296714186668396,1.749212622642517
1747979068220688100,1.287688232421875,-0.889267086982727,1.12506103515625,1.5224288702011108
1747979068238953200,1.305953125,-1.8132007122039795,0.8950703144073486,0.7061602473258972
1747979068257214700,1.324214599609375,-2.515542984008789,0.13607023656368256,0.2611449062824249
1747979068275485700,1.342485595703125,-3.863722562789917,-1.2961033582687378,0.2886338233947754
1747979068293743600,1.36074365234375,-5.240002155303955,-2.3350324630737305,-0.2866485118865967
1747979068312008400,1.379008544921875,-5.7684006690979,-2.6673431396484375,-0.7550294399261475
1747979068330278100,1.397278076171875,-5.003444671630859,-2.2566888332366943,-1.0580185651779175
1747979068348543000,1.41554296875,-4.455498218536377,-1.125366449356079,-1.1323914527893066
1747979068366808000,1.43380810546875,-4.247804164886475,-1.183704137802124,-0.7530441284179688
1747979068385070000,1.452070068359375,-3.3481523990631104,-2.1545217037200928,-0.021532999351620674
1747979068403340800,1.4703408203125,-2.090991735458374,-2.3603832721710205,0.7035640478134155
1747979068439868200,1.5068681640625,-1.084591269493103,-1.4902057647705078,0.9228646755218506
1747979068458135600,1.525135498046875,-0.4967861473560333,-1.1204795837402344,1.240820050239563
1747979068476398800,1.54339892578125,0.01725694350898266,0.44318273663520813,1.490511178970337
1747979068494663700,1.56166357421875,1.277471899986267,1.2504411935806274,1.2499829530715942
1747979068512931000,1.57993115234375,2.950784683227539,0.7000515460968018,1.0534371137619019
1747979068531195000,1.59819482421875,4.890587329864502,-0.5946773290634155,1.0111347436904907
1747979068549458700,1.616458740234375,6.755405902862549,-1.2977832555770874,1.1099421977996826
1747979068567721500,1.634721435546875,8.324565887451172,-1.107956886291504,1.3539828062057495
1747979068585981400,1.6529814453125,8.907331466674805,-0.3439171314239502,1.3054190874099731
1747979068604254200,1.671254150390625,7.143458366394043,0.9636399149894714,1.6994271278381348
1747979068622520600,1.6895205078125,6.591999530792236,0.9587529897689819,2.4335343837738037
1747979068640785700,1.70778564453125,6.631247520446777,-0.04092797264456749,2.8913779258728027
1747979068659050200,1.72605029296875,7.081760883331299,-1.0914634466171265,2.8324294090270996
1747979068677316000,1.744316162109375,6.7375383377075195,-1.321912407875061,1.5903877019882202
1747979068695581200,1.762581298828125,3.282484292984009,-1.7667750120162964,0.3179553747177124
1747979068713846300,1.78084619140625,0.5639813542366028,-1.2976305484771729,0.05360342562198639
1747979068732111400,1.799111328125,0.1134682223200798,-1.0557278394699097,0.5899431109428406
1747979068750376700,1.817376708984375,0.42531493306159973,-0.11133018881082535,1.6102408170700073
1747979068768641500,1.8356416015625,0.607200026512146,0.7950411438941956,2.2739458084106445
1747979068786895600,1.8538955078125,0.5216789245605469,1.1513283252716064,1.9639317989349365
1747979068805172000,1.872171875,0.26740625500679016,1.241125464439392,1.3045027256011963
1747979068823431200,1.89043115234375,0.2542726695537567,1.6262760162353516,0.6459900140762329
1747979068841702100,1.9087021484375,0.3700316250324249,1.2996158599853516,0.07712173461914062
1747979068859964000,1.9269638671875,0.30405816435813904,0.12950342893600464,-0.33658674359321594
1747979068878233600,1.945233642578125,0.40744712948799133,-0.3225368559360504,-0.5346598029136658
1747979068896497700,1.96349755859375,0.6803511381149292,0.403781920671463,-0.7612907886505127
1747979068914763000,1.981762939453125,0.5894849896430969,0.48838675022125244,-1.2415835857391357
1747979068933027600,2.000027587890625,-0.29825496673583984,-2.446057081222534,-1.202030062675476
1747979068951294500,2.01829443359375,-1.6442965269088745,-5.637980937957764,-1.079246163368225
1747979068969558300,2.036558349609375,-2.1419990062713623,-4.8171305656433105,-2.0613646507263184
1747979068987823600,2.05482373046875,-1.5218180418014526,-2.531578302383423,-3.6480872631073
1747979069006088700,2.073088623046875,-0.05421429127454758,-0.12690725922584534,-4.789794445037842
1747979069024350200,2.09135009765625,0.18707747757434845,1.6071864366531372,-4.907996654510498
1747979069042619100,2.109619140625,-0.24388794600963593,1.6337591409683228,-4.020867824554443
1747979069060884000,2.127884033203125,-0.23716843128204346,1.3950635194778442,-2.931236982345581
1747979069079144200,2.146144287109375,-0.09010262042284012,1.3545936346054077,-1.9876028299331665
1747979069097413400,2.164413330078125,-0.2629774808883667,0.5662720799446106,-1.0546588897705078
1747979069115680800,2.1826806640625,-0.2148718535900116,0.9575312733650208,-1.2431107759475708
1747979069133945000,2.200945068359375,-0.08307767659425735,1.434617042541504,-1.846798300743103
1747979069152197600,2.21919775390625,-0.01710422709584236,1.768454909324646,-2.4883596897125244
1747979069170475000,2.23747509765625,-0.10094548016786575,2.230727195739746,-2.9668197631835938
1747979069188722400,2.255722412109375,-0.6618725061416626,0.7588473558425903,-1.9953913688659668
1747979069207000800,2.274000732421875,-0.693637490272522,-0.3139847218990326,-0.2018909603357315
1747979069225270000,2.29227001953125,0.1160643994808197,-0.1414152979850769,2.563190460205078
1747979069243535400,2.310535400390625,-0.3237585723400116,-0.712574303150177,2.4471261501312256
1747979069261800400,2.328800537109375,-0.6235406994819641,-0.2422080636024475,1.38849675655365
1747979069280066000,2.347066162109375,-0.4095851480960846,0.7590000629425049,0.4381431043148041
1747979069298331000,2.365330810546875,-0.3770565688610077,0.3917173445224762,0.355981707572937
1747979069316596200,2.38359619140625,-0.48426342010498047,-0.2762638032436371,1.2043207883834839
1747979069334856200,2.401856201171875,-0.36422839760780334,-0.9876163601875305,2.263561248779297
1747979069353125000,2.420125,-0.11591167747974396,-2.1195497512817383,2.7279715538024902
1747979069371393300,2.438393310546875,-0.04932736977934837,-2.498438835144043,3.006678819656372
1747979069389654500,2.456654541015625,-0.08720101416110992,-1.9223929643630981,2.367713689804077
1747979069407923000,2.4749228515625,0.2125810980796814,-1.4294246435165405,0.4619668424129486
1747979069426187300,2.493187255859375,0.1518000066280365,1.1563678979873657,-0.8171849846839905
1747979069444447000,2.511447021484375,0.1915062516927719,0.8768970370292664,-0.11530081182718277
1747979069462718700,2.52971875,0.9173668622970581,0.7058547735214233,0.2076941877603531
1747979069480977700,2.547977783203125,0.6818783283233643,1.2467759847640991,-0.1999056488275528
1747979069499247900,2.566247802734375,-0.5871942043304443,2.3177754878997803,-0.4534147381782532
1747979069517512700,2.5845126953125,-1.142012596130371,2.5218043327331543,-0.4821254014968872
1747979069535778000,2.602778076171875,-1.0169379711151123,0.351400226354599,0.2073887437582016
1747979069554043600,2.621043701171875,-0.4859432876110077,0.1950187236070633,0.8037459254264832
1747979069572308500,2.63930859375,0.09712757170200348,-0.11652254313230515,0.8139779567718506
1747979069590573600,2.657573486328125,0.456163614988327,-0.7147123217582703,0.5887213945388794
1747979069608838400,2.67583837890625,0.5955936312675476,-0.20906862616539001,0.5552765130996704
1747979069627103500,2.694103515625,0.718224823474884,0.40286561846733093,0.7797694802284241
1747979069645369000,2.712369140625,0.38637226819992065,0.5795583724975586,1.3269519805908203
1747979069663634200,2.73063427734375,0.043676864355802536,0.7426594495773315,1.8539760112762451
1747979069681899300,2.748899169921875,-0.08429940044879913,0.6041457056999207,1.9045251607894897
1747979069700164400,2.767164306640625,-0.2906191349029541,0.39584067463874817,1.6478090286254883
1747979069718428400,2.785428466796875,-1.3906347751617432,0.4967861473560333,1.2559388875961304
1747979069736696000,2.803696044921875,-1.3211487531661987,1.1491901874542236,0.8460483551025391
1747979069754963700,2.821963623046875,-0.9903652667999268,1.4465289115905762,0.9416487812995911
1747979069773225000,2.840224853515625,-0.7791585922241211,0.9674578309059143,1.1407908201217651
1747979069791489800,2.85848974609375,-0.6302602291107178,0.6742424964904785,1.1424707174301147
1747979069809754000,2.876754150390625,-0.15546520054340363,0.7858781218528748,1.0204503536224365
1747979069828029000,2.89502880859375,0.3859141170978546,0.9195048809051514,0.7244861721992493
1747979069846281200,2.91328125,0.7475463151931763,0.9265298843383789,0.5514585971832275
1747979069864549600,2.931549560546875,0.9515753388404846,0.3995058834552765,0.8429940342903137
1747979069882817000,2.949817138671875,0.9647089242935181,0.11942415684461594,1.3058772087097168
1747979069901081300,2.968081298828125,0.9639453291893005,0.8130616545677185,0.8425359129905701
1747979069919346200,2.98634619140625,0.9469938278198242,1.6413949728012085,-0.23518311977386475
1747979069937607000,3.00460693359375,0.9149234294891357,1.6875152587890625,-0.7200574278831482
1747979069955876600,3.022876708984375,0.9133962392807007,1.2635747194290161,-0.2664899528026581
1747979069974141700,3.0411416015625,0.7754934430122375,-0.14294247329235077,0.4789183437824249
1747979069992405500,3.059405517578125,0.5765040516853333,0.11194105446338654,-0.017562376335263252
1747979070010674400,3.07767431640625,0.3582724630832672,-0.01710422709584236,-0.7046330571174622
1747979070028936200,3.095936279296875,0.21533000469207764,-0.47601673007011414,-0.9932668805122375
1747979070047202000,3.1142021484375,-0.031612277030944824,-0.7024950385093689,-1.5512923002243042
1747979070065467600,3.132467529296875,-0.3153591752052307,-1.4298827648162842,-2.1206185817718506
1747979070083733000,3.15073291015625,-0.36163222789764404,-2.326022148132324,-2.230574369430542
1747979070101993000,3.168992919921875,-0.37262779474258423,-3.2586605548858643,-2.2091941833496094
1747979070120263200,3.18726318359375,-0.3692680299282074,-3.450472354888916,-2.2395846843719482
1747979070138528300,3.2055283203125,-0.4996877610683441,-2.4698808193206787,-2.135737657546997
1747979070156793300,3.22379345703125,-0.5958990454673767,-0.737772524356842,-2.0639610290527344
1747979070175058700,3.24205859375,-0.584750771522522,1.2060006856918335,-2.2715024948120117
1747979070193318700,3.260318603515625,-0.44974952936172485,1.3848315477371216,-2.107790470123291
1747979070211576600,3.27857666015625,-0.6647741198539734,0.5018258094787598,-1.9362901449203491
1747979070229843500,3.296843505859375,-0.6956228017807007,0.027488935738801956,-2.0667097568511963
1747979070248120300,3.315120361328125,-0.93095862865448,-0.4225660264492035,-2.0532708168029785
1747979070266380300,3.33338037109375,-1.08718740940094,-1.299310326576233,-1.423926830291748
1747979070284650000,3.35164990234375,-1.0682506561279297,-1.578781247138977,-0.889267086982727
1747979070302914600,3.36991455078125,-1.020603060722351,-1.1640037298202515,-0.6024658679962158
1747979070321180400,3.388180419921875,-0.8393288254737854,-0.8032878041267395,-0.3660610020160675
1747979070339444000,3.40644384765625,-0.6285803318023682,-0.716697633266449,-0.12461651116609573
1747979070357711400,3.42471142578125,-0.5619960427284241,-0.6322455406188965,0.22082778811454773
1747979070375971000,3.44297119140625,-0.5433646440505981,-0.4625777006149292,0.5273294448852539
1747979070394235600,3.461235595703125,-0.4634940028190613,-0.4645630121231079,0.8153523802757263
1747979070412505900,3.479505859375,-0.5032002329826355,-0.7354817390441895,1.0661125183105469
1747979070430771200,3.497771240234375,-0.313373863697052,-0.9372199773788452,1.3439035415649414
1747979070449031400,3.516031494140625,-0.14263702929019928,-1.1798862218856812,1.612226128578186
1747979070467300000,3.534300048828125,-0.08185594528913498,-1.6103935241699219,2.0332648754119873
1747979070485567500,3.5525673828125,-0.049785517156124115,-2.1786508560180664,2.6389379501342773
1747979070503831600,3.57083154296875,0.040164388716220856,-3.003319025039673,3.056464195251465
1747979070522096600,3.5890966796875,0.2503020465373993,-1.7374534606933594,1.7490599155426025
1747979070540362500,3.607362548828125,0.42531493306159973,2.440406560897827,-0.5380195379257202
1747979070558627600,3.625627685546875,0.3549126982688904,3.768427610397339,-1.5720616579055786
1747979070576892400,3.643892333984375,-0.31261029839515686,2.4799602031707764,-0.7805330753326416
1747979070595157800,3.66215771484375,-0.4063780903816223,0.42760565876960754,0.34162637591362
1747979070613421800,3.680421875,0.39614611864089966,-0.14614951610565186,-0.34956762194633484
1747979070631689200,3.698689208984375,1.0629055500030518,0.6624833345413208,-1.111163854598999
1747979070649952800,3.716952880859375,0.3474296033382416,2.36206316947937,-0.21899518370628357
1747979070668219600,3.7352197265625,-0.2070833146572113,0.7660250067710876,0.6641632318496704
1747979070686473500,3.753473388671875,-0.8009970784187317,0.8707883954048157,0.7800748944282532
1747979070704744200,3.771744140625,-0.6994407176971436,0.461355984210968,0.8452847599983215
1747979070723008300,3.79000830078125,-0.5595525503158569,0.44135013222694397,0.9075930118560791
1747979070741280500,3.808280517578125,0.2687807083129883,-0.2958115041255951,1.3298536539077759
1747979070759544300,3.82654443359375,1.223868489265442,-1.9118554592132568,1.9660698175430298
1747979070777809400,3.844809326171875,1.1256719827651978,-2.5558602809906006,2.4468207359313965
1747979070796074800,3.86307470703125,0.2203696370124817,-1.5981762409210205,2.45980167388916
1747979070814335700,3.881335693359375,-0.2200642079114914,0.09697485715150833,1.8049540519714355
1747979070832605200,3.899605224609375,0.06536258012056351,0.7855727076530457,0.8743008971214294
1747979070850870500,3.91787060546875,0.13026700913906097,1.215927243232727,0.4694499373435974
1747979070869136000,3.936135986328125,0.041233405470848083,1.6904168128967285,0.24892759323120117
1747979070887399700,3.954399658203125,0.31184670329093933,2.3739750385284424,0.04886921867728233
1747979070905666800,3.972666748046875,0.6010913848876953,2.3794727325439453,0.1618792861700058
1747979070923931400,3.990931396484375,0.7040221691131592,2.066404342651367,0.4657847583293915
1747979070942196200,4.0091962890625,1.0772608518600464,1.987755537033081,0.6386595964431763
1747979070960461800,4.0274619140625,1.6398677825927734,1.7968600988388062,0.7118107080459595
1747979070978725000,4.04572509765625,1.6809484958648682,1.5063936710357666,0.7857254147529602
1747979070996988400,4.063988525390625,1.2935070991516113,1.20859694480896,0.8148942589759827
1747979071015256800,4.0822568359375,0.6417139172554016,0.8938485980033875,0.7925976514816284
1747979071033522400,4.1005224609375,-0.1788308024406433,0.693026602268219,0.811687171459198
1747979071051788300,4.118788330078125,-0.9575312733650208,0.7590000629425049,0.9130908250808716
1747979071070052000,4.137052001953125,-1.2237157821655273,1.1246029138565063,0.870330274105072
1747979071088315100,4.155315185546875,-0.6533203721046448,1.902539849281311,0.5103778839111328
1747979071106585600,4.173585693359375,-0.013286318629980087,2.6430611610412598,0.054825156927108765
1747979071124848600,4.1918486328125,0.027183502912521362,2.647031784057617,-0.04108068719506264
1747979071143113500,4.210113525390625,-0.3349068760871887,2.8235719203948975,0.3822489380836487
1747979071161378800,4.22837890625,-0.5911648273468018,1.6088663339614868,0.07910704612731934
1747979071179642600,4.246642578125,-0.23579397797584534,-0.9185886383056641,-1.147357702255249
1747979071197910300,4.26491015625,-0.23869559168815613,-1.3590224981307983,-1.8096883296966553
1747979071216174000,4.283174072265625,-0.513126790523529,-1.048092007637024,-1.9309450387954712
1747979071234438400,4.3014384765625,-0.7620543837547302,-1.4204144477844238,-2.126880168914795
1747979071252706000,4.3197060546875,-0.8323038816452026,-2.121229648590088,-2.4300220012664795
1747979071270965800,4.3379658203125,-0.9714284539222717,-2.459038019180298,-2.888781785964966
1747979071289235200,4.356235107421875,-0.959669291973114,-1.923156499862671,-3.3904547691345215
1747979071307488300,4.37448828125,-0.9196576476097107,-0.3735440969467163,-3.7137553691864014
1747979071325765600,4.392765625,-1.2936599254608154,1.302364706993103,-3.450930595397949
1747979071344021500,4.411021484375,-1.5146403312683105,1.1762210130691528,-2.9074132442474365
1747979071362296000,4.429296142578125,-1.0228939056396484,0.5273294448852539,-2.725069761276245
1747979071380561000,4.447560791015625,-0.6841690540313721,0.6104071140289307,-2.7397305965423584
1747979071398826200,4.465826171875,-0.5259549617767334,0.707840085029602,-2.5247061252593994
1747979071417091300,4.48409130859375,-0.42348232865333557,0.3888157308101654,-2.006844997406006
1747979071435357200,4.502357177734375,-0.3985895812511444,-0.2577851414680481,-1.3222178220748901
1747979071453621500,4.52062158203125,-0.4492913782596588,-0.8504771590232849,-0.7060074806213379
1747979071471887400,4.538887451171875,-0.49785518646240234,-1.2009611129760742,-0.23518311977386475
1747979071490151700,4.557151611328125,-0.5209153294563293,-1.2924381494522095,0.0907134860754013
1747979071508416500,4.57541650390625,-0.6334672570228577,-1.0929906368255615,0.19914206862449646
1747979071526684000,4.593683837890625,-0.716697633266449,-0.9702067375183105,0.13316862285137177
1747979071554082000,4.62108203125,-0.4973970353603363,-1.5318973064422607,0.46013423800468445
1747979071572347100,4.63934716796875,-0.24892759323120117,-1.250288486480713,0.9059131741523743
1747979071590611700,4.65761181640625,-0.01725694350898266,-0.17821992933750153,1.423621416091919
1747979071608876800,4.675876708984375,0.3127630054950714,1.0393872261047363,2.1058051586151123
1747979071627137500,4.694137451171875,0.835969090461731,2.1760547161102295,3.0613510608673096
1747979071645410800,4.712410888671875,1.513113260269165,1.8469511270523071,3.0860912799835205
1747979071663673300,4.73067333984375,1.0986411571502686,-1.4237741231918335,0.2822197377681732
1747979071681938200,4.748938232421875,-0.2353358417749405,-1.5051720142364502,-1.3124439716339111
1747979071700202500,4.767202392578125,-0.9060658812522888,0.8611672520637512,-0.9237809777259827
1747979071718468600,4.785468505859375,-0.9934195876121521,1.4182764291763306,-0.5623014569282532
1747979071736733000,4.80373291015625,-0.3171917796134949,0.22571471333503723,-0.0012217304902151227
1747979071754994000,4.821993896484375,0.9065240025520325,0.5119050741195679,0.13454307615756989
1747979071773258500,4.840258544921875,1.4398094415664673,1.2618948221206665,-0.8494081497192383
1747979071791528000,4.85852783203125,0.4268420934677124,1.417970895767212,-0.7026477456092834
1747979071809793800,4.876793701171875,-1.091310739517212,1.7318029403686523,0.07483099400997162
1747979071828061000,4.89506103515625,-0.6039929986000061,1.1133018732070923,-0.16691893339157104
1747979071846312000,4.91331201171875,0.41401392221450806,0.9028588533401489,0.16691893339157104
1747979071864590600,4.931590576171875,1.1742357015609741,-0.44944411516189575,0.8526151776313782
1747979071882846000,4.949845947265625,1.1084150075912476,-1.7861700057983398,1.2431107759475708
1747979071901120500,4.96812060546875,0.5685628056526184,-2.531578302383423,1.3962851762771606
1747979071919384800,4.986384765625,-0.10491610318422318,-2.2401955127716064,1.7666223049163818
1747979071937651500,5.0046513671875,-0.49037206172943115,-0.88361656665802,2.2715024948120117
1747979071955915300,5.022915283203125,-0.6159048676490784,1.0841331481933594,3.0552425384521484
1747979071974176800,5.0411767578125,-0.5018258094787598,2.6623034477233887,3.4912476539611816
1747979071992444200,5.059444091796875,-0.07864890247583389,2.473851442337036,3.408780813217163
1747979072010713300,5.07771337890625,0.48426342010498047,0.44944411516189575,2.3263275623321533
1747979072028972000,5.095971923828125,0.6687447428703308,-0.5725334286689758,0.8820894360542297
1747979072047242200,5.1142421875,0.5635231733322144,0.029474247246980667,0.2168571650981903
1747979072065506600,5.132506591796875,0.527634859085083,1.2880094051361084,0.5299255847930908
1747979072083773000,5.15077294921875,0.6105598211288452,1.913382649421692,1.0658071041107178
1747979072102037200,5.169037353515625,0.6511823534965515,1.0248792171478271,0.9137017130851746
1747979072120298500,5.187298583984375,0.6522513628005981,0.3972151279449463,0.36651915311813354
1747979072138566000,5.20556591796875,0.6496551632881165,0.5946773290634155,0.29825496673583984
1747979072156835000,5.2238349609375,0.6800457239151001,0.7426594495773315,0.8032878041267395
1747979072175098400,5.242098388671875,0.8132143616676331,0.5013676285743713,1.1355985403060913
1747979072193364000,5.260364013671875,0.7895433306694031,-0.06475171446800232,1.0827586650848389
1747979072211628500,5.278628662109375,0.38896843791007996,-0.3927863538265228,1.0626001358032227
1747979072229895000,5.29689501953125,0.0027488935738801956,0.024434609338641167,0.9049968719482422
1747979072248159000,5.315158935546875,0.041233405470848083,0.6278167366981506,0.4014911949634552
1747979072266423800,5.333423828125,0.15073099732398987,0.4105014503002167,0.039706241339445114
1747979072284690400,5.3516904296875,0.15195272862911224,-0.24678955972194672,-0.6325509548187256
1747979072302957800,5.369957763671875,0.16294831037521362,-0.017867809161543846,-1.5456417798995972
1747979072321220400,5.388220458984375,-0.3289509415626526,-0.24144448339939117,-2.063350200653076
1747979072339486200,5.406486328125,-0.9608910083770752,-1.2331842184066772,-2.1647536754608154
1747979072357750300,5.424750244140625,-1.1910345554351807,-2.313957452774048,-2.3408355712890625
1747979072376011800,5.44301171875,-1.2250902652740479,-3.0129401683807373,-2.604729413986206
1747979072394276400,5.4612763671875,-1.0409144163131714,-3.333186149597168,-3.2426254749298096
1747979072412547000,5.479547119140625,-0.6855435371398926,-2.166433572769165,-3.788738965988159
1747979072430811400,5.497811279296875,-0.6940956115722656,0.3773620128631592,-4.226118564605713
1747979072449077200,5.5160771484375,-0.9723447561264038,2.15543794631958,-3.5695910453796387
1747979072467342000,5.534342041015625,-0.7622070908546448,1.2605204582214355,-2.811660051345825
1747979072485607700,5.552607666015625,-0.41661009192466736,0.9656252264976501,-2.590526819229126
1747979072503872300,5.570872314453125,-0.15531249344348907,1.081536889076233,-2.395660877227783
1747979072522138600,5.589138671875,-0.001832595793530345,0.6757696866989136,-1.8144224882125854
1747979072540402000,5.60740185546875,-0.04214970022439957,-0.06994406878948212,-1.0221302509307861
1747979072558669600,5.625669677734375,-0.19074267148971558,-0.8136724829673767,-0.19043724238872528
1747979072586058200,5.653058349609375,-0.5899431109428406,-0.8026769161224365,0.551916778087616
1747979072604330500,5.67133056640625,-0.8851437568664551,-0.31902438402175903,0.5342016816139221
1747979072622597400,5.689597412109375,-1.1362093687057495,-0.3943135142326355,0.3303253948688507
1747979072640861200,5.707861083984375,-1.0151053667068481,-1.2873984575271606,0.33918291330337524
1747979072659126500,5.72612646484375,-0.6994407176971436,-2.021353006362915,0.47571131587028503
1747979072677387800,5.7443876953125,-0.39553526043891907,-2.1007654666900635,0.6624833345413208
1747979072695656200,5.76265625,-0.1765400618314743,-1.415069341659546,1.122464895248413
1747979072713922300,5.78092236328125,0.11056660860776901,-0.23808473348617554,1.6563611030578613
1747979072732187600,5.799187744140625,0.660803496837616,0.8436049222946167,2.1316142082214355
1747979072750452000,5.817451904296875,1.2710578441619873,1.6455183029174805,2.794250249862671
1747979072768719000,5.835718994140625,1.5913039445877075,0.5838344693183899,1.8610010147094727
1747979072786978300,5.853978271484375,0.3205515444278717,-0.4236350357532501,-0.8723155856132507
1747979072805248800,5.872248779296875,-1.034500241279602,0.8083274364471436,-1.4202617406845093
1747979072823513900,5.890513916015625,-1.04289972782135,1.1343767642974854,-0.7709119319915771
1747979072841779000,5.908779052734375,-0.770301103591919,-0.5196936130523682,-0.1569923609495163
1747979072860044000,5.9270439453125,0.3341432809829712,-0.6160575747489929,-0.02687807008624077
1747979072878309400,5.945309326171875,1.2936599254608154,0.42699480056762695,-1.8379408121109009
1747979072896574500,5.963574462890625,-0.15683965384960175,1.4107933044433594,-1.8147279024124146
1747979072914840000,5.981840087890625,-0.9686795473098755,2.705674886703491,-0.637132465839386
1747979072933100300,6.000100341796875,-0.5290092825889587,0.4508185386657715,0.1485929638147354
1747979072951370200,6.018370361328125,0.10644327104091644,0.660192608833313,0.4934264123439789
1747979072969634600,6.036634521484375,1.0465649366378784,1.3119858503341675,0.9257662892341614
1747979072987902000,6.05490185546875,1.9428569078445435,1.584431767463684,0.7971791625022888
1747979073006166300,6.073166259765625,1.9813414812088013,0.9020952582359314,0.6436992287635803
1747979073024430000,6.09143017578125,0.7373143434524536,-0.5832235813140869,0.9955576062202454
1747979073042685700,6.109685791015625,0.04092797264456749,-1.1233811378479004,2.537075996398926
1747979073070094800,6.1370947265625,0.9373727440834045,0.1846340149641037,4.7668867111206055
1747979073088359200,6.155359130859375,1.123533844947815,-0.4415028691291809,3.3967161178588867
1747979073106625500,6.17362548828125,0.6343835592269897,-0.4925101101398468,1.3953689336776733
1747979073124890600,6.191890625,0.005192354787141085,0.3003929853439331,0.6136141419410706
1747979073143151000,6.210151123046875,-0.05803219974040985,0.9497427344322205,0.7206682562828064
1747979073161419300,6.228419189453125,0.23839016258716583,1.074817419052124,1.2124147415161133
1747979073179686700,6.246686767578125,0.5542075037956238,1.088714599609375,1.607797384262085
1747979073197953000,6.264953125,0.7997753024101257,1.117730736732483,1.8280142545700073
1747979073216216600,6.283216552734375,0.8918632864952087,0.8666650652885437,2.0952677726745605
1747979073234481400,6.3014814453125,0.9541715383529663,-0.18631389737129211,2.437505006790161
1747979073252747500,6.31974755859375,1.0636690855026245,-0.9778425693511963,2.0589213371276855
1747979073271008000,6.338008056640625,0.9375254511833191,-0.13439035415649414,1.178359031677246
1747979073289278200,6.3562783203125,0.5491678714752197,0.8342891931533813,0.8080220222473145
1747979073307542500,6.37454248046875,0.18157969415187836,1.147204875946045,0.58062744140625
1747979073325808600,6.39280859375,0.11133018881082535,1.0273226499557495,0.08414668589830399
1747979073344073200,6.4110732421875,0.22876903414726257,1.0746647119522095,-0.17440202832221985
1747979073362338800,6.4293388671875,0.1371392458677292,0.8104654550552368,-0.35582900047302246
1747979073380603400,6.447603271484375,0.05406157299876213,-0.11820242553949356,-0.7336491346359253
1747979073398869500,6.465869384765625,-0.313373863697052,-1.335504174232483,-0.899040937423706
1747979073417127200,6.484127197265625,-0.9503536224365234,-2.0563251972198486,-1.0290025472640991
1747979073435402000,6.502402099609375,-1.3684908151626587,-2.978579044342041,-1.6223053932189941
1747979073453664800,6.520664794921875,-1.1846203804016113,-3.760333776473999,-2.5245532989501953
1747979073471930600,6.5389306640625,-0.6550002694129944,-3.388774871826172,-3.197115898132324
1747979073490190000,6.557190185546875,-0.3223841190338135,-1.751503348350525,-3.7559049129486084
1747979073508459500,6.57545947265625,-0.5865833759307861,0.24007004499435425,-4.123951435089111
1747979073526726400,6.593726318359375,-1.2060006856918335,2.1319196224212646,-3.4932329654693604
1747979073544986600,6.611986572265625,-1.5439618825912476,1.8985692262649536,-2.0415115356445312
1747979073563256000,6.630256103515625,-1.130406141281128,0.7560984492301941,-2.043955087661743
1747979073581521000,6.64852099609375,-0.626747727394104,0.6246097087860107,-2.6091582775115967
1747979073599785700,6.66678564453125,-0.197004035115242,0.327271044254303,-2.4636194705963135
1747979073618053400,6.685053466796875,0.01160643994808197,-0.5319108963012695,-1.7314975261688232
1747979073636317000,6.70331689453125,-0.050243668258190155,-1.6303993463516235,-0.9770789742469788
1747979073654577700,6.72157763671875,-0.3332269787788391,-2.454151153564453,-0.5074763298034668
1747979073672847000,6.73984716796875,-0.7313584089279175,-2.722321033477783,-0.3452915847301483
1747979073691113700,6.75811376953125,-1.1885910034179688,-2.414597511291504,-0.4193589985370636
1747979073709378800,6.77637890625,-1.4494304656982422,-1.465771198272705,-0.38759398460388184
1747979073727642600,6.794642578125,-1.2731958627700806,-0.10674870014190674,-0.5905539989471436
1747979073745901600,6.812901611328125,-0.6824892163276672,-1.0282388925552368,-0.5262604355812073
1747979073764171500,6.831171630859375,-0.14340060949325562,-1.937359094619751,-0.0884227454662323
1747979073782437600,6.849437744140625,0.2626720666885376,-1.2134838104248047,0.23426681756973267
1747979073800705500,6.86770556640625,-0.4008803069591522,-0.023365596309304237,-0.25305092334747314
1747979073818964500,6.885964599609375,-1.426675796508789,1.0016663074493408,-1.1122329235076904
1747979073837235200,6.904235107421875,-0.6337726712226868,-0.1408044397830963,-1.0908526182174683
1747979073855499500,6.92249951171875,-0.11698069423437119,-2.6003005504608154,-0.9372199773788452
1747979073873765600,6.940765625,-0.08200865983963013,-3.6638169288635254,-0.697149932384491
1747979073892029200,6.959029296875,-0.32131510972976685,-2.1335995197296143,-0.14294247329235077
1747979073910296300,6.97729638671875,0.012064588256180286,0.5038111209869385,0.5684100985527039
1747979073928560600,6.995560546875,0.6165157556533813,2.7084238529205322,0.77472984790802
1747979073946826200,7.013826171875,1.6988162994384766,2.1784982681274414,-0.24174992740154266
1747979073965090800,7.0320908203125,4.190841197967529,-3.4655911922454834,-0.5988006591796875
1747979073983357200,7.050357177734375,4.131892681121826,2.2119431495666504,2.3463335037231445
1747979074001611800,7.06861181640625,3.7510180473327637,6.043442726135254,2.9715540409088135
1747979074019886000,7.086885986328125,3.7307066917419434,7.261660575866699,3.3479998111724854
1747979074038148600,7.105148681640625,3.6777141094207764,5.349194049835205,3.8264598846435547
1747979074056416800,7.123416748046875,2.578920364379883,2.5676193237304688,3.717725992202759
1747979074074683400,7.141683349609375,1.358258843421936,0.9758572578430176,2.899930000305176
1747979074092948200,7.1599482421875,0.49098294973373413,-0.09926560521125793,2.9744555950164795
1747979074111212500,7.178212646484375,0.4674646258354187,0.8257371187210083,4.169765949249268
1747979074129479200,7.196479248046875,1.1403326988220215,2.390010356903076,4.792237758636475
1747979074147743000,7.214742919921875,0.251218318939209,3.311195135116577,5.293910980224609
1747979074166005500,7.233005615234375,0.8807149529457092,0.6496551632881165,3.25209379196167
1747979074184269800,7.251269775390625,0.5740606188774109,-1.872912883758545,1.539685845375061
1747979074202539800,7.269539794921875,-0.09972374886274338,-1.074512004852295,0.8542950749397278
1747979074220804000,7.28780419921875,-0.37400224804878235,-0.4815145432949066,-0.0025961773935705423
1747979074239070500,7.306070556640625,-0.7086036801338196,-0.5174028873443604,-0.42989641427993774
1747979074257329400,7.324329345703125,-0.9787588119506836,-0.3484986126422882,0.10216721147298813
1747979074275599600,7.342599609375,-1.0404561758041382,-0.016493361443281174,1.1099421977996826
1747979074293866000,7.360865966796875,-0.7935139536857605,-0.6443101167678833,1.4359915256500244
1747979074312131000,7.379131103515625,-0.3269656300544739,-1.7970128059387207,1.5251778364181519
1747979074330396700,7.397396728515625,-0.26603180170059204,-3.551112413406372,0.20372356474399567
1747979074348660700,7.41566064453125,0.0507018156349659,-3.941302537918091,-1.7285959720611572
1747979074366926300,7.43392626953125,0.7021896243095398,-3.6671767234802246,-2.7171285152435303
1747979074385192000,7.45219189453125,0.9450085163116455,-3.1555771827697754,-2.9805643558502197
1747979074403457500,7.47045751953125,0.8976664543151855,-2.3574817180633545,-3.6355645656585693
1747979074421721600,7.4887216796875,0.5568036437034607,-1.1511754989624023,-4.55873441696167
1747979074439982300,7.506982421875,-0.6688974499702454,-0.009162978269159794,-4.921741485595703
1747979074458253000,7.525253173828125,-3.975358247756958,2.610379934310913,-5.316971302032471
1747979074476517400,7.543517333984375,-5.367520332336426,8.087702751159668,-4.990768909454346
1747979074494783700,7.56178369140625,-3.227048397064209,9.710161209106445,-3.832263231277466
1747979074513043500,7.58004345703125,-4.6998443603515625,0.7634288668632507,-2.6112961769104004
1747979074531313000,7.59831298828125,-5.365687370300293,-2.8287642002105713,-1.545336365699768
1747979074549580000,7.616580078125,-5.072319507598877,-4.0130791664123535,-0.698066234588623
1747979074576962000,7.643962158203125,-2.5671610832214355,-6.152940273284912,0.8698720932006836
1747979074595242800,7.66224267578125,-0.5551238059997559,-7.495163917541504,1.2087496519088745
1747979074613506000,7.680506103515625,1.3435981273651123,-8.091215133666992,1.3176363706588745
1747979074631772000,7.69877197265625,2.5465445518493652,-6.519459247589111,1.4918856620788574
1747979074650036700,7.71703662109375,3.0633363723754883,-3.6612207889556885,1.5418238639831543
1747979074668302300,7.73530224609375,3.0022499561309814,-0.7638869881629944,1.2852604389190674
1747979074686562000,7.75356201171875,2.342210054397583,1.843591332435608,1.025948166847229
1747979074704832800,7.771832763671875,0.8510879874229431,5.437769889831543,0.6786713004112244
1747979074723097900,7.790097900390625,-0.4769330322742462,7.317249298095703,0.8790351152420044
1747979074741363500,7.808363525390625,-0.7918340563774109,6.25800895690918,1.6756033897399902
1747979074759627000,7.826626953125,-0.5665774941444397,5.2528300285339355,2.110081195831299
1747979074777895000,7.84489501953125,-0.6177374720573425,4.7056474685668945,2.3794727325439453
1747979074796158700,7.86315869140625,0.156686931848526,-3.425884962081909,3.224452257156372
1747979074814418200,7.881418212890625,-0.6982190012931824,-14.453224182128906,-0.35705074667930603
1747979074832689400,7.899689453125,-0.7502952218055725,-11.372936248779297,-2.7233898639678955
1747979074850956300,7.917956298828125,0.5300782918930054,-1.472796082496643,-3.023019313812256
1747979074869220000,7.93622021484375,3.3625078201293945,7.112151145935059,-1.7136297225952148
1747979074887485000,7.95448486328125,5.899278163909912,9.67686939239502,-0.6346889734268188
1747979074905750800,7.972750732421875,7.227757453918457,9.317222595214844,-0.2967278063297272
1747979074924011500,7.991011474609375,7.112151145935059,5.7942094802856445,1.7150042057037354
1747979074942281000,8.009281005859375,5.8581976890563965,3.9238929748535156,3.0187432765960693
1747979074960546000,8.027546142578124,3.142901659011841,1.2692252397537231,4.313624858856201
1747979074978811400,8.045811279296874,-0.5757405161857605,-2.727360486984253,5.479156017303467
1747979074997076500,8.064076416015626,-0.025045474991202354,-4.3672285079956055,5.475490570068359
1747979075015341600,8.082341552734375,2.941926956176758,6.421415328979492,9.826836585998535
1747979075033607000,8.10060693359375,3.631441116333008,14.449406623840332,5.9698333740234375
1747979075051872300,8.118872314453125,0.915534257888794,2.9911017417907715,-3.8734965324401855
1747979075070132700,8.1371328125,-0.4834998548030853,-2.6539039611816406,-0.6594290137290955
1747979075088401200,8.155401123046875,-0.43707409501075745,-4.393342971801758,1.6548339128494263
1747979075106669300,8.17366943359375,-0.6884451508522034,-5.94555139541626,1.1276572942733765
1747979075124933000,8.19193310546875,-0.9466884136199951,-5.5904860496521,-0.05910121276974678
1747979075143198500,8.210198486328125,-1.0664180517196655,-3.997807502746582,-0.8773552179336548
1747979075161463800,8.2284638671875,-1.0416779518127441,-2.3490822315216064,-1.0021244287490845
1747979075179727600,8.2467275390625,-0.9975429177284241,-1.270447015762329,-1.425148606300354
1747979075197990100,8.264990234375,-1.0396926403045654,-0.5103778839111328,-1.9214766025543213
1747979075216259300,8.28325927734375,-1.112691044807434,0.040164388716220856,-2.4999659061431885
1747979075239080200,8.306080078125,-1.1601858139038086,0.15332718193531036,-3.2808046340942383
1747979075257350700,8.3243505859375,-1.4413365125656128,-0.059406645596027374,-3.6393823623657227
1747979075275625200,8.342625244140624,-1.9607247114181519,-0.6615670323371887,-4.138459205627441
1747979075293887200,8.36088720703125,-2.2438607215881348,-1.3472633361816406,-4.813007354736328
1747979075312153000,8.379153076171875,-3.782477617263794,0.39767327904701233,-7.045567035675049
1747979075330404600,8.397404541015625,-5.307807922363281,10.35492992401123,-4.395480632781982
1747979075348680000,8.415679931640625,-5.8413987159729,6.6394944190979,0.5059491395950317
1747979075366934300,8.433934326171874,-5.2410712242126465,-0.579405665397644,-1.0826059579849243
1747979075385215000,8.452215087890625,-3.86112642288208,-7.060075283050537,-1.260367751121521
1747979075403478800,8.470478759765625,-2.394744396209717,-9.64067554473877,-0.8823948502540588
1747979075421744400,8.488744384765624,-0.4612032473087311,-9.383195877075195,-0.33246341347694397
1747979075440005000,8.507005126953125,1.1163562536239624,-7.399410724639893,0.5517640113830566
1747979075458274800,8.52527490234375,1.9023871421813965,-4.474740505218506,1.1485793590545654
1747979075476540000,8.543539794921875,2.4920246601104736,-1.18660569190979,1.5065463781356812
1747979075494805000,8.561804931640625,2.9236011505126953,2.2116377353668213,1.2388347387313843
1747979075513070000,8.580070068359374,2.5132522583007812,5.6126298904418945,0.8629998564720154
1747979075531335700,8.598335693359376,1.350928544998169,8.796459197998047,0.8736900091171265
1747979075549599700,8.616599853515625,0.19043724238872528,8.981245994567871,1.581682801246643
1747979075567867400,8.634867431640625,-0.8613200187683105,1.9314031600952148,5.818033218383789
1747979075586124000,8.6531240234375,-1.6297885179519653,-2.5645649433135986,7.991644382476807
1747979075604392700,8.671392822265625,-1.4653129577636719,-1.7996090650558472,6.089410305023193
1747979075622659600,8.68965966796875,-0.8741481900215149,-4.581336498260498,3.428481101989746
1747979075640928300,8.70792822265625,-0.5528330206871033,-11.65439224243164,-0.6328563690185547
1747979075659192300,8.7261923828125,0.7606799602508545,-16.468469619750977,-6.520528316497803
1747979075677458700,8.744458740234375,5.3081135749816895,-0.7489207983016968,-2.3070852756500244
1747979075695721700,8.7627216796875,6.801373481750488,10.054994583129883,2.233170509338379
1747979075713983200,8.780983154296875,5.051092147827148,12.918578147888184,-0.6940956115722656
1747979075732253200,8.799253173828125,3.9541306495666504,10.885160446166992,-1.8988746404647827
1747979075750518300,8.817518310546875,3.3799173831939697,5.795889377593994,-0.5293147563934326
1747979075768784000,8.835783935546875,2.6225972175598145,-1.9675970077514648,3.7400224208831787
1747979075787045600,8.854045654296876,1.156978726387024,-5.741064071655273,5.646533012390137
1747979075805314000,8.87231396484375,1.3139711618423462,-5.337129592895508,5.198157787322998
1747979075823579400,8.890579345703125,1.0134254693984985,1.3379476070404053,8.039292335510254
1747979075841844500,8.908844482421875,-0.018325956538319588,12.019843101501465,11.522445678710938
1747979075860109800,8.92710986328125,-0.2474004179239273,12.497997283935547,0.6589708924293518
1747979075878374000,8.945373779296874,-0.48609602451324463,0.27000242471694946,-3.3910655975341797
1747979075896641500,8.9636416015625,-0.5093088746070862,-2.554027557373047,0.9237809777259827
1747979075914905600,8.981905517578125,-0.3168863356113434,-3.397479772567749,2.7117836475372314
1747979075933170700,9.000170654296875,-0.9857838153839111,-3.880521535873413,2.275014877319336
1747979075951430100,9.01843017578125,-1.3996449708938599,-3.0468430519104004,1.0908526182174683
1747979075969701400,9.036701416015624,-1.421025276184082,-2.0370829105377197,0.6580545902252197
1747979075987965000,9.05496484375,-1.3501648902893066,-1.0476338863372803,0.585667073726654
1747979076006231800,9.073231689453126,-1.1843149662017822,-1.1554516553878784,-2.1113030910491943
1747979076024497000,9.091496826171875,-0.9271407127380371,-1.1301007270812988,-3.47292160987854
1747979076042762000,9.109761962890625,-0.6604980230331421,-1.5364787578582764,-3.539658546447754
1747979076061027800,9.12802783203125,-0.7136433124542236,-2.230116367340088,-3.3854150772094727
1747979076079292700,9.146292724609374,-0.9779952764511108,-2.596177339553833,-3.400686740875244
1747979076097557800,9.164557861328126,-1.3629931211471558,-2.992323398590088,-4.256051063537598
1747979076115823000,9.182822998046875,-3.690237045288086,-1.5086843967437744,-7.203017711639404
1747979076134088200,9.201088134765625,-5.221828937530518,5.721974849700928,-5.789475440979004
1747979076152353500,9.219353515625,-2.6589436531066895,6.277709484100342,-2.529287576675415
1747979076170619000,9.237618896484374,-4.366922855377197,2.8626673221588135,-1.2147055864334106
1747979076188882200,9.255882080078125,-5.208084583282471,-0.5404630303382874,-1.5627460479736328
1747979076207146000,9.27414599609375,-4.163199424743652,-4.717406749725342,-1.164156436920166
1747979076225413400,9.292413330078125,-2.4640777111053467,-6.8409271240234375,-0.20876319706439972
1747979076243681000,9.310680908203125,-0.27977627515792847,-7.4157514572143555,0.8973610401153564
1747979076262058200,9.329058349609374,1.718363881111145,-7.295563697814941,1.6725490093231201
1747979076280213800,9.3472138671875,2.948493719100952,-5.326439380645752,1.763109803199768
1747979076298475300,9.365475341796875,3.5213327407836914,-2.4752259254455566,1.3868168592453003
1747979076316741600,9.38374169921875,3.5828773975372314,0.038637228310108185,0.8813258409500122
1747979076335001600,9.402001708984375,3.145956039428711,2.7178921699523926,0.11148291081190109
1747979076353272000,9.42027197265625,2.213470220565796,6.512587070465088,0.0933096632361412
1747979076371536000,9.438535888671876,1.8411478996276855,8.00798511505127,1.3200798034667969
1747979076389801200,9.45680126953125,2.2629501819610596,7.886117458343506,2.264477491378784
1747979076408049700,9.475049560546875,1.3348932266235352,7.695680141448975,2.6867380142211914
1747979076426333000,9.4933330078125,0.38576140999794006,3.3396003246307373,5.314680576324463
1747979076444591000,9.511591064453125,0.5120577812194824,-1.6004669666290283,5.8275017738342285
1747979076462858500,9.5298583984375,-0.8013024926185608,-11.736248970031738,2.009899377822876
1747979076481126100,9.548126220703125,-1.6278032064437866,-15.569886207580566,-2.2618813514709473
1747979076499395600,9.5663955078125,-0.7092145681381226,-9.95175838470459,-4.5547637939453125
1747979076517657000,9.584656982421874,1.7812830209732056,1.1157454252243042,-4.906774997711182
1747979076535924500,9.602924560546874,4.606840133666992,8.544172286987305,-2.263713836669922
1747979076554183400,9.621183349609375,8.167421340942383,8.367937088012695,1.3461942672729492
1747979076581583400,9.648583251953125,7.123299598693848,4.872261047363281,2.7571403980255127
1747979076599854000,9.66685400390625,4.456872940063477,4.240626335144043,2.406503677368164
1747979076618116600,9.68511669921875,0.7887797355651855,2.066098928451538,3.807217597961426
1747979076636383000,9.703383056640625,-2.38741397857666,-0.8011497855186462,5.237864017486572
1747979076654644000,9.72164404296875,0.15256360173225403,-1.8779524564743042,5.689293384552002
1747979076672915000,9.7399150390625,2.467132091522217,8.167421340942383,9.56859302520752
1747979076691174700,9.758174560546875,2.7087292671203613,15.163966178894043,4.972290515899658
1747979076709445600,9.776445556640626,0.5012149214744568,2.9891164302825928,-4.701982498168945
1747979076727706000,9.7947060546875,-0.4908302128314972,-1.0758863687515259,-1.7458528280258179
1747979076745971200,9.81297119140625,-0.16859880089759827,-1.8820757865905762,0.85994553565979
1747979076764233500,9.8312333984375,-0.5988006591796875,-3.6942076683044434,1.180649757385254
1747979076782502100,9.849502197265625,-0.9648616313934326,-3.919769525527954,0.6982190012931824
1747979076800771600,9.867771484375,-0.9998337030410767,-2.4856107234954834,0.5038111209869385
1747979076819034400,9.886034423828125,-0.7689266204833984,-1.3513866662979126,0.4239404797554016
1747979076837299200,9.90429931640625,-0.4954117238521576,-0.6882924437522888,-0.718224823474884
1747979076855565800,9.92256591796875,-0.2968805134296417,-0.1365283876657486,-2.646420955657959
1747979076873830000,9.940829833984376,-0.23365595936775208,-0.5357288122177124,-3.160769462585449
1747979076892094700,9.9590947265625,-0.2922990322113037,-1.3910928964614868,-3.1117475032806396
1747979076910360000,9.977360107421875,-0.5722280144691467,-2.5312728881835938,-3.106555223464966
1747979076928626700,9.995626708984375,-0.8216137290000916,-4.600884437561035,-3.450472354888916
1747979076946891800,10.013891845703125,-1.2844969034194946,-6.804275035858154,-4.0495781898498535
1747979076965157000,10.0321572265625,-3.2429308891296387,-0.8222246170043945,-8.048455238342285
1747979076983416000,10.050416015625,-2.208277940750122,14.295620918273926,-6.509074687957764
1747979077001688600,10.0686884765625,-1.8532124757766724,9.081733703613281,2.3049473762512207
1747979077019946800,10.08694677734375,-4.076761722564697,2.13008713722229,0.9101892113685608
1747979077038216700,10.105216796875,-5.022992134094238,-3.0885345935821533,-1.46424400806427
1747979077056481800,10.123481689453126,-4.158617973327637,-7.196298122406006,-1.6165021657943726
1747979077074748400,10.14174853515625,-2.800359010696411,-9.34715461730957,-0.9813550114631653
1747979077093008100,10.160008056640624,-1.2988522052764893,-10.146471977233887,-0.39125919342041016
1747979077111277600,10.178277587890625,-0.11178833991289139,-9.088605880737305,-0.07880161702632904
1747979077129543000,10.19654296875,0.6372851729393005,-7.037625789642334,0.17776179313659668
1747979077147809300,10.214809326171874,1.312138557434082,-3.7639989852905273,0.3367394804954529
1747979077166073300,10.2330732421875,1.9072740077972412,1.5998560190200806,0.9254608750343323
1747979077184338200,10.251338134765625,2.160325050354004,8.641910552978516,1.935831904411316
1747979077202603800,10.269603759765625,2.1536054611206055,10.598206520080566,1.8810068368911743
1747979077220870100,10.2878701171875,0.6792821288108826,9.002626419067383,1.3468050956726074
1747979077239134200,10.30613427734375,-1.4237741231918335,1.6227635145187378,6.202420234680176
1747979077257399600,10.324399658203125,-2.0338759422302246,-0.5027421116828918,8.296160697937012
1747979077275659800,10.34265966796875,-2.0899226665496826,-1.4720325469970703,6.986465930938721
1747979077293929500,10.360929443359375,-2.057088613510132,-9.681756019592285,2.066251754760742
1747979077312196400,10.3791962890625,-1.6201673746109009,-11.868805885314941,-1.5241087675094604
1747979077330461200,10.397461181640624,-0.04963280260562897,-7.587862491607666,-3.6030359268188477
1747979077348724700,10.415724853515625,2.6555838584899902,1.8958202600479126,-4.316832065582275
1747979077366987000,10.433987060546874,7.237531661987305,-2.063044548034668,-2.0648772716522217
1747979077385256200,10.452256103515625,10.042319297790527,2.2038490772247314,0.38576140999794006
1747979077403521300,10.470521240234374,8.685587882995605,6.312070369720459,-0.4499022662639618
1747979077421786600,10.48878662109375,5.280930042266846,7.512726306915283,0.3556762933731079
1747979077440052700,10.507052734375,1.782657504081726,7.286858558654785,3.829819679260254
1747979077458316800,10.52531689453125,-2.6765060424804688,4.982980728149414,8.600982666015625
1747979077476582100,10.54358203125,-1.28128981590271,2.207667112350464,8.435285568237305
1747979077494847200,10.56184716796875,2.5335636138916016,-0.7889324426651001,6.282596111297607
1747979077513113600,10.580113525390624,3.0839531421661377,9.473298072814941,8.082510948181152
1747979077531378400,10.59837841796875,2.4718661308288574,13.086871147155762,-0.39538252353668213
1747979077549641700,10.616641845703125,0.08720101416110992,-0.8139779567718506,-3.1132748126983643
1747979077567909600,10.63490966796875,0.05971207842230797,-3.769038677215576,0.7038694620132446
1747979077586159600,10.65315966796875,-0.018478672951459885,-4.831485748291016,2.2992968559265137
1747979077604437800,10.671437744140626,-0.6748533844947815,-5.930279731750488,1.5801557302474976
1747979077622705200,10.689705078125,-1.0254900455474854,-5.498550891876221,0.46150869131088257
1747979077640964900,10.70796484375,-1.0299187898635864,-3.391371011734009,-0.23900102078914642
1747979077659235300,10.7262353515625,-0.7724391222000122,-0.9857838153839111,-0.8289441466331482
1747979077677499600,10.744499755859374,-0.7370089292526245,0.7797694802284241,-1.8020524978637695
1747979077695764500,10.762764404296876,-0.7405213713645935,1.8081611394882202,-2.736218214035034
1747979077714026000,10.78102587890625,-0.5925393104553223,1.5120441913604736,-3.3487632274627686
1747979077732296200,10.799296142578125,-0.3949243724346161,0.21471913158893585,-3.9151880741119385
1747979077750560500,10.817560546875,-0.609338104724884,-1.2096658945083618,-4.019340515136719
1747979077768825600,10.83582568359375,-1.0816895961761475,-2.941774368286133,-4.20198917388916
1747979077787085800,10.8540859375,-1.4604260921478271,-4.180303573608398,-4.815756320953369
1747979077805356000,10.87235595703125,-4.059352397918701,-0.3674354553222656,-8.284401893615723
1747979077823622400,10.890622314453125,-5.957005023956299,8.912981986999512,-2.4741568565368652
1747979077841884700,10.908884765625,-4.542699337005615,7.658875942230225,0.1290452778339386
1747979077860153900,10.92715380859375,-4.380972862243652,2.654973030090332,-0.6360634565353394
1747979077878416600,10.945416748046876,-3.238196611404419,-3.2835533618927,-0.6586654782295227
1747979077896683300,10.963683349609376,-2.09694766998291,-7.645589351654053,-0.6159048676490784
1747979077914948000,10.981947998046875,-0.9894489645957947,-8.67352294921875,-0.43967026472091675
1747979077933212400,11.00021240234375,0.375071257352829,-8.654128074645996,0.2054034322500229
1747979077951479000,11.01847900390625,1.0458012819290161,-7.1115403175354,0.5778785347938538
1747979077969742300,11.036742431640626,1.481042742729187,-4.805218696594238,0.7730499505996704
1747979077988005400,11.05500537109375,1.6811012029647827,-2.4295637607574463,0.8229882121086121
1747979078006273800,11.073273681640625,1.857793927192688,1.9908097982406616,1.04289972782135
1747979078024526800,11.09152685546875,1.4504995346069336,8.69780445098877,1.9251418113708496
1747979078042804000,11.109803955078124,1.0340421199798584,10.911886215209961,2.5830435752868652
1747979078061056800,11.128056884765625,1.1378892660140991,10.139293670654297,2.8014280796051025
1747979078079334400,11.14633447265625,1.4763085842132568,9.082802772521973,3.487277030944824
1747979078097600800,11.164600830078125,0.8723155856132507,0.6382014751434326,7.677354335784912
1747979078115864800,11.18286474609375,-0.3637702465057373,-9.2866792678833,6.337116241455078
1747979078134125000,11.201125,-1.6322319507598877,-15.457487106323242,1.9992092847824097
1747979078152396000,11.21939599609375,-1.6557502746582031,-14.474604606628418,-1.599703311920166
1747979078170660600,11.23766064453125,-0.20754146575927734,-6.896210670471191,-5.09476900100708
1747979078188925400,11.255925537109375,2.696969985961914,1.7327193021774292,-6.242432117462158
1747979078207191000,11.27419091796875,6.430883884429932,0.3142901659011841,-0.266184538602829
1747979078225458000,11.2924580078125,8.691084861755371,4.642881393432617,1.6284140348434448
1747979078243720400,11.310720458984376,6.703024387359619,6.315583229064941,1.4085025787353516
1747979078261981700,11.328981689453125,3.8959457874298096,6.937901973724365,1.4454598426818848
1747979078280251600,11.347251708984375,0.9793696999549866,6.8858256340026855,4.5601091384887695
1747979078298512400,11.365512451171876,-2.107790470123291,4.37547492980957,6.534578323364258
1747979078316782000,11.383781982421874,-0.6183483600616455,0.3010038435459137,5.547878265380859
1747979078335048400,11.40204833984375,2.7568347454071045,3.8566977977752686,7.676285266876221
1747979078353312500,11.4203125,3.822183847427368,15.047138214111328,5.038416385650635
1747979078371577600,11.43857763671875,0.7745771408081055,0.6580545902252197,-3.453679323196411
1747979078389839400,11.45683935546875,-0.4210388660430908,-2.6720774173736572,-0.808174729347229
1747979078408108500,11.475108642578125,-0.2790127098560333,-2.6193902492523193,1.6468926668167114
1747979078426373400,11.493373291015626,-0.6835582256317139,-3.5967745780944824,1.873218297958374
1747979078444638700,11.511638671875,-0.9321803450584412,-3.8901426792144775,1.4515684843063354
1747979078462905300,11.5299052734375,-0.8976664543151855,-2.724306344985962,1.2154691219329834
1747979078481169200,11.548169189453125,-0.9327912330627441,-1.6227635145187378,0.5493205785751343
1747979078499433000,11.566432861328124,-1.006400465965271,-1.0852020978927612,-1.5712981224060059
1747979078517700400,11.584700439453124,-1.0239628553390503,-0.864679753780365,-2.60992169380188
1747979078535964200,11.602964111328125,-0.9899071455001831,-0.9950994849205017,-2.766914129257202
1747979078554225200,11.62122509765625,-0.8707883954048157,-1.588555097579956,-2.6390905380249023
1747979078572495000,11.6394951171875,-0.9198103547096252,-2.219731569290161,-2.5224153995513916
1747979078595487200,11.6624873046875,-1.311833143234253,-3.04852294921875,-2.6398541927337646
1747979078609018000,11.67601806640625,-1.4928019046783447,-3.7844629287719727,-3.0885345935821533
1747979078627293400,11.69429345703125,-2.5697574615478516,-3.573409080505371,-5.90935754776001
1747979078645551400,11.71255126953125,-5.8914899826049805,4.14319372177124,-9.936487197875977
1747979078663820300,11.7308203125,-3.724292755126953,10.361802101135254,-0.45875978469848633
1747979078682086100,11.749086181640624,-4.975497245788574,3.157257080078125,-0.9402743577957153
1747979078695785200,11.76278515625,-4.3398919105529785,-1.447292447090149,-1.0555751323699951
1747979078718617000,11.7856171875,-3.4468071460723877,-6.849020957946777,-0.3599523603916168
1747979078736882200,11.803882080078125,-2.2035436630249023,-8.901986122131348,0.389426589012146
1747979078750581500,11.81758154296875,-0.7776314616203308,-8.512407302856445,0.8849910497665405
1747979078764277000,11.831277099609375,0.6009386777877808,-7.935750484466553,1.3222178220748901
1747979078782545000,11.849544921875,1.7606663703918457,-6.512434482574463,1.4978415966033936
1747979078800810500,11.867810546875,2.3014347553253174,-3.8875463008880615,1.2189816236495972
1747979078819075300,11.886075439453125,2.74079966545105,-0.979216992855072,0.6637051105499268
1747979078837341000,11.9043408203125,2.9568932056427,3.5248451232910156,0.2727513313293457
1747979078855606000,11.92260595703125,2.529134750366211,6.347805976867676,0.878576934337616
1747979078878436400,11.945436279296874,2.391842842102051,9.027671813964844,2.609769105911255
1747979078892136200,11.95913623046875,2.8403706550598145,8.963072776794434,3.084563970565796
1747979078910400500,11.977400390625,2.9292516708374023,8.483085632324219,3.501021385192871
1747979078928668000,11.99566796875,0.4158465266227722,2.4081835746765137,6.744104862213135
1747979078946931700,12.013931640625,-0.23915374279022217,-6.121786117553711,6.096893310546875
1747979078965197300,12.032197265625,-1.2661709785461426,-15.008806228637695,1.3909401893615723
1747979078983462400,12.05046240234375,-1.0975720882415771,-15.840805053710938,-2.3318252563476562
1747979079001728000,12.06872802734375,0.2545780837535858,-7.2399749755859375,-4.2644500732421875
1747979079019988200,12.08698828125,3.1874947547912598,2.987436532974243,-4.0132317543029785
1747979079038258200,12.105258056640626,6.118426322937012,6.528927803039551,-1.1910345554351807
1747979079056523500,12.1235234375,8.256913185119629,7.974998474121094,0.935081958770752
1747979079074788600,12.14178857421875,6.7625837326049805,6.5339674949646,3.1731395721435547
1747979079093053400,12.160053466796874,3.740327835083008,5.875607490539551,2.6256515979766846
1747979079111319000,12.178319091796874,0.2678644061088562,2.4214699268341064,4.119675159454346
1747979079129583000,12.1965830078125,-2.8706085681915283,-1.5586227178573608,5.703495979309082
1747979079147850200,12.214850341796875,0.11545353382825851,-2.9135217666625977,5.720753192901611
1747979079166114800,12.23311474609375,2.2212586402893066,9.976651191711426,10.372034072875977
1747979079184386000,12.251385986328126,2.27211332321167,14.376866340637207,2.3275492191314697
1747979079202640100,12.26964013671875,0.16310101747512817,0.48487427830696106,-4.0547709465026855
1747979079220909000,12.287908935546875,-0.90728759765625,-2.7623326778411865,-0.13988813757896423
1747979079239176700,12.3061767578125,-0.9166033267974854,-3.1500792503356934,2.102292776107788
1747979079257440000,12.32443994140625,-1.3258830308914185,-4.093408107757568,1.873218297958374
1747979079275707000,12.342706787109375,-1.7018705606460571,-3.2256739139556885,0.8321511745452881
1747979079293966300,12.36096630859375,-1.7263051271438599,-0.6067419052124023,0.7104362845420837
1747979079312236300,12.379236328125,-1.5485434532165527,-0.012064588256180286,0.6230825781822205
1747979079330501600,12.397501708984375,-1.4202617406845093,-1.4147639274597168,-1.0407617092132568
1747979079344195800,12.41119580078125,-1.2333369255065918,-2.1642956733703613,-2.300060272216797
1747979079357900300,12.424900390625,-1.1210904121398926,-1.9175059795379639,-2.7178921699523926
1747979079376164600,12.44316455078125,-0.8790351152420044,-1.7734944820404053,-2.7452285289764404
1747979079394428700,12.4614287109375,-0.7449501752853394,-1.9254472255706787,-2.7030787467956543
1747979079412697000,12.479697021484375,-1.0102183818817139,-2.166586399078369,-2.7006351947784424
1747979079430963500,12.49796337890625,-1.1362093687057495,-2.906191349029541,-2.9767463207244873
1747979079449225200,12.51622509765625,-1.7143932580947876,-3.7531561851501465,-3.743076801300049
1747979079467490600,12.534490478515625,-4.245055198669434,2.6623034477233887,-8.7063570022583
1747979079485757000,12.5527568359375,-3.2595770359039307,12.957367897033691,-3.444974660873413
1747979079504017000,12.571016845703125,-5.003749847412109,7.420332908630371,0.2877175211906433
1747979079522286000,12.5892861328125,-4.6911396980285645,-0.931569516658783,-0.1765400618314743
1747979079540551400,12.607551513671876,-3.8954877853393555,-5.378668308258057,-0.4535674452781677
1747979079558817800,12.62581787109375,-2.668870210647583,-6.782589435577393,-0.24236078560352325
1747979079572515300,12.639515380859375,-1.4772248268127441,-6.973790168762207,-0.04917465150356293
1747979079586220300,12.65322021484375,-0.20525072515010834,-7.3488616943359375,0.18157969415187836
1747979079604479700,12.671479736328125,1.3196216821670532,-7.646047592163086,0.38698312640190125
1747979079622730500,12.68973046875,2.356107234954834,-6.148053169250488,0.5396994352340698
1747979079641001000,12.7080009765625,2.959183931350708,-3.6222782135009766,0.5577199459075928
1747979079659275500,12.726275634765624,3.1111366748809814,-1.5480852127075195,0.4879286289215088
1747979079677533700,12.74453369140625,2.524247884750366,0.4138612151145935,0.5865833759307861
1747979079691229200,12.758229248046876,2.021047592163086,2.5170702934265137,1.2641856670379639
1747979079709503500,12.77650341796875,1.310916781425476,5.971360683441162,1.8002198934555054
1747979079723201000,12.790200927734375,1.1296426057815552,6.8045806884765625,2.4527766704559326
1747979079741471000,12.808470947265626,0.7625125646591187,6.723793983459473,3.017521619796753
1747979079759727900,12.826727783203125,-1.1632401943206787,5.0542988777160645,3.924503803253174
1747979079777997000,12.8449970703125,-0.5673410892486572,-2.2321016788482666,5.680741310119629
1747979079796269300,12.863269287109375,-1.2153164148330688,-15.430150985717773,0.3156646192073822
1747979079809965000,12.876965087890625,-1.2793045043945312,-16.10133934020996,-2.903595209121704
1747979079823661000,12.8906611328125,-0.6733261942863464,-9.671524047851562,-4.366464614868164
1747979079841923800,12.908923828125,0.7889324426651001,1.605048418045044,-2.4695754051208496
1747979079860195800,12.92719580078125,3.4052681922912598,8.224079132080078,0.008857546374201775
1747979079878458600,12.945458740234375,5.843536853790283,10.674259185791016,0.1235474944114685
1747979079896722000,12.963721923828125,6.763957977294922,9.840733528137207,-0.15851953625679016
1747979079914983400,12.9819833984375,7.219511032104492,7.399868965148926,0.95462965965271
1747979079933253600,13.000253662109374,4.477489471435547,0.9288206100463867,4.426634788513184
1747979079951518700,13.018518798828126,0.0507018156349659,-4.929835319519043,6.135988712310791
1747979079969782300,13.0367822265625,-0.35582900047302246,-6.195853233337402,6.670801162719727
1747979079988049000,13.055048828125,2.7953193187713623,9.464287757873535,11.264508247375488
1747979080006315300,13.073315185546875,0.7759515643119812,11.284513473510742,0.12721268832683563
1747979080024579300,13.091579345703124,-0.19349156320095062,-0.15164729952812195,-3.1279354095458984
1747979080042844700,13.1098447265625,-0.1336267739534378,-2.6902506351470947,0.42210787534713745
1747979080061105000,13.12810498046875,-0.46868637204170227,-3.2621731758117676,2.0648772716522217
1747979080079374800,13.146374755859375,-1.112385630607605,-3.8710529804229736,1.5166256427764893
1747979080093073700,13.16007373046875,-1.337336778640747,-3.5941784381866455,0.8197811841964722
1747979080111337200,13.178337158203124,-1.4451544284820557,-1.793653130531311,0.43218716979026794
1747979080129602000,13.19660205078125,-1.3868168592453003,-0.19165897369384766,0.36453384160995483
1747979080147869200,13.214869140625,-1.22279953956604,-0.1598939746618271,0.29107728600502014
1747979080166133800,13.2331337890625,-1.0925325155258179,-1.3423763513565063,-1.5195273160934448
1747979080184398000,13.251398193359375,-0.8691084980964661,-1.8289304971694946,-2.61603045463562
1747979080202664400,13.26966455078125,-0.5844452977180481,-2.1395554542541504,-2.5973989963531494
1747979080220930600,13.2879306640625,-0.4101960062980652,-2.590221405029297,-2.3182334899902344
1747979080239192800,13.30619287109375,-0.7541131377220154,-2.763554334640503,-2.3238840103149414
1747979080257460000,13.3244599609375,-0.9757044911384583,-3.5275940895080566,-2.869844913482666
1747979080275724500,13.342724609375,-0.6055201888084412,-3.6642751693725586,-3.824474573135376
1747979080293985000,13.360985107421875,-1.0671815872192383,2.3553435802459717,-7.924754619598389
1747979080312255200,13.379255126953124,-0.5094616413116455,15.761850357055664,-4.6271514892578125
1747979080330520600,13.3975205078125,-2.8438830375671387,8.433605194091797,2.5722007751464844
1747979080348785400,13.415785400390625,-5.709452152252197,-0.6140722632408142,-0.1241583600640297
1747979080367051000,13.434051025390625,-4.943885326385498,-5.991213798522949,-1.5528194904327393
1747979080385316000,13.452316162109375,-3.478724956512451,-8.364424705505371,-1.252121090888977
1747979080403581200,13.470581298828124,-2.0170769691467285,-9.643118858337402,-0.7221954464912415
1747979080421846500,13.488846435546876,-0.4537201523780823,-10.278571128845215,-0.3539963960647583
1747979080440111600,13.507111572265625,0.8787296414375305,-8.286233901977539,-0.14492778480052948
1747979080458377200,13.525377197265625,1.5935946702957153,-4.687321662902832,0.20555615425109863
1747979080476642000,13.54364208984375,1.7116444110870361,-0.4583016633987427,0.5572618246078491
1747979080494907400,13.561907470703124,1.7217236757278442,6.2157063484191895,0.8775079250335693
1747979080513172700,13.5801728515625,1.602146863937378,10.127077102661133,1.5079208612442017
1747979080531436500,13.5984365234375,1.7805194854736328,9.410837173461914,2.529287576675415
1747979080549698300,13.6166982421875,0.36789360642433167,5.59659481048584,4.973512172698975
1747979080567963400,13.63496337890625,-1.5402966737747192,-1.2930489778518677,8.976970672607422
1747979080586225000,13.653224853515624,-1.898416519165039,-8.43956184387207,5.879119873046875
1747979080604498700,13.671498779296876,-1.536784291267395,-13.812731742858887,0.6663012504577637
1747979080622764000,13.689763916015625,-0.6342308521270752,-9.531330108642578,-2.0050125122070312
1747979080641029000,13.708029052734375,0.967915952205658,-1.274570345878601,-4.680449485778809
1747979080659294200,13.726294189453125,3.4052681922912598,7.451181411743164,-5.286886215209961
1747979080677559600,13.7445595703125,6.00847053527832,3.807065010070801,-2.3632848262786865
1747979080695824600,13.76282470703125,6.718601226806641,4.189772129058838,-1.2134838104248047
1747979080714089700,13.78108984375,6.1850104331970215,4.971374034881592,-0.5151121020317078
1747979080732355000,13.79935498046875,5.572465419769287,4.298658847808838,1.4347697496414185
1747979080750616600,13.817616455078126,3.891669750213623,1.0138835906982422,5.27802848815918
1747979080768888800,13.835888916015625,1.0661125183105469,-1.4943290948867798,6.909038543701172
1747979080787150300,13.854150390625,0.44852781295776367,-2.216066360473633,5.968611717224121
1747979080805410000,13.87241015625,0.6722571849822998,0.7162395119667053,6.981273651123047
1747979080823681300,13.890681396484375,1.7915149927139282,15.581951141357422,10.874164581298828
1747979080841944800,13.90894482421875,0.14294247329235077,9.41572380065918,-1.3466523885726929
1747979080860214800,13.92721484375,-0.23075434565544128,-2.2605068683624268,-1.9778289794921875
1747979080878476500,13.9454765625,0.13087788224220276,-3.8397462368011475,1.079246163368225
1747979080896742100,13.9637421875,-0.2762638032436371,-3.531259298324585,1.9931005239486694
1747979080915003100,13.982003173828126,-0.9947940707206726,-3.3707544803619385,1.1255191564559937
1747979080933272300,14.000272216796875,-1.3223705291748047,-2.3692407608032227,0.3084869384765625
1747979080951537400,14.018537353515624,-1.3223705291748047,-0.49327367544174194,0.2900082767009735
1747979080969802000,14.036802001953125,-1.160033106803894,-0.010690141469240189,0.08109235763549805
1747979080988069000,14.055069091796875,-0.9628763198852539,-0.6125451326370239,-2.146427869796753
1747979081006329000,14.0733291015625,-0.8003861904144287,-0.9198103547096252,-2.805245876312256
1747979081024598500,14.0915986328125,-0.6711881756782532,-1.3868168592453003,-2.5810582637786865
1747979081042863400,14.10986328125,-0.5424483418464661,-2.0065395832061768,-2.4801127910614014
1747979081061124000,14.1281240234375,-0.5699372887611389,-2.468353748321533,-2.6424503326416016
1747979081079336700,14.146336669921874,-0.8003861904144287,-2.7156014442443848,-2.861445426940918
1747979081097649000,14.16464892578125,-1.1093312501907349,-2.9604055881500244,-3.592651128768921
1747979081115920100,14.182920166015625,-2.705064058303833,-1.192256212234497,-5.818185806274414
1747979081134187000,14.20118701171875,-4.248720645904541,8.339838027954102,-7.412544250488281
1747979081152457500,14.21945751953125,-2.4019222259521484,9.642660140991211,0.03894266113638878
1747979081170719700,14.2377197265625,-4.794070243835449,3.040276288986206,0.35384368896484375
1747979081188981500,14.2559814453125,-4.894863128662109,-2.7366762161254883,-0.7958046793937683
1747979081207251700,14.274251708984375,-4.210541248321533,-6.510601997375488,-0.6094908118247986
1747979081225516800,14.292516845703124,-2.933680295944214,-8.496524810791016,-0.2863430976867676
1747979081243782000,14.310781982421876,-1.1481212377548218,-9.381974220275879,-0.1508837193250656
1747979081262047200,14.329047119140625,0.609338104724884,-8.657182693481445,0.26679539680480957
1747979081280312300,14.347312255859375,1.6733126640319824,-6.200129508972168,0.7591527700424194
1747979081298577700,14.36557763671875,2.222175121307373,-3.0280590057373047,1.2003501653671265
1747979081316843000,14.383843017578124,2.425440549850464,0.9973902106285095,1.383457064628601
1747979081335108000,14.402108154296876,2.375654935836792,6.587418079376221,1.068861484527588
1747979081353373200,14.420373291015625,2.1109976768493652,9.759182929992676,0.5387831330299377
1747979081371638500,14.438638427734375,1.3810136318206787,8.956659317016602,1.1965322494506836
1747979081389903600,14.456903564453125,-0.6383541822433472,3.8014144897460938,5.196936130523682
1747979081408164400,14.475164306640625,-1.2542591094970703,0.0403171069920063,8.201629638671875
1747979081426433000,14.49343310546875,-1.1914926767349243,-1.7087428569793701,6.898959159851074
1747979081444700400,14.511700439453126,-1.6320792436599731,-10.473589897155762,1.4427109956741333
1747979081462965200,14.52996533203125,-1.7339409589767456,-13.501038551330566,-3.3425018787384033
1747979081481229800,14.548229736328125,-0.5134322643280029,-8.752782821655273,-6.453944206237793
1747979081499495000,14.566494873046874,2.8101327419281006,0.2272418737411499,-5.230381011962891
1747979081517760000,14.584760009765626,6.382472991943359,4.174653053283691,2.955976963043213
1747979081536027400,14.60302734375,7.99011754989624,9.962601661682129,0.8594874143600464
1747979081554287000,14.621287109375,7.138265609741211,10.784978866577148,-1.0306823253631592
1747979081572555800,14.6395556640625,5.288260459899902,9.418473243713379,-0.9489791393280029
1747979081590819800,14.65781982421875,2.096794843673706,2.889698028564453,2.7227790355682373
1747979081609087500,14.67608740234375,-1.7146987915039062,-2.7450757026672363,5.8334574699401855
1747979081627352000,14.69435205078125,-0.7336491346359253,-3.7119226455688477,5.9032487869262695
1747979081645617000,14.712616943359375,2.8412868976593018,5.956699848175049,9.187413215637207
1747979081663877000,14.730877197265626,3.61189341545105,14.350446701049805,7.460344314575195
1747979081682144000,14.74914404296875,0.7380779385566711,4.172973155975342,-3.06745982170105
1747979081700414200,14.767414306640624,0.12919799983501434,-0.9958630800247192,-0.9703594446182251
1747979081718678800,14.7856787109375,0.3335324227809906,-3.1525228023529053,1.5329663753509521
1747979081736943000,14.803943115234375,-0.04184427112340927,-3.157562494277954,2.6919305324554443
1747979081755208200,14.822208251953125,-0.44028112292289734,-3.118467092514038,2.2728769779205322
1747979081773473300,14.840473388671874,-0.6272059082984924,-2.4448354244232178,1.4856243133544922
1747979081791737900,14.85873779296875,-0.7776314616203308,-0.9411906003952026,0.6638578176498413
1747979081810000000,14.876999755859375,-1.0491610765457153,-0.9130908250808716,-1.3006848096847534
1747979081828270000,14.89527001953125,-0.9364564418792725,-1.5178474187850952,-2.0563251972198486
1747979081846521000,14.91352099609375,-0.7657195925712585,-1.6007723808288574,-2.281276226043701
1747979081864799000,14.931799072265624,-0.38835757970809937,-1.711338996887207,-2.540894031524658
1747979081883064300,14.950064208984376,-0.2528982162475586,-1.99752938747406,-2.9744555950164795
1747979081901330200,14.968330078125,-0.5349652171134949,-2.127338171005249,-3.1398472785949707
1747979081919589000,14.986589111328126,-1.0326677560806274,-2.5083653926849365,-3.3515121936798096
1747979081937860400,15.0048603515625,-3.5779905319213867,-3.090825319290161,-4.123951435089111
1747979081956127000,15.023126953125,-7.63535737991333,3.8098137378692627,-7.1672821044921875
1747979081974387200,15.04138720703125,-3.5388951301574707,10.125396728515625,-4.497953414916992
1747979081992655000,15.059655029296875,-3.129157304763794,6.271753311157227,-0.4564690589904785
1747979082010921200,15.077921142578125,-3.9481747150421143,-1.073290228843689,1.1073459386825562
1747979082029186300,15.096186279296875,-4.687779903411865,-4.2642974853515625,-0.06169738993048668
1747979082047438800,15.11443896484375,-3.610060930252075,-6.884756565093994,-0.2672535479068756
1747979082065718000,15.132718017578124,-1.6236798763275146,-8.79050350189209,0.15592335164546967
1747979082083971600,15.1509716796875,0.32009339332580566,-10.282083511352539,0.967915952205658
1747979082102234600,15.169234619140624,1.930639624595642,-9.04416561126709,1.046717643737793
1747979082120500700,15.187500732421874,2.8241827487945557,-5.653099536895752,0.7528914213180542
1747979082138772500,15.2057724609375,3.090061902999878,-1.9086484909057617,0.4466952085494995
1747979082157042700,15.224042724609374,2.7533223628997803,2.2398900985717773,0.5207626223564148
1747979082175303400,15.242303466796875,1.9088011980056763,6.170502662658691,0.18738290667533875
1747979082193571800,15.26057177734375,1.070694088935852,7.841829776763916,0.6747006773948669
1747979082211839700,15.27883984375,1.422552466392517,7.412544250488281,1.8869627714157104
1747979082230103600,15.297103515625,1.9648480415344238,5.034140586853027,3.914271831512451
1747979082248369200,15.315369140625,0.2681698501110077,0.37537670135498047,7.388567924499512
1747979082266634000,15.333634033203126,-0.4671591818332672,-1.2634220123291016,7.62894344329834
1747979082284899600,15.351899658203125,-0.8249735236167908,-10.779480934143066,2.9294042587280273
1747979082303164700,15.37016455078125,-0.7136433124542236,-13.253179550170898,-0.6924157738685608
1747979082321428700,15.3884287109375,0.6650795340538025,-11.974180221557617,-6.0733747482299805
1747979082339694800,15.40669482421875,4.251011371612549,-1.399950385093689,-6.2690043449401855
1747979082357965000,15.424965087890625,5.580254077911377,4.901124477386475,2.0916025638580322
1747979082376225800,15.443225830078125,3.9468002319335938,8.761181831359863,0.4931209683418274
1747979082394490600,15.46149072265625,3.1328225135803223,10.014371871948242,-0.998153805732727
1747979082412756000,15.479755859375,3.2232303619384766,8.610450744628906,-0.7050912380218506
1747979082431016400,15.498016357421875,3.070972204208374,4.54285192489624,1.0482447147369385
1747979082449285400,15.516285400390625,1.2446379661560059,-0.9054549932479858,3.76002836227417
1747979082467552800,15.534552734375,0.4300491213798523,-3.0100386142730713,4.490012168884277
1747979082485817000,15.552817138671875,2.10168194770813,0.6189591884613037,6.5532097816467285
1747979082504082400,15.57108251953125,2.7707319259643555,11.492818832397461,10.75519847869873
1747979082531479800,15.598479736328125,0.014508049935102463,6.92522668838501,-2.6444356441497803
1747979082549744400,15.616744384765624,0.2577851414680481,-0.01771509274840355,-1.9552268981933594
1747979082568007200,15.635007080078125,0.38499781489372253,-3.025921106338501,1.8321375846862793
1747979082586275600,15.653275634765626,-0.23396138846874237,-4.565607070922852,2.9358184337615967
1747979082604539600,15.67153955078125,-0.7585419416427612,-4.341724872589111,2.1138992309570312
1747979082622807000,15.68980712890625,-1.0059423446655273,-3.436422348022461,1.3060299158096313
1747979082641070000,15.708070068359374,-1.1986702680587769,-1.3466523885726929,-0.2788599729537964
1747979082659335000,15.7263349609375,-1.2240211963653564,-0.2922990322113037,-2.154674530029297
1747979082677600800,15.744600830078125,-1.0542006492614746,-0.6053674817085266,-2.757903814315796
1747979082695866000,15.7628662109375,-0.9051495790481567,-0.9221010804176331,-2.7986791133880615
1747979082714415900,15.781415771484374,-0.6102544069290161,-1.5358679294586182,-2.808147430419922
1747979082732393000,15.79939306640625,-0.631481945514679,-2.0169243812561035,-2.9495627880096436
1747979082750660900,15.817660888671876,-0.9077457785606384,-2.284025192260742,-3.1247284412384033
1747979082768929000,15.835928955078124,-1.1911872625350952,-2.953533411026001,-3.417180299758911
1747979082787192600,15.854192626953125,-3.3298263549804688,-2.4749205112457275,-4.913188934326172
1747979082805459000,15.872458984375,-7.275710582733154,5.041929244995117,-6.995476245880127
1747979082823722800,15.89072265625,-3.188411235809326,9.516669273376465,-2.4859161376953125
1747979082841981000,15.90898095703125,-3.9289324283599854,3.6409096717834473,0.8225300312042236
1747979082860256800,15.9272568359375,-4.874704837799072,-2.2073614597320557,0.35414913296699524
1747979082878519300,15.945519287109375,-4.281249046325684,-6.337574005126953,-0.18585574626922607
1747979082896784600,15.96378466796875,-2.9376509189605713,-7.838469982147217,-0.025656340643763542
1747979082915050000,15.982050048828125,-1.2348641157150269,-8.179637908935547,0.17119498550891876
1747979082933314600,16.000314453125,0.5328271985054016,-7.858476161956787,0.5546656250953674
1747979082951580200,16.018580078125,1.787697196006775,-6.499758720397949,0.9917397499084473
1747979082969845000,16.036844970703125,2.4213171005249023,-4.216650009155273,1.1362093687057495
1747979082988105700,16.055105712890626,2.7476718425750732,-1.7580702304840088,1.249066710472107
1747979083006374100,16.0733740234375,2.8822150230407715,0.956156849861145,1.4147639274597168
1747979083024641800,16.091641845703126,2.4465153217315674,4.698164463043213,1.7557793855667114
1747979083042906000,16.109906005859376,1.5361733436584473,8.140237808227539,1.2498302459716797
1747979083061171700,16.128171630859374,1.6421585083007812,8.463079452514648,1.9523253440856934
1747979083079435000,16.14643505859375,0.7188356518745422,8.358469009399414,2.702315092086792
1747979083097703000,16.164702880859377,-0.21502456068992615,4.565912246704102,5.290245532989502
1747979083115963400,16.18296337890625,0.4607451260089874,-0.709061861038208,7.67353630065918
1747979083134218200,16.20121826171875,-0.24388794600963593,-11.179445266723633,4.1917572021484375
1747979083152486100,16.219486083984375,-0.9860892295837402,-16.622713088989258,-0.859029233455658
1747979083170765300,16.237765380859376,-0.19883663952350616,-11.633928298950195,-5.742133140563965
1747979083189028400,16.2560283203125,3.215747356414795,1.3900238275527954,-6.417597770690918
1747979083207293700,16.274293701171874,6.512587070465088,6.880785942077637,1.0126618146896362
1747979083225558300,16.292558349609376,7.47775411605835,8.797834396362305,2.5060746669769287
1747979083243823400,16.3108232421875,4.855156898498535,8.579754829406738,0.7003570199012756
1747979083262087400,16.32908740234375,3.0187432765960693,7.428884983062744,-0.2393064647912979
1747979083280355600,16.34735546875,2.160325050354004,5.96784782409668,1.1119275093078613
1747979083298619100,16.365619140625,0.684474527835846,3.3006577491760254,4.176791191101074
1747979083316884200,16.38388427734375,1.5056301355361938,-0.46670106053352356,5.237558841705322
1747979083335145000,16.40214501953125,3.0074422359466553,1.1696542501449585,6.948897361755371
1747979083353414000,16.420413818359375,4.6470046043396,11.54856014251709,9.340129852294922
1747979083371681500,16.438681640625,1.99752938747406,8.082663536071777,-2.3570234775543213
1747979083389945300,16.4569453125,-0.2347249686717987,-1.645365595817566,-2.3805418014526367
1747979083408209000,16.475208984375,-0.18249599635601044,-4.343557357788086,1.2669345140457153
1747979083426477800,16.493477783203126,-0.36713001132011414,-5.6515727043151855,2.311055898666382
1747979083444740400,16.511740234375,-0.8200865983963013,-6.509074687957764,1.9048305749893188
1747979083463002000,16.530002197265624,-1.0140362977981567,-5.667302131652832,1.0265589952468872
1747979083481271300,16.548271240234374,-1.1204795837402344,-3.4648277759552,0.11224649101495743
1747979083499537000,16.566536865234376,-1.055269718170166,-1.3857477903366089,-0.9242390990257263
1747979083517804000,16.584803955078126,-1.1484266519546509,0.43478333950042725,-2.0305161476135254
1747979083536064800,16.603064697265626,-1.218676209449768,1.10139000415802,-2.539824962615967
1747979083554332000,16.621331787109376,-1.0473284721374512,0.6553056836128235,-2.627331495285034
1747979083572597800,16.63959765625,-0.6288857460021973,-0.35216382145881653,-2.8959593772888184
1747979083590862300,16.6578623046875,-0.15760323405265808,-1.669342041015625,-3.5796704292297363
1747979083609128000,16.6761279296875,-0.24190263450145721,-2.369699001312256,-3.9063305854797363
1747979083627394000,16.69439404296875,-0.5600107312202454,-2.7983736991882324,-4.059963226318359
1747979083645657900,16.712657958984376,-0.7669413089752197,-3.2195653915405273,-4.292550086975098
1747979083663926000,16.730926025390627,-2.940247058868408,0.47189339995384216,-5.854990482330322
1747979083682186800,16.749186767578124,-7.159493446350098,9.091507911682129,-1.355051875114441
1747979083700451800,16.767451904296873,-7.7176713943481445,8.210792541503906,0.7020368576049805
1747979083718720500,16.785720458984375,-5.3195672035217285,1.905135989189148,-1.3274102210998535
1747979083736979200,16.803979248046875,-3.162754774093628,-5.499009132385254,-1.1491901874542236
1747979083755249700,16.822249755859374,-1.9425514936447144,-7.980343341827393,-0.19685132801532745
1747979083773514800,16.8405146484375,-0.6754642724990845,-8.329453468322754,0.8084801435470581
1747979083791779800,16.85877978515625,0.9112582206726074,-7.917577266693115,1.415374755859375
1747979083810044700,16.877044677734375,2.2627975940704346,-6.1454572677612305,1.7498234510421753
1747979083828310300,16.895310302734377,3.1387784481048584,-3.3041701316833496,1.546558141708374
1747979083846571000,16.913571044921873,3.5501961708068848,-0.3501785099506378,1.054964303970337
1747979083864840000,16.93183984375,3.4968981742858887,2.0951151847839355,0.5662720799446106
1747979083883106600,16.9501064453125,2.7430903911590576,5.568647384643555,0.7133378982543945
1747979083901371400,16.968371337890623,1.6462818384170532,7.5695366859436035,1.5610661506652832
1747979083919635200,16.98663525390625,1.1643091440200806,8.224536895751953,2.808758497238159
1747979083937903000,17.004903076171875,1.3026701211929321,7.762875556945801,3.7733147144317627
1747979083956166400,17.02316650390625,0.6359107494354248,6.013510227203369,4.868290424346924
1747979083974431000,17.041430908203125,0.4931209683418274,-2.076941728591919,6.430731296539307
1747979083992698400,17.059698486328124,-0.9856310486793518,-15.349058151245117,2.5523476600646973
1747979084010967300,17.07796728515625,-2.283414363861084,-18.250057220458984,-2.7931814193725586
1747979084029227500,17.0962275390625,-0.12965615093708038,-6.990894794464111,-5.542227745056152
1747979084047493000,17.1144931640625,4.0743184089660645,4.6605963706970215,-4.413501262664795
1747979084074890800,17.141890869140624,7.077484607696533,8.654585838317871,1.1940888166427612
1747979084093155800,17.16015576171875,6.819394111633301,5.435020923614502,3.056464195251465
1747979084111420200,17.178420166015623,5.522679805755615,4.446946144104004,3.106860637664795
1747979084129686800,17.196686767578125,3.4014503955841064,4.216497421264648,2.8513662815093994
1747979084147950000,17.2149501953125,-0.28267788887023926,1.540907621383667,3.8673877716064453
1747979084166206000,17.2332060546875,-2.4385740756988525,-2.302809238433838,4.849812030792236
1747979084184473000,17.25147314453125,1.0906999111175537,3.263853073120117,7.445836544036865
1747979084202747000,17.269746826171875,3.062878370285034,10.715034484863281,8.377253532409668
1747979084221012700,17.2880126953125,1.5196800231933594,4.833623886108398,-4.068515300750732
1747979084239264800,17.3062646484375,-0.688903272151947,-2.0508272647857666,-2.6554312705993652
1747979084257542000,17.3245419921875,-1.1039862632751465,-3.5242342948913574,0.607810914516449
1747979084275806700,17.342806640625,-0.9509644508361816,-4.118758678436279,1.485318899154663
1747979084294071800,17.36107177734375,-1.0855075120925903,-4.5882086753845215,0.851393461227417
1747979084312348200,17.37934814453125,-1.2359330654144287,-3.48712420463562,0.12965615093708038
1747979084330601500,17.3976015625,-1.159727692604065,-1.898416519165039,0.04764748737215996
1747979084348869000,17.415869140625,-0.9222537875175476,-1.4485142230987549,-0.06169738993048668
1747979084367133200,17.43413330078125,-0.8008443117141724,-1.00502610206604,-0.5535966157913208
1747979084385398000,17.45239794921875,-0.7394523620605469,-0.7040221691131592,-1.4369077682495117
1747979084403659000,17.470658935546876,-0.3880521357059479,-1.2907582521438599,-2.4613287448883057
1747979084421928400,17.488928466796875,0.005192354787141085,-2.3018929958343506,-3.1749720573425293
1747979084440194000,17.507194091796876,0.058948494493961334,-2.847548246383667,-3.4521522521972656
1747979084463026400,17.5300263671875,-0.4395175576210022,-3.4248158931732178,-4.148080348968506
1747979084481291500,17.54829150390625,-0.6085745096206665,-3.6137261390686035,-4.894863128662109
1747979084499557400,17.566557373046876,-3.529121160507202,0.18768835067749023,-8.591819763183594
1747979084517822200,17.584822265625,-6.325509548187256,12.77410888671875,-5.432424545288086
1747979084536087600,17.603087646484376,-4.534910678863525,7.768373489379883,0.12461651116609573
1747979084554348000,17.62134814453125,-4.388761520385742,-0.7312057018280029,-0.07712173461914062
1747979084572617700,17.63961767578125,-3.9576432704925537,-5.137529373168945,-0.5314527750015259
1747979084590883000,17.657883056640625,-3.114954710006714,-7.6446733474731445,-0.2076941877603531
1747979084609147100,17.676147216796874,-1.4821118116378784,-8.068307876586914,-0.02871066704392433
1747979084627413500,17.69441357421875,0.3197879493236542,-6.997156143188477,0.3828597962856293
1747979084645679600,17.7126796875,1.5329663753509521,-5.258633613586426,0.8309294581413269
1747979084663944400,17.7309443359375,2.0761783123016357,-3.1890220642089844,1.0366383790969849
1747979084682204200,17.7492041015625,2.1183278560638428,-1.7292068004608154,1.2385293245315552
1747979084700473000,17.76747314453125,1.599397897720337,-0.5342016816139221,1.3063353300094604
1747979084718740700,17.78574072265625,1.0358747243881226,1.4191926717758179,1.5102115869522095
1747979084737000400,17.80400048828125,0.64217209815979,4.785518169403076,1.815796971321106
1747979084755271000,17.82227099609375,0.5497786998748779,7.371463775634766,2.2656991481781006
1747979084773530400,17.8405302734375,0.5126686692237854,8.003708839416504,2.8263208866119385
1747979084791804400,17.858804443359375,-0.46364670991897583,7.389026165008545,2.934138536453247
1747979084810065400,17.8770654296875,-0.6774495840072632,4.602106094360352,3.9125919342041016
1747979084828330200,17.895330322265625,-0.058337632566690445,-9.151524543762207,2.697275400161743
1747979084846595800,17.913595947265627,-0.8936958312988281,-15.413046836853027,-1.1238393783569336
1747979084864861000,17.93186083984375,-0.499382346868515,-10.077749252319336,-3.4355061054229736
1747979084883126300,17.950126220703126,1.45004141330719,-0.5755877494812012,-4.045607566833496
1747979084901392100,17.96839208984375,3.805079698562622,6.155994415283203,-1.3336715698242188
1747979084919654700,17.986654541015625,6.38720703125,7.230659008026123,1.4515684843063354
1747979084937918500,18.00491845703125,6.794501304626465,4.506047248840332,2.875800848007202
1747979084956187100,18.023187255859376,4.793001651763916,4.252538204193115,2.431091070175171
1747979084974451200,18.041451171875,2.627331495285034,4.195269584655762,2.171473264694214
1747979084992718000,18.059718017578124,0.40683624148368835,3.634495496749878,3.659846305847168
1747979085010977800,18.077977783203124,-0.42042800784111023,1.6029103994369507,5.568342208862305
1747979085029235700,18.096235595703124,2.059990406036377,1.851074457168579,7.02433967590332
1747979085047512800,18.114512939453125,3.461925983428955,8.566469192504883,9.645562171936035
1747979085065778200,18.132778076171874,2.283719778060913,5.94998025894165,-0.7590000629425049
1747979085084044000,18.1510439453125,0.2583959996700287,-2.47094988822937,-2.1836905479431152
1747979085102308400,18.169308349609373,-0.16310101747512817,-3.601050615310669,0.47937649488449097
1747979085120572700,18.18757275390625,-0.3698789179325104,-3.69069504737854,1.6872098445892334
1747979085138839800,18.20583984375,-0.764955997467041,-4.132656097412109,0.9938777685165405
1747979085157104400,18.2241044921875,-1.041067123413086,-3.586848020553589,-0.14584407210350037
1747979085175368700,18.24236865234375,-1.049924612045288,-2.682614803314209,-0.6313292384147644
1747979085193620500,18.260620361328126,-0.8996517658233643,-1.3741413354873657,-0.7443392872810364
1747979085211888400,18.278888427734376,-0.9327912330627441,0.05604688450694084,-1.327562928199768
1747979085230167300,18.297167236328125,-0.9560040831565857,0.8316930532455444,-2.0972530841827393
1747979085248429000,18.315428955078126,-0.7716755270957947,0.503963828086853,-3.1141910552978516
1747979085266696400,18.333696533203124,-0.5879577994346619,-0.6021603941917419,-3.621209144592285
1747979085284964000,18.351964111328126,-0.7809911966323853,-1.7806721925735474,-3.567758560180664
1747979085303225900,18.370225830078127,-1.1418598890304565,-3.4570391178131104,-3.8646390438079834
1747979085321490700,18.38849072265625,-1.3643674850463867,-4.5911102294921875,-4.270864486694336
1747979085339758600,18.406758544921875,-2.0638082027435303,-0.10476338863372803,-6.56237268447876
1747979085358026200,18.425026123046877,-1.4069753885269165,10.239017486572266,-2.8177685737609863
1747979085376286700,18.44328662109375,-3.6673295497894287,6.183788776397705,0.9254608750343323
1747979085394551600,18.461551513671875,-5.476559638977051,0.9961684942245483,-0.3572034537792206
1747979085412817000,18.47981689453125,-5.004360675811768,-4.162893772125244,-1.1261301040649414
1747979085431082200,18.498082275390626,-3.6213619709014893,-6.6176557540893555,-0.9599747061729431
1747979085458479900,18.52547998046875,-1.3570371866226196,-7.8262529373168945,-0.3597996234893799
1747979085476746500,18.54374658203125,0.03940080851316452,-7.839233875274658,0.16294831037521362
1747979085495005400,18.56200537109375,0.8659014701843262,-6.083148956298828,0.5948300361633301
1747979085513275600,18.580275634765623,1.2820534706115723,-3.5136969089508057,0.8458956480026245
1747979085531540200,18.598540283203125,1.5094480514526367,-0.927446186542511,0.7820602059364319
1747979085549807000,18.61680712890625,1.418123722076416,2.8878655433654785,0.6771441102027893
1747979085577203700,18.64420361328125,1.4278974533081055,10.522611618041992,0.5955936312675476
1747979085595468800,18.66246875,2.054034471511841,11.647367477416992,1.5390750169754028
1747979085613734100,18.680734130859374,1.9372063875198364,8.001418113708496,3.2976033687591553
1747979085631994400,18.698994384765626,0.7157813310623169,-1.730581283569336,7.849923610687256
1747979085650264600,18.7172646484375,0.09040805697441101,-8.115955352783203,7.177208423614502
1747979085668529700,18.73552978515625,-0.8929322957992554,-15.961297988891602,1.9402607679367065
1747979085686788000,18.7537880859375,-0.7202101349830627,-18.280601501464844,-4.9148688316345215
1747979085705057500,18.7720576171875,1.708284616470337,-7.99011754989624,-7.309155464172363
1747979085723324200,18.79032421875,4.268573760986328,6.389955997467041,-2.7030787467956543
1747979085741591600,18.808591552734374,5.9757890701293945,12.614214897155762,2.274709463119507
1747979085759855600,18.826855712890627,6.491206645965576,12.604135513305664,1.1953105926513672
1747979085778122000,18.8451220703125,5.284289836883545,9.126326560974121,0.02733621932566166
1747979085796385000,18.863385009765626,4.221078872680664,2.1259636878967285,1.2214250564575195
1747979085814647600,18.8816474609375,2.1951441764831543,-1.591151237487793,2.7702739238739014
1747979085832919800,18.899919921875,-1.095739483833313,-4.024227619171143,4.889212608337402
1747979085851178500,18.918178466796874,0.46853363513946533,0.801913321018219,8.65825080871582
1747979085869448700,18.93644873046875,3.5804338455200195,5.9250874519348145,9.357691764831543
1747979085887712800,18.954712646484374,1.9810359477996826,8.926726341247559,3.0937271118164062
1747979085905972200,18.97297216796875,0.5371032953262329,-0.6021603941917419,-1.238223910331726
1747979085924237800,18.99123779296875,-0.04245513305068016,-4.11509370803833,0.9651671051979065
1747979085942507800,19.0095078125,-0.37858372926712036,-4.590346813201904,2.235461473464966
1747979085960727000,19.02772705078125,-0.9433286786079407,-3.721390962600708,1.4453071355819702
1747979085979037400,19.046037353515626,-1.2438743114471436,-1.794722080230713,0.3455969989299774
1747979085997304000,19.064303955078124,-1.2635747194290161,-0.39064833521842957,-0.12308934330940247
1747979086015568100,19.082568115234373,-1.224173903465271,-0.24327708780765533,-0.7406741380691528
1747979086033834500,19.10083447265625,-1.1136072874069214,-1.2819007635116577,-2.432159900665283
1747979086052094000,19.119093994140623,-0.9289733171463013,-1.761582612991333,-2.7730228900909424
1747979086070352600,19.1373525390625,-0.7504479289054871,-2.149787425994873,-2.549293279647827
1747979086088628700,19.155628662109375,-0.6307183504104614,-2.5896105766296387,-2.386803150177002
1747979086106879700,19.173879638671874,-1.0195341110229492,-3.079371690750122,-2.548224449157715
1747979086125159200,19.1921591796875,-1.3269519805908203,-4.291481018066406,-3.059823989868164
1747979086143424300,19.21042431640625,-1.2809844017028809,-4.85698938369751,-3.715282440185547
1747979086161688000,19.22868798828125,-1.1632401943206787,-1.238071084022522,-7.858323097229004
1747979086189087200,19.256087158203126,-0.5974262356758118,10.081414222717285,-1.1076513528823853
1747979086207353600,19.274353515625,-4.19389533996582,6.139959335327148,2.120924234390259
1747979086225617400,19.292617431640625,-6.884603977203369,0.4538728892803192,0.026572637259960175
1747979086243883000,19.310883056640623,-5.189147472381592,-6.1485114097595215,-1.1129964590072632
1747979086262143200,19.329143310546876,-2.939483642578125,-8.705135345458984,-1.0934487581253052
1747979086280413200,19.3474130859375,-1.1035280227661133,-8.833416938781738,-0.5757405161857605
1747979086298679800,19.3656796875,0.29917123913764954,-7.997753143310547,0.11728613078594208
1747979086316941000,19.383941162109377,1.0584768056869507,-5.858503341674805,0.612850546836853
1747979086335212000,19.4022119140625,1.17240309715271,-3.100904703140259,0.7651087045669556
1747979086353473000,19.42047314453125,0.9541715383529663,0.39385536313056946,0.6032294034957886
1747979086371741200,19.4387412109375,0.7206682562828064,5.21953821182251,0.3234531581401825
1747979086389997000,19.4569970703125,0.5871942043304443,9.586308479309082,0.5816964507102966
1747979086408272400,19.4752724609375,1.056491494178772,9.736886978149414,2.0586159229278564
1747979086426535700,19.49353564453125,1.1994339227676392,8.25110912322998,3.6383132934570312
1747979086444800000,19.511800048828125,-0.25534167885780334,0.746630072593689,8.398786544799805
1747979086463065000,19.530065185546874,-0.7770205736160278,-7.755392551422119,7.3406147956848145
1747979086481327400,19.548327392578123,-1.0070114135742188,-13.64917278289795,3.1442761421203613
1747979086499598300,19.566598388671874,-0.7005097270011902,-17.173254013061523,-4.057214260101318
1747979086517862000,19.58486181640625,1.702786922454834,-8.879690170288086,-7.782728672027588
1747979086536124400,19.60312451171875,4.449695110321045,11.350486755371094,-1.9257526397705078
1747979086554392800,19.621392822265626,7.377114295959473,17.662099838256836,0.26603180170059204
1747979086572656400,19.639656494140624,7.119939804077148,16.241226196289062,-1.4373658895492554
1747979086600056600,19.667056640625,4.472449779510498,5.390122413635254,0.26313021779060364
1747979086618320100,19.685320068359374,4.0914225578308105,-0.3778201639652252,1.6635388135910034
1747979086636584200,19.703584228515624,2.6555838584899902,-6.3966755867004395,3.5468363761901855
1747979086654850800,19.721850830078125,0.9683741331100464,-8.088619232177734,4.492302894592285
1747979086673115000,19.740114990234375,2.479501962661743,0.413555771112442,8.87510871887207
1747979086691369200,19.758369140625,2.9944615364074707,9.929461479187012,11.263896942138672
1747979086709643500,19.7766435546875,0.6130032539367676,12.674232482910156,0.8520042896270752
1747979086727912400,19.794912353515624,-0.3228422701358795,-0.4726569950580597,-2.931694984436035
1747979086746175500,19.813175537109377,-0.30695977807044983,-4.762610912322998,0.4973970353603363
1747979086764440600,19.831440673828126,-0.16172657907009125,-4.749935626983643,1.8938349485397339
1747979086782706700,19.849706787109376,-0.8626944422721863,-3.380833625793457,1.4494304656982422
1747979086800967700,19.8679677734375,-1.3593279123306274,-1.595579981803894,0.41202861070632935
1747979086819231200,19.886231201171874,-1.521665334701538,-0.5532912015914917,-0.2528982162475586
1747979086837501200,19.904501220703125,-1.4413365125656128,-0.15531249344348907,-0.25106561183929443
1747979086855764500,19.922764404296874,-1.2495248317718506,0.25961771607398987,-0.9973902106285095
1747979086874031900,19.941031982421876,-1.1186469793319702,0.006719517521560192,-2.7039949893951416
1747979086892293400,19.95929345703125,-0.9952521920204163,-0.6133087277412415,-3.0327932834625244
1747979086910566000,19.97756591796875,-0.8799513578414917,-1.233642339706421,-3.0022499561309814
1747979086937948200,20.0049482421875,-1.067945122718811,-2.1335995197296143,-2.984229326248169
1747979086956213200,20.023213134765626,-1.305266261100769,-2.7096455097198486,-3.151606559753418
1747979086974493000,20.041492919921875,-1.6019941568374634,-3.5271358489990234,-3.706730365753174
1747979086992755000,20.0597548828125,-3.4133622646331787,-1.7090482711791992,-6.871928691864014
1747979087011028000,20.078028076171876,-2.931084156036377,9.323330879211426,-5.196936130523682
1747979087029285600,20.09628564453125,-3.8767035007476807,8.039444923400879,0.7020368576049805
1747979087047549200,20.114549072265625,-5.12347936630249,2.8287642002105713,-0.013439035043120384
1747979087065817000,20.132817138671875,-4.841565132141113,-3.3622024059295654,-0.9190467596054077
1747979087084082400,20.15108251953125,-3.7340664863586426,-7.757530689239502,-0.841619610786438
1747979087102346200,20.16934619140625,-2.068847894668579,-9.1784029006958,-0.6026185750961304
1747979087120606700,20.187606689453126,0.06108652427792549,-8.598691940307617,-0.018478672951459885
1747979087138875600,20.205875732421877,1.7001906633377075,-6.765790939331055,0.3911064863204956
1747979087157144300,20.224144287109375,2.518139362335205,-4.053548812866211,0.6426302194595337
1747979087175406000,20.242406005859376,2.6262624263763428,-1.28128981590271,1.0793988704681396
1747979087193673200,20.260673095703126,2.3492350578308105,1.4081971645355225,1.427744746208191
1747979087211937300,20.278937255859375,2.007150411605835,5.555513858795166,2.364201307296753
1747979087230203600,20.29720361328125,1.914909839630127,9.196270942687988,2.515848398208618
1747979087248467500,20.315467529296875,1.5812246799468994,9.717644691467285,1.8567248582839966
1747979087266733000,20.333733154296876,1.1844676733016968,8.701470375061035,1.9824104309082031
1747979087284993300,20.3519931640625,0.13515393435955048,2.0337231159210205,5.7911553382873535
1747979087303263200,20.37026318359375,-0.1846340149641037,-1.443474531173706,7.303046703338623
1747979087321529600,20.388529541015625,-0.9071348905563354,-8.469493865966797,4.354552745819092
1747979087339792400,20.40679248046875,-1.553277611732483,-13.664750099182129,0.5170974135398865
1747979087358059800,20.425059814453125,-0.7738135457038879,-13.188733100891113,-3.1810808181762695
1747979087376320300,20.4433203125,1.3915510177612305,-3.2956180572509766,-4.524526119232178
1747979087394587600,20.461587646484375,4.490164756774902,4.672203063964844,-3.858072280883789
1747979087412855600,20.47985546875,6.772204875946045,3.8654024600982666,-0.5490151643753052
1747979087431119400,20.498119384765626,7.453472137451172,8.164519309997559,-0.19776763021945953
1747979087449385700,20.5163857421875,4.909676551818848,8.591208457946777,-0.17867808043956757
1747979087467649500,20.5346494140625,2.464688539505005,7.763944625854492,0.618195652961731
1747979087485902600,20.552902587890625,-0.9260717034339905,3.213303804397583,4.282623291015625
1747979087504175400,20.57117529296875,-1.9312504529953003,-0.8130616545677185,6.329632759094238
1747979087522445300,20.5894453125,2.490039348602295,-3.6812267303466797,5.809939384460449
1747979087540711700,20.607711669921876,3.4578027725219727,4.393801212310791,9.694583892822266
1747979087558971100,20.62597119140625,3.492316722869873,15.434885025024414,7.7205729484558105
1747979087577240800,20.64424072265625,1.0630582571029663,5.266116619110107,-4.801248073577881
1747979087595507000,20.6625068359375,-0.5093088746070862,-0.7629706859588623,-2.2681427001953125
1747979087613771300,20.680771240234375,0.24633140861988068,-1.5671747922897339,1.2968668937683105
1747979087632031700,20.69903173828125,-0.1414152979850769,-3.637244462966919,1.7557793855667114
1747979087650300200,20.717300048828125,-0.6571382880210876,-5.206099033355713,1.1992812156677246
1747979087668568800,20.73556884765625,-0.8946121335029602,-4.446487903594971,0.8022187948226929
1747979087686816300,20.753816162109374,-0.8594874143600464,-1.7599027156829834,-0.08659014850854874
1747979087705095700,20.772095703125,-0.5729916095733643,-0.11820242553949356,-1.8981109857559204
1747979087723345700,20.790345703125,-0.5010622143745422,-0.055283304303884506,-2.652376890182495
1747979087741628400,20.80862841796875,-0.5546656250953674,-0.34605515003204346,-2.8377745151519775
1747979087759892200,20.826892333984375,-0.6395758986473083,-0.7991644740104675,-2.964376211166382
1747979087778157300,20.8451572265625,-0.8356636762619019,-1.4060590267181396,-3.192992687225342
1747979087796421400,20.86342138671875,-1.1470521688461304,-2.088548183441162,-3.391218423843384
1747979087814690300,20.881690185546876,-1.5238033533096313,-2.9182560443878174,-3.8092029094696045
1747979087832953000,20.899953125,-3.668245792388916,-3.944356918334961,-5.581933975219727
1747979087851218200,20.91821826171875,-7.524179935455322,2.4491114616394043,-8.609535217285156
1747979087869483300,20.936483154296877,-4.612796306610107,8.97208309173584,-2.861292839050293
1747979087887744800,20.954744873046874,-3.8171441555023193,4.079052448272705,-0.6235406994819641
1747979087906008000,20.973008056640627,-4.061948299407959,-0.9651671051979065,-0.4524984359741211
1747979087924275500,20.991275390625,-3.3956472873687744,-5.455484867095947,-0.07009678333997726
1747979087942544000,21.0095439453125,-2.269669771194458,-7.313889503479004,0.016493361443281174
1747979087960807700,21.0278076171875,-0.5302310585975647,-6.721502780914307,-0.15241087973117828
1747979087979063300,21.046063232421876,1.2851077318191528,-5.474879741668701,0.17027868330478668
1747979087997327600,21.06432763671875,2.4323127269744873,-3.754072427749634,0.7302893996238708
1747979088015607800,21.08260791015625,2.964529037475586,-2.1368067264556885,1.077413558959961
1747979088033870800,21.100870849609375,2.95857310295105,-0.4954117238521576,1.0827586650848389
1747979088052135200,21.11913525390625,2.554791212081909,0.7457137703895569,0.9663888216018677
1747979088070399500,21.1373994140625,2.0372354984283447,1.6007723808288574,0.9486737251281738
1747979088088665600,21.15566552734375,1.6449073553085327,2.5563182830810547,2.0227274894714355
1747979088106931700,21.173931640625,1.6911804676055908,3.0358476638793945,3.2508721351623535
1747979088125195800,21.19219580078125,1.7156150341033936,3.551265001296997,3.5355353355407715
1747979088143460900,21.2104609375,0.4964807331562042,3.8308887481689453,2.428800106048584
1747979088161724700,21.228724609375,-0.7770205736160278,3.3232595920562744,1.5541938543319702
1747979088179988500,21.246988525390623,-1.154382586479187,3.492011070251465,1.527010440826416
1747979088198256000,21.265256103515625,-1.182176947593689,3.065321683883667,1.2304353713989258
1747979088216521700,21.283521728515623,-0.8232936263084412,-3.196352481842041,-1.3548991680145264
1747979088234786600,21.30178662109375,0.965319812297821,-13.315335273742676,-4.340197563171387
1747979088253053000,21.320052978515626,1.980883240699768,-10.473284721374512,-1.6473509073257446
1747979088271317000,21.33831689453125,3.3179144859313965,5.446474552154541,4.109595775604248
1747979088289582800,21.356582763671874,3.009885787963867,11.0726957321167,3.9292380809783936
1747979088307846700,21.3748466796875,0.7093672752380371,10.239323616027832,2.793792247772217
1747979088326113300,21.39311328125,-2.428647518157959,7.2676167488098145,2.98697829246521
1747979088344373500,21.41137353515625,-2.282956123352051,3.143512487411499,2.646420955657959
1747979088362642400,21.429642333984376,1.7928894758224487,1.2008084058761597,4.0410261154174805
1747979088380907800,21.44790771484375,6.192799091339111,5.9698333740234375,7.105278968811035
1747979088399174100,21.466174072265623,3.3376150131225586,4.587445259094238,1.6682729721069336
1747979088417437200,21.484437255859376,0.455705463886261,-2.599078893661499,-1.8515325784683228
1747979088440264700,21.5072646484375,-0.03039054572582245,-1.2008084058761597,0.26404649019241333
1747979088458534700,21.52553466796875,-0.05009094998240471,-0.6415612101554871,1.1467467546463013
1747979088476798700,21.543798828125,-0.1336267739534378,-1.7647897005081177,1.015868902206421
1747979088495064000,21.56206396484375,-0.14752395451068878,-2.721404552459717,0.9732610583305359
1747979088513324000,21.580323974609374,-0.3669773042201996,-2.236224889755249,0.4743368625640869
1747979088531594000,21.598593994140625,-1.0239628553390503,-2.0723602771759033,-1.2837333679199219
1747979088549859300,21.616859375,-1.359786033630371,-2.7728700637817383,-1.8625280857086182
1747979088568124700,21.635124755859376,-1.443474531173706,-3.0891456604003906,-1.9236146211624146
1747979088586374100,21.6533740234375,-1.3303117752075195,-3.198795795440674,-2.0008890628814697
1747979088600110000,21.667110107421873,-1.2909109592437744,-3.23315691947937,-2.1531472206115723
1747979088613788700,21.68078857421875,-1.455997347831726,-3.305086374282837,-2.378709316253662
1747979088627487500,21.694487548828125,-1.6139060258865356,-3.2453744411468506,-2.7568347454071045
1747979088645752600,21.712752685546874,-1.934457540512085,-3.226895570755005,-3.54561448097229
1747979088664013300,21.731013427734375,-3.6166276931762695,-4.505283832550049,-4.923421382904053
1747979088682279200,21.749279052734376,-5.969069957733154,1.368032693862915,-9.15366268157959
1747979088700552000,21.767552001953124,-4.822017669677734,10.565372467041016,-4.5210137367248535
1747979088718813200,21.785813232421877,-3.9128973484039307,2.7795896530151367,-1.3359622955322266
1747979088737078500,21.80407861328125,-3.355635404586792,-4.053548812866211,0.23319780826568604
1747979088755343400,21.82234326171875,-2.8495335578918457,-7.639938831329346,1.0089967250823975
1747979088773608700,21.840608642578125,-1.9398025274276733,-8.522639274597168,1.0896308422088623
1747979088791873300,21.858873291015627,-0.2275473028421402,-7.774634838104248,1.6893478631973267
1747979088810139000,21.877138916015625,1.21027672290802,-5.789933681488037,2.010357618331909
1747979088828403200,21.8954033203125,2.2350032329559326,-2.8316657543182373,1.7646369934082031
1747979088842103000,21.90910302734375,2.453387498855591,-0.15241087973117828,1.4659239053726196
1747979088855801900,21.9228017578125,2.135584831237793,2.4828617572784424,1.0465649366378784
1747979088874066700,21.941066650390624,1.1015427112579346,4.952131748199463,0.23380866646766663
1747979088892331800,21.959331787109374,-0.2220495194196701,5.592929363250732,0.547182559967041
1747979088910598100,21.97759814453125,-0.5858197808265686,6.431800365447998,1.8950567245483398
1747979088928862200,21.9958623046875,-0.2588541507720947,8.038223266601562,2.956129550933838
1747979088947127600,22.01412744140625,0.21105393767356873,8.317846298217773,3.6812267303466797
1747979088965393700,22.0323935546875,0.685390830039978,5.514280796051025,4.585765361785889
1747979088983658000,22.050657958984374,1.0873401165008545,-3.785073757171631,4.45733118057251
1747979089001915400,22.068915283203125,0.18738290667533875,-9.931294441223145,2.121229648590088
1747979089020177700,22.087177734375,-0.252287358045578,-13.366342544555664,-1.8432859182357788
1747979089038454800,22.105454833984375,1.3678799867630005,-7.54204797744751,-6.490137577056885
1747979089056720600,22.123720703125,4.993517875671387,1.9065104722976685,-2.429105758666992
1747979089074978800,22.141978759765625,7.007845878601074,10.23825454711914,0.24572055041790009
1747979089093248300,22.160248291015623,5.74167537689209,12.044124603271484,-2.3321306705474854
1747979089111513900,22.178513916015625,4.195269584655762,9.765292167663574,-2.1033618450164795
1747979089129779000,22.196779052734374,2.7765352725982666,5.888130187988281,-0.20234911143779755
1747979089148045300,22.21504541015625,0.9944885969161987,-1.5404493808746338,3.6028831005096436
1747979089166309400,22.233309326171874,0.6539312601089478,-4.832402229309082,4.79681921005249
1747979089184574500,22.251574462890623,3.4603989124298096,-3.1091513633728027,6.635676383972168
1747979089198273500,22.2652734375,4.1971025466918945,6.636134624481201,10.311405181884766
1747979089211967700,22.2789677734375,3.497509002685547,13.00471019744873,10.024603843688965
1747979089230236400,22.297236328125,1.3802499771118164,7.638258934020996,-4.658153057098389
1747979089248503600,22.315503662109375,-0.6013968586921692,0.4489859640598297,-2.953075408935547
1747979089266768000,22.333767822265624,0.7287622094154358,-1.0024298429489136,0.8732318878173828
1747979089285032700,22.35203271484375,0.6798930168151855,-2.6229026317596436,1.877341628074646
1747979089303285800,22.37028564453125,-0.058337632566690445,-4.10867977142334,2.0729711055755615
1747979089321561900,22.388561767578125,-0.4317290186882019,-3.452763080596924,1.4384349584579468
1747979089339816200,22.406816162109376,-1.1102476119995117,-0.4363104999065399,-1.2246321439743042
1747979089358093600,22.425093505859376,-1.5628987550735474,-0.44577890634536743,-2.2091941833496094
1747979089376358100,22.443358154296874,-1.6898059844970703,-0.9349292516708374,-2.5783095359802246
1747979089394623500,22.46162353515625,-1.5680910348892212,-1.1255191564559937,-2.811354637145996
1747979089412888600,22.479888671875,-1.2049317359924316,-1.356884479522705,-3.1833715438842773
1747979089431154000,22.49815380859375,-1.3474160432815552,-1.8803958892822266,-3.3008103370666504
1747979089449417700,22.516417724609376,-1.9201022386550903,-2.647031784057617,-3.3313536643981934
1747979089467685400,22.534685302734374,-4.043928146362305,-4.154036521911621,-4.1942009925842285
1747979089485950700,22.55295068359375,-7.9992804527282715,-2.8432722091674805,-7.690029621124268
1747979089499646500,22.566646484375,-7.183164596557617,5.93134880065918,-4.933500289916992
1747979089513342500,22.580342529296875,-2.752864122390747,8.010428428649902,-2.571284532546997
1747979089531611000,22.59861083984375,-0.7765624523162842,2.680476665496826,-0.4830417037010193
1747979089549877500,22.61687744140625,-2.264630079269409,-1.7188221216201782,-0.034666601568460464
1747979089568145400,22.6351455078125,-3.1613802909851074,-5.32873010635376,-0.29504790902137756
1747979089586392800,22.653392822265626,-1.8718438148498535,-6.906747817993164,-0.3660610020160675
1747979089604675800,22.67167578125,-0.327271044254303,-6.561303615570068,0.3055853247642517
1747979089622938000,22.689938232421873,1.078635334968567,-4.969541549682617,0.9819658994674683
1747979089636637000,22.703636962890624,1.903914213180542,-3.2904255390167236,0.974177360534668
1747979089654901800,22.72190185546875,2.4976751804351807,-1.0204503536224365,0.5705481171607971
1747979089668600800,22.735600830078123,2.492788314819336,0.17180584371089935,0.08109235763549805
1747979089686853600,22.753853515625,1.9202549457550049,0.5236642360687256,-0.26145032048225403
1747979089705131300,22.77213134765625,0.9882272481918335,2.1644482612609863,0.6305656433105469
1747979089723397400,22.7903974609375,0.5664247870445251,5.3864569664001465,1.6375770568847656
1747979089741660400,22.808660400390625,0.7976372838020325,6.881549835205078,2.5083653926849365
1747979089755360300,22.8223603515625,0.9259189963340759,6.683018684387207,2.8121180534362793
1747979089769059000,22.83605908203125,0.6546948552131653,4.659374713897705,4.295451641082764
1747979089787325000,22.854324951171876,0.3436116874217987,-2.289675712585449,7.124063014984131
1747979089805589500,22.872589599609373,-0.6009386777877808,-18.703777313232422,1.4378241300582886
1747979089823854600,22.8908544921875,-0.7162395119667053,-13.321596145629883,-1.7528778314590454
1747979089842107400,22.909107421875,1.5624406337738037,-1.5328136682510376,-3.5883750915527344
1747979089860381200,22.927381103515625,4.479475021362305,6.0032782554626465,0.4544837474822998
1747979089878638600,22.945638671875,5.614309787750244,9.341809272766113,1.1882855892181396
1747979089896916200,22.963916259765625,4.535063743591309,9.03943157196045,0.4167627990245819
1747979089915180000,22.982179931640626,3.271794319152832,8.922297477722168,-0.08216137439012527
1747979089928879400,22.99587939453125,2.8489227294921875,7.934834003448486,0.9905179738998413
1747979089942578000,23.009577880859375,1.3608551025390625,4.628525733947754,3.5836410522460938
1747979089956276700,23.02327685546875,-0.058948494493961334,0.45982882380485535,4.9173126220703125
1747979089969971200,23.03697119140625,-0.6079636216163635,-2.9443705081939697,5.205793380737305
