time,seconds_elapsed,z,y,x
1747979066996912000,0.063912109375,8.37129020690918,3.518047571182251,0.20039889216423035
1747979067015191000,0.08219091796875,8.00638484954834,5.648257732391357,-0.2835494875907898
1747979067033455600,0.10045556640625,8.780462265014648,3.2967114448547363,-1.9148563146591187
1747979067051716600,0.118716552734375,10.152746200561523,3.1244282722473145,-0.914058268070221
1747979067069979100,0.136979248046875,9.841081619262695,2.3473589420318604,-0.22552353143692017
1747979067088248800,0.155248779296875,9.806983947753906,3.2548370361328125,0.024526432156562805
1747979067106509300,0.17350927734375,8.523832321166992,3.5545380115509033,-1.856830358505249
1747979067124779300,0.191779296875,7.923832416534424,4.068994998931885,-5.766702651977539
1747979067143044000,0.210044189453125,7.817351341247559,4.201796531677246,-6.474380016326904
1747979067161308000,0.228307861328125,10.805987358093262,2.7361927032470703,-2.2743778228759766
1747979067179576300,0.246576416015625,11.866007804870605,2.5848467350006104,-0.1052841991186142
1747979067197834800,0.264834716796875,10.698309898376465,2.940778970718384,-1.9100706577301025
1747979067216105000,0.28310498046875,9.79083251953125,3.4055848121643066,-2.7397818565368652
1747979067234370000,0.3013701171875,9.272786140441895,2.947359323501587,-2.916252613067627
1747979067252635100,0.31963525390625,9.250054359436035,2.947359323501587,-2.538186550140381
1747979067270900500,0.337900390625,7.814360618591309,3.4815568923950195,-2.878565549850464
1747979067289165300,0.356165283203125,8.172685623168945,2.80977201461792,-3.5736806392669678
1747979067307429400,0.374429443359375,8.715856552124023,2.080559253692627,-2.8827531337738037
1747979067325696800,0.39269677734375,9.355338096618652,2.2301106452941895,-1.3148560523986816
1747979067343964200,0.410964111328125,8.999405860900879,2.541177749633789,-1.0271191596984863
1747979067362226000,0.429225830078125,7.865208148956299,2.256431818008423,-1.7419748306274414
1747979067380491000,0.447490966796875,6.467201232910156,1.3932210206985474,-1.811964988708496
1747979067398756000,0.465756103515625,5.169693470001221,2.620738983154297,-1.420140266418457
1747979067417027800,0.48402783203125,3.8799619674682617,2.7176482677459717,-0.01136590726673603
1747979067435286500,0.50228662109375,6.904489517211914,2.8558337688446045,0.7334001660346985
1747979067453546800,0.520546630859375,9.797411918640137,1.3597214221954346,1.0121639966964722
1747979067471815400,0.5388154296875,8.903095245361328,1.5541383028030396,0.2871387302875519
1747979067490083000,0.5570830078125,6.130411624908447,0.7878368496894836,0.010169495828449726
1747979067508347000,0.575346923828125,3.8703906536102295,1.2604193687438965,2.0338993072509766
1747979067526611700,0.59361181640625,1.4231312274932861,1.9806588888168335,3.637688636779785
1747979067544876800,0.611876708984375,7.88076114654541,0.7992027401924133,1.1060823202133179
1747979067563142400,0.630142333984375,10.99442195892334,-1.6145570278167725,1.588834285736084
1747979067581406200,0.64840625,8.995817184448242,-0.5120640397071838,2.316850423812866
1747979067599672800,0.6666728515625,4.095914363861084,0.22492532432079315,4.207778453826904
1747979067617939000,0.68493896484375,4.2209391593933105,0.029910283163189888,4.862813949584961
1747979067636202800,0.70320263671875,7.098308563232422,-1.4470595121383667,4.653441905975342
1747979067654468000,0.721468017578125,8.326424598693848,-1.7670994997024536,3.8566319942474365
1747979067672733400,0.7397333984375,7.4877400398254395,-2.4089741706848145,3.541377544403076
1747979067690993700,0.75799365234375,5.508277893066406,-2.878565549850464,4.994419097900391
1747979067709258500,0.776258544921875,5.4867424964904785,-3.652045488357544,7.1886372566223145
1747979067727527200,0.794527099609375,6.062814235687256,-4.386044025421143,7.588238716125488
1747979067745794800,0.812794921875,4.94775915145874,-4.1760735511779785,8.150551795959473
1747979067764055800,0.831055908203125,5.811567783355713,-4.074976921081543,9.755537986755371
1747979067782326500,0.849326416015625,7.481758117675781,-3.468994617462158,12.211172103881836
1747979067800588800,0.8675888671875,4.281956195831299,-2.6835505962371826,14.275579452514648
1747979067818854100,0.885854248046875,0.030508488416671753,-3.142374277114868,15.709479331970215
1747979067837119200,0.904119140625,-1.4901303052902222,-3.7250266075134277,13.785051345825195
1747979067855384800,0.922384765625,-0.6879364848136902,-4.234099864959717,10.855039596557617
1747979067873649700,0.940649658203125,0.5024927258491516,-6.737590312957764,11.7385892868042
1747979067891914800,0.958914794921875,3.2303106784820557,-5.044668197631836,13.609777450561523
1747979067910180000,0.97718017578125,2.764906644821167,-3.9349968433380127,14.58365535736084
1747979067928444000,0.99544384765625,0.2667997181415558,-4.629513740539551,17.17508316040039
1747979067946707500,1.01370751953125,-1.2855439186096191,-2.599801778793335,15.39781379699707
1747979067964970200,1.03197021484375,-1.9537396430969238,-3.586242914199829,11.418549537658691
1747979067983239000,1.050239013671875,-1.067797064781189,-4.117449760437012,11.45384407043457
1747979068001503500,1.06850341796875,-2.3575284481048584,-4.995615482330322,10.767104148864746
1747979068019772700,1.086772705078125,-3.0765717029571533,-5.4520463943481445,12.049656867980957
1747979068038037200,1.105037353515625,-2.0171494483947754,-5.533402442932129,12.157333374023438
1747979068056301000,1.123301025390625,-4.442873477935791,-5.912066459655762,10.693524360656738
1747979068074566100,1.141566162109375,-4.718048095703125,-5.7062835693359375,10.953145980834961
1747979068092831000,1.1598310546875,-0.8327022790908813,-6.8410797119140625,10.564909934997559
1747979068111096300,1.178096435546875,1.2987045049667358,-8.01057243347168,9.735796928405762
1747979068129362000,1.19636181640625,-1.4799607992172241,-7.537391185760498,8.719446182250977
1747979068147626800,1.214626708984375,-2.134995937347412,-7.3160552978515625,8.180462837219238
1747979068165889000,1.232888916015625,-1.6109678745269775,-7.323233604431152,7.6869425773620605
1747979068184152800,1.25115283203125,-0.355932354927063,-6.426523208618164,7.8382887840271
1747979068202420500,1.26942041015625,-0.646660327911377,-5.589035511016846,8.763114929199219
1747979068220688100,1.287688232421875,-2.562713146209717,-3.6879379749298096,10.740782737731934
1747979068238953200,1.305953125,-5.929414749145508,-2.789433002471924,8.778668403625488
1747979068257214700,1.324214599609375,-4.0456647872924805,-2.1714866161346436,9.086145401000977
1747979068275485700,1.342485595703125,-5.178666591644287,-1.9800606966018677,9.873384475708008
1747979068293743600,1.36074365234375,-5.84147834777832,-2.1649062633514404,14.155340194702148
1747979068312008400,1.379008544921875,-3.279961585998535,-4.742574691772461,13.600804328918457
1747979068330278100,1.397278076171875,-0.275174617767334,-6.208776473999023,7.4225358963012695
1747979068348543000,1.41554296875,2.194218397140503,-3.6741790771484375,7.683353424072266
1747979068366808000,1.43380810546875,2.012363910675049,-3.250051259994507,8.655437469482422
1747979068385070000,1.452070068359375,4.429114818572998,-4.288536548614502,7.098906517028809
1747979068403340800,1.4703408203125,4.191029071807861,-2.7523441314697266,8.541180610656738
1747979068439868200,1.5068681640625,3.1238300800323486,-2.2061824798583984,6.884748935699463
1747979068458135600,1.525135498046875,4.867001056671143,-3.0927233695983887,8.34317398071289
1747979068476398800,1.54339892578125,3.793820381164551,-4.3280181884765625,7.043273448944092
1747979068494663700,1.56166357421875,1.6971094608306885,-0.3433700501918793,4.274777889251709
1747979068512931000,1.57993115234375,-0.020338991656899452,-0.4737788736820221,2.9485557079315186
1747979068531195000,1.59819482421875,-0.6556333899497986,-1.6342978477478027,2.819343328475952
1747979068549458700,1.616458740234375,0.39601215720176697,-4.684548377990723,2.520838737487793
1747979068567721500,1.634721435546875,0.2709871530532837,-7.482954502105713,0.9385846853256226
1747979068585981400,1.6529814453125,0.349352091550827,-8.480761528015137,1.3148560523986816
1747979068604254200,1.671254150390625,-0.9451649188995361,-5.807978630065918,4.382454872131348
1747979068622520600,1.6895205078125,-0.9655039310455322,-6.853044033050537,3.697509288787842
1747979068640785700,1.70778564453125,-1.3609179258346558,-8.285746574401855,4.289134502410889
1747979068659050200,1.72605029296875,-1.4811571836471558,-20.152950286865234,1.9770697355270386
1747979068677316000,1.744316162109375,-2.7421748638153076,-32.096126556396484,6.989434719085693
1747979068695581200,1.762581298828125,-0.7680960893630981,-20.41795539855957,10.26341438293457
1747979068713846300,1.78084619140625,0.6293123364448547,-9.652647018432617,6.276971817016602
1747979068732111400,1.799111328125,0.7950153350830078,-4.234099864959717,4.66779899597168
1747979068750376700,1.817376708984375,1.074975609779358,-4.265206336975098,2.3575284481048584
1747979068768641500,1.8356416015625,-0.9846464991569519,-7.894520282745361,1.466800332069397
1747979068786895600,1.8538955078125,-2.4155545234680176,-9.302696228027344,2.3670997619628906
1747979068805172000,1.872171875,-2.7984061241149902,-10.298110008239746,3.4618160724639893
1747979068823431200,1.89043115234375,-3.0203404426574707,-10.871191024780273,5.260022163391113
1747979068841702100,1.9087021484375,-3.2931220531463623,-11.316256523132324,5.776273727416992
1747979068859964000,1.9269638671875,-2.6057839393615723,-11.187044143676758,3.7567315101623535
1747979068878233600,1.945233642578125,-2.672184705734253,-11.008180618286133,-0.2267199456691742
1747979068896497700,1.96349755859375,-3.0801608562469482,-12.080164909362793,-1.1455638408660889
1747979068914763000,1.981762939453125,-3.5443685054779053,-12.503694534301758,2.80977201461792
1747979068933027600,2.000027587890625,-3.867997884750366,-12.167503356933594,8.12961483001709
1747979068951294500,2.01829443359375,-1.8113667964935303,-11.859427452087402,7.379465103149414
1747979068969558300,2.036558349609375,-2.8079774379730225,-12.502498626708984,3.142972469329834
1747979068987823600,2.05482373046875,-0.592223584651947,-13.668999671936035,-0.33080771565437317
1747979069006088700,2.073088623046875,2.032104730606079,-14.811572074890137,0.9678967595100403
1747979069024350200,2.09135009765625,2.715853691101074,-15.217155456542969,3.9116668701171875
1747979069042619100,2.109619140625,2.733201742172241,-14.510076522827148,2.152343988418579
1747979069060884000,2.127884033203125,2.035095691680908,-12.346366882324219,0.20099709928035736
1747979069079144200,2.146144287109375,-0.7722834944725037,-9.187840461730957,0.6658028960227966
1747979069097413400,2.164413330078125,-3.902693748474121,-6.256034851074219,2.183450698852539
1747979069115680800,2.1826806640625,-4.894518852233887,-6.193821430206299,2.496910333633423
1747979069133945000,2.200945068359375,-4.450051784515381,-5.449653625488281,3.486940860748291
1747979069152197600,2.21919775390625,-3.2063822746276855,-4.923830986022949,3.5228331089019775
1747979069170475000,2.23747509765625,-3.1172497272491455,-5.493920803070068,3.914059638977051
1747979069188722400,2.255722412109375,-0.01196411345154047,-6.925426959991455,1.3561322689056396
1747979069207000800,2.274000732421875,11.616556167602539,-7.715058326721191,-5.107480049133301
1747979069225270000,2.29227001953125,7.054041385650635,-5.982056617736816,-1.6660027503967285
1747979069243535400,2.310535400390625,-6.542575359344482,-5.824728488922119,3.500699520111084
1747979069261800400,2.328800537109375,-0.641276478767395,-5.56450891494751,-0.46719861030578613
1747979069280066000,2.347066162109375,-1.8179470300674438,-4.067200183868408,0.18305093050003052
1747979069298331000,2.365330810546875,-1.2035897970199585,-5.337789058685303,1.6480566263198853
1747979069316596200,2.38359619140625,-1.2329018115997314,-5.798407554626465,1.8915263414382935
1747979069334856200,2.401856201171875,-2.338984251022339,-6.519843578338623,1.8735800981521606
1747979069353125000,2.420125,-3.7124643325805664,-7.448258876800537,3.7884364128112793
1747979069371393300,2.438393310546875,-11.35214900970459,-7.801199913024902,3.8668015003204346
1747979069389654500,2.456654541015625,-17.65604019165039,-11.45803165435791,3.0526435375213623
1747979069407923000,2.4749228515625,-17.163118362426758,-18.19382667541504,8.398807525634766
1747979069426187300,2.493187255859375,-11.60100269317627,-16.170696258544922,3.525225877761841
1747979069444447000,2.511447021484375,-6.763911247253418,-10.959726333618164,1.3794622421264648
1747979069462718700,2.52971875,-4.493122577667236,-15.321243286132812,2.042872428894043
1747979069480977700,2.547977783203125,1.8502501249313354,-16.42852210998535,5.136193752288818
1747979069499247900,2.566247802734375,6.395416736602783,-15.931412696838379,6.360720634460449
1747979069517512700,2.5845126953125,1.6277176141738892,-11.559725761413574,1.9680966138839722
1747979069535778000,2.602778076171875,2.609971284866333,-6.744170665740967,-0.39481574296951294
1747979069554043600,2.621043701171875,3.562912940979004,-4.8329033851623535,1.4470595121383667
1747979069572308500,2.63930859375,0.6687939167022705,-4.183252334594727,0.09152546525001526
1747979069590573600,2.657573486328125,0.3655036687850952,-2.7086751461029053,2.375474691390991
1747979069608838400,2.67583837890625,-0.380458801984787,-4.72881555557251,1.389033555984497
1747979069627103500,2.694103515625,-0.2111666053533554,-10.348360061645508,3.600001573562622
1747979069645369000,2.712369140625,1.3280165195465088,-12.460025787353516,3.799204111099243
1747979069663634200,2.73063427734375,-0.4103690981864929,-10.908280372619629,3.111267566680908
1747979069681899300,2.748899169921875,-1.8161523342132568,-7.10010290145874,5.415555953979492
1747979069700164400,2.767164306640625,-1.8029918670654297,-2.9180471897125244,9.841081619262695
1747979069718428400,2.785428466796875,-1.1892328262329102,-4.807778835296631,8.076972961425781
1747979069736696000,2.803696044921875,-0.8099704384803772,-9.727422714233398,5.4143595695495605
1747979069754963700,2.821963623046875,-0.2021935135126114,-10.339386940002441,3.2745778560638428
1747979069773225000,2.840224853515625,-0.3314059376716614,-10.092328071594238,1.0031908750534058
1747979069791489800,2.85848974609375,-0.26440688967704773,-8.344968795776367,0.19740787148475647
1747979069809754000,2.876754150390625,0.3026920557022095,-7.369295597076416,0.06819544732570648
1747979069828029000,2.89502880859375,1.399801254272461,-7.055835723876953,1.200000524520874
1747979069846281200,2.91328125,1.5068800449371338,-8.139185905456543,1.6815561056137085
1747979069864549600,2.931549560546875,0.7262216806411743,-10.220343589782715,2.0338993072509766
1747979069882817000,2.949817138671875,-2.1361923217773438,-11.341979026794434,2.688934564590454
1747979069901081300,2.968081298828125,-4.935196876525879,-10.905887603759766,3.2889347076416016
1747979069919346200,2.98634619140625,-3.3571300506591797,-9.487542152404785,4.028914928436279
1747979069937607000,3.00460693359375,-0.27756741642951965,-10.028918266296387,4.958526611328125
1747979069955876600,3.022876708984375,5.566901683807373,-10.9633150100708,6.891329288482666
1747979069974141700,3.0411416015625,-0.028115665540099144,-9.391230583190918,10.043274879455566
1747979069992405500,3.059405517578125,-4.530211448669434,-8.139784812927246,9.78664493560791
1747979070010674400,3.07767431640625,-4.119842529296875,-9.334999084472656,7.871190071105957
1747979070028936200,3.095936279296875,-2.699103832244873,-10.956734657287598,7.937591075897217
1747979070047202000,3.1142021484375,-1.7491533756256104,-10.969895362854004,9.69511890411377
1747979070065467600,3.132467529296875,-0.747757077217102,-11.237293243408203,7.798807144165039
1747979070083733000,3.15073291015625,-0.3900300860404968,-11.481959342956543,6.200401782989502
1747979070101993000,3.168992919921875,-0.21954147517681122,-12.55274772644043,3.5772697925567627
1747979070120263200,3.18726318359375,1.2023934125900269,-14.630913734436035,2.9114668369293213
1747979070138528300,3.2055283203125,0.4486542344093323,-15.833905220031738,3.0933215618133545
1747979070156793300,3.22379345703125,-0.8446664214134216,-13.48056411743164,3.3672995567321777
1747979070175058700,3.24205859375,-1.7988044023513794,-11.00578784942627,3.4205398559570312
1747979070193318700,3.260318603515625,0.29312077164649963,-10.668997764587402,3.2727832794189453
1747979070211576600,3.27857666015625,-0.7208378314971924,-10.084550857543945,3.4815568923950195
1747979070229843500,3.296843505859375,-0.8410771489143372,-8.411968231201172,4.364508628845215
1747979070248120300,3.315120361328125,0.047258246690034866,-8.107481002807617,3.961317777633667
1747979070266380300,3.33338037109375,0.5413761138916016,-7.758727550506592,2.6213371753692627
1747979070284650000,3.35164990234375,-0.37866419553756714,-6.4289164543151855,2.840280532836914
1747979070302914600,3.36991455078125,0.3128615617752075,-5.420341491699219,2.878565549850464
1747979070321180400,3.388180419921875,0.6999006271362305,-5.265406131744385,2.6865415573120117
1747979070339444000,3.40644384765625,1.0689935684204102,-4.982454776763916,2.93001127243042
1747979070357711400,3.42471142578125,1.1353943347930908,-4.113262176513672,3.1657042503356934
1747979070375971000,3.44297119140625,0.7537391185760498,-4.296911239624023,1.7168502807617188
1747979070394235600,3.461235595703125,0.9834501147270203,-3.814159393310547,1.3106685876846313
1747979070412505900,3.479505859375,1.1312068700790405,-4.636692047119141,0.5198407173156738
1747979070430771200,3.497771240234375,0.8602197170257568,-5.547759532928467,0.672383189201355
1747979070449031400,3.516031494140625,0.2715853750705719,-6.110072612762451,0.8213363885879517
1747979070467300000,3.534300048828125,-0.43130627274513245,-6.799803733825684,1.5535401105880737
1747979070485567500,3.5525673828125,-3.198007345199585,-8.568099975585938,1.5188441276550293
1747979070503831600,3.57083154296875,-10.706087112426758,-10.30469036102295,0.9014959335327148
1747979070522096600,3.5890966796875,-20.481365203857422,-12.979866027832031,2.018944025039673
1747979070540362500,3.607362548828125,-16.57747459411621,-16.37408447265625,4.889732837677002
1747979070558627600,3.625627685546875,-10.890932083129883,-15.584453582763672,4.074976921081543
1747979070576892400,3.643892333984375,-4.85324239730835,-9.646066665649414,5.337191104888916
1747979070595157800,3.66215771484375,-3.5054850578308105,-9.809974670410156,4.401597023010254
1747979070613421800,3.680421875,-6.786045074462891,-14.68235969543457,4.272983074188232
1747979070631689200,3.698689208984375,1.9160526990890503,-15.734004974365234,7.380063056945801
1747979070649952800,3.716952880859375,8.25404167175293,-12.587443351745605,5.404788017272949
1747979070668219600,3.7352197265625,4.73300313949585,-7.36032247543335,3.865604877471924
1747979070686473500,3.753473388671875,4.529015064239502,-5.3832526206970215,3.118446111679077
1747979070704744200,3.771744140625,3.277568817138672,-3.339184045791626,3.434896945953369
1747979070723008300,3.79000830078125,4.459024906158447,-4.803591251373291,2.8797619342803955
1747979070741280500,3.808280517578125,3.2620155811309814,-9.22134017944336,0.8961120843887329
1747979070759544300,3.82654443359375,2.1003000736236572,-11.680563926696777,2.1242282390594482
1747979070777809400,3.844809326171875,1.5852450132369995,-11.202597618103027,3.613760471343994
1747979070796074800,3.86307470703125,-1.469791293144226,-11.387442588806152,3.9260237216949463
1747979070814335700,3.881335693359375,-4.9980082511901855,-9.604191780090332,2.9653055667877197
1747979070832605200,3.899605224609375,-4.514657974243164,-6.841678142547607,2.8630123138427734
1747979070850870500,3.91787060546875,-2.255235433578491,-5.782854080200195,3.601198196411133
1747979070869136000,3.936135986328125,-1.098903775215149,-7.252047061920166,2.496312141418457
1747979070887399700,3.954399658203125,0.8428717851638794,-8.369495391845703,0.16151553392410278
1747979070914799400,3.98179931640625,1.6785650253295898,-7.689933776855469,-0.9487541913986206
1747979070933064200,4.000064208984375,0.8081758618354797,-9.105886459350586,-1.1736794710159302
1747979070951329500,4.01832958984375,-0.3397808074951172,-9.528220176696777,-1.2245270013809204
1747979070969593300,4.03659326171875,-0.4384847581386566,-8.172685623168945,0.8626125454902649
1747979070987861200,4.054861328125,-0.2063809484243393,-7.066603660583496,2.255833625793457
1747979071006120200,4.0731201171875,0.137587308883667,-6.416952133178711,3.1788649559020996
1747979071024392700,4.091392822265625,0.43908295035362244,-6.959524631500244,4.329812526702881
1747979071042654500,4.109654541015625,0.760917603969574,-8.575278282165527,5.776273727416992
1747979071060921000,4.127921142578125,0.6909275650978088,-10.118648529052734,6.787839412689209
1747979071079185700,4.146185546875,0.23988047242164612,-12.196815490722656,7.365108013153076
1747979071097450500,4.164450439453125,0.39900317788124084,-12.32961654663086,9.846465110778809
1747979071115716900,4.182716796875,1.2687941789627075,-13.078570365905762,11.35513973236084
1747979071133977000,4.20097705078125,1.2765709161758423,-11.288141250610352,9.893723487854004
1747979071152246500,4.21924658203125,-6.4319071769714355,-10.792826652526855,6.085546016693115
1747979071170512100,4.23751220703125,-9.46899700164795,-13.71924877166748,4.71027135848999
1747979071188776400,4.2557763671875,-1.7102699279785156,-14.757135391235352,8.493922233581543
1747979071207042800,4.274042724609375,0.5168496966362,-13.199407577514648,8.8648099899292
1747979071225307100,4.29230712890625,0.18544375896453857,-10.799407005310059,8.132007598876953
1747979071243573000,4.310572998046875,0.020338991656899452,-9.279366493225098,6.594619274139404
1747979071261832700,4.328832763671875,0.16809579730033875,-10.268199920654297,6.14835786819458
1747979071280102400,4.347102294921875,1.3549357652664185,-12.478569984436035,5.152345180511475
1747979071298369300,4.365369384765625,2.3497519493103027,-13.927424430847168,4.42612361907959
1747979071316633900,4.3836337890625,1.2335001230239868,-14.9342041015625,4.350749969482422
1747979071334898200,4.401898193359375,-3.098107099533081,-13.541581153869629,3.4199416637420654
1747979071353164500,4.42016455078125,-2.6081767082214355,-11.787642478942871,0.08733802288770676
1747979071371427600,4.438427490234375,-0.7190431952476501,-9.801599502563477,0.13878370821475983
1747979071389694700,4.45669482421875,0.865005373954773,-7.851449489593506,0.46360939741134644
1747979071407963400,4.47496337890625,1.8269200325012207,-6.1363935470581055,0.6981059908866882
1747979071426225400,4.493225341796875,2.4538395404815674,-4.7712883949279785,0.8997012972831726
1747979071444489700,4.51148974609375,2.462812662124634,-3.930211305618286,1.2735798358917236
1747979071471887400,4.538887451171875,1.4464613199234009,-4.300500392913818,1.9591234922409058
1747979071490151700,4.557151611328125,0.5144568681716919,-5.264209747314453,3.1555347442626953
1747979071508416500,4.57541650390625,-0.21176479756832123,-5.977869033813477,4.064807415008545
1747979071526684000,4.593683837890625,0.24107688665390015,-5.866004943847656,3.5192439556121826
1747979071554082000,4.62108203125,1.6767704486846924,-4.150351047515869,0.4815555512905121
1747979071572347100,4.63934716796875,1.3854442834854126,-3.294318675994873,-0.841675341129303
1747979071590611700,4.65761181640625,0.2955136001110077,-3.0000014305114746,-1.948355793952942
1747979071608876800,4.675876708984375,-0.6634100675582886,-3.8315072059631348,-2.325225353240967
1747979071627137500,4.694137451171875,-3.34576416015625,-5.832505226135254,-0.9020941257476807
1747979071645410800,4.712410888671875,-14.456835746765137,-10.218548774719238,5.1565327644348145
1747979071663673300,4.73067333984375,-23.384456634521484,-19.960329055786133,18.281164169311523
1747979071681938200,4.748938232421875,-11.594422340393066,-23.18824577331543,20.656639099121094
1747979071700202500,4.767202392578125,-9.333803176879883,-11.383255958557129,14.608780860900879
1747979071718468600,4.785468505859375,-10.202995300292969,-3.0939197540283203,5.453841209411621
1747979071736733000,4.80373291015625,-4.020540237426758,-4.745565414428711,0.6029912829399109
1747979071754994000,4.821993896484375,0.3858426511287689,-13.345370292663574,0.9158528447151184
1747979071773258500,4.840258544921875,3.8494534492492676,-17.212770462036133,4.198207378387451
1747979071791528000,4.85852783203125,2.0518453121185303,-18.699909210205078,5.447858810424805
1747979071809793800,4.876793701171875,-4.087539196014404,-8.564510345458984,0.7411768436431885
1747979071828061000,4.89506103515625,0.6867401003837585,-4.308277130126953,-1.9609181880950928
1747979071846312000,4.91331201171875,6.927819728851318,-5.254638671875,-1.6600207090377808
1747979071864590600,4.931590576171875,5.694917678833008,-7.926225185394287,1.8634105920791626
1747979071882846000,4.949845947265625,4.092324733734131,-12.529417991638184,5.983253002166748
1747979071901120500,4.96812060546875,3.7124643325805664,-14.706886291503906,8.23848819732666
1747979071919384800,4.986384765625,3.748356580734253,-12.05204963684082,6.970292568206787
1747979071937651500,5.0046513671875,3.2608189582824707,-8.075178146362305,4.18863582611084
1747979071955915300,5.022915283203125,2.7391836643218994,-5.584249973297119,1.8783657550811768
1747979071974176800,5.0411767578125,0.27816563844680786,-6.157928943634033,-0.17347964644432068
1747979071992444200,5.059444091796875,-5.260620594024658,-7.22034215927124,-2.5112674236297607
1747979072010713300,5.07771337890625,-7.618149280548096,-9.166903495788574,-3.040081262588501
1747979072028972000,5.095971923828125,-4.439284324645996,-9.507881164550781,1.0277173519134521
1747979072047242200,5.1142421875,-0.9026923179626465,-8.639883995056152,3.015554666519165
1747979072065506600,5.132506591796875,0.794417142868042,-7.559525012969971,4.060619831085205
1747979072083773000,5.15077294921875,-2.0709879398345947,-6.087340831756592,5.240880012512207
1747979072102037200,5.169037353515625,-4.071387767791748,-5.241477966308594,5.796014785766602
1747979072120298500,5.187298583984375,-0.851844847202301,-5.646463394165039,5.291129112243652
1747979072138566000,5.20556591796875,1.74496591091156,-5.73978328704834,5.209175109863281
1747979072156835000,5.2238349609375,2.26959228515625,-5.779862880706787,5.140979290008545
1747979072175098400,5.242098388671875,1.7383856773376465,-7.881359577178955,6.076572895050049
1747979072193364000,5.260364013671875,1.5499508380889893,-10.763514518737793,7.660621643066406
1747979072211628500,5.278628662109375,1.7228323221206665,-13.053445816040039,8.058428764343262
1747979072229895000,5.29689501953125,0.8213363885879517,-13.99083423614502,6.065207004547119
1747979072248159000,5.315158935546875,-0.41216370463371277,-12.057433128356934,4.152743816375732
1747979072266423800,5.333423828125,-3.971487283706665,-10.188040733337402,3.9906299114227295
1747979072284690400,5.3516904296875,-6.382256031036377,-11.064412117004395,5.348556995391846
1747979072302957800,5.369957763671875,-3.662813186645508,-12.429516792297363,8.520841598510742
1747979072321220400,5.388220458984375,-0.34695929288864136,-12.343974113464355,11.35932731628418
1747979072339486200,5.406486328125,-0.09870393574237823,-10.118050575256348,9.817152976989746
1747979072357750300,5.424750244140625,0.04785645380616188,-8.352147102355957,8.293522834777832
1747979072376011800,5.44301171875,-1.7407784461975098,-10.71984577178955,7.0893354415893555
1747979072394276400,5.4612763671875,0.1256231814622879,-13.83649730682373,4.3686957359313965
1747979072412547000,5.479547119140625,2.4670002460479736,-15.823736190795898,4.5236310958862305
1747979072430811400,5.497811279296875,2.201396942138672,-18.739391326904297,4.094119548797607
1747979072449077200,5.5160771484375,-1.944766640663147,-17.998212814331055,2.239083766937256
1747979072467342000,5.534342041015625,-4.348955154418945,-13.811372756958008,1.9776679277420044
1747979072485607700,5.552607666015625,-1.4195420742034912,-10.500304222106934,1.6510475873947144
1747979072503872300,5.570872314453125,0.4169493317604065,-8.214560508728027,1.3202399015426636
1747979072522138600,5.589138671875,2.1296122074127197,-6.1944193840026855,1.5296118259429932
1747979072540402000,5.60740185546875,2.4670002460479736,-4.4859442710876465,1.9519450664520264
1747979072558669600,5.625669677734375,3.236292600631714,-3.448655605316162,2.496910333633423
1747979072586058200,5.653058349609375,0.9744769930839539,-2.929413080215454,3.8183467388153076
1747979072604330500,5.67133056640625,-1.1132607460021973,-3.1034910678863525,5.4867424964904785
1747979072622597400,5.689597412109375,-0.09571290761232376,-3.3415768146514893,4.2693939208984375
1747979072640861200,5.707861083984375,1.831107497215271,-3.08135724067688,1.3244273662567139
1747979072659126500,5.72612646484375,2.4113669395446777,-2.6907291412353516,-0.24047867953777313
1747979072677387800,5.7443876953125,1.999801516532898,-2.204986095428467,-1.2382856607437134
1747979072695656200,5.76265625,1.573280930519104,-2.108076810836792,-2.1415762901306152
1747979072713922300,5.78092236328125,0.26440688967704773,-2.9144580364227295,-3.1250264644622803
1747979072732187600,5.799187744140625,-1.2646067142486572,-4.289732933044434,-3.290729284286499
1747979072750452000,5.817451904296875,-5.656632900238037,-7.445865631103516,-0.22013968229293823
1747979072768719000,5.835718994140625,-25.974687576293945,-15.248262405395508,11.732009887695312
1747979072786978300,5.853978271484375,-17.940187454223633,-25.308286666870117,25.363920211791992
1747979072805248800,5.872248779296875,-9.287740707397461,-22.354347229003906,19.63909149169922
1747979072823513900,5.890513916015625,-11.057233810424805,-10.660024642944336,9.759127616882324
1747979072841779000,5.908779052734375,-7.625925540924072,-10.36929702758789,5.055436134338379
1747979072860044000,5.9270439453125,-0.7932206988334656,-16.44586944580078,2.0333011150360107
1747979072878309400,5.945309326171875,1.7168502807617188,-16.213167190551758,6.714858531951904
1747979072896574500,5.963574462890625,7.913064479827881,-10.086345672607422,6.518647193908691
1747979072914840000,5.981840087890625,0.9188438653945923,-3.463610887527466,-1.984248161315918
1747979072933100300,6.000100341796875,-4.5816569328308105,-0.7890332937240601,-6.535397052764893
1747979072951370200,6.018370361328125,5.269593715667725,-1.1001001596450806,-3.157329559326172
1747979072969634600,6.036634521484375,4.861617565155029,-4.261617183685303,-2.7732813358306885
1747979072987902000,6.05490185546875,3.6227335929870605,-10.458429336547852,0.2626122832298279
1747979073006166300,6.073166259765625,3.178266763687134,-16.6719913482666,5.946164131164551
1747979073024430000,6.09143017578125,3.363710403442383,-18.46660804748535,10.137192726135254
1747979073042685700,6.109685791015625,3.8219358921051025,-12.08614730834961,5.936593055725098
1747979073070094800,6.1370947265625,-5.678766250610352,-6.081358909606934,2.077568292617798
1747979073088359200,6.155359130859375,-10.083354949951172,-5.100899696350098,1.2418749332427979
1747979073106625500,6.17362548828125,-4.9160542488098145,-5.565705299377441,4.37228536605835
1747979073124890600,6.191890625,-0.1178465187549591,-6.334399700164795,3.9828531742095947
1747979073143151000,6.210151123046875,2.146361827850342,-6.611967086791992,3.0305099487304688
1747979073161419300,6.228419189453125,2.2259232997894287,-7.139584541320801,3.202194929122925
1747979073179686700,6.246686767578125,1.2580264806747437,-6.973283290863037,3.5533416271209717
1747979073197953000,6.264953125,0.7070791125297546,-6.068198204040527,3.0729825496673584
1747979073216216600,6.283216552734375,-0.2997010350227356,-5.877968788146973,3.022733211517334
1747979073234481400,6.3014814453125,-3.4480574131011963,-7.692326545715332,3.0269205570220947
1747979073252747500,6.31974755859375,-3.2584261894226074,-8.400602340698242,3.6329028606414795
1747979073271008000,6.338008056640625,-0.6095715761184692,-8.531010627746582,5.396413326263428
1747979073289278200,6.3562783203125,0.4163511395454407,-10.202995300292969,5.946762561798096
1747979073307542500,6.37454248046875,-0.7423732280731201,-12.915260314941406,5.127819061279297
1747979073325808600,6.39280859375,-0.9433703422546387,-13.835898399353027,4.634299278259277
1747979073344073200,6.4110732421875,-0.0023928226437419653,-11.967702865600586,7.466204643249512
1747979073362338800,6.4293388671875,-0.48514479398727417,-11.1373929977417,9.56770133972168
1747979073380603400,6.447603271484375,0.3367897868156433,-12.513265609741211,12.07059383392334
1747979073398869500,6.465869384765625,1.472184181213379,-13.424333572387695,15.022140502929688
1747979073417127200,6.484127197265625,-0.9415757060050964,-14.144573211669922,15.098113059997559
1747979073435402000,6.502402099609375,-5.656034469604492,-14.4861478805542,9.000602722167969
1747979073453664800,6.520664794921875,-2.9521448612213135,-14.914463996887207,4.866403102874756
1747979073471930600,6.5389306640625,3.342773199081421,-14.873187065124512,3.9008991718292236
1747979073490190000,6.557190185546875,3.3984062671661377,-15.675979614257812,4.61276388168335
1747979073508459500,6.57545947265625,3.1920254230499268,-15.385849952697754,3.786043643951416
1747979073526726400,6.593726318359375,3.0311081409454346,-15.257235527038574,2.1649062633514404
1747979073544986600,6.611986572265625,-3.280559778213501,-14.373087882995605,0.6113662123680115
1747979073563256000,6.630256103515625,-3.7603209018707275,-11.36949634552002,-1.119242787361145
1747979073581521000,6.64852099609375,-0.5563312768936157,-7.59362268447876,-1.2741780281066895
1747979073599785700,6.66678564453125,2.7672994136810303,-4.9639105796813965,-1.191625714302063
1747979073618053400,6.685053466796875,3.455834150314331,-2.8905298709869385,-0.21415762603282928
1747979073636317000,6.70331689453125,3.0999016761779785,-1.7485551834106445,0.6299105882644653
1747979073654577700,6.72157763671875,3.0101709365844727,-0.711864709854126,1.277169108390808
1747979073672847000,6.73984716796875,2.8755745887756348,-0.19322042167186737,1.923829436302185
1747979073691113700,6.75811376953125,2.4610180854797363,-0.16271193325519562,2.292922258377075
1747979073709378800,6.77637890625,1.7276179790496826,-1.1330015659332275,2.5082762241363525
1747979073727642600,6.794642578125,-3.4672000408172607,-3.6646077632904053,0.6604190468788147
1747979073745901600,6.812901611328125,-2.664407968521118,-5.07517671585083,-0.5724828243255615
1747979073764171500,6.831171630859375,-2.947359323501587,-5.207380294799805,-0.8973084688186646
1747979073782437600,6.849437744140625,-7.8556365966796875,-5.277968406677246,0.763310432434082
1747979073800705500,6.86770556640625,-16.092927932739258,-7.299305438995361,14.242080688476562
1747979073818964500,6.885964599609375,-16.976478576660156,-14.647664070129395,16.170696258544922
1747979073837235200,6.904235107421875,-15.497714042663574,-11.97188949584961,13.401601791381836
1747979073855499500,6.92249951171875,-14.108680725097656,-6.178866386413574,11.833703994750977
1747979073873765600,6.940765625,-6.685546398162842,-3.022135019302368,12.309876441955566
1747979073892029200,6.959029296875,5.0907301902771,-0.2350948303937912,5.67338228225708
1747979073910296300,6.97729638671875,7.999206066131592,-0.4707878530025482,-0.7806583642959595
1747979073928560600,6.995560546875,4.737788677215576,-2.7320053577423096,-3.2063822746276855
1747979073946826200,7.013826171875,-33.67837905883789,-7.69531774520874,-15.966109275817871
1747979073965090800,7.0320908203125,4.529613494873047,-9.370293617248535,-10.834102630615234
1747979073983357200,7.050357177734375,5.91505765914917,-8.737990379333496,-5.85703182220459
1747979074001611800,7.06861181640625,4.886143684387207,-10.27597713470459,-2.6147570610046387
1747979074019886000,7.086885986328125,5.62373161315918,-14.796616554260254,-2.12542462348938
1747979074038148600,7.105148681640625,1.7832510471343994,-20.19183349609375,1.654038667678833
1747979074056416800,7.123416748046875,0.20398813486099243,-22.94776725769043,4.4033918380737305
1747979074074683400,7.141683349609375,0.04307080805301666,-23.023141860961914,5.0638108253479
1747979074092948200,7.1599482421875,1.9423737525939941,-24.15554428100586,10.1276216506958
1747979074111212500,7.178212646484375,2.392822742462158,-24.46481704711914,13.182658195495605
1747979074129479200,7.196479248046875,0.7190431952476501,-18.180068969726562,17.307884216308594
1747979074147743000,7.214742919921875,-7.777271747589111,-13.28255844116211,21.303300857543945
1747979074166005500,7.233005615234375,-23.734407424926758,-12.05085277557373,14.644074440002441
1747979074184269800,7.251269775390625,-11.630314826965332,-7.5673017501831055,14.246268272399902
1747979074202539800,7.269539794921875,-7.854440212249756,-6.343971252441406,6.640082836151123
1747979074220804000,7.28780419921875,-4.205385684967041,-5.346164226531982,3.964907169342041
1747979074239070500,7.306070556640625,-0.4899304509162903,-3.259622573852539,2.9599215984344482
1747979074257329400,7.324329345703125,2.4329023361206055,-0.600000262260437,1.2831511497497559
1747979074275599600,7.342599609375,1.846660852432251,0.6131607890129089,-0.20578274130821228
1747979074293866000,7.360865966796875,1.1383854150772095,0.5784648656845093,-1.017547845840454
1747979074312131000,7.379131103515625,0.544965386390686,1.526620864868164,-1.191625714302063
1747979074330396700,7.397396728515625,-8.434102058410645,3.4504501819610596,-0.1698904037475586
1747979074348660700,7.41566064453125,-4.421338081359863,1.23589289188385,-2.9461629390716553
1747979074366926300,7.43392626953125,-1.5308083295822144,-0.6448656916618347,-2.9599215984344482
1747979074385192000,7.45219189453125,-1.0348957777023315,-1.7724833488464355,-1.4416756629943848
1747979074403457500,7.47045751953125,-4.412963390350342,-3.2709884643554688,-0.22133609652519226
1747979074421721600,7.4887216796875,-2.736790895462036,-4.484747886657715,1.7676976919174194
1747979074439982300,7.506982421875,-1.2580264806747437,-9.495318412780762,9.122636795043945
1747979074458253000,7.525253173828125,-1.8801604509353638,-25.11147689819336,19.537397384643555
1747979074476517400,7.543517333984375,0.9690931439399719,-53.28277587890625,14.71346664428711
1747979074494783700,7.56178369140625,-12.307483673095703,-53.87260818481445,30.28057289123535
1747979074513043500,7.58004345703125,-12.169896125793457,-27.13221549987793,33.06342697143555
1747979074531313000,7.59831298828125,-6.359524250030518,-17.53580093383789,22.145572662353516
1747979074549580000,7.616580078125,-0.6963114142417908,-11.71705436706543,17.540586471557617
1747979074576962000,7.643962158203125,3.3074791431427,-6.845267295837402,3.8458642959594727
1747979074595242800,7.66224267578125,2.407777786254883,-3.455834150314331,-0.4091726839542389
1747979074613506000,7.680506103515625,3.8775691986083984,-0.9457631707191467,-2.5609183311462402
1747979074631772000,7.69877197265625,3.7130625247955322,-1.4063814878463745,-2.87198543548584
1747979074650036700,7.71703662109375,2.8462624549865723,-1.0929217338562012,-2.572882652282715
1747979074668302300,7.73530224609375,3.3469607830047607,-0.753140926361084,-1.430907964706421
1747979074686562000,7.75356201171875,7.06062126159668,1.1108678579330444,-0.6424728631973267
1747979074704832800,7.771832763671875,11.4981107711792,3.9732820987701416,-0.45164528489112854
1747979074723097900,7.790097900390625,11.662617683410645,5.353342533111572,-3.6017963886260986
1747979074741363500,7.808363525390625,5.812764644622803,5.7750773429870605,-4.984847545623779
1747979074759627000,7.826626953125,0.47796630859375,3.606581926345825,-2.451446771621704
1747979074777895000,7.84489501953125,-1.2233306169509888,0.6185446381568909,-0.4911268353462219
1747979074796158700,7.86315869140625,-25.53799819946289,-9.043673515319824,6.7178497314453125
1747979074814418200,7.881418212890625,-28.664819717407227,-11.324631690979004,13.971691131591797
1747979074832689400,7.899689453125,3.183650493621826,-7.160521984100342,-1.1330015659332275
1747979074850956300,7.917956298828125,9.166903495788574,-14.322837829589844,-9.817750930786133
1747979074869220000,7.93622021484375,6.150750637054443,-18.005990982055664,-13.049856185913086
1747979074887485000,7.95448486328125,5.526822090148926,-18.029319763183594,-8.676973342895508
1747979074905750800,7.972750732421875,3.029911756515503,-15.847664833068848,-1.0019944906234741
1747979074924011500,7.991011474609375,2.571686029434204,-18.86082649230957,1.8406788110733032
1747979074942281000,8.009281005859375,3.9020955562591553,-24.23869514465332,3.8913278579711914
1747979074960546000,8.027546142578124,6.14835786819458,-31.328628540039062,12.217154502868652
1747979074978811400,8.045811279296874,5.373083114624023,-35.93002700805664,18.396617889404297
1747979074997076500,8.064076416015626,7.143173694610596,-33.60300827026367,14.469398498535156
1747979075015341600,8.082341552734375,5.861817359924316,-31.761730194091797,27.579673767089844
1747979075033607000,8.10060693359375,-57.92245864868164,-19.5338077545166,42.299720764160156
1747979075051872300,8.118872314453125,-27.795028686523438,-5.292325496673584,21.655044555664062
1747979075070132700,8.1371328125,4.345963954925537,-4.524827480316162,8.601000785827637
1747979075088401200,8.155401123046875,3.1034910678863525,-5.427519798278809,5.85703182220459
1747979075106669300,8.17366943359375,-0.24646073579788208,-2.5052852630615234,3.634697675704956
1747979075124933000,8.19193310546875,-0.2877369225025177,0.2967100143432617,1.80717933177948
1747979075143198500,8.210198486328125,1.4673985242843628,1.8317056894302368,0.6765705943107605
1747979075161463800,8.2284638671875,1.7748762369155884,2.537588357925415,0.34217363595962524
1747979075179727600,8.2467275390625,0.7286145091056824,1.4452649354934692,-0.0729810893535614
1747979075197990100,8.264990234375,0.36670008301734924,0.9050851464271545,-0.623330295085907
1747979075216259300,8.28325927734375,-0.0891326442360878,0.6460621356964111,-1.2634103298187256
1747979075236798000,8.3037978515625,-0.2967100143432617,0.21415762603282928,-1.550549030303955
1747979075255067400,8.3220673828125,0.062213387340307236,-0.5850451588630676,0.23808585107326508
1747979075273340700,8.340340576171876,-1.0067801475524902,-1.6253247261047363,0.9756734371185303
1747979075291604200,8.358604248046875,-1.4799607992172241,-2.1672990322113037,1.0390832424163818
1747979075309869800,8.376869873046875,-33.55155944824219,-37.53740692138672,26.724838256835938
1747979075328122000,8.3951220703125,5.435296535491943,-87.34161376953125,35.53102493286133
1747979075346396200,8.413396240234375,-21.744176864624023,-45.18008041381836,43.692344665527344
1747979075364651500,8.431651611328125,-9.057432174682617,-16.10728645324707,17.763118743896484
1747979075382931500,8.449931396484375,2.111665964126587,-6.690331935882568,12.53839111328125
1747979075401195800,8.46819580078125,3.649054527282715,-2.8564319610595703,5.288137912750244
1747979075419461000,8.486461181640625,4.997410297393799,0.16869398951530457,0.030508488416671753
1747979075437722000,8.50472216796875,6.200401782989502,-0.9505487680435181,-2.8630123138427734
1747979075455991600,8.522991455078126,6.271588325500488,-1.4344971179962158,-3.2243285179138184
1747979075474256600,8.541256591796875,6.4217376708984375,-1.8496519327163696,-3.507878065109253
1747979075492522000,8.55952197265625,5.767899036407471,-1.353141188621521,-2.6536402702331543
1747979075510787000,8.577787109375,14.698511123657227,1.8753747940063477,-2.830709218978882
1747979075529052700,8.596052734375,15.757335662841797,5.038686275482178,-4.231706619262695
1747979075547317000,8.61431689453125,9.08554744720459,7.506882667541504,-5.227719306945801
1747979075565583600,8.63258349609375,2.909074068069458,10.53081226348877,0.8356932997703552
1747979075583840800,8.6508408203125,-1.3884353637695312,1.5080764293670654,-2.1649062633514404
1747979075602109200,8.669109130859376,-3.668795347213745,-1.4883357286453247,-3.4468610286712646
1747979075620377600,8.687377685546876,-18.810577392578125,-5.923432350158691,0.0729810893535614
1747979075638644500,8.70564453125,-26.821149826049805,-15.042479515075684,6.296114444732666
1747979075656909000,8.723908935546875,-5.732006549835205,-19.55354881286621,-1.5308083295822144
1747979075675175000,8.7421748046875,15.611372947692871,-56.02495193481445,-19.412372589111328
1747979075693439000,8.76043896484375,-5.36650276184082,-26.866613388061523,2.454437732696533
1747979075711700200,8.7787001953125,0.9864411354064941,-8.346165657043457,3.0903303623199463
1747979075729970200,8.79697021484375,3.7154552936553955,-2.2444677352905273,1.0893324613571167
1747979075748235300,8.8152353515625,13.448261260986328,-5.155934810638428,1.968694806098938
1747979075766500600,8.83350048828125,15.373287200927734,-15.736397743225098,6.202794551849365
1747979075784762600,8.8517626953125,8.394021987915039,-30.95594596862793,12.506087303161621
1747979075803031000,8.870031005859374,5.265406131744385,-32.569305419921875,18.054445266723633
1747979075821296400,8.88829638671875,17.837295532226562,-28.977081298828125,23.27977180480957
1747979075839561500,8.9065615234375,0.771087110042572,-28.712675094604492,29.55614471435547
1747979075857826800,8.924826904296875,-82.00083923339844,-19.795223236083984,17.766708374023438
1747979075876091400,8.94309130859375,-6.970292568206787,-7.864609718322754,15.147764205932617
1747979075894357800,8.961357666015624,6.996613502502441,-7.320840835571289,6.909275531768799
1747979075912622300,8.979622314453126,2.9754750728607178,-5.065007209777832,5.787639617919922
1747979075930887700,8.9978876953125,-0.13280165195465088,-2.039283037185669,3.668795347213745
1747979075949147600,9.016147705078126,-0.35533416271209717,0.4372883439064026,1.0887342691421509
1747979075967418000,9.034418212890625,2.2743778228759766,2.344966173171997,-0.48035913705825806
1747979075985681200,9.05268115234375,-1.3268201351165771,3.4408788681030273,0.4911268353462219
1747979076003948800,9.07094873046875,-8.759525299072266,2.792423963546753,-1.8562321662902832
1747979076022213600,9.089213623046875,-0.08195417374372482,0.48813581466674805,-1.6707884073257446
1747979076040479000,9.10747900390625,1.933998942375183,-0.15194423496723175,-1.6576279401779175
1747979076058744800,9.125744873046875,1.820937991142273,-0.8404789566993713,0.3810569941997528
1747979076077009400,9.144009521484374,0.5383850932121277,-1.430907964706421,0.8386843204498291
1747979076104409000,9.1714091796875,-14.997015953063965,-12.2135648727417,13.700704574584961
1747979076122677800,9.189677734375,-10.074381828308105,-54.05565643310547,22.94477653503418
1747979076140938800,9.207938720703124,-1.8969101905822754,-71.98627471923828,20.684755325317383
1747979076159199000,9.226198974609375,-6.452246189117432,-39.125640869140625,33.94158935546875
1747979076177470200,9.24447021484375,-10.908280372619629,-19.42493438720703,22.205394744873047
1747979076195730700,9.262730712890624,-2.0709879398345947,-11.109277725219727,10.02413272857666
1747979076213999600,9.28099951171875,2.9718856811523438,-5.752943992614746,5.505885124206543
1747979076232265000,9.299264892578124,3.3415768146514893,-0.7782655358314514,0.9619147181510925
1747979076250530000,9.317530029296876,3.6053855419158936,1.46500563621521,-2.459223508834839
1747979076284774700,9.351774658203125,2.7559335231781006,-1.9100706577301025,-2.98085880279541
1747979076303040500,9.37004052734375,2.166102647781372,-1.8969101905822754,-2.022533416748047
1747979076321305900,9.388305908203124,3.0382864475250244,-0.9553344249725342,-0.5216353535652161
1747979076339571000,9.406571044921876,12.582657814025879,2.039283037185669,-0.7962117195129395
1747979076357835500,9.42483544921875,17.86481475830078,4.749752998352051,-2.4538395404815674
1747979076376101000,9.44310107421875,13.889139175415039,4.205984115600586,-6.7316083908081055
1747979076394361300,9.461361328125,4.390231132507324,4.599603176116943,-2.9940192699432373
1747979076412630500,9.479630615234376,1.693520188331604,4.310669898986816,1.196411371231079
1747979076430898000,9.49789794921875,-1.0348957777023315,-2.4987051486968994,-0.30927231907844543
1747979076449162500,9.51616259765625,-29.14936637878418,-7.898707389831543,11.534003257751465
1747979076467426600,9.534426513671875,-19.482959747314453,-8.6243314743042,10.292128562927246
1747979076485689600,9.552689697265626,-2.2606191635131836,-5.494519233703613,1.119242787361145
1747979076503960600,9.570960693359375,8.751151084899902,-7.451249599456787,-7.717451095581055
1747979076522223400,9.589223388671876,13.12702465057373,-16.296916961669922,-15.224333763122559
1747979076540488400,9.607488525390625,1.852044701576233,-30.987651824951172,-14.240285873413086
1747979076558754000,9.625754150390625,-7.107281684875488,-33.92304611206055,-1.8137595653533936
1747979076577014500,9.6440146484375,0.8991031050682068,-16.789838790893555,5.347958564758301
1747979076595284200,9.6622841796875,2.9174489974975586,-16.04387664794922,5.531607627868652
1747979076613549300,9.68054931640625,10.48953628540039,-29.466413497924805,15.376876831054688
1747979076631815000,9.69881494140625,9.44626522064209,-37.0408935546875,20.53819465637207
1747979076650079500,9.71707958984375,7.06062126159668,-33.074790954589844,14.972489356994629
1747979076668345000,9.735344970703125,11.547761917114258,-25.255046844482422,21.22493553161621
1747979076686598700,9.7535986328125,-37.666019439697266,-23.422143936157227,27.939794540405273
1747979076704876000,9.7718759765625,-35.23431396484375,-11.12483024597168,18.98944091796875
1747979076723140400,9.790140380859375,3.6197423934936523,-6.7106709480285645,9.900303840637207
1747979076741399800,9.80839990234375,6.332605361938477,-4.468596458435059,6.951149940490723
1747979076759671300,9.82667138671875,0.8315058946609497,-2.6901309490203857,5.42572546005249
1747979076777938000,9.84493798828125,0.1579262912273407,0.1950150430202484,2.671586513519287
1747979076796201200,9.863201171875,1.2065808773040771,2.293520450592041,0.6059823632240295
1747979076814466800,9.881466796875,0.9553344249725342,3.924229145050049,0.7046862840652466
1747979076832732000,9.89973193359375,-4.529613494873047,4.934000492095947,1.1150553226470947
1747979076850993000,9.917992919921875,-4.195216178894043,4.210171222686768,0.43908295035362244
1747979076869262300,9.936262451171874,0.15254244208335876,1.8041882514953613,-0.004187439568340778
1747979076887527400,9.95452734375,1.700698733329773,0.9655039310455322,-0.01375873014330864
1747979076905793000,9.97279296875,1.022931694984436,0.22372891008853912,1.067797064781189
1747979076924058400,9.991058349609375,-0.11545369029045105,-1.0671988725662231,2.3736801147460938
1747979076942323700,10.00932373046875,0.0023928226437419653,-3.972085475921631,8.070392608642578
1747979076960587800,10.027587890625,-19.89751625061035,-35.25225830078125,22.121047973632812
1747979076978852900,10.045852783203125,8.922835350036621,-79.88318634033203,7.747361660003662
1747979076997115400,10.064115478515625,2.249253273010254,-60.02873992919922,16.15035629272461
1747979077015383000,10.082383056640625,-26.638097763061523,-25.94417953491211,30.07419204711914
1747979077033650700,10.100650634765625,-8.980263710021973,-14.83250904083252,16.229320526123047
1747979077051914800,10.118914794921874,1.7593228816986084,-10.293923377990723,8.487939834594727
1747979077070180600,10.1371806640625,4.76829719543457,-6.770491600036621,5.5692949295043945
1747979077088443600,10.155443603515625,6.461219310760498,-4.267599105834961,0.9152546525001526
1747979077106711300,10.173711181640625,5.222933769226074,-2.410768747329712,-2.6566312313079834
1747979077124971500,10.191971435546876,5.0841498374938965,-1.1467602252960205,-2.922234535217285
1747979077143241200,10.2102412109375,6.739983081817627,-1.3872389793395996,-2.7828526496887207
1747979077161506000,10.228506103515626,13.49432373046875,-1.0444670915603638,-3.5096726417541504
1747979077179771100,10.246771240234375,22.47219467163086,1.4452649354934692,-2.593221426010132
1747979077198025000,10.26502490234375,15.427125930786133,4.898705959320068,-3.7112679481506348
1747979077216302000,10.283302001953125,4.687539577484131,7.606184959411621,-1.5792629718780518
1747979077234555100,10.30155517578125,5.325825214385986,12.963116645812988,2.5160529613494873
1747979077252827600,10.31982763671875,-0.030508488416671753,1.6235301494598389,-2.2857437133789062
1747979077271101000,10.338100830078124,-8.031509399414062,-3.45882511138916,-1.6390835046768188
1747979077289364000,10.356364013671875,-26.08954429626465,-7.200003147125244,2.7804598808288574
1747979077307627300,10.374627197265625,-10.546963691711426,-7.987840175628662,-0.1333998590707779
1747979077325893000,10.39289306640625,-1.5966109037399292,-9.233902931213379,-4.167698860168457
1747979077344154000,10.411154052734375,8.505288124084473,-14.924633026123047,-13.676775932312012
1747979077362422500,10.429422607421875,-28.630123138427734,-38.69194030761719,-17.302499771118164
1747979077380689400,10.447689453125,4.479363918304443,-40.85505294799805,-9.639486312866211
1747979077398954500,10.46595458984375,3.9122650623321533,-20.367706298828125,3.7818562984466553
1747979077417219000,10.484218994140624,8.112266540527344,-13.61635684967041,7.689933776855469
1747979077435484700,10.502484619140626,15.52104377746582,-19.44467544555664,12.787842750549316
1747979077453749000,10.5207490234375,15.451652526855469,-34.045677185058594,25.130619049072266
1747979077472010800,10.5390107421875,4.196412563323975,-39.926639556884766,12.697513580322266
1747979077490280000,10.557280029296875,2.3736801147460938,-28.97588539123535,16.504493713378906
1747979077508545500,10.575545654296874,6.505486488342285,-21.96670913696289,23.115264892578125
1747979077526810400,10.593810302734376,-77.3898696899414,-16.680965423583984,32.53700256347656
1747979077545075700,10.61207568359375,-16.523635864257812,-5.547161102294922,18.516260147094727
1747979077563341000,10.630341064453125,5.7134623527526855,-4.9160542488098145,8.109275817871094
1747979077581602800,10.648602783203126,3.001796007156372,-4.2245283126831055,7.1886372566223145
1747979077599874800,10.666874755859375,-0.21954147517681122,-2.4335005283355713,4.725226402282715
1747979077618136600,10.685136474609376,0.1908276081085205,0.28534409403800964,2.294118642807007
1747979077636400600,10.703400634765625,3.135794162750244,3.424727439880371,0.9002995491027832
1747979077654668300,10.721668212890625,1.6845471858978271,4.718646049499512,0.7471588850021362
1747979077672932000,10.73993212890625,-0.4426721930503845,3.084946632385254,0.381655216217041
1747979077691193900,10.75819384765625,-0.9547362327575684,1.3435698747634888,-0.9828519225120544
1747979077709461800,10.776461669921876,-1.342971682548523,0.45643091201782227,-2.073979139328003
1747979077727729400,10.7947294921875,-1.6827524900436401,0.2063809484243393,-2.1020946502685547
1747979077745988000,10.812988037109376,1.189831018447876,-0.28594231605529785,0.009571290574967861
1747979077764253700,10.831253662109376,0.06699903309345245,-1.4817553758621216,1.5314065217971802
1747979077782521900,10.84952197265625,-1.7623138427734375,-2.5363919734954834,2.710469961166382
1747979077800790300,10.867790283203124,-31.635507583618164,-28.470401763916016,21.37687873840332
1747979077819053800,10.8860537109375,-5.5136613845825195,-85.28498840332031,21.45943260192871
1747979077837319400,10.9043193359375,-9.796216011047363,-66.51209259033203,27.583263397216797
1747979077855579600,10.92257958984375,-6.996613502502441,-23.39163589477539,19.23530387878418
1747979077873849900,10.940849853515624,-0.25722843408584595,-8.39282512664795,10.40339469909668
1747979077892114200,10.9591142578125,-0.6400800347328186,-2.196611166000366,9.872786521911621
1747979077910380500,10.977380615234376,0.2997010350227356,2.3676979541778564,8.026124954223633
1747979077928645000,10.99564501953125,3.48993182182312,1.4422738552093506,0.6239284873008728
1747979077946910700,11.01391064453125,3.970889091491699,-0.7657032608985901,-1.9722840785980225
1747979077965175600,11.032175537109374,3.94097900390625,-0.6376872062683105,-2.5986053943634033
1747979077983440100,11.050440185546876,4.471587181091309,-0.7776673436164856,-2.050050735473633
1747979078001707300,11.068707275390626,14.036895751953125,-0.3284149169921875,-1.5535401105880737
1747979078019969800,11.0869697265625,23.452653884887695,2.0213370323181152,-1.0785647630691528
1747979078038239700,11.10523974609375,16.718652725219727,4.360321044921875,-3.9110686779022217
1747979078056498700,11.123498779296876,5.089533805847168,2.8528428077697754,-3.1992039680480957
1747979078074770000,11.14177001953125,2.42093825340271,1.5499508380889893,-3.022733211517334
1747979078093032200,11.1600322265625,-1.191625714302063,0.3433700501918793,1.1395817995071411
1747979078111292700,11.178292724609374,-25.485355377197266,-6.522834300994873,4.612165451049805
1747979078129561600,11.1965615234375,-15.340984344482422,-5.887540340423584,3.6053855419158936
1747979078147829200,11.214829345703125,-8.550153732299805,-7.916055679321289,0.24466611444950104
1747979078166093300,11.23309326171875,1.7228323221206665,-8.585447311401367,-6.254240036010742
1747979078184353800,11.251353759765625,6.6006011962890625,-17.462221145629883,-13.494921684265137
1747979078202623500,11.26962353515625,-9.230911254882812,-35.575889587402344,-13.682159423828125
1747979078220888800,11.287888916015625,0.062213387340307236,-34.62653732299805,-1.1078768968582153
1747979078239154200,11.306154296875,0.5096712112426758,-19.950756072998047,7.35314416885376
1747979078257417700,11.324417724609376,3.2177481651306152,-15.421741485595703,8.037490844726562
1747979078275685400,11.342685302734376,12.104691505432129,-23.635704040527344,16.21376609802246
1747979078293948700,11.36094873046875,8.657830238342285,-32.26601791381836,24.00958251953125
1747979078312216000,11.379216064453125,5.161916732788086,-29.349166870117188,18.94696807861328
1747979078330479900,11.39747998046875,9.623334884643555,-23.410181045532227,16.401004791259766
1747979078348745000,11.415744873046876,-27.004199981689453,-20.95514488220215,37.89213943481445
1747979078367005700,11.434005615234375,-33.32244873046875,-7.109076023101807,22.969900131225586
1747979078385274600,11.452274658203125,2.6386852264404297,-3.656233072280884,9.758528709411621
1747979078403541800,11.470541748046875,6.464808464050293,-4.493122577667236,6.44387149810791
1747979078421805600,11.4888056640625,1.3483555316925049,-2.2606191635131836,5.353342533111572
1747979078440071700,11.50707177734375,0.3128615617752075,0.08015955984592438,1.8245272636413574
1747979078458336500,11.52533642578125,0.7740781307220459,2.0057835578918457,-0.09631111472845078
1747979078476601600,11.5436015625,-1.2448660135269165,3.9254255294799805,0.8003991842269897
1747979078494866700,11.56186669921875,-7.141379356384277,5.14576530456543,0.666999340057373
1747979078513132000,11.580132080078124,0.2638086974620819,2.297708034515381,-0.1663011759519577
1747979078531397000,11.598397216796876,1.9938194751739502,0.9684949517250061,-1.205384373664856
1747979078549661700,11.61666162109375,1.8293129205703735,0.42771705985069275,-1.2436695098876953
1747979078567929000,11.63492919921875,1.2047861814498901,0.06041877344250679,-0.28654050827026367
1747979078586180600,11.6531806640625,0.9655039310455322,-0.6317051649093628,0.5688936114311218
1747979078597725700,11.6647255859375,-0.2153540402650833,-1.4380863904953003,1.1060823202133179
1747979078615862800,11.68286279296875,-6.6143598556518555,-3.7046875953674316,4.443471431732178
1747979078634140000,11.701139892578125,-24.57967185974121,-27.8243408203125,24.44746971130371
1747979078652406300,11.71940625,4.985445976257324,-89.02676391601562,33.699317932128906
1747979078670671400,11.73767138671875,-24.933809280395508,-52.015777587890625,43.71088790893555
1747979078688935000,11.755934814453125,-11.286944389343262,-20.57169532775879,16.804195404052734
1747979078716333800,11.783333740234376,3.867997884750366,-6.660421848297119,8.506484031677246
1747979078734599200,11.80159912109375,4.082155227661133,-2.1409780979156494,4.522434711456299
1747979078752865300,11.819865234375,2.995215654373169,1.755135416984558,-0.5389832854270935
1747979078771128800,11.83812890625,3.0275187492370605,0.7076773047447205,-3.104687452316284
1747979078789394700,11.856394775390624,3.0520453453063965,-0.973878800868988,-3.0005996227264404
1747979078807660000,11.874659912109376,3.142972469329834,-1.960319995880127,-2.679363250732422
1747979078825926100,11.892926025390626,6.543173313140869,-1.8945173025131226,-2.671586513519287
1747979078844178400,11.911178466796875,12.602996826171875,-0.12741780281066895,-1.0803594589233398
1747979078862455600,11.92945556640625,19.354944229125977,2.042274236679077,-3.4791641235351562
1747979078880714800,11.94771484375,11.727822303771973,2.4598217010498047,-4.932205677032471
1747979078898984200,11.965984130859376,3.9224345684051514,0.4773681163787842,-3.342175006866455
1747979078917250600,11.98425048828125,1.6666009426116943,4.350749969482422,3.170490026473999
1747979078935517000,12.002516845703125,-4.071387767791748,-3.108874797821045,0.5880361795425415
1747979078953781500,12.020781494140625,-27.382863998413086,-6.711867332458496,6.997211456298828
1747979078972050200,12.03905029296875,-14.279767036437988,-7.442874908447266,3.363112211227417
1747979078990311700,12.057311767578126,2.273181438446045,-5.835496425628662,-2.7828526496887207
1747979079008577300,12.075577392578126,10.77966594696045,-13.012767791748047,-11.529815673828125
1747979079026842400,12.09384228515625,6.357729911804199,-19.619949340820312,-12.997812271118164
1747979079045109000,12.11210888671875,-0.8578268885612488,-31.20719337463379,-8.493922233581543
1747979079063372500,12.13037255859375,0.5443671345710754,-23.60041046142578,3.8769710063934326
1747979079081638400,12.148638427734374,1.1102696657180786,-17.047664642333984,6.523432731628418
1747979079099899000,12.16689892578125,6.892525672912598,-25.11745834350586,9.5324068069458
1747979079118169300,12.18516943359375,11.33539867401123,-34.08456039428711,19.80838394165039
1747979079136424000,12.203423828125,5.271388053894043,-33.36193084716797,13.250853538513184
1747979079154694100,12.221694091796875,15.323038101196289,-24.746572494506836,16.22214126586914
1747979079172963000,12.239963134765626,-8.639286041259766,-23.289342880249023,28.066614151000977
1747979079191230700,12.258230712890626,-49.977691650390625,-9.65384292602539,23.307289123535156
1747979079209494300,12.276494384765625,-2.699702262878418,-3.955335855484009,13.920844078063965
1747979079227759900,12.294759765625,6.518647193908691,-4.402195453643799,6.523432731628418
1747979079246024400,12.3130244140625,2.1343977451324463,-3.363710403442383,4.676173686981201
1747979079264291000,12.331291015625,-0.2147558331489563,-0.7004988193511963,2.3976082801818848
1747979079282555100,12.34955517578125,0.9511470198631287,1.1982059478759766,0.06340979784727097
1747979079300820700,12.36782080078125,0.4181457459926605,1.5667005777359009,-0.5611169338226318
1747979079319085600,12.38608544921875,-4.394418716430664,2.3874387741088867,-0.07537391036748886
1747979079337351700,12.4043515625,-6.022734642028809,2.6560330390930176,-0.9535398483276367
1747979079355616800,12.42261669921875,0.5700899958610535,0.7507480978965759,-0.9619147181510925
1747979079373881600,12.440881591796876,1.4111671447753906,0.25004997849464417,-1.4327025413513184
1747979079392146200,12.459146240234375,1.555932879447937,0.04187439754605293,-0.41874396800994873
1747979079410413600,12.47741357421875,0.96370929479599,-0.6173482537269592,0.7854440212249756
1747979079428680200,12.49568017578125,-0.23449662327766418,-1.1060823202133179,1.212562918663025
1747979079446942000,12.51394189453125,-1.2586246728897095,-8.077570915222168,9.957731246948242
1747979079465207300,12.532207275390626,-15.219548225402832,-65.67221069335938,29.503503799438477
1747979079483474000,12.550473876953125,3.256033420562744,-71.85945129394531,29.27259635925293
1747979079501734000,12.56873388671875,-12.378669738769531,-27.89373207092285,25.82094955444336
1747979079520003000,12.587003173828125,-9.995418548583984,-15.387643814086914,16.377674102783203
1747979079538268200,12.60526806640625,-0.43130627274513245,-11.264810562133789,11.59980583190918
1747979079556534500,12.623534423828126,3.6472599506378174,-8.227720260620117,6.9690961837768555
1747979079574798600,12.641798583984375,3.521636724472046,-4.927420139312744,2.7625136375427246
1747979079593064200,12.660064208984375,2.9377880096435547,-2.060220241546631,-0.5688936114311218
1747979079611327700,12.67832763671875,3.245863914489746,-2.1164517402648926,-2.7762725353240967
1747979079629585200,12.696585205078126,2.816352367401123,-2.2498514652252197,-3.050250768661499
1747979079647859500,12.714859375,2.4299113750457764,-1.688136339187622,-2.122433662414551
1747979079666124000,12.7331240234375,2.0237298011779785,-0.372682124376297,-1.0546365976333618
1747979079684392700,12.751392822265625,9.199206352233887,1.4476577043533325,-1.6313068866729736
1747979079702657800,12.76965771484375,15.38943862915039,4.500899314880371,-2.8911280632019043
1747979079720919000,12.7879189453125,13.73360538482666,5.459224700927734,-5.663811206817627
1747979079739186700,12.806186767578126,3.497708559036255,5.107480049133301,-3.1028928756713867
1747979079757445400,12.8244453125,0.13639089465141296,3.3684961795806885,0.6801598072052002
1747979079775713300,12.84271337890625,-23.52862548828125,-6.608976364135742,2.861815929412842
1747979079793986300,12.860986328125,-30.966115951538086,-8.176873207092285,9.902098655700684
1747979079812246500,12.87924658203125,0.49292147159576416,-5.044668197631836,0.10289137065410614
1747979079830511600,12.89751171875,9.615557670593262,-11.274381637573242,-7.716254711151123
1747979079848778000,12.915778076171875,-3.6813576221466064,-24.79981231689453,-12.425928115844727
1747979079867041800,12.934041748046875,5.003392219543457,-20.2552433013916,-7.837690353393555
1747979079885305600,12.9523056640625,3.0693931579589844,-15.482758522033691,-2.2085752487182617
1747979079903574000,12.970573974609374,4.992624282836914,-22.737796783447266,-1.3698909282684326
1747979079921837000,12.988837158203125,11.983255386352539,-37.97050476074219,7.8317084312438965
1747979079940105000,13.00710498046875,7.552944660186768,-40.01397705078125,19.054046630859375
1747979079958368000,13.025367919921875,3.3553354740142822,-32.551361083984375,15.026328086853027
1747979079976633300,13.04363330078125,14.322239875793457,-25.92742919921875,10.162318229675293
1747979079994899500,13.0618994140625,-39.29074478149414,-22.423738479614258,37.262229919433594
1747979080013158400,13.080158447265624,-34.78266906738281,-9.926624298095703,23.986251831054688
1747979080031428600,13.0984287109375,-2.606382131576538,-3.4683964252471924,12.765708923339844
1747979080049689900,13.11668994140625,4.596612453460693,-4.972883701324463,7.062416076660156
1747979080067960300,13.134960205078125,1.3525429964065552,-4.050450325012207,5.470590591430664
1747979080086224400,13.153224365234376,-0.13040883839130402,-1.8598214387893677,2.647658348083496
1747979080129602000,13.19660205078125,0.5850451588630676,1.6689938306808472,-0.5796613097190857
1747979080147869200,13.214869140625,-0.2727817893028259,1.9770697355270386,-0.4815555512905121
1747979080166133800,13.2331337890625,-8.640482902526855,2.933002471923828,-1.485344648361206
1747979080184398000,13.251398193359375,-0.2787638306617737,0.9649057388305664,-1.3866406679153442
1747979080202664400,13.26966455078125,1.8376877307891846,0.3655036687850952,-1.6265212297439575
1747979080220930600,13.2879306640625,2.4765713214874268,0.5629115104675293,-0.3840480446815491
1747979080239192800,13.30619287109375,1.0600204467773438,-0.2991028428077698,1.3728820085525513
1747979080257460000,13.3244599609375,-0.02392822690308094,-1.43389892578125,1.3256237506866455
1747979080275724500,13.342724609375,-1.1730812788009644,-2.782254457473755,2.0057835578918457
1747979080293985000,13.360985107421875,-30.908687591552734,-52.49553680419922,23.76611328125
1747979080312255200,13.379255126953124,11.850454330444336,-80.29415130615234,21.610179901123047
1747979080330520600,13.3975205078125,-11.964113235473633,-43.98666000366211,44.5746955871582
1747979080348785400,13.415785400390625,-18.26022720336914,-21.169301986694336,24.385255813598633
1747979080367051000,13.434051025390625,-0.30149564146995544,-14.601003646850586,10.2418794631958
1747979080385316000,13.452316162109375,5.544169902801514,-9.063413619995117,6.2913289070129395
1747979080403581200,13.470581298828124,4.927420139312744,-4.767699241638184,3.0131618976593018
1747979080421846500,13.488846435546876,5.170291423797607,-2.466402053833008,-0.6574280261993408
1747979080440111600,13.507111572265625,5.089533805847168,-1.7736797332763672,-3.463610887527466
1747979080458377200,13.525377197265625,5.782854080200195,-0.784247636795044,-2.8085756301879883
1747979080476642000,13.54364208984375,9.57787036895752,-0.1746760457754135,-1.9980069398880005
1747979080494907400,13.561907470703124,18.151952743530273,1.7365909814834595,-3.0999016761779785
1747979080513172700,13.5801728515625,22.14617156982422,5.896512985229492,-6.235097408294678
1747979080531436500,13.5984365234375,10.370492935180664,6.683752059936523,-6.882954120635986
1747979080549698300,13.6166982421875,4.791627407073975,12.504292488098145,1.4021940231323242
1747979080567963400,13.63496337890625,-4.931607246398926,1.0821540355682373,-0.8075776696205139
1747979080586225000,13.653224853515624,-25.77010154724121,-5.237290382385254,-2.215155601501465
1747979080604498700,13.671498779296876,-21.375083923339844,-8.296514511108398,1.8460626602172852
1747979080622764000,13.689763916015625,-14.636298179626465,-13.122838020324707,-0.7824530005455017
1747979080641029000,13.708029052734375,3.193819999694824,-10.658828735351562,-6.561717987060547
1747979080659294200,13.726294189453125,9.54377269744873,-21.719053268432617,-15.248262405395508
1747979080677559600,13.7445595703125,-9.640682220458984,-28.572097778320312,-3.9625144004821777
1747979080695824600,13.76282470703125,5.26899528503418,-16.75155258178711,-1.5481562614440918
1747979080714089700,13.78108984375,8.889934539794922,-12.507284164428711,0.20997019112110138
1747979080732355000,13.79935498046875,12.67179012298584,-18.43370819091797,2.359323024749756
1747979080750616600,13.817616455078126,18.708881378173828,-35.264225006103516,12.624532699584961
1747979080768888800,13.835888916015625,6.97986364364624,-38.1051025390625,15.443875312805176
1747979080787150300,13.854150390625,3.3176486492156982,-30.230920791625977,14.219348907470703
1747979080805410000,13.87241015625,14.262419700622559,-23.656042098999023,14.530415534973145
1747979080823681300,13.890681396484375,-7.046862602233887,-27.490541458129883,30.301509857177734
1747979080841944800,13.90894482421875,-58.868221282958984,-16.895721435546875,25.001407623291016
1747979080860214800,13.92721484375,-3.510869026184082,-6.8273210525512695,12.493525505065918
1747979080878476500,13.9454765625,5.759523868560791,-6.93619441986084,6.853044033050537
1747979080896742100,13.9637421875,2.1613171100616455,-4.981258392333984,6.280561447143555
1747979080915003100,13.982003173828126,-0.1782652884721756,-2.1397817134857178,3.573082447052002
1747979080933272300,14.000272216796875,0.49351966381073,0.29730820655822754,1.1264212131500244
1747979080951537400,14.018537353515624,1.1647064685821533,1.832902193069458,-0.10707881301641464
1747979080969802000,14.036802001953125,-5.320441246032715,3.4648072719573975,0.28235307335853577
1747979080988069000,14.055069091796875,-7.707880020141602,3.950550079345703,-0.6921239495277405
1747979081006329000,14.0733291015625,0.8027920126914978,1.4207384586334229,-0.8099704384803772
1747979081024598500,14.0915986328125,1.6869399547576904,0.4905286431312561,-0.9517452120780945
1747979081042863400,14.10986328125,0.37866419553756714,0.24466611444950104,-0.7674978375434875
1747979081061124000,14.1281240234375,0.33080771565437317,-0.39122650027275085,0.24107688665390015
1747979081083995100,14.1509951171875,-0.9308080077171326,-1.4105689525604248,1.4141582250595093
1747979081102216200,14.16921630859375,-6.925426959991455,-4.161716938018799,6.221338748931885
1747979081129620500,14.196620361328126,0.4163511395454407,-65.96174621582031,14.910874366760254
1747979081147890700,14.214890625,0.2997010350227356,-73.77849578857422,34.996826171875
1747979081166156000,14.233156005859374,-21.66222381591797,-30.54438018798828,32.27020263671875
1747979081184418800,14.251418701171875,-6.609574317932129,-16.838891983032227,13.28674602508545
1747979081202686700,14.269686767578126,3.5569307804107666,-10.737792015075684,9.151350021362305
1747979081220951300,14.287951416015625,4.152743816375732,-6.711867332458496,4.2933220863342285
1747979081239217000,14.306216796875,3.5922250747680664,-2.2366909980773926,0.7447660565376282
1747979081257480700,14.324480712890624,4.6785664558410645,-1.6917256116867065,-2.6464617252349854
1747979081275746000,14.34274609375,5.007579803466797,-2.159522533416748,-3.4618160724639893
1747979081294007300,14.36100732421875,5.7062835693359375,-1.8897316455841064,-2.785245656967163
1747979081312277800,14.37927783203125,7.912466049194336,-1.0713863372802734,-2.3718855381011963
1747979081330541600,14.39754150390625,11.21515941619873,1.5433706045150757,-1.3022937774658203
1747979081348806700,14.415806640625,13.603795051574707,4.7024946212768555,-3.360121250152588
1747979081367072300,14.434072265625,11.313863754272461,6.5629143714904785,-5.414957523345947
1747979081385333800,14.452333740234375,6.747759819030762,13.02532958984375,-0.7830511927604675
1747979081403601200,14.47060107421875,0.15074782073497772,1.1443674564361572,-2.8731818199157715
1747979081421869300,14.488869384765625,-17.266010284423828,-5.257031440734863,0.8398807644844055
1747979081440132900,14.5071328125,-24.262025833129883,-8.043473243713379,7.411767959594727
1747979081458399700,14.525399658203124,-18.982261657714844,-11.066804885864258,6.8865437507629395
1747979081476663000,14.5436630859375,3.379862070083618,-9.534201622009277,-3.490530014038086
1747979081494929000,14.561928955078125,12.962518692016602,-23.535802841186523,-17.33540153503418
1747979081513194000,14.580194091796875,-4.1347975730896,-31.252058029174805,-11.115857124328613
1747979081531460900,14.5984609375,1.765903115272522,-20.392831802368164,-1.2843475341796875
1747979081549723000,14.616722900390625,2.9150562286376953,-17.534605026245117,2.9288148880004883
1747979081567985700,14.634985595703125,8.86660385131836,-24.994827270507812,3.573082447052002
1747979081586242600,14.65324267578125,16.794025421142578,-34.674991607666016,13.52303695678711
1747979081604521200,14.671521240234375,8.74038314819336,-31.298120498657227,15.664613723754883
1747979081622785300,14.689785400390624,3.9762730598449707,-27.44986343383789,7.764111042022705
1747979081641045800,14.708045654296875,11.93061351776123,-21.721445083618164,15.126228332519531
1747979081659314400,14.726314453125,-34.74557876586914,-22.6355037689209,41.909690856933594
1747979081677583000,14.7445830078125,-33.63471221923828,-9.128618240356445,29.16671371459961
1747979081695846400,14.762846435546875,-3.6610186100006104,-2.0273189544677734,13.210175514221191
1747979081714111700,14.78111181640625,3.4127633571624756,-4.2550368309021,6.8273210525512695
1747979081732376600,14.79937646484375,3.3822548389434814,-3.1232316493988037,5.778068542480469
1747979081750643000,14.817642822265626,0.14057832956314087,-2.0159530639648438,3.147160053253174
1747979081768907000,14.835906982421875,-0.41096729040145874,0.06161518394947052,1.3668999671936035
1747979081787172000,14.854172119140625,-5.995217323303223,3.1794631481170654,1.8460626602172852
1747979081805436700,14.872436767578124,-8.176873207092285,6.15553617477417,2.0309081077575684
1747979081823705000,14.890705078125,-1.430907964706421,2.967100143432617,-0.8446664214134216
1747979081841960700,14.908960693359376,0.3355933725833893,0.6323033571243286,-1.41834557056427
1747979081860236000,14.927236083984376,-0.6263213157653809,-0.41096729040145874,-2.486142635345459
1747979081878498300,14.945498291015625,0.08434699475765228,-1.0277173519134521,-0.5515456199645996
1747979081896760000,14.963760009765625,1.089930772781372,-0.9996016621589661,0.9355936646461487
1747979081915028000,14.982028076171876,0.22851456701755524,-2.6350958347320557,4.7796630859375
1747979081933295400,15.00029541015625,-4.53200626373291,-16.06720542907715,21.498315811157227
1747979081951559400,15.018559326171875,-8.977272033691406,-60.358951568603516,25.804798126220703
1747979081969824800,15.03682470703125,-1.3142578601837158,-59.19185256958008,14.861821174621582
1747979081988090400,15.05509033203125,-1.6875381469726562,-29.514270782470703,20.651256561279297
1747979082006355000,15.07335498046875,-10.01456069946289,-17.18345832824707,26.92284393310547
1747979082024620300,15.091620361328125,-3.5359935760498047,-13.176675796508789,21.0245361328125
1747979082042883600,15.109883544921875,0.6957131624221802,-8.703293800354004,11.284551620483398
1747979082061153500,15.128153564453125,2.898306369781494,-4.326821327209473,4.2281174659729
1747979082079413000,15.1464130859375,4.204787731170654,-2.7361927032470703,-0.7597211599349976
1747979082097681200,15.16468115234375,3.762115478515625,-3.6125640869140625,-3.3577284812927246
1747979082115935200,15.182935302734375,4.911866664886475,-2.9898319244384766,-2.8767709732055664
1747979082134201000,15.201201171875,5.169095039367676,-2.2121646404266357,-2.197807550430298
1747979082152479000,15.21947900390625,12.764512062072754,0.5054838061332703,-0.21236300468444824
1747979082170740700,15.23774072265625,14.779867172241211,2.801995277404785,-1.3525429964065552
1747979082189005300,15.25600537109375,16.387245178222656,5.1050872802734375,-5.231308460235596
1747979082207272000,15.27427197265625,10.982458114624023,3.6819558143615723,-9.390034675598145
1747979082225537800,15.292537841796875,4.491328239440918,4.154538154602051,-3.2883365154266357
1747979082243803000,15.310802978515625,0.7549355626106262,2.531008243560791,1.4416756629943848
1747979082262069000,15.329069091796875,-7.232306480407715,-3.955335855484009,0.08793623000383377
1747979082280332500,15.34733251953125,-25.250261306762695,-7.594819068908691,2.978466033935547
1747979082298586400,15.36558642578125,-11.861820220947266,-11.3240327835083,1.0235298871994019
1747979082316863500,15.383863525390625,-8.801998138427734,-15.780067443847656,-2.726621389389038
1747979082335121400,15.402121337890625,13.934602737426758,-28.170700073242188,-16.202999114990234
1747979082353395200,15.420395263671875,-14.385051727294922,-33.427730560302734,-1.685145378112793
1747979082371646200,15.438646240234375,-0.8231309652328491,-14.926427841186523,2.2091734409332275
1747979082389924600,15.456924560546875,3.2129626274108887,-5.73978328704834,-0.07118647545576096
1747979082408185900,15.475185791015624,7.168896675109863,-9.654440879821777,-1.0863415002822876
1747979082426453800,15.493453857421875,12.589836120605469,-21.47737693786621,1.9992033243179321
1747979082444721200,15.51172119140625,12.966706275939941,-32.1284294128418,13.475180625915527
1747979082462980600,15.529980712890625,7.453044414520264,-31.79702377319336,13.882558822631836
1747979082481251600,15.54825146484375,15.40200138092041,-25.274188995361328,15.136398315429688
1747979082499511000,15.566510986328124,6.108277797698975,-26.98386001586914,29.42753028869629
1747979082526913800,15.593913818359376,-52.731231689453125,-14.764911651611328,28.03969383239746
1747979082545179100,15.61217919921875,-5.14875602722168,-5.415555953979492,16.45364761352539
1747979082572577000,15.639576904296876,4.424927234649658,-4.812564373016357,8.030312538146973
1747979082613673700,15.680673828125,-0.13579268753528595,0.04426721855998039,1.9262222051620483
1747979082631937300,15.698937255859375,-3.9020955562591553,2.8313074111938477,1.3884353637695312
1747979082650203100,15.717203125,-6.740581512451172,5.618945598602295,1.685145378112793
1747979082668468000,15.735468017578125,-1.1736794710159302,3.2309088706970215,-0.09990034252405167
1747979082686728700,15.753728759765625,0.9918249845504761,0.9116654396057129,-0.7393822073936462
1747979082704990500,15.771990478515624,0.6957131624221802,0.04366901144385338,-1.4620146751403809
1747979082716415200,15.783415283203125,0.26081767678260803,-0.44805604219436646,-0.9451649188995361
1747979082734682600,15.8016826171875,0.8237292170524597,-0.7513462901115417,0.5413761138916016
1747979082752941300,15.81994140625,0.34277185797691345,-1.2095718383789062,1.1407781839370728
1747979082771211800,15.838211669921876,-1.164108157157898,-3.3200414180755615,6.653243541717529
1747979082789476600,15.8564765625,-21.1926326751709,-28.04268455505371,32.71885681152344
1747979082807744500,15.87474462890625,-3.7357943058013916,-72.8482894897461,20.481365203857422
1747979082826006800,15.8930068359375,-1.0217353105545044,-46.856849670410156,28.306493759155273
1747979082844261000,15.91126123046875,-13.432109832763672,-23.436500549316406,31.000213623046875
1747979082862537000,15.929536865234375,-7.8658061027526855,-15.632309913635254,17.059030532836914
1747979082880802300,15.94780224609375,1.9866410493850708,-10.846665382385254,8.542376518249512
1747979082899068000,15.96606787109375,4.466203689575195,-7.23589563369751,3.483949661254883
1747979082917333200,15.984333251953124,3.5886356830596924,-2.9144580364227295,-0.038285162299871445
1747979082935598600,16.0025986328125,4.277170658111572,-1.5517455339431763,-2.3856441974639893
1747979082953863200,16.02086328125,3.5126636028289795,-1.9154545068740845,-2.98085880279541
1747979082972127700,16.039127685546877,3.401397466659546,-1.7922241687774658,-2.438286304473877
1747979082990395100,16.05739501953125,3.8422749042510986,-1.4536397457122803,-2.160120725631714
1747979083008654300,16.075654296875,7.944170951843262,0.5868397355079651,-1.2813565731048584
1747979083026923500,16.093923583984374,9.910472869873047,1.934597134590149,-1.1288141012191772
1747979083045189600,16.112189697265624,12.327223777770996,4.050450325012207,-4.935794830322266
1747979083063455700,16.130455810546874,9.937990188598633,5.442475318908691,-6.142973899841309
1747979083081715000,16.14871484375,3.888935089111328,4.264009952545166,-2.0620148181915283
1747979083099985200,16.166985107421876,-0.0771685317158699,-1.0217353105545044,-2.18045973777771
1747979083118249200,16.185249267578126,-18.24527359008789,-6.646663188934326,3.281157970428467
1747979083136504600,16.203504638671873,-22.874187469482422,-7.8113694190979,7.52423095703125
1747979083154769700,16.221769775390626,-18.92363739013672,-11.678171157836914,7.138986587524414
1747979083173046300,16.24004638671875,9.569496154785156,-13.36032485961914,-9.076574325561523
1747979083191310600,16.258310546875,15.701702117919922,-24.994827270507812,-17.860027313232422
1747979083209577500,16.276577392578126,0.7908278703689575,-35.29533004760742,-9.063413619995117
1747979083227841500,16.294841552734376,-1.937588095664978,-21.05265235900879,4.383052825927734
1747979083246107100,16.313107177734373,-1.4333007335662842,-11.679367065429688,5.055436134338379
1747979083264367000,16.3313671875,1.5487544536590576,-16.045669555664062,2.850450038909912
1747979083282637800,16.349637939453125,11.900105476379395,-29.606992721557617,8.970093727111816
1747979083300903200,16.367903076171874,12.259626388549805,-38.59742736816406,17.780466079711914
1747979083319167200,16.386167236328124,8.441280364990234,-32.345577239990234,19.024734497070312
1747979083337432800,16.404432861328125,12.585648536682129,-24.525236129760742,24.747169494628906
1747979083355695000,16.422695068359374,-47.21218490600586,-19.435104370117188,46.739601135253906
1747979083373965300,16.44096533203125,-31.412378311157227,-5.771488189697266,28.692934036254883
1747979083392228000,16.45922802734375,0.9786644577980042,-4.554139614105225,12.43131160736084
1747979083410486500,16.477486572265626,4.67078971862793,-5.6895341873168945,8.14516830444336
1747979083428760000,16.495760009765625,1.2849457263946533,-3.2333016395568848,6.117849349975586
1747979083447023900,16.51402392578125,0.3535395562648773,-0.7549355626106262,2.6075785160064697
1747979083465289500,16.53228955078125,1.521835207939148,2.0303099155426025,1.2496516704559326
1747979083483554300,16.55055419921875,1.628315806388855,3.9008991718292236,0.7872386574745178
1747979083501821000,16.568821044921876,0.18723836541175842,3.384049415588379,0.8961120843887329
1747979083520094500,16.587094482421875,0.38285163044929504,1.4679967164993286,-0.16510476171970367
1747979083538349600,16.605349609375,0.7824530005455017,0.372682124376297,-1.4261223077774048
1747979083556615700,16.62361572265625,0.44745782017707825,0.14117653667926788,-2.565704107284546
1747979083574881800,16.6418818359375,-2.05603289604187,-0.41216370463371277,-4.039682865142822
1747979083593145000,16.66014501953125,-0.9690931439399719,-1.4141582250595093,-1.8095721006393433
1747979083611411700,16.67841162109375,0.34277185797691345,-1.5583257675170898,0.39421752095222473
1747979083629679600,16.6966796875,-0.26560330390930176,-1.8095721006393433,1.089930772781372
1747979083647942700,16.714942626953125,-2.094916343688965,-2.6213371753692627,2.0811574459075928
1747979083666206500,16.73320654296875,-22.51825523376465,-54.07539749145508,26.143980026245117
1747979083684464400,16.75146435546875,-2.667997360229492,-74.55616760253906,34.07259750366211
1747979083702733000,16.769733154296876,-16.839488983154297,-42.007198333740234,28.528427124023438
1747979083721003500,16.78800341796875,-5.071587562561035,-12.798011779785156,18.095720291137695
1747979083739267600,16.806267578125,0.22073788940906525,-1.1407781839370728,14.58066463470459
1747979083757532400,16.824532470703126,1.9166508913040161,-0.07597211748361588,6.361917018890381
1747979083775798800,16.842798828125,2.05603289604187,-0.5557330846786499,0.9810572862625122
1747979083794063600,16.861063720703125,3.7974095344543457,-2.4011974334716797,-2.8390841484069824
1747979083812329200,16.8793291015625,4.038486480712891,-4.182653903961182,-3.6131622791290283
1747979083830593500,16.897593505859376,3.573082447052002,-3.9254255294799805,-2.8390841484069824
1747979083848859100,16.915859130859374,3.649054527282715,-2.9425735473632812,-1.978864312171936
1747979083867119900,16.934119873046875,6.181857109069824,-1.6468602418899536,-1.500898003578186
1747979083885389600,16.9523896484375,12.678370475769043,1.1288141012191772,-0.31345975399017334
1747979083903654700,16.970654541015627,15.947565078735352,3.793820381164551,-4.737788677215576
1747979083921913300,16.988913330078127,9.152546882629395,2.571686029434204,-6.33798885345459
1747979083940187600,17.007187744140627,3.3607194423675537,1.8783657550811768,-3.5988051891326904
1747979083958450200,17.0254501953125,-0.4223332107067108,-1.5930216312408447,-0.7704889178276062
1747979083976711000,17.0437109375,-31.98306655883789,-9.76391315460205,8.880961418151855
1747979083994980600,17.061980712890627,-25.421945571899414,-10.195816993713379,14.673386573791504
1747979084013247000,17.0802470703125,1.7802600860595703,-9.102895736694336,-2.561516523361206
1747979084031511000,17.098510986328126,15.458232879638672,-20.083559036254883,-17.47239112854004
1747979084049776400,17.1167763671875,10.249655723571777,-21.581464767456055,-13.755141258239746
1747979084077173500,17.144173583984376,-1.074975609779358,-21.3248348236084,-0.17168502509593964
1747979084095439000,17.162439208984374,-1.052243709564209,-16.443477630615234,3.3236305713653564
1747979084113700600,17.18070068359375,0.924227774143219,-18.25963020324707,3.432504177093506
1747979084131965400,17.19896533203125,6.338587284088135,-27.678377151489258,9.31047248840332
1747979084150221600,17.2172216796875,10.132407188415527,-34.48655700683594,20.294126510620117
1747979084168488400,17.235488525390625,8.155936241149902,-34.042091369628906,15.120844841003418
1747979084186766600,17.2537666015625,8.000402450561523,-27.494728088378906,24.4815673828125
1747979084205030100,17.272030029296875,-49.70431137084961,-17.434703826904297,36.50191116333008
1747979084248407800,17.31540771484375,4.639084815979004,-5.053641319274902,8.326424598693848
1747979084266675500,17.333675537109375,3.7812578678131104,-4.880161762237549,4.938187599182129
1747979084284940000,17.35193994140625,0.1339980661869049,-2.7020950317382812,3.318246841430664
1747979084303204900,17.370204833984374,0.2063809484243393,0.07537391036748886,1.2987045049667358
1747979084321470000,17.388469970703124,1.7270197868347168,1.5876377820968628,-0.10348957777023315
1747979084339734000,17.406734130859373,1.4117653369903564,2.729612350463867,-0.0729810893535614
1747979084357997000,17.4249970703125,0.7854440212249756,2.3617160320281982,0.04307080805301666
1747979084376264400,17.443264404296876,-0.6065805554389954,1.8789639472961426,-0.23688943684101105
1747979084394531800,17.46153173828125,-2.5914268493652344,1.0277173519134521,-2.1996021270751953
1747979084412796000,17.4797958984375,-1.677966833114624,0.41515472531318665,-2.5226333141326904
1747979084431061800,17.498061767578125,0.4331009089946747,-0.27337998151779175,-1.0600204467773438
1747979084449319700,17.516319580078125,0.4007977843284607,-1.184447169303894,0.8039883971214294
1747979084460744000,17.527743896484374,-0.6945167779922485,-2.000998020172119,1.2646067142486572
1747979084479008500,17.546008544921875,-2.723630428314209,-2.9551360607147217,2.60339093208313
1747979084497274000,17.564274169921877,-15.795022010803223,-37.07319641113281,21.696918487548828
1747979084515539200,17.582539306640626,-6.232106685638428,-86.76913452148438,24.771696090698242
1747979084533804300,17.60080419921875,-19.475183486938477,-45.78426742553711,30.405597686767578
1747979084552064800,17.619064697265625,-11.018349647521973,-17.831912994384766,17.626129150390625
1747979084570334500,17.63733447265625,-1.43389892578125,-10.188040733337402,10.108479499816895
1747979084588600000,17.65560009765625,3.6095728874206543,-6.424728870391846,5.489135265350342
1747979084606864600,17.67386474609375,4.2484564781188965,-3.644867181777954,0.35054850578308105
1747979084625130200,17.692130126953124,4.66361141204834,-1.5565310716629028,-2.4843480587005615
1747979084643396000,17.71039599609375,3.837489366531372,-1.581655740737915,-3.0185458660125732
1747979084661661200,17.7286611328125,2.7601208686828613,-1.6259230375289917,-1.8837496042251587
1747979084679921200,17.746921142578124,2.259422779083252,-0.6442674994468689,-1.0103694200515747
1747979084698190300,17.7651904296875,2.68953275680542,0.4785645306110382,-0.5168496966362
1747979084716457000,17.78345703125,7.326822757720947,1.1682956218719482,-1.3920245170593262
1747979084734717400,17.801717529296877,10.858031272888184,3.607778310775757,-2.7218358516693115
1747979084752987600,17.819987548828124,12.181262016296387,4.151547431945801,-4.894518852233887
1747979084771249700,17.838249755859376,5.0356950759887695,3.445066452026367,-3.174079179763794
1747979084789519000,17.85651904296875,-0.5216353535652161,1.2538390159606934,-0.4899304509162903
1747979084807782400,17.874782470703124,-3.531208038330078,-3.5988051891326904,-1.3986048698425293
1747979084826047000,17.893046875,-27.27458953857422,-8.030312538146973,9.390034675598145
1747979084844312600,17.9113125,-9.490532875061035,-5.700900077819824,5.170889854431152
1747979084862578000,17.929577880859377,3.7052857875823975,-5.726024627685547,-3.809373617172241
1747979084880843300,17.94784326171875,10.683355331420898,-14.501701354980469,-14.143376350402832
1747979084899108600,17.966108642578124,0.4815555512905121,-22.762922286987305,-11.379666328430176
1747979084917372400,17.984372314453125,-4.674378871917725,-26.297719955444336,-3.9912281036376953
1747979084935634700,18.002634765625,-2.0039889812469482,-17.525033950805664,3.8697924613952637
1747979084953903900,18.02090380859375,-0.24885354936122894,-13.963316917419434,4.5714874267578125
1747979084972168700,18.039168701171874,3.978665828704834,-22.55594253540039,4.844867706298828
1747979084990434600,18.0574345703125,9.358927726745605,-36.573097229003906,16.179668426513672
1747979085008694800,18.07569482421875,9.506086349487305,-37.688751220703125,17.18106460571289
1747979085026952400,18.093952392578124,11.176276206970215,-27.513273239135742,18.163318634033203
1747979085045229600,18.1122294921875,-8.045866012573242,-22.088146209716797,26.39402961730957
1747979085063495000,18.130494873046874,-48.51148986816406,-8.542975425720215,26.936603546142578
1747979085081761000,18.148760986328124,-2.936591625213623,-4.23230504989624,14.863615989685059
1747979085100025300,18.167025390625,5.842674732208252,-5.827121257781982,7.633702278137207
1747979085118290200,18.185290283203123,1.4315061569213867,-3.5605201721191406,6.228517532348633
1747979085136556000,18.20355615234375,-0.46420758962631226,-1.4811571836471558,3.3068809509277344
1747979085154821000,18.221821044921874,0.2883351147174835,0.4331009089946747,1.3663017749786377
1747979085173086000,18.2400859375,2.2480568885803223,1.9555343389511108,0.3595215976238251
1747979085191338500,18.25833837890625,1.6217355728149414,2.8588249683380127,0.4582255482673645
1747979085209604900,18.27660498046875,-0.029312077909708023,1.9016958475112915,0.4983053207397461
1747979085227883000,18.294883056640625,-2.416750907897949,1.1180464029312134,-0.7872386574745178
1747979085246146300,18.313146240234374,-3.3756744861602783,0.6209374666213989,-1.750349760055542
1747979085264412700,18.33141259765625,0.39062830805778503,0.35114672780036926,-0.9332008361816406
1747979085282681000,18.34968115234375,0.9774680733680725,-0.529412031173706,0.8386843204498291
1747979085300942800,18.36794287109375,-0.39481574296951294,-1.5625132322311401,1.5290136337280273
1747979085319207700,18.386207763671877,-0.8901300430297852,-2.572284460067749,3.4378879070281982
1747979085337474300,18.404474365234375,-25.777877807617188,-57.34040451049805,17.687744140625
1747979085355744300,18.422744140625,-0.09631111472845078,-80.10392761230469,24.07837677001953
1747979085374003500,18.44100341796875,-13.48594856262207,-43.919063568115234,36.344581604003906
1747979085392268500,18.4592685546875,-10.555936813354492,-21.175283432006836,20.21396827697754
1747979085410534000,18.477533935546877,-0.4737788736820221,-12.649657249450684,8.210372924804688
1747979085428799200,18.49579931640625,3.239283561706543,-7.859824180603027,4.2454657554626465
1747979085447059700,18.514059814453127,3.3996028900146484,-3.600001573562622,1.5182459354400635
1747979085465329000,18.532328857421874,4.038486480712891,-1.0803594589233398,-1.1258230209350586
1747979085483580700,18.55058056640625,4.593621253967285,-1.4093725681304932,-2.7427730560302734
1747979085501860400,18.5688603515625,4.384847640991211,-0.8614161610603333,-2.96111798286438
1747979085520124400,18.58712451171875,4.29033088684082,-0.8859425783157349,-2.6392834186553955
1747979085547523800,18.61452392578125,10.276575088500977,0.05503492057323456,-3.0939197540283203
1747979085574920400,18.64192041015625,21.64786720275879,4.4344987869262695,-8.8109712600708
1747979085593185800,18.660185791015625,10.04148006439209,3.482753276824951,-8.186444282531738
1747979085611451100,18.678451171875,2.334198474884033,4.307679176330566,-0.4654040038585663
1747979085629711400,18.69671142578125,-1.4279168844223022,-0.4205385744571686,0.5126622319221497
1747979085647981300,18.714981201171874,-24.233909606933594,-5.7409796714782715,2.6572296619415283
1747979085666246400,18.733246337890623,-23.810379028320312,-9.041878700256348,6.596413612365723
1747979085684505900,18.751505859375,-6.719644069671631,-10.454241752624512,2.702693223953247
1747979085702773200,18.769773193359374,10.496116638183594,-16.483556747436523,-8.662017822265625
1747979085721041400,18.78804150390625,22.701904296875,-26.878576278686523,-9.831509590148926
1747979085739307800,18.806307861328126,-1.332203984260559,-23.10509490966797,-2.51425838470459
1747979085757572400,18.824572265625,-1.347757339477539,-12.866207122802734,3.3134610652923584
1747979085775838200,18.842838134765625,-4.493721008300781,-11.170892715454102,6.406184196472168
1747979085794102300,18.861102294921874,1.5427724123001099,-18.782461166381836,4.591228485107422
1747979085812366300,18.879366455078124,7.502097129821777,-26.763721466064453,10.249655723571777
1747979085830635000,18.897635009765626,10.538589477539062,-33.49473190307617,16.876577377319336
1747979085848896800,18.915896728515627,12.187243461608887,-34.225738525390625,13.048660278320312
1747979085867164700,18.93416455078125,-2.572882652282715,-27.601806640625,24.611377716064453
1747979085885429000,18.952428955078126,-56.658451080322266,-13.857434272766113,33.910484313964844
1747979085903689200,18.970689208984375,-15.008979797363281,-6.457630157470703,17.699708938598633
1747979085921954800,18.988954833984376,2.830709218978882,-8.076972961425781,9.57787036895752
1747979085940224500,19.007224609375,3.294916868209839,-6.589833736419678,6.2536420822143555
1747979085958489600,19.025489501953125,0.048454657196998596,-2.8911280632019043,2.936591625213623
1747979085992735500,19.059735595703124,-0.10468599200248718,0.5706881880760193,0.07118647545576096
1747979086010996000,19.077995849609376,-2.383251428604126,2.3533411026000977,0.5952146053314209
1747979086029261600,19.096261474609374,-5.9336018562316895,3.8949170112609863,0.6191428303718567
1747979086047529500,19.114529541015624,0.5533402562141418,2.001596212387085,-0.5838487148284912
1747979086065794600,19.132794677734374,1.5152549743652344,0.6191428303718567,-1.109073281288147
1747979086084064300,19.151064208984376,2.0063817501068115,0.29431718587875366,-0.7663014531135559
1747979086102323200,19.1693232421875,1.207179069519043,-0.45164528489112854,1.2765709161758423
1747979086120595500,19.187595458984376,0.053240302950143814,-1.3962119817733765,1.612762451171875
1747979086138857500,19.205857421875,-0.5072783827781677,-2.210369825363159,2.0578274726867676
1747979086157122000,19.2241220703125,-27.923641204833984,-36.695133209228516,14.618351936340332
1747979086193651700,19.260651611328125,7.719843864440918,-46.88855743408203,32.78166961669922
1747979086211918000,19.27891796875,-16.335201263427734,-24.820749282836914,37.772499084472656
1747979086230182700,19.2971826171875,-10.721639633178711,-16.81197166442871,12.366106986999512
1747979086248447200,19.315447265625,0.4576273262500763,-9.967302322387695,3.029911756515503
1747979086266714000,19.333714111328124,3.3379876613616943,-5.165505886077881,0.07956135272979736
1747979086284974300,19.351974365234376,4.791627407073975,-2.0709879398345947,-1.9615163803100586
1747979086303242500,19.370242431640627,5.106283664703369,-1.46500563621521,-3.0424740314483643
1747979086321498000,19.388498046875,4.681557655334473,-0.5509474277496338,-2.523829698562622
1747979086339773000,19.40677294921875,5.612963676452637,0.36670008301734924,-1.893320918083191
1747979086358032100,19.4250322265625,7.522436141967773,0.6664010882377625,-2.4131617546081543
1747979086376304400,19.443304443359374,13.944173812866211,1.9980069398880005,-4.1282172203063965
1747979086394557700,19.4615576171875,17.476577758789062,3.937389612197876,-7.265805721282959
1747979086412834600,19.47983447265625,10.913065910339355,3.2925238609313965,-9.897313117980957
1747979086431100000,19.498099853515626,4.015754699707031,5.048855781555176,-1.0600204467773438
1747979086449364700,19.51636474609375,-10.137192726135254,-0.7268198728561401,-0.5832505226135254
1747979086467630000,19.534630126953125,-20.13141441345215,-5.159523963928223,-1.9932212829589844
1747979086485883400,19.55288330078125,-24.240489959716797,-9.93978500366211,3.8775691986083984
1747979086504157000,19.571156982421876,-22.66720962524414,-16.46022605895996,3.9224345684051514
1747979086522424600,19.589424560546874,16.130615234375,-29.09014320373535,-6.38165807723999
1747979086540687600,19.6076875,15.235699653625488,-32.9641227722168,-10.469795227050781
1747979086558956800,19.625956787109374,2.1200408935546875,-20.854646682739258,-0.02153540402650833
1747979086577222700,19.64422265625,-0.9858429431915283,-10.810174942016602,3.6340994834899902
1747979086595486500,19.662486572265625,1.949552297592163,-8.772686004638672,2.301297187805176
1747979086613752000,19.680751953125,6.866204738616943,-18.2171573638916,-0.19561325013637543
1747979086632013000,19.699012939453127,10.768898010253906,-30.687950134277344,7.048058986663818
1747979086650282500,19.717282470703125,10.860424041748047,-35.696128845214844,15.166308403015137
1747979086668547000,19.735547119140627,22.05225372314453,-30.309885025024414,14.929418563842773
1747979086686798800,19.753798828125,1.9369899034500122,-32.26003646850586,29.821149826049805
1747979086705080300,19.772080322265627,-82.68338775634766,-20.06321907043457,39.966121673583984
1747979086723343000,19.790343017578124,-21.423540115356445,-8.553742408752441,20.459829330444336
1747979086741608000,19.80860791015625,4.18983268737793,-8.076972961425781,9.083752632141113
1747979086759873500,19.82687353515625,5.051846981048584,-7.013363361358643,6.52462911605835
1747979086778137900,19.845137939453124,1.2478569746017456,-3.153141975402832,4.735395908355713
1747979086796403000,19.86340283203125,-0.052043892443180084,-0.6592226624488831,2.0829520225524902
1747979086814668300,19.881668212890624,0.02632104977965355,0.6652047038078308,0.865005373954773
1747979086832935400,19.899935302734374,1.0085747241973877,1.8574285507202148,0.3475574851036072
1747979086851198700,19.91819873046875,-5.288736343383789,3.8733816146850586,0.737587571144104
1747979086869463800,19.9364638671875,-5.947958946228027,3.428914785385132,-0.4624129831790924
1747979086887730000,19.95472998046875,-0.35413774847984314,0.9367900490760803,-0.8512466549873352
1747979086905990100,19.972990234375,0.6352944374084473,0.17228323221206665,-0.9882357716560364
1747979086924252700,19.991252685546876,1.0462616682052612,-0.17168502509593964,-0.4061816334724426
1747979086935666000,20.002666015625,0.9984052777290344,-0.8404789566993713,0.5353940725326538
1747979086953930200,20.02093017578125,-0.12921242415905,-1.342971682548523,1.0534402132034302
1747979086972208400,20.03920849609375,-1.4829518795013428,-2.667997360229492,3.239283561706543
1747979086990472000,20.057471923828125,-16.796419143676758,-41.280975341796875,14.396417617797852
1747979087008744700,20.07574462890625,5.143372058868408,-92.62377166748047,21.002403259277344
1747979087027002600,20.094002685546876,-14.146367073059082,-43.63790512084961,31.29034423828125
1747979087045266700,20.1122666015625,-13.037294387817383,-17.915660858154297,17.97368812561035
1747979087063533300,20.130533203125,-2.4735803604125977,-9.67238712310791,9.809974670410156
1747979087081799200,20.148799072265625,2.944368362426758,-5.487340450286865,5.831308841705322
1747979087100063200,20.167063232421874,3.806382656097412,-2.472383975982666,2.4568307399749756
1747979087118323700,20.18532373046875,4.514060020446777,-0.9493523836135864,-2.1535403728485107
1747979087136593200,20.20359326171875,3.9391841888427734,-1.6193426847457886,-3.528217077255249
1747979087154860500,20.221860595703124,4.615156650543213,-1.618146300315857,-2.613560438156128
1747979087173123300,20.240123291015625,5.039882659912109,-0.4821537733078003,-1.32921302318573
1747979087191389400,20.258389404296874,7.649255752563477,-0.1621137410402298,-0.8057830333709717
1747979087209654300,20.276654296875,13.900505065917969,1.0995019674301147,-1.1395817995071411
1747979087227920600,20.294920654296874,12.270394325256348,3.5748770236968994,-3.181257724761963
1747979087246184200,20.31318408203125,5.300102233886719,4.048057556152344,-2.853440999984741
1747979087264449800,20.33144970703125,3.466003656387329,4.252644062042236,-2.1242282390594482
1747979087282710000,20.3497099609375,0.4713860750198364,4.78385066986084,-0.5276173949241638
1747979087300980700,20.367980712890624,-4.281357765197754,-2.8588249683380127,-0.5665007829666138
1747979087319245800,20.386245849609374,-23.793630599975586,-6.782455921173096,7.039085865020752
1747979087337510000,20.404510009765627,-14.305490493774414,-7.34476900100708,3.3296127319335938
1747979087355776000,20.42277587890625,-3.029911756515503,-8.47477912902832,-2.8905298709869385
1747979087374037000,20.441037109375,12.805190086364746,-13.26820182800293,-14.369498252868652
1747979087392305200,20.45930517578125,1.0456634759902954,-18.485153198242188,-12.412169456481934
1747979087410571800,20.47757177734375,1.2586246728897095,-36.357147216796875,-9.297910690307617
1747979087428836400,20.49583642578125,1.5774682760238647,-27.35774040222168,1.83828604221344
1747979087447102500,20.5141025390625,3.7196428775787354,-15.259628295898438,5.388636589050293
1747979087465366500,20.532366455078126,7.419544696807861,-18.01915168762207,6.891927242279053
1747979087483619600,20.55061962890625,16.130615234375,-29.33301544189453,19.805992126464844
1747979087501892000,20.56889208984375,6.963113784790039,-34.778480529785156,11.273185729980469
1747979087520162600,20.58716259765625,5.745167255401611,-27.550960540771484,16.97169303894043
1747979087538428000,20.605427978515625,9.884750366210938,-24.573091506958008,24.69692039489746
1747979087556688000,20.62368798828125,-58.91189193725586,-22.79881477355957,30.828529357910156
1747979087574957600,20.64195751953125,-31.381271362304688,-9.988838195800781,20.51486587524414
1747979087593223700,20.6602236328125,3.835096597671509,-6.330212116241455,9.736394882202148
1747979087611488300,20.67848828125,4.270590305328369,-5.099703311920166,7.386643409729004
1747979087629748500,20.69674853515625,0.058624155819416046,-2.4406790733337402,6.594020843505859
1747979087648017700,20.715017578125,-0.07417750358581543,0.19202402234077454,3.4085757732391357
1747979087666285000,20.73328515625,1.3184453248977661,3.149552822113037,2.2636101245880127
1747979087684532200,20.7515322265625,-5.392225742340088,7.052844524383545,2.3617160320281982
1747979087702813200,20.769813232421875,-2.651845693588257,5.016552448272705,1.1132607460021973
1747979087721062400,20.7880625,-0.11485548317432404,1.674975872039795,0.17946170270442963
1747979087739345400,20.806345458984374,0.33798620104789734,0.3930211067199707,-0.3475574851036072
1747979087757609000,20.82460888671875,0.09152546525001526,-0.02153540402650833,-0.641276478767395
1747979087775874000,20.8428740234375,0.42352959513664246,-0.7513462901115417,-0.20937198400497437
1747979087794138600,20.861138671875,0.21236300468444824,-1.4123635292053223,0.5982056856155396
1747979087812406500,20.879406494140625,-1.2508480548858643,-2.3294129371643066,2.1649062633514404
1747979087830670000,20.897670166015626,-11.45563793182373,-24.91706085205078,19.286149978637695
1747979087848935000,20.915934814453124,-10.386046409606934,-91.50931549072266,23.050060272216797
1747979087867200000,20.934199951171873,-7.162914752960205,-60.599430084228516,15.234503746032715
1747979087885461500,20.95246142578125,-11.032109260559082,-20.963520050048828,18.141782760620117
1747979087903725600,20.9707255859375,-3.8835511207580566,-10.789237022399902,11.118250846862793
1747979087921991700,20.98899169921875,2.6213371753692627,-5.7547383308410645,7.825128078460693
1747979087940260600,21.007260498046875,2.448455810546875,-3.1722846031188965,4.649254322052002
1747979087958526000,21.02552587890625,2.6530420780181885,-1.1653046607971191,-0.534795880317688
1747979087976779800,21.04377978515625,3.5497524738311768,-0.633499801158905,-2.641676187515259
1747979087995044900,21.062044921875,3.1585259437561035,-1.8251254558563232,-2.8139593601226807
1747979088013323300,21.0803232421875,2.297109842300415,-1.423729419708252,-2.12542462348938
1747979088031587800,21.098587890625,1.540379524230957,-0.5072783827781677,-1.0115658044815063
1747979088049852000,21.116851806640625,1.4584254026412964,0.7232306599617004,-0.32183465361595154
1747979088068116700,21.13511669921875,3.861417531967163,1.2472587823867798,0.0933200865983963
1747979088086382300,21.15338232421875,9.389435768127441,2.2085752487182617,-0.844068169593811
1747979088104648700,21.171648681640626,9.736394882202148,2.9359934329986572,-2.864806890487671
1747979088122912500,21.18991259765625,5.44845724105835,2.9150562286376953,-1.664208173751831
1747979088141177600,21.208177490234377,-0.8608179688453674,3.741178274154663,1.3848460912704468
1747979088159442200,21.226442138671874,-1.0199406147003174,0.8584251403808594,0.6819544434547424
1747979088177705000,21.244705078125,-0.38344982266426086,-0.21296121180057526,0.11485548317432404
1747979088195973000,21.26297314453125,-9.136395454406738,-1.9262222051620483,1.1976077556610107
1747979088214238500,21.281238525390624,-17.29831314086914,-3.776472330093384,-3.0957143306732178
1747979088232503600,21.299503662109377,-8.229515075683594,-8.644071578979492,-2.1272194385528564
1747979088250769700,21.317769775390627,8.015357971191406,-34.338199615478516,-8.436494827270508
1747979088269033700,21.33603369140625,9.837491989135742,-59.29534149169922,-7.390830993652344
1747979088287299300,21.35429931640625,-0.380458801984787,-28.579275131225586,6.4085774421691895
1747979088305564000,21.37256396484375,0.9385846853256226,-19.47578239440918,11.70987606048584
1747979088323830300,21.390830322265625,2.348555326461792,-19.047466278076172,15.946368217468262
1747979088342090200,21.40909033203125,2.6177480220794678,-20.56690788269043,11.676376342773438
1747979088360359400,21.427359375,12.848260879516602,-20.507686614990234,12.471989631652832
1747979088378624800,21.445624755859374,-0.14835500717163086,-21.011974334716797,35.91746520996094
1747979088396891100,21.46389111328125,-49.97529602050781,-10.890334129333496,31.816165924072266
1747979088415154400,21.482154541015625,-8.215158462524414,-5.507081508636475,14.980864524841309
1747979088433420300,21.500420166015626,3.493520975112915,-4.347160339355469,7.466204643249512
1747979088467662800,21.534662841796877,-0.006580262444913387,-0.857228696346283,5.243870735168457
1747979088485917400,21.55291748046875,0.2548356056213379,1.0785647630691528,3.662813186645508
1747979088504193300,21.571193359375,-1.5990036725997925,5.002195835113525,4.4997029304504395
1747979088522461400,21.58946142578125,-7.304689407348633,8.417351722717285,6.272186279296875
1747979088540727600,21.6077275390625,-0.6275177597999573,5.2869415283203125,2.9868409633636475
1747979088558986500,21.625986572265624,1.350150227546692,2.3120648860931396,0.582054078578949
1747979088586374100,21.6533740234375,1.1748759746551514,0.15553347766399384,-1.0133603811264038
1747979088597872600,21.66487255859375,1.1030912399291992,-0.380458801984787,-0.22492532432079315
1747979088616073000,21.683072998046875,0.8709874153137207,-1.1180464029312134,0.3086741268634796
1747979088634336800,21.701336669921876,0.2871387302875519,-2.035693883895874,0.8231309652328491
1747979088652601900,21.719601806640625,0.7130611538887024,-10.391430854797363,8.261817932128906
1747979088670866400,21.737866455078127,-0.6281159520149231,-45.97270202636719,21.845273971557617
1747979088689133000,21.756133056640625,-15.613167762756348,-81.3517837524414,28.74378204345703
1747979088707397400,21.7743974609375,-14.555540084838867,-28.677978515625,25.262224197387695
1747979088725664000,21.7926640625,-6.279364585876465,-12.370893478393555,19.18146514892578
1747979088743923000,21.8109228515625,-1.5708880424499512,-5.723631858825684,16.0701961517334
1747979088762177800,21.829177734375,0.20937198400497437,-1.5050854682922363,11.629715919494629
1747979088780458500,21.84745849609375,3.5922250747680664,1.638485312461853,3.7052857875823975
1747979088798715000,21.86571484375,5.172086238861084,-0.8739784955978394,-2.3048863410949707
1747979088816988400,21.883988525390624,4.174877166748047,-3.864408493041992,-3.5988051891326904
1747979088835254300,21.902254150390625,3.8285162448883057,-4.0079779624938965,-2.5609183311462402
1747979088853518600,21.9205185546875,3.31884503364563,-2.630310297012329,-1.194616675376892
1747979088871783700,21.93878369140625,3.9116668701171875,-1.0516455173492432,0.3475574851036072
1747979088890048500,21.957048583984374,11.406585693359375,1.098305583000183,-3.391227960586548
1747979088908315100,21.975315185546876,12.997812271118164,2.6985056400299072,-8.404789924621582
1747979088926579200,21.9935791015625,9.486345291137695,3.0388846397399902,-10.218548774719238
1747979088944844300,22.01184423828125,2.7810580730438232,2.375474691390991,-6.477370738983154
1747979088963110100,22.030110107421876,-5.540580749511719,1.950150489807129,-2.6021945476531982
1747979088981375200,22.048375244140626,-14.940784454345703,-2.572284460067749,1.9543378353118896
1747979088999633700,22.066633544921874,-16.36810302734375,-5.983851432800293,8.883354187011719
1747979089017894400,22.084894287109375,-22.68754768371582,-13.28674602508545,8.632705688476562
1747979089036171000,22.1031708984375,1.5828521251678467,-16.222740173339844,-6.806982040405273
1747979089054436900,22.121436767578125,11.93779182434082,-36.24348449707031,-9.605388641357422
1747979089072695800,22.13969580078125,-0.27337998151779175,-30.287153244018555,-1.3184453248977661
1747979089090965200,22.15796533203125,3.362514019012451,-15.471392631530762,3.9810585975646973
1747979089109230800,22.17623095703125,6.2500529289245605,-9.70349407196045,2.812164783477783
1747979089127496400,22.194496337890627,10.650453567504883,-15.957734107971191,5.983851432800293
1747979089145761500,22.212761474609376,14.960525512695312,-31.394432067871094,15.76152229309082
1747979089164026400,22.2310263671875,10.079167366027832,-35.049468994140625,18.34636878967285
1747979089182291500,22.24929150390625,12.409177780151367,-26.67698097229004,18.89791488647461
1747979089200557800,22.267557861328125,5.188836097717285,-23.70629119873047,30.73819923400879
1747979089218821400,22.2858212890625,-81.57012939453125,-18.904495239257812,32.22593688964844
1747979089237086700,22.304086669921876,-20.585453033447266,-9.593423843383789,18.86680793762207
1747979089255352000,22.32235205078125,4.353142738342285,-6.796812534332275,7.719843864440918
1747979089273617700,22.34061767578125,4.1593241691589355,-4.618745803833008,7.823931694030762
1747979089291878100,22.358878173828124,1.8305093050003052,-1.6588243246078491,7.223333358764648
1747979089310146800,22.377146728515626,0.1333998590707779,1.672582983970642,5.4514479637146
1747979089328413200,22.3954130859375,-9.873982429504395,8.407182693481445,7.677371501922607
1747979089346682400,22.413682373046875,-2.3808584213256836,6.837490558624268,5.2145586013793945
1747979089364942800,22.43194287109375,0.04785645380616188,3.136990547180176,1.7114664316177368
1747979089383208200,22.450208251953125,0.08673982322216034,0.5575276613235474,-0.4540380835533142
1747979089401473300,22.468473388671875,-1.0845468044281006,-0.8309076428413391,-1.9854445457458496
1747979089419745300,22.486745361328126,0.08075776696205139,-1.8113667964935303,-0.4127618968486786
1747979089438003500,22.50500341796875,0.5072783827781677,-2.7086751461029053,1.0606186389923096
1747979089456268800,22.523268798828123,-0.5784648656845093,-7.401000499725342,6.9206414222717285
1747979089474534000,22.541533935546877,-21.713668823242188,-28.995027542114258,20.68355941772461
1747979089492800000,22.559800048828127,-2.899502754211426,-59.67460250854492,17.150556564331055
1747979089511059200,22.57805908203125,-0.6017948985099792,-49.755157470703125,11.798410415649414
1747979089529328400,22.596328369140625,-3.1680972576141357,-21.29073715209961,25.563720703125
1747979089547594500,22.614594482421875,-6.527021884918213,-8.185846328735352,26.08415985107422
1747979089565861400,22.632861328125,-3.1034910678863525,-4.745565414428711,18.765710830688477
1747979089584111000,22.651111083984375,0.268594354391098,-4.384847640991211,5.329414367675781
1747979089602391300,22.669391357421876,3.786043643951416,-5.020142078399658,-0.778863787651062
1747979089620654800,22.68765478515625,4.151547431945801,-5.284548759460449,-3.4893336296081543
1747979089638921000,22.7059208984375,2.410170555114746,-3.865604877471924,-3.6472599506378174
1747979089657186000,22.72418603515625,1.8771693706512451,-1.97407865524292,-2.3336002826690674
1747979089675449300,22.742449462890626,1.8544375896453857,-0.18364913761615753,-0.5694918036460876
1747979089693711000,22.760711181640627,9.810572624206543,2.266601324081421,-1.9268203973770142
1747979089711978000,22.77897802734375,18.5712947845459,3.521636724472046,-6.176473617553711
1747979089730245600,22.79724560546875,14.391632080078125,4.208974838256836,-7.909475326538086
1747979089748511000,22.815510986328125,3.459423303604126,1.9334007501602173,-3.7292141914367676
1747979089766776000,22.833776123046874,1.2646067142486572,1.5308083295822144,0.44745782017707825
1747979089785042000,22.8520419921875,-9.401400566101074,-5.245665550231934,0.7046862840652466
1747979089803306200,22.87030615234375,-31.05046272277832,-6.990033149719238,8.831310272216797
1747979089821571300,22.8885712890625,1.7365909814834595,-5.516652584075928,-2.68534517288208
1747979089839824400,22.906824462890626,8.595019340515137,-18.229719161987305,-14.132010459899902
1747979089858098200,22.92509814453125,-1.2921242713928223,-31.497920989990234,-11.595020294189453
1747979089876356000,22.943356201171873,-4.76530647277832,-19.07019805908203,2.4921247959136963
1747979089894632700,22.9616328125,0.3936193287372589,-10.869397163391113,4.109673023223877
1747979089912896800,22.979896728515627,2.407777786254883,-13.724632263183594,2.2749760150909424
1747979089931163000,22.998162841796876,11.388041496276855,-28.36870765686035,7.207181930541992
1747979089949427700,23.016427734375,10.055837631225586,-37.26701736450195,18.88654899597168
1747979089967688200,23.034688232421875,6.599404811859131,-31.583463668823242,19.0402889251709
1747979089985957400,23.052957275390625,11.13021469116211,-22.580469131469727,11.282158851623535
1747979090004224000,23.07122412109375,-6.117250919342041,-19.981266021728516,32.353355407714844
1747979090022481700,23.089481689453127,-49.74199676513672,-5.626124382019043,30.802804946899414
1747979090040742700,23.10774267578125,-0.698704183101654,-1.29810631275177,13.692329406738281
1747979090059008500,23.126008544921874,7.642077445983887,-2.039283037185669,6.7351975440979
1747979090077286100,23.1442861328125,1.6002001762390137,-2.2235305309295654,5.560919761657715
1747979090129784800,23.196784912109376,-1.1024930477142334,4.761716842651367,2.89172625541687
1747979090148062200,23.215062255859376,-5.395216941833496,4.932804107666016,0.34217363595962524
1747979090166324200,23.23332421875,0.12502498924732208,1.1676974296569824,-0.5312066078186035
1747979090184591000,23.251591064453127,1.0689935684204102,0.017946170642971992,-1.0755738019943237
1747979090207444700,23.27444482421875,0.9625129103660583,-1.4578272104263306,0.6681957244873047
1747979090225689600,23.292689697265626,-0.21236300468444824,-2.347957134246826,1.1754741668701172
1747979090243953200,23.310953125,-11.196615219116211,-15.51805305480957,11.612966537475586
1747979090262217700,23.3292177734375,-17.20379638671875,-49.18147659301758,20.55494499206543
1747979090280483000,23.347483154296874,-1.4350954294204712,-60.038909912109375,7.945965766906738
1747979090298749200,23.365749267578124,-4.293920040130615,-37.30949020385742,13.088739395141602
1747979090317009400,23.384009521484376,-4.598406791687012,-18.822540283203125,22.136600494384766
1747979090335278300,23.4022783203125,-4.683351993560791,-9.281759262084961,22.815563201904297
1747979090353543400,23.42054345703125,-2.847458839416504,-5.030311584472656,11.400005340576172
1747979090371805200,23.43880517578125,0.9320043921470642,-1.5619150400161743,2.71645188331604
1747979090390072600,23.457072509765624,4.011567115783691,-0.9774680733680725,-1.170688509941101
