time,seconds_elapsed,z,y,x
1747543538743367700,0.07336767578125,8.701950073242188,3.307950258255005,-0.6649500131607056
1747543538752962800,0.082962890625,8.53695011138916,3.38700008392334,-0.49500003457069397
1747543538762557000,0.092556884765625,8.487000465393066,3.352950096130371,-0.34005001187324524
1747543538772152000,0.102152099609375,8.508000373840332,3.2790000438690186,-0.3439500033855438
1747543538781748000,0.111748046875,8.719050407409668,3.183000087738037,-0.28200000524520874
1747543538800937200,0.130937255859375,8.496000289916992,1.8690000772476196,-0.11700000613927841
1747543538810532000,0.140531982421875,9.207000732421875,2.2420501708984375,0.8880000710487366
1747543538820128000,0.1501279296875,9.96405029296875,2.7090001106262207,1.2280501127243042
1747543538829723100,0.15972314453125,10.005000114440918,2.8429501056671143,0.9139500260353088
1747543538839317200,0.169317138671875,9.612000465393066,2.77905011177063,0.3060000240802765
1747543538848912100,0.178912109375,9.472949981689453,2.760000228881836,-0.22905001044273376
1747543538858508000,0.188508056640625,9.681000709533691,3.0010502338409424,-0.6169500350952148
1747543538868103000,0.19810302734375,9.526050567626953,3.352950096130371,-0.7870500087738037
1747543538877697300,0.207697265625,9.169050216674805,3.4519500732421875,-0.9409500360488892
1747543538887292200,0.217292236328125,8.752050399780273,3.4080002307891846,-1.1350500583648682
1747543538896888000,0.22688818359375,8.688000679016113,3.3990001678466797,-1.180050015449524
1747543538906483200,0.236483154296875,9.030000686645508,3.492000102996826,-1.1059499979019165
1747543538916077300,0.246077392578125,9.607050895690918,3.415950059890747,-0.4210500121116638
1747543538925672200,0.255672119140625,10.234050750732422,3.0229501724243164,0.4210500121116638
1747543538935268000,0.26526806640625,11.479950904846191,1.7400001287460327,2.6640000343322754
1747543538944863000,0.274863037109375,11.403000831604004,0.38700002431869507,2.4030001163482666
1747543538954457000,0.28445703125,9.841950416564941,-0.6150000095367432,0.40905001759529114
1747543538964052200,0.29405224609375,10.392000198364258,-0.08100000023841858,-0.2560500204563141
1747543538973648000,0.30364794921875,9.892050743103027,1.102950096130371,-1.111050009727478
1747543538983243000,0.313242919921875,8.422050476074219,1.864050030708313,-1.9030500650405884
1747543538992837000,0.322837158203125,8.302050590515137,3.6690001487731934,-1.9870500564575195
1747543539002432300,0.332432373046875,8.419950485229492,5.238000392913818,-1.4119501113891602
1747543539012028000,0.34202783203125,8.034000396728516,4.900050163269043,-1.636950135231018
1747543539021623000,0.351623046875,7.777950286865234,3.5470502376556396,-2.3050501346588135
1747543539031217200,0.361217041015625,8.290050506591797,2.9029500484466553,-2.1979501247406006
1747543539040812300,0.370812255859375,9.130949974060059,2.7930002212524414,-1.4980500936508179
1747543539050408200,0.380408203125,9.564000129699707,2.628000020980835,-1.3159500360488892
1747543539060003000,0.390003173828125,9.568950653076172,2.590050220489502,-1.5390000343322754
1747543539069597200,0.39959716796875,9.69795036315918,2.8429501056671143,-1.4700000286102295
1747543539079192000,0.409192138671875,9.508950233459473,2.9659502506256104,-1.4580000638961792
1747543539088787700,0.41878759765625,9.12600040435791,2.805000066757202,-1.4820001125335693
1747543539098382800,0.4283828125,8.82194995880127,2.8410000801086426,-1.3260000944137573
1747543539107977000,0.43797705078125,8.520000457763672,2.946000099182129,-0.9190500378608704
1747543539117572000,0.447572021484375,8.143950462341309,2.9539501667022705,-1.0440000295639038
1747543539127168000,0.45716796875,8.086950302124023,2.998950242996216,-1.5580500364303589
1747543539136763100,0.46676318359375,8.575050354003906,2.7520501613616943,-2.518050193786621
1747543539146357000,0.47635693359375,9.183000564575195,2.77905011177063,-3.2130000591278076
1747543539155952000,0.4859521484375,10.27500057220459,3.100050210952759,-3.579000234603882
1747543539165548000,0.495548095703125,11.410050392150879,3.3390002250671387,-3.358950138092041
1747543539175143000,0.505142822265625,11.88705062866211,2.8189501762390137,-1.9890000820159912
1747543539184737300,0.5147373046875,12.076050758361816,2.7499501705169678,-1.6060501337051392
1747543539194332000,0.524331787109375,11.668950080871582,3.0349502563476562,-1.696950078010559
1747543539203927800,0.533927734375,10.80405044555664,3.3169500827789307,-1.0960500240325928
1747543539213522700,0.543522705078125,9.918000221252441,3.6739501953125,-0.26100000739097595
1747543539223117000,0.553116943359375,9.157050132751465,3.7699501514434814,-0.10695000737905502
1747543539232712000,0.5627119140625,8.937000274658203,3.6670501232147217,-0.37800002098083496
1747543539242307800,0.572307861328125,9.127950668334961,3.3010501861572266,-0.9810000658035278
1747543539251903000,0.581903076171875,9.130949974060059,3.0730502605438232,-1.7640000581741333
1747543539261497000,0.5914970703125,9.480000495910645,3.346050262451172,-2.152050018310547
1747543539271092200,0.60109228515625,9.799050331115723,3.604950189590454,-2.320050001144409
1747543539280687900,0.61068798828125,10.207950592041016,3.8490002155303955,-2.064000129699707
1747543539290282800,0.62028271484375,10.735050201416016,4.068000316619873,-1.714050054550171
1747543539299877000,0.629877197265625,11.403000831604004,4.723050117492676,-0.8299500346183777
1747543539309472300,0.63947216796875,10.528950691223145,5.142000198364258,-1.2540000677108765
1747543539319068000,0.64906787109375,9.054000854492188,4.926000118255615,-2.5500001907348633
1747543539328662800,0.658662841796875,7.672950267791748,4.555050373077393,-3.178950071334839
1747543539338257200,0.668257080078125,7.039950370788574,4.33305025100708,-2.857950210571289
1747543539347852000,0.67785205078125,7.7470502853393555,4.1579999923706055,-1.489050030708313
1747543539357448000,0.687447998046875,8.721000671386719,4.35705041885376,-0.14805001020431519
1747543539367043000,0.69704296875,8.784000396728516,4.263000011444092,0.22005000710487366
1747543539376637200,0.70663720703125,8.87700080871582,3.850950241088867,-0.14100000262260437
1747543539386231800,0.716231689453125,9.045000076293945,3.5809502601623535,-0.6130500435829163
1747543539395828000,0.725827880859375,9.289050102233887,3.613950252532959,-0.6720000505447388
1747543539405422800,0.7354228515625,9.648000717163086,4.074000358581543,-0.1270500123500824
1747543539415017200,0.745017333984375,9.241050720214844,4.392000198364258,-0.2850000262260437
1747543539424612000,0.754612060546875,9.094950675964355,4.572000026702881,-0.7470000386238098
1747543539434208000,0.7642080078125,8.869950294494629,4.266000270843506,-0.37800002098083496
1747543539443803000,0.773802978515625,8.530050277709961,4.474050045013428,0.4729500114917755
1747543539453397200,0.783397216796875,7.681950569152832,4.870950222015381,0.5809500217437744
1747543539462992100,0.7929921875,7.3690505027771,4.498050212860107,0.40905001759529114
1747543539472587800,0.802587890625,7.207950115203857,4.266000270843506,0.4210500121116638
1747543539482183000,0.812182861328125,7.324950218200684,4.215000152587891,0.4900500178337097
1747543539491777000,0.821777099609375,7.653000354766846,4.186950206756592,0.0690000057220459
1747543539501372200,0.8313720703125,8.239950180053711,4.129050254821777,0.021000001579523087
1747543539510968000,0.840968017578125,8.508000373840332,4.360949993133545,0.1860000044107437
1747543539520563000,0.85056298828125,8.295000076293945,4.5769500732421875,0.4810500144958496
1747543539530157000,0.860156982421875,7.924050331115723,4.9930500984191895,1.0939500331878662
1747543539539752200,0.869752197265625,7.372950553894043,4.926000118255615,1.5919500589370728
1747543539549347800,0.879347900390625,6.11400032043457,4.348950386047363,1.6630500555038452
1747543539558943000,0.88894287109375,6.949950218200684,4.404000282287598,1.711050033569336
1747543539568537000,0.898537109375,7.207950115203857,4.63200044631958,1.596000075340271
1747543539578132200,0.90813232421875,7.153050422668457,4.6459503173828125,1.2300000190734863
1747543539587728000,0.917727783203125,7.04295015335083,4.527000427246094,0.8659500479698181
1747543539597323000,0.927322998046875,7.146000385284424,4.43595027923584,1.078950047492981
1747543539606917000,0.936917236328125,7.9170002937316895,4.23900032043457,1.4790000915527344
1747543539616512300,0.94651220703125,9.432000160217285,3.982950210571289,1.2250500917434692
1747543539626108000,0.95610791015625,10.737000465393066,3.604950189590454,0.8899500370025635
1747543539635703000,0.965703125,11.194950103759766,3.4609501361846924,0.6790500283241272
1747543539645297200,0.975297119140625,11.128050804138184,3.6739501953125,0.7339500188827515
1747543539654892300,0.984892333984375,10.861950874328613,3.994950294494629,1.0429500341415405
1747543539664488000,0.994488037109375,10.603050231933594,4.294050216674805,1.158000111579895
1747543539674083000,1.0040830078125,10.291950225830078,4.444950103759766,0.9019500613212585
1747543539683677200,1.01367724609375,9.805950164794922,4.52400016784668,0.4519500136375427
1747543539693272300,1.023272216796875,9.12600040435791,4.561950206756592,0.09495000541210175
1747543539702868000,1.032867919921875,8.447999954223633,4.567049980163574,-0.10500000417232513
1747543539712463000,1.042463134765625,8.050050735473633,4.572000026702881,-0.39900001883506775
1747543539722057200,1.05205712890625,8.23799991607666,4.488000392913818,-0.742050051689148
1747543539731652400,1.06165234375,8.761950492858887,4.342050075531006,-1.0990500450134277
1747543539741248000,1.071248046875,9.163949966430664,4.2370500564575195,-1.3620001077651978
1747543539750843100,1.080843017578125,9.574050903320312,4.15500020980835,-1.3140000104904175
1747543539760437200,1.090437255859375,9.916050910949707,4.0410003662109375,-1.141950011253357
1747543539770032400,1.100032470703125,9.880050659179688,4.087049961090088,-0.8590500354766846
1747543539779628000,1.1096279296875,9.364950180053711,4.249050140380859,-0.39705002307891846
1747543539789223200,1.11922314453125,8.689949989318848,4.4160003662109375,-0.10500000417232513
1747543539798817500,1.128817626953125,8.008049964904785,4.609950065612793,-0.3349500298500061
1747543539808412400,1.138412353515625,7.483050346374512,4.785000324249268,-1.0360500812530518
1747543539818008000,1.148008056640625,7.135950565338135,4.885950088500977,-1.7470500469207764
1747543539827603200,1.157603271484375,7.014000415802002,4.945950031280518,-2.190000057220459
1747543539837197300,1.167197265625,6.946950435638428,4.861950397491455,-2.5230000019073486
1747543539846792400,1.17679248046875,7.510050296783447,4.52400016784668,-2.5230000019073486
1747543539856388000,1.18638818359375,9.16200065612793,3.825000286102295,-2.1739501953125
1747543539865983200,1.195983154296875,10.273050308227539,2.866950035095215,-0.6799500584602356
1747543539875577300,1.205577392578125,11.415000915527344,2.1750001907348633,0.27000001072883606
1747543539885172500,1.21517236328125,12.277050971984863,1.6270500421524048,0.8059500455856323
1747543539894768000,1.22476806640625,12.253050804138184,1.1869500875473022,0.9019500613212585
1747543539904363300,1.23436328125,12.054000854492188,0.9520500302314758,1.0840500593185425
1747543539913957400,1.243957275390625,11.982000350952148,1.075950026512146,1.3620001077651978
1747543539923552500,1.253552490234375,11.724000930786133,1.4239500761032104,1.3470001220703125
1747543539933148200,1.263148193359375,11.362051010131836,1.977000117301941,0.6960000395774841
1747543539942743300,1.272743408203125,10.468950271606445,2.4870002269744873,-0.30900001525878906
1747543539952337400,1.28233740234375,9.210000038146973,2.914950132369995,-1.3260000944137573
1747543539961932500,1.2919326171875,8.689949989318848,3.2149500846862793,-1.5420000553131104
1747543539971528200,1.301528076171875,8.824049949645996,3.5470502376556396,-1.0750499963760376
1747543539981123300,1.311123291015625,8.84595012664795,3.6409502029418945,-0.675000011920929
1747543539990717400,1.320717529296875,8.985000610351562,3.4039502143859863,-0.6889500617980957
1747543540000312600,1.3303125,8.937000274658203,2.7720000743865967,-1.3639500141143799
1747543540009908200,1.339908203125,8.905950546264648,2.697000026702881,-1.2660000324249268
1747543540019503000,1.349503173828125,10.029000282287598,2.7550501823425293,-0.009000000543892384
1747543540029097500,1.359097412109375,9.921000480651855,2.6710500717163086,0.856950044631958
1747543540038692400,1.3686923828125,7.315950393676758,2.3310000896453857,0.0880500078201294
1747543540048288300,1.378288330078125,6.442050457000732,1.990950107574463,-1.204050064086914
1747543540057883100,1.387883056640625,7.182000160217285,2.1280500888824463,-0.8040000200271606
1747543540067477500,1.3974775390625,8.131950378417969,2.7400500774383545,0.8760000467300415
1747543540077072400,1.407072265625,8.593950271606445,3.2220001220703125,2.1160500049591064
1747543540086668300,1.416668212890625,9.472949981689453,3.514050245285034,2.5159502029418945
1747543540096263200,1.42626318359375,10.495050430297852,3.763050079345703,2.442000150680542
1747543540105857500,1.435857421875,10.914000511169434,3.957000255584717,2.137050151824951
1747543540115452400,1.445452392578125,10.998000144958496,4.006950378417969,2.1060001850128174
1747543540125048300,1.45504833984375,10.606050491333008,3.4590001106262207,1.4479501247406006
1747543540134643200,1.464643310546875,9.612000465393066,2.368950128555298,0.18405000865459442
1747543540144237300,1.4742373046875,9.009000778198242,1.9810501337051392,-0.226950004696846
1747543540153832400,1.48383251953125,8.79104995727539,2.269050121307373,0.10500000417232513
1747543540163428400,1.493428466796875,8.793000221252441,2.4720001220703125,0.44700002670288086
1747543540173023500,1.5030234375,8.86305046081543,2.3650500774383545,0.3679500222206116
1747543540182617600,1.51261767578125,8.695050239562988,2.149049997329712,0.37005001306533813
1747543540192212500,1.52221240234375,8.353050231933594,1.9890000820159912,0.6270000338554382
1747543540201808400,1.531808349609375,8.25,1.9530000686645508,1.0110000371932983
1747543540211403300,1.5414033203125,8.30505084991455,1.828050136566162,1.3039500713348389
1747543540220997600,1.55099755859375,8.818950653076172,1.6030501127243042,1.3780500888824463
1747543540230592800,1.5605927734375,9.693000793457031,1.5150001049041748,1.2540000677108765
1747543540240188400,1.5701884765625,10.86405086517334,1.4740500450134277,1.2280501127243042
1747543540249783300,1.579783203125,11.752050399780273,1.2540000677108765,1.2420001029968262
1747543540259377700,1.589377685546875,12.106950759887695,0.9660000205039978,1.258950114250183
1747543540268972300,1.59897216796875,11.82705020904541,0.9139500260353088,1.258950114250183
1747543540278568200,1.608568115234375,11.611050605773926,1.0330500602722168,1.194000005722046
1747543540288163300,1.618163330078125,11.230050086975098,1.2460500001907349,1.0069500207901
1747543540297757400,1.62775732421875,10.744050979614258,1.38795006275177,0.4930500090122223
1747543540307352600,1.6373525390625,10.29900074005127,1.1820000410079956,-1.264050006866455
1747543540316948200,1.6469482421875,10.183950424194336,1.324950098991394,-2.190000057220459
1747543540326543400,1.65654345703125,9.97095012664795,0.9610500335693359,-2.4130501747131348
1747543540336137500,1.666137451171875,10.029000282287598,1.002000093460083,-2.4850502014160156
1747543540345732600,1.675732666015625,10.090950012207031,1.6290000677108765,-2.3170502185821533
1747543540355328300,1.685328369140625,10.414050102233887,1.6770000457763672,-1.1749500036239624
1747543540364923400,1.69492333984375,10.170000076293945,2.356950044631958,-0.6990000605583191
1747543540374517500,1.704517578125,11.214000701904297,3.0180001258850098,0.25995001196861267
1747543540384112400,1.7141123046875,10.357050895690918,3.526050090789795,0.4900500178337097
1747543540393708300,1.723708251953125,9.664950370788574,3.676950216293335,0.675000011920929
1747543540403303400,1.733303466796875,8.371950149536133,3.862950086593628,2.0299501419067383
1747543540412897500,1.7428974609375,7.870950222015381,3.925950288772583,5.475000381469727
1747543540422492700,1.75249267578125,7.90500020980835,3.744000196456909,4.1010003089904785
1747543540432088300,1.76208837890625,7.669950485229492,2.8309500217437744,0.23595000803470612
1747543540441683200,1.77168310546875,7.882950305938721,2.974950075149536,-0.8689500689506531
1747543540451277600,1.781277587890625,8.353050231933594,3.3730502128601074,-0.4639500081539154
1747543540460872400,1.79087255859375,8.85105037689209,3.1470000743865967,-0.4710000157356262
1747543540470468400,1.80046826171875,9.013050079345703,2.428950071334839,-0.3829500079154968
1747543540480063200,1.810063232421875,9.625950813293457,2.3239500522613525,0.49500003457069397
1747543540489657600,1.81965771484375,10.129050254821777,2.7019500732421875,0.9709500670433044
1747543540499252500,1.82925244140625,10.19895076751709,2.7430500984191895,0.44505003094673157
1747543540508848400,1.838848388671875,9.808050155639648,2.737950086593628,-0.04005000367760658
1747543540518443300,1.848443359375,8.680950164794922,2.2330501079559326,-0.4159500300884247
1747543540528037600,1.85803759765625,9.301050186157227,1.960050106048584,0.8659500479698181
1747543540537632500,1.867632568359375,9.064050674438477,2.368950128555298,0.4540500342845917
1747543540547228400,1.877228515625,9.316950798034668,2.596950054168701,0.21000000834465027
1747543540556823300,1.8868232421875,9.351000785827637,3.126000165939331,-0.14100000262260437
1747543540566417700,1.896417724609375,9.41295051574707,3.4200000762939453,-0.3660000264644623
1747543540576012500,1.906012451171875,9.459000587463379,3.4110002517700195,-0.4740000367164612
1747543540585608200,1.915608154296875,9.40095043182373,3.1740002632141113,-0.5380499958992004
1747543540595203300,1.925203369140625,9.291000366210938,2.76705002784729,-0.2460000067949295
1747543540604797400,1.93479736328125,9.115950584411621,2.3740501403808594,0.27000001072883606
1747543540614392600,1.944392578125,9.032999992370605,2.107950210571289,0.7870500087738037
1747543540623988200,1.95398828125,8.968050003051758,1.9789501428604126,1.0699501037597656
1747543540633583400,1.963583251953125,8.60205078125,1.9669500589370728,1.062000036239624
1747543540643177500,1.973177490234375,8.464950561523438,2.110949993133545,1.0500000715255737
1747543540652772600,1.982772705078125,8.499000549316406,2.2380001544952393,1.117050051689148
1747543540662368300,1.9923681640625,8.221050262451172,2.39805006980896,0.9280500411987305
1747543540671963400,2.00196337890625,7.809000492095947,2.68500018119812,0.6460500359535217
1747543540681557500,2.0115576171875,7.4569501876831055,2.9130001068115234,0.47805002331733704
1747543540691152600,2.021152587890625,7.324950218200684,3.0450000762939453,0.04005000367760658
1747543540700748300,2.030748291015625,7.522050380706787,3.0040502548217773,-0.18195000290870667
1747543540710343400,2.040343505859375,7.962000370025635,2.785950183868408,0.07095000147819519
1747543540719937800,2.049937744140625,8.440950393676758,2.3530499935150146,0.6289500594139099
1747543540729532700,2.05953271484375,8.946000099182129,1.918950080871582,1.1700000762939453
1747543540739128300,2.06912841796875,9.337050437927246,1.689000129699707,1.3930500745773315
1747543540748723200,2.07872314453125,9.576000213623047,1.711050033569336,1.3620001077651978
1747543540758317600,2.088317626953125,10.258050918579102,1.9429501295089722,1.4070000648498535
1747543540767912400,2.097912353515625,9.741000175476074,2.2260000705718994,1.290000081062317
1747543540777508400,2.10750830078125,8.737950325012207,2.4030001163482666,0.9259500503540039
1747543540787103200,2.117103271484375,8.022000312805176,2.5350000858306885,0.742050051689148
1747543540796697300,2.126697265625,7.716000556945801,2.640000104904175,0.739050030708313
1747543540806292500,2.13629248046875,7.966950416564941,2.7210001945495605,0.8209500312805176
1747543540815888400,2.145888427734375,8.214000701904297,2.6830501556396484,0.9690000414848328
1747543540825483300,2.155483154296875,7.105050563812256,2.4820501804351807,0.9040500521659851
1747543540835077400,2.165077392578125,7.594050407409668,2.3839499950408936,1.4100000858306885
1747543540844672500,2.174672607421875,8.439000129699707,2.3530499935150146,1.752000093460083
1747543540854268200,2.18426806640625,8.713950157165527,2.3650500774383545,1.7179501056671143
1747543540863863300,2.19386328125,8.695050239562988,2.4460501670837402,1.4530500173568726
1747543540873457700,2.203457763671875,8.32395076751709,2.5540502071380615,1.048050045967102
1747543540883052500,2.213052490234375,7.858950138092041,2.68500018119812,0.7099500298500061
1747543540892648400,2.2226484375,7.402050495147705,2.8309500217437744,0.5190000534057617
1747543540902243300,2.232243408203125,7.179000377655029,2.8909502029418945,0.3679500222206116
1747543540911837700,2.241837646484375,7.158000469207764,2.914950132369995,0.21195000410079956
1747543540921432600,2.2514326171875,7.392000198364258,2.8600502014160156,0.28200000524520874
1747543540931028500,2.261028564453125,7.837950229644775,2.6020500659942627,0.5740500092506409
1747543540940623600,2.27062353515625,8.60205078125,2.2330501079559326,0.8299500346183777
1747543540950217700,2.2802177734375,9.483000755310059,1.8109500408172607,0.9589500427246094
1747543540959812600,2.2898125,10.041000366210938,1.5600000619888306,1.287000060081482
1747543540969408500,2.299408447265625,10.303950309753418,1.749000072479248,1.6009501218795776
1747543540979003400,2.30900341796875,9.946950912475586,2.239950180053711,1.6060501337051392
1747543540988597800,2.31859765625,8.914950370788574,2.725950241088867,1.489050030708313
1747543540998193000,2.32819287109375,8.029050827026367,3.0799500942230225,1.4239500761032104
1747543541007788500,2.33778857421875,7.681950569152832,3.3199501037597656,1.180050015449524
1747543541017383400,2.347383544921875,7.870950222015381,3.586050271987915,0.8010000586509705
1747543541026977800,2.356977783203125,8.43600082397461,3.574050188064575,0.4759500324726105
1747543541036572400,2.366572509765625,9.427950859069824,3.1279501914978027,0.21195000410079956
1747543541046168600,2.37616845703125,10.906950950622559,2.4340500831604004,-0.0690000057220459
1747543541055763500,2.385763427734375,12.516000747680664,1.7440500259399414,-0.3349500298500061
1747543541065357600,2.395357666015625,13.74000072479248,1.1460000276565552,-0.6010500192642212
1747543541074952700,2.40495263671875,14.29995059967041,0.9040500521659851,-0.7180500626564026
1747543541084548600,2.414548583984375,14.16300106048584,1.102950096130371,-0.5550000071525574
1747543541094143500,2.4241435546875,13.23900032043457,1.6990500688552856,-0.4620000123977661
1747543541103737600,2.433737548828125,11.809950828552246,2.4910500049591064,-0.13905000686645508
1747543541113332700,2.443332763671875,10.132050514221191,3.2310001850128174,0.35895001888275146
1747543541122928400,2.452928466796875,8.640000343322754,4.052999973297119,0.6100500226020813
1747543541132523500,2.4625234375,7.783050537109375,4.90500020980835,0.6550500392913818
1747543541142117600,2.47211767578125,7.777950286865234,5.547000408172607,0.5910000205039978
1747543541151712800,2.481712646484375,7.878000259399414,5.676000118255615,0.2959500253200531
1747543541161308700,2.49130859375,8.034000396728516,5.299950122833252,-0.06195000186562538
1747543541170903600,2.500903564453125,8.986950874328613,4.5360002517700195,-0.31995001435279846
1747543541180497700,2.51049755859375,10.612950325012207,3.604950189590454,-0.37995001673698425
1747543541190092800,2.5200927734375,12.681000709533691,2.7049500942230225,-0.5430000424385071
1747543541199688700,2.529688720703125,14.653950691223145,2.1160500049591064,-0.9000000357627869
1747543541209283600,2.53928369140625,16.062000274658203,2.0029501914978027,-1.699950098991394
1747543541218877700,2.548877685546875,16.2049503326416,2.26200008392334,-2.559000015258789
1747543541228472800,2.558472900390625,15.034950256347656,2.776050090789795,-2.9950501918792725
1747543541238068500,2.568068359375,12.588000297546387,3.3490500450134277,-3.1740002632141113
1747543541247663600,2.57766357421875,9.784050941467285,3.8389501571655273,-2.977950096130371
1747543541257257700,2.5872578125,8.209050178527832,4.102950096130371,-2.4780001640319824
1747543541266852900,2.596852783203125,8.211000442504883,3.910950183868408,-1.7950501441955566
1747543541276448500,2.606448486328125,9.234000205993652,3.4230000972747803,-1.4239500761032104
1747543541286043600,2.616043701171875,10.56705093383789,2.986950159072876,-0.9120000600814819
1747543541295637800,2.6256376953125,11.475000381469727,2.7520501613616943,-0.49500003457069397
1747543541305233000,2.63523291015625,11.748000144958496,2.448000192642212,-0.18405000865459442
1747543541314828500,2.64482861328125,11.191950798034668,1.9930500984191895,0.4759500324726105
1747543541324423700,2.654423583984375,10.444950103759766,2.299950122833252,0.5719500184059143
1747543541334017800,2.664017822265625,9.352950096130371,2.937000036239624,-0.09795000404119492
1747543541343613000,2.673613037109375,8.35004997253418,1.8430501222610474,0.8299500346183777
1747543541353208600,2.68320849609375,7.201050281524658,4.170000076293945,-1.1509500741958618
1747543541362803500,2.692803466796875,7.201050281524658,4.7470502853393555,-1.6660500764846802
1747543541372397800,2.702397705078125,7.914000511169434,4.3660502433776855,-1.5100500583648682
1747543541381993000,2.711992919921875,8.179950714111328,3.8110501766204834,-1.0630500316619873
1747543541391588600,2.721588623046875,8.773950576782227,2.9850001335144043,-0.16005000472068787
1747543541401183700,2.731183837890625,9.097050666809082,2.11995005607605,0.6790500283241272
1747543541410777900,2.74077783203125,8.761950492858887,1.8330000638961792,1.1680500507354736
1747543541420373000,2.750373046875,7.855050563812256,1.9549500942230225,1.2060000896453857
1747543541429968600,2.75996875,7.063950538635254,2.110949993133545,0.697950005531311
1747543541439563800,2.769563720703125,6.610050201416016,2.3209500312805176,0.1570500135421753
1747543541449158100,2.779158203125,6.5620503425598145,2.3740501403808594,-0.4330500066280365
1747543541458753000,2.7887529296875,7.560000419616699,1.1220000982284546,0.7270500063896179
1747543541468349000,2.798348876953125,8.515049934387207,2.1280500888824463,0.28200000524520874
1747543541477943600,2.807943603515625,10.069050788879395,2.6230502128601074,-0.08100000023841858
1747543541487538200,2.8175380859375,10.962000846862793,2.2210500240325928,1.4239500761032104
1747543541497132800,2.8271328125,10.336950302124023,2.047950029373169,2.5639500617980957
1747543541506728700,2.836728759765625,8.953950881958008,2.4790501594543457,2.6760001182556152
1747543541516323600,2.846323486328125,7.207950115203857,2.9509501457214355,2.3389501571655273
1747543541525918000,2.85591796875,5.197050094604492,3.436950206756592,1.5250500440597534
1747543541535512800,2.865512939453125,4.672950267791748,3.4990501403808594,0.5910000205039978
1747543541545108700,2.875108642578125,6.990000247955322,3.103950262069702,-0.361050009727478
1747543541554703600,2.88470361328125,9.897000312805176,2.5200002193450928,-1.1779500246047974
1747543541564298000,2.894298095703125,12.930000305175781,1.7950501441955566,-1.3810501098632812
1747543541573893000,2.90389306640625,15.325050354003906,0.6100500226020813,-1.276050090789795
1747543541583488800,2.91348876953125,17.24700164794922,-0.19905000925064087,-1.7569501399993896
1747543541593083600,2.923083740234375,17.740951538085938,-0.3349500298500061,-1.984950065612793
1747543541602678000,2.932677978515625,16.096050262451172,0.10905000567436218,-1.7260501384735107
1747543541612273000,2.94227294921875,13.371000289916992,0.3679500222206116,-1.6249500513076782
1747543541621868800,2.951868896484375,11.032050132751465,0.6910500526428223,-1.755000114440918
1747543541631464000,2.9614638671875,9.26205062866211,1.0930500030517578,-1.7950501441955566
1747543541641058000,2.97105810546875,8.257050514221191,1.1430000066757202,-1.281000018119812
1747543541650653000,2.98065283203125,7.684950351715088,0.7440000176429749,-0.18405000865459442
1747543541660248800,2.990248779296875,7.039950370788574,0.2580000162124634,0.9570000171661377
1747543541669844000,2.999843994140625,6.423000335693359,0.07304999977350235,1.141050100326538
1747543541679438000,3.00943798828125,5.63700008392334,0.15195000171661377,0.16695000231266022
1747543541689033000,3.019032958984375,4.689000129699707,0.47805002331733704,-1.4940000772476196
1747543541698628900,3.02862890625,3.8230502605438232,0.8269500136375427,-2.9920501708984375
1747543541708223700,3.0382236328125,3.06600022315979,0.9570000171661377,-3.5500502586364746
1747543541717818000,3.047818115234375,2.7280502319335938,0.5190000534057617,-3.6010501384735107
1747543541727413000,3.0574130859375,2.209050178527832,0.021000001579523087,-3.0019500255584717
1747543541737009000,3.0670087890625,1.7920501232147217,-0.5530500411987305,-2.302950143814087
1747543541746603800,3.076603759765625,1.5430500507354736,-1.1640000343322754,-1.735050082206726
1747543541756198100,3.0861982421875,0.7200000286102295,-1.7890501022338867,-3.7800002098083496
1747543541765793000,3.09579296875,0.853950023651123,-0.7570500373840332,-1.081950068473816
1747543541775389000,3.105388916015625,1.4760000705718994,-0.8400000333786011,0.226950004696846
1747543541784983800,3.11498388671875,2.965050220489502,-2.305950164794922,-0.8470500111579895
1747543541794578200,3.124578125,4.231950283050537,-3.687000274658203,-2.0400002002716064
1747543541804173000,3.134173095703125,4.680000305175781,-4.063050270080566,-2.0680501461029053
1747543541813769000,3.14376904296875,4.360949993133545,-4.176000118255615,-1.867050051689148
1747543541823363800,3.15336376953125,4.230000019073486,-4.317000389099121,-1.9200000762939453
1747543541832958200,3.162958251953125,3.9160501956939697,-4.039050102233887,-2.427000045776367
1747543541842553000,3.172552978515625,3.9810001850128174,-3.727950096130371,-3.118950128555298
1747543541852149000,3.18214892578125,3.5280001163482666,-3.709050178527832,-3.808950185775757
1747543541861744000,3.191744140625,3.3960001468658447,-3.951000213623047,-4.273050308227539
1747543541871338200,3.201338134765625,2.9410500526428223,-4.498950004577637,-4.360050201416016
1747543541880933000,3.21093310546875,2.050950050354004,-5.338950157165527,-4.1610002517700195
1747543541890529000,3.220529052734375,1.3950001001358032,-6.28695011138916,-3.5839502811431885
1747543541900124000,3.2301240234375,1.27305006980896,-7.348050117492676,-2.4150002002716064
1747543541909718300,3.23971826171875,1.6530001163482666,-8.70300006866455,-0.7920000553131104
1747543541919313200,3.249313232421875,3.1740002632141113,-9.892950057983398,0.4350000321865082
1747543541928909000,3.258908935546875,3.2980501651763916,-10.882050514221191,-0.5190000534057617
1747543541948098300,3.278098388671875,3.6000001430511475,-12.762001037597656,-4.645050048828125
1747543541957693200,3.287693115234375,3.295950174331665,-13.875000953674316,-6.306000232696533
1747543541967289000,3.2972890625,2.9730000495910645,-15.016950607299805,-7.743000507354736
1747543541976884000,3.306884033203125,2.5249500274658203,-16.104000091552734,-9.10004997253418
1747543541986478300,3.316478271484375,1.9330500364303589,-16.935001373291016,-10.46505069732666
1747543541996073200,3.3260732421875,1.1340000629425049,-17.77305030822754,-11.755950927734375
1747543542005669400,3.33566943359375,0.492000013589859,-18.856950759887695,-12.832950592041016
1747543542015264000,3.345263916015625,0.13305000960826874,-20.080951690673828,-14.020950317382812
1747543542024858400,3.3548583984375,0.22395001351833344,-21.216001510620117,-15.661050796508789
1747543542034453200,3.364453369140625,0.7339500188827515,-21.919950485229492,-18.1960506439209
1747543542044049200,3.374049072265625,0.9490500688552856,-21.664051055908203,-21.583951950073242
1747543542053644000,3.38364404296875,1.3609501123428345,-20.22705078125,-25.257001876831055
1747543542063238400,3.39323828125,1.6579500436782837,-17.794050216674805,-27.529050827026367
1747543542072833300,3.402833251953125,1.0879501104354858,-14.155050277709961,-28.165950775146484
1747543542082429200,3.41242919921875,-1.6549500226974487,-11.505000114440918,-28.978052139282227
1747543542101618400,3.431618408203125,-2.332050085067749,-9.394950866699219,-26.301000595092773
1747543542111213300,3.44121337890625,-1.3789501190185547,-8.657999992370605,-23.847002029418945
1747543542120809200,3.450809326171875,-0.6540000438690186,-8.907000541687012,-22.04400062561035
1747543542130404400,3.460404296875,0.05895000323653221,-9.673050880432129,-20.380050659179688
1747543542139998500,3.46999853515625,0.9040500521659851,-10.233000755310059,-18.634050369262695
1747543542149593300,3.47959326171875,1.3060500621795654,-10.552050590515137,-16.99905014038086
1747543542159189200,3.489189208984375,1.162950038909912,-11.587950706481934,-15.345000267028809
1747543542168784400,3.498784423828125,1.3489500284194946,-12.667950630187988,-13.43595027923584
1747543542178378500,3.50837841796875,1.8330000638961792,-13.05405044555664,-11.373000144958496
1747543542187973600,3.5179736328125,1.6170001029968262,-12.77595043182373,-9.309000015258789
1747543542207164400,3.537164306640625,-0.856950044631958,-12.735000610351562,-4.635000228881836
1747543542216758500,3.546758544921875,-0.25905001163482666,-12.096000671386719,-2.650050163269043
1747543542226353700,3.556353759765625,1.633950114250183,-11.008950233459473,-2.7240002155303955
1747543542235949300,3.56594921875,2.9130001068115234,-10.07295036315918,-4.266000270843506
1747543542245544400,3.57554443359375,3.5689501762390137,-9.019050598144531,-5.784000396728516
1747543542255138600,3.585138671875,3.5659501552581787,-7.7910003662109375,-7.198950290679932
1747543542264733700,3.594733642578125,3.376950263977051,-6.441000461578369,-7.084050178527832
1747543542274329300,3.604329345703125,3.95205020904541,-5.883000373840332,-6.021000385284424
1747543542283924500,3.613924560546875,6.367950439453125,-6.060000419616699,-10.000950813293457
1747543542303113500,3.633113525390625,3.724050283432007,-1.9590001106262207,-14.149950981140137
1747543542322304300,3.65230419921875,-4.3720502853393555,0.21705001592636108,-13.657051086425781
1747543542341493500,3.671493408203125,-4.540050029754639,0.41805002093315125,-15.439950942993164
1747543542360684300,3.690684326171875,-4.084949970245361,-1.812000036239624,-13.399950981140137
1747543542370278700,3.700278564453125,-4.774050235748291,-4.744950294494629,-7.293000221252441
1747543542379873800,3.709873779296875,-7.267050266265869,-11.517000198364258,6.720000267028809
1747543542399064300,3.729064208984375,11.070000648498535,-12.235050201416016,5.971050262451172
1747543542408658400,3.738658447265625,12.607050895690918,-11.124000549316406,3.0739500522613525
1747543542418253600,3.748253662109375,9.624000549316406,-9.86400032043457,0.6889500617980957
1747543542427849200,3.75784912109375,4.914000034332275,-7.111050128936768,-0.9670500755310059
1747543542437444400,3.7674443359375,2.688000202178955,-5.82105016708374,-3.0360002517700195
1747543542447038700,3.777038818359375,2.4840002059936523,-4.783950328826904,-4.126950263977051
1747543542456633600,3.786633544921875,1.3300501108169556,-3.7950000762939453,-4.393050193786621
1747543542466229500,3.7962294921875,0.3340500295162201,-2.6460001468658447,-7.417050361633301
1747543542475824400,3.805824462890625,0.8299500346183777,-2.9260501861572266,-8.467950820922852
1747543542485418800,3.815418701171875,1.015950083732605,-4.635000228881836,-6.118950366973877
1747543542495013600,3.825013671875,2.9820001125335693,-4.9110002517700195,-7.458000183105469
1747543542504609500,3.834609619140625,2.688000202178955,-6.091050148010254,-8.278950691223145
1747543542514204400,3.844204345703125,3.745950222015381,-5.527950286865234,-10.072050094604492
1747543542523798800,3.853798828125,4.111950397491455,-4.030050277709961,-13.611001014709473
1747543542533393700,3.8633935546875,5.143950462341309,-3.5460002422332764,-14.56605052947998
1747543542542989600,3.872989501953125,4.380000114440918,-3.948000192642212,-12.153000831604004
1747543542552584700,3.882584716796875,2.281050205230713,-3.132000207901001,-12.919050216674805
1747543542562178800,3.8921787109375,-0.1080000028014183,-1.6350001096725464,-15.05505084991455
1747543542571773700,3.901773681640625,2.1030001640319824,-0.07395000010728836,-18.496051788330078
1747543542581369600,3.91136962890625,4.2370500564575195,-1.7890501022338867,-17.22195053100586
1747543542590964700,3.92096484375,4.213050365447998,-3.4020001888275146,-13.393050193786621
1747543542600558800,3.930558837890625,4.32105016708374,-3.5269501209259033,-11.518950462341309
1747543542610154000,3.940154052734375,6.508950233459473,-4.357950210571289,-10.16295051574707
1747543542619749600,3.94974951171875,10.111950874328613,-5.920950412750244,-10.36500072479248
1747543542629344500,3.959344482421875,12.637950897216797,-7.063050270080566,-5.63100004196167
1747543542638939000,3.96893896484375,8.60205078125,-8.086050033569336,-0.9649500250816345
1747543542648534000,3.978533935546875,2.058000087738037,-8.707950592041016,1.162950038909912
1747543542658129700,3.988129638671875,-1.374000072479248,-8.47095012664795,0.7129500508308411
1747543542667724500,3.997724609375,-2.385000228881836,-8.014050483703613,-0.9430500268936157
1747543542677319000,4.00731884765625,-1.8370500802993774,-8.212050437927246,-2.2290000915527344
1747543542686913800,4.016913818359375,-1.3890000581741333,-8.356050491333008,-3.586050271987915
1747543542696509700,4.026509765625,-1.5090000629425049,-8.461050033569336,-3.6889500617980957
1747543542706104600,4.0361044921875,-2.602950096130371,-8.164950370788574,-4.846050262451172
1747543542715699000,4.045698974609375,-3.6150002479553223,-7.4509501457214355,-6.498000144958496
1747543542725293800,4.0552939453125,-5.919000148773193,-6.064950466156006,-8.940000534057617
1747543542734889500,4.064889404296875,-6.682950496673584,-5.404050350189209,-7.884000301361084
1747543542744484600,4.074484619140625,-6.48900032043457,-5.602950096130371,-4.174950122833252
1747543542754079000,4.084078857421875,-6.32295036315918,-5.749050140380859,-3.2700002193450928
1747543542763673900,4.093673828125,-5.125950336456299,-6.8550004959106445,-4.864950180053711
1747543542773269800,4.103269775390625,-2.442000150680542,-7.71405029296875,-5.523000240325928
1747543542782864600,4.11286474609375,0.44700002670288086,-8.200050354003906,-6.955050468444824
1747543542792459000,4.122458984375,4.219950199127197,-7.9110002517700195,-6.541050434112549
1747543542802054000,4.132053955078125,6.1020002365112305,-7.498950481414795,-2.7150001525878906
1747543542811649500,4.1416494140625,6.789000511169434,-6.963000297546387,-5.703000068664551
1747543542821244700,4.15124462890625,1.9720500707626343,-5.401950359344482,-11.092050552368164
1747543542830838800,4.1608388671875,-2.539950132369995,-3.6010501384735107,-17.880001068115234
1747543542840434000,4.170433837890625,-4.365000247955322,-1.4800500869750977,-19.297950744628906
1747543542850029600,4.180029541015625,-2.9880001544952393,-0.5869500041007996,-18.220050811767578
1747543542859624700,4.189624755859375,-1.4970000982284546,-0.6370500326156616,-16.275001525878906
1747543542869218800,4.19921875,-0.5410500168800354,-0.9220500588417053,-13.336050987243652
1747543542878814000,4.20881396484375,-0.45000001788139343,-1.2310500144958496,-10.77405071258545
1747543542888409600,4.21840966796875,-0.19395001232624054,-1.5559500455856323,-9.62505054473877
1747543542898004700,4.228004638671875,-0.4429500102996826,-1.5709500312805176,-8.988000869750977
1747543542907598800,4.237598876953125,-0.5029500126838684,-1.4700000286102295,-8.868000030517578
1747543542917194000,4.247194091796875,-0.41700002551078796,-1.2619500160217285,-9.427950859069824
1747543542926790000,4.256789794921875,-0.1080000028014183,-0.9240000247955322,-9.981000900268555
1747543542936384800,4.266384765625,0.12600000202655792,-0.7350000143051147,-9.957000732421875
1747543542955573800,4.28557373046875,1.1290500164031982,-1.5420000553131104,-8.29800033569336
1747543542965170000,4.295169921875,0.47805002331733704,-2.0899500846862793,-6.708000183105469
1747543542974764800,4.304764892578125,-0.16995000839233398,-2.4810001850128174,-5.692950248718262
1747543542984359000,4.31435888671875,0.505050003528595,-2.622000217437744,-4.884000301361084
1747543542993953800,4.323953857421875,0.48705002665519714,-2.5069501399993896,-4.422000408172607
1747543543003549700,4.3335498046875,0.41805002093315125,-2.521050214767456,-3.7609500885009766
1747543543013144800,4.343144775390625,0.2070000171661377,-2.694000244140625,-3.4639501571655273
1747543543022739000,4.352739013671875,0.09195000678300858,-2.9160001277923584,-3.4810502529144287
1747543543032334000,4.362333984375,-0.022050000727176666,-3.1080000400543213,-3.634050130844116
1747543543041929700,4.3719296875,-0.17505000531673431,-3.1650002002716064,-4.206000328063965
1747543543051524900,4.38152490234375,-0.3660000264644623,-3.2850000858306885,-4.755000114440918
1747543543061119000,4.391118896484375,-0.9430500268936157,-3.192000150680542,-4.479000091552734
1747543543070714000,4.400714111328125,-1.9900500774383545,-2.8969502449035645,-4.039050102233887
1747543543080309800,4.410309814453125,-3.0289502143859863,-2.743950128555298,-3.9930002689361572
1747543543089905000,4.41990478515625,-4.328999996185303,-3.610950231552124,-5.257050037384033
1747543543099499000,4.4294990234375,-6.445950508117676,-5.338950157165527,-6.955050468444824
1747543543109094000,4.439093994140625,-8.866050720214844,-6.819000244140625,-8.065950393676758
1747543543118689800,4.448689697265625,-9.726000785827637,-7.5010504722595215,-8.722050666809082
1747543543128285000,4.458284912109375,-9.192000389099121,-7.992000579833984,-9.487950325012207
1747543543137879000,4.467879150390625,-8.362950325012207,-8.610000610351562,-9.679950714111328
1747543543147474000,4.477473876953125,-7.45395040512085,-9.414000511169434,-10.266000747680664
1747543543157069800,4.48706982421875,-7.063050270080566,-10.264050483703613,-11.394001007080078
1747543543166665000,4.4966650390625,-6.69195032119751,-11.052000999450684,-12.361050605773926
1747543543176259000,4.506259033203125,-6.328050136566162,-11.409000396728516,-12.402000427246094
1747543543185854200,4.515854248046875,-5.848950386047363,-11.289000511169434,-11.308050155639648
1747543543195449900,4.525449951171875,-4.770000457763672,-10.008000373840332,-9.676950454711914
1747543543205045000,4.535044921875,-4.225950241088867,-9.02400016784668,-8.782050132751465
1747543543214639000,4.54463916015625,-4.128000259399414,-8.821050643920898,-6.418950080871582
1747543543224234200,4.554234130859375,-3.6660001277923584,-8.422950744628906,-4.206000328063965
1747543543233830000,4.563829833984375,-3.95805025100708,-7.91295051574707,-4.027950286865234
1747543543243425000,4.573425048828125,-4.369950294494629,-7.837050437927246,-4.350000381469727
1747543543253019100,4.58301904296875,-3.44100022315979,-7.79295015335083,-4.361999988555908
1747543543262614000,4.592614013671875,-1.516050100326538,-7.564050197601318,-4.246950149536133
1747543543272210000,4.6022099609375,0.013050000183284283,-7.852950572967529,-4.318950176239014
1747543543281805000,4.61180517578125,0.7170000076293945,-8.374950408935547,-4.594050407409668
1747543543291399200,4.621399169921875,0.6790500283241272,-8.598000526428223,-4.675950050354004
1747543543300994300,4.630994384765625,-0.5820000171661377,-8.868000030517578,-4.615950107574463
1747543543310590200,4.640590087890625,-3.4480502605438232,-9.745050430297852,-5.188050270080566
1747543543320185000,4.65018505859375,-8.068950653076172,-11.320050239562988,-6.517050266265869
1747543543329779200,4.659779296875,-11.277000427246094,-12.91200065612793,-7.527000427246094
1747543543339374300,4.669374267578125,-8.598000526428223,-13.449000358581543,-7.092000484466553
1747543543348970200,4.67897021484375,-4.168950080871582,-12.622950553894043,-5.176050186157227
1747543543358565000,4.688565185546875,-0.9820500612258911,-9.79995059967041,-3.151050090789795
1747543543368159500,4.698159423828125,0.934950053691864,-7.378950119018555,-2.0869500637054443
1747543543377754400,4.70775439453125,1.804050087928772,-6.319050312042236,-1.204050064086914
1747543543387350300,4.717350341796875,2.356950044631958,-6.598950386047363,-0.22905001044273376
1747543543396945400,4.7269453125,2.4820501804351807,-8.13705062866211,0.028050001710653305
1747543543406539500,4.73653955078125,2.0220000743865967,-9.795000076293945,-0.4069500267505646
1747543543416134100,4.746134033203125,0.3940500319004059,-9.891000747680664,-2.061000108718872
1747543543425730000,4.75572998046875,-1.1059499979019165,-9.52695083618164,-2.947050094604492
1747543543435325200,4.7653251953125,-2.136000156402588,-9.438000679016113,-2.92995023727417
1747543543444919300,4.774919189453125,-1.8169500827789307,-9.520050048828125,-2.0659501552581787
1747543543454514400,4.784514404296875,-0.559950053691864,-10.201950073242188,-0.7920000553131104
1747543543464110000,4.794110107421875,-0.31905001401901245,-11.23905086517334,-0.9720000624656677
1747543543473705200,4.803705322265625,-0.5359500050544739,-12.153000831604004,-1.27305006980896
1747543543483299300,4.81329931640625,-1.0660500526428223,-12.394950866699219,-2.140050172805786
1747543543492894500,4.82289453125,-1.8580501079559326,-12.61305046081543,-2.7990000247955322
1747543543502490000,4.832489990234375,-2.284050226211548,-13.390950202941895,-2.6050500869750977
1747543543512085200,4.842085205078125,-2.263050079345703,-13.032000541687012,-3.3109500408172607
1747543543521679400,4.851679443359375,-2.133000135421753,-11.104950904846191,-5.470950126647949
1747543543531274500,4.8612744140625,-1.6570501327514648,-10.245000839233398,-5.683950424194336
1747543543540870100,4.8708701171875,-1.1010000705718994,-9.45300006866455,-4.873950004577637
1747543543550465300,4.88046533203125,0.1380000114440918,-7.747950553894043,-4.660950183868408
1747543543560059400,4.890059326171875,-0.05295000225305557,-6.675000190734863,-4.963050365447998
1747543543569654500,4.899654541015625,-0.028950002044439316,-7.267050266265869,-4.888950347900391
1747543543579250200,4.909250244140625,0.22200001776218414,-8.074049949645996,-4.7910003662109375
1747543543588845300,4.91884521484375,-0.07905000448226929,-8.263050079345703,-5.16195011138916
1747543543598439400,4.928439453125,0.22395001351833344,-8.317950248718262,-4.465050220489502
1747543543608034300,4.938034423828125,0.13095000386238098,-8.433000564575195,-3.6130502223968506
1747543543617630200,4.947630126953125,0.2959500253200531,-9.082050323486328,-2.728950023651123
1747543543627225000,4.95722509765625,1.1509500741958618,-10.020000457763672,-0.8400000333786011
1747543543636819500,4.9668193359375,2.4220499992370605,-10.71405029296875,2.539950132369995
1747543543646414300,4.976414306640625,3.337050199508667,-11.332050323486328,6.001950263977051
1747543543656010500,4.986010498046875,3.813000202178955,-11.854050636291504,8.752950668334961
1747543543665605000,4.995605224609375,3.7990500926971436,-11.967000961303711,10.282950401306152
1747543543675199500,5.005199462890625,2.9389500617980957,-11.52405071258545,10.233000755310059
1747543543684794400,5.01479443359375,1.6960500478744507,-10.798050880432129,8.722050666809082
1747543543694390500,5.024390625,0.5010000467300415,-10.000950813293457,6.210000514984131
1747543543703985400,5.0339853515625,-0.3570000231266022,-9.433950424194336,4.024050235748291
1747543543713579800,5.043579833984375,-1.0969500541687012,-9.145950317382812,2.6140501499176025
1747543543723174400,5.05317431640625,-2.1720001697540283,-9.36405086517334,1.9789501428604126
1747543543732770300,5.062770263671875,-5.050050258636475,-10.269000053405762,1.3549500703811646
1747543543742365200,5.072365234375,-7.6810503005981445,-11.116950988769531,0.6960000395774841
1747543543751959600,5.08195947265625,-8.064000129699707,-11.181000709533691,-0.2370000183582306
1747543543761554400,5.091554443359375,-6.943950176239014,-11.016000747680664,-0.9000000357627869
1747543543771150300,5.101150390625,-5.0809502601623535,-10.92495059967041,-0.9310500621795654
1747543543780745200,5.1107451171875,-3.0259501934051514,-10.777050971984863,-0.7560000419616699
1747543543790339600,5.120339599609375,-1.2739500999450684,-10.485000610351562,-0.4740000367164612
1747543543799934700,5.129934814453125,-0.1080000028014183,-10.125000953674316,-0.226950004696846
1747543543809530400,5.1395302734375,0.8350500464439392,-9.81705093383789,-0.09300000220537186
1747543543819125500,5.14912548828125,1.5700501203536987,-9.807000160217285,0.2959500253200531
1747543543828719600,5.1587197265625,1.7590501308441162,-9.895950317382812,0.45705002546310425
1747543543838314500,5.168314453125,1.651050090789795,-9.943050384521484,0.3130500018596649
1747543543847910400,5.177910400390625,1.2580500841140747,-9.907950401306152,-0.037950001657009125
1747543543857505300,5.18750537109375,0.5899500250816345,-9.759000778198242,-0.6199500560760498
1747543543867099600,5.197099609375,-0.08595000207424164,-9.582000732421875,-1.1269500255584717
1747543543876694500,5.206694580078125,-0.5149500370025635,-9.436050415039062,-1.327950119972229
1747543543886290400,5.21629052734375,-0.6709500551223755,-9.26400089263916,-1.1269500255584717
1747543543895885300,5.22588525390625,-0.48900002241134644,-9.151050567626953,-0.3850500285625458
1747543543905479700,5.235479736328125,-0.18900001049041748,-9.172950744628906,0.4420500099658966
1747543543915074600,5.245074462890625,0.0990000069141388,-9.289950370788574,1.0699501037597656
1747543543924670200,5.254670166015625,0.322050005197525,-9.46500015258789,1.374000072479248
1747543543934265300,5.264265380859375,0.4510500133037567,-9.718050003051758,1.374000072479248
1747543543943859500,5.273859375,0.4630500078201294,-9.952950477600098,1.2610501050949097
1747543543953454600,5.28345458984375,0.5010000467300415,-10.209000587463379,1.2250500917434692
1747543543963050200,5.29305029296875,0.6139500141143799,-10.462950706481934,1.2780001163482666
1747543543972645400,5.302645263671875,0.8130000233650208,-10.68600082397461,1.4239500761032104
1747543543982239500,5.312239501953125,0.9709500670433044,-10.804950714111328,1.5870001316070557
1747543543991834600,5.321834716796875,1.0260000228881836,-10.753050804138184,1.6390501260757446
1747543544001430300,5.33143017578125,0.9450000524520874,-10.534950256347656,1.429050087928772
1747543544011025400,5.341025390625,0.7270500063896179,-10.279050827026367,1.1560500860214233
1747543544020619500,5.35061962890625,0.5260500311851501,-10.075050354003906,0.9280500411987305
1747543544030214700,5.360214599609375,0.3940500319004059,-10.000950813293457,0.8590500354766846
1747543544039810300,5.369810302734375,0.3150000274181366,-9.994050025939941,0.8610000610351562
1747543544049405400,5.379405517578125,0.22605000436306,-10.057950019836426,0.9040500521659851
1747543544058999800,5.388999755859375,0.09000000357627869,-10.209000587463379,0.9690000414848328
1747543544068594700,5.3985947265625,-0.13905000686645508,-10.462950706481934,1.0270500183105469
1747543544078190600,5.408190673828125,-0.5629500150680542,-10.591950416564941,0.9310500621795654
1747543544087785500,5.417785400390625,-0.9529500603675842,-10.642950057983398,0.5209500193595886
1747543544097379800,5.4273798828125,-1.0320000648498535,-11.4660005569458,0.10500000417232513
1747543544106975000,5.43697509765625,-1.1010000705718994,-12.132000923156738,-0.364050030708313
1747543544116570600,5.446570556640625,-1.1899501085281372,-12.66300106048584,-0.6250500082969666
1747543544126165500,5.45616552734375,-1.2430500984191895,-13.07805061340332,-0.8070000410079956
1747543544135760000,5.465759765625,-1.3339500427246094,-13.386000633239746,-0.984000027179718
1747543544145355000,5.47535498046875,-1.4970000982284546,-13.635000228881836,-1.0530000925064087
1747543544154950700,5.48495068359375,-1.6500000953674316,-13.825050354003906,-1.024049997329712
1747543544164545800,5.4945458984375,-1.7530500888824463,-13.90095043182373,-1.0049999952316284
1747543544174140000,5.504139892578125,-1.8679500818252563,-14.008950233459473,-0.8020500540733337
1747543544183735000,5.513735107421875,-2.0089499950408936,-13.612051010131836,-0.6559500098228455
1747543544193330700,5.52333056640625,-2.176950216293335,-12.721050262451172,-0.4900500178337097
1747543544202925800,5.53292578125,-2.1259500980377197,-11.785050392150879,-0.0070500001311302185
1747543544212520000,5.54252001953125,-2.1289501190185547,-11.101950645446777,0.675000011920929
1747543544222115000,5.552114990234375,-2.0779500007629395,-10.61205005645752,1.2280501127243042
1747543544231710700,5.561710693359375,-2.180999994277954,-10.237950325012207,1.7590501308441162
1747543544241305900,5.571305908203125,-2.8660502433776855,-9.898050308227539,2.4030001163482666
1747543544250900000,5.58089990234375,-3.850050210952759,-9.56505012512207,3.019050121307373
1747543544260495000,5.5904951171875,-4.650000095367432,-9.247050285339355,3.4620001316070557
1747543544270090800,5.6000908203125,-4.801050186157227,-9.127050399780273,3.7300500869750977
1747543544279686000,5.609685791015625,-4.011000156402588,-9.31605052947998,3.5500502586364746
1747543544289280000,5.619280029296875,-2.320050001144409,-9.571950912475586,2.499000072479248
1747543544298875100,5.628875244140625,-0.49800002574920654,-9.778050422668457,1.0270500183105469
1747543544308470800,5.638470703125,0.8730000257492065,-10.044000625610352,-0.20100000500679016
1747543544318066000,5.64806591796875,1.9890000820159912,-10.46505069732666,-0.8329500555992126
1747543544327660000,5.657659912109375,3.0610501766204834,-10.932000160217285,-0.8280000686645508
1747543544337255200,5.667255126953125,3.576000213623047,-11.584050178527832,-0.18405000865459442
1747543544346850800,5.676850830078125,3.870000123977661,-12.237000465393066,0.5209500193595886
1747543544356446000,5.686446044921875,3.8179502487182617,-12.850050926208496,1.0429500341415405
1747543544366040000,5.6960400390625,3.0319502353668213,-13.498950958251953,1.4770500659942627
1747543544375635200,5.70563525390625,1.1959500312805176,-13.999051094055176,1.5150001049041748
1747543544385230800,5.71523095703125,-1.2120000123977661,-13.600050926208496,0.6529500484466553
1747543544394826000,5.724825927734375,-3.049950122833252,-12.333000183105469,-0.8070000410079956
1747543544404420400,5.73442041015625,-3.7159502506256104,-11.155050277709961,-1.7040001153945923
1747543544414015200,5.74401513671875,-3.598950147628784,-10.33905029296875,-2.0370001792907715
1747543544423611100,5.753611083984375,-3.2730002403259277,-9.868950843811035,-1.9320000410079956
1747543544433205800,5.763205810546875,-2.892000198364258,-9.568050384521484,-1.4070000648498535
1747543544442800400,5.77280029296875,-2.6509501934051514,-9.34695053100586,-0.856950044631958
1747543544452395000,5.78239501953125,-2.413950204849243,-9.06195068359375,-0.16995000839233398
1747543544461991000,5.791990966796875,-2.11395001411438,-8.730000495910645,0.6550500392913818
1747543544471585800,5.801585693359375,-1.6470000743865967,-8.373000144958496,1.527000069618225
1747543544481180200,5.81118017578125,-1.0750499963760376,-8.109000205993652,2.257050037384033
1747543544490775300,5.820775390625,-0.5389500260353088,-7.959000587463379,2.6830501556396484
1747543544500371000,5.830370849609375,-0.034050002694129944,-7.9110002517700195,2.949000120162964
1747543544509965800,5.8399658203125,0.4830000102519989,-7.825050354003906,3.06600022315979
1747543544519560200,5.849560302734375,0.5350500345230103,-7.61400032043457,2.860950231552124
1747543544529155300,5.8591552734375,0.18300001323223114,-7.386000156402588,2.3359501361846924
1747543544538751000,5.8687509765625,-0.24195000529289246,-7.261950492858887,2.2360501289367676
1747543544548346000,5.87834619140625,-0.6270000338554382,-7.033950328826904,2.401050090789795
1747543544557940200,5.887940185546875,-0.987000048160553,-6.784950256347656,3.0040502548217773
1747543544567535000,5.89753515625,-1.2550500631332397,-6.535950183868408,3.607950210571289
1747543544577131000,5.907131103515625,-1.264050006866455,-6.139050483703613,3.8179502487182617
1747543544586726000,5.916725830078125,-1.1950500011444092,-5.83305025100708,3.6670501232147217
1747543544596320300,5.9263203125,-1.0320000648498535,-5.722050189971924,3.4230000972747803
1747543544605915100,5.9359150390625,-1.01295006275177,-5.83305025100708,3.220050096511841
1747543544615511000,5.945510986328125,-1.1299500465393066,-6.043050289154053,2.9610002040863037
1747543544625106000,5.95510595703125,-1.4059500694274902,-6.3259501457214355,2.620950222015381
1747543544634700300,5.9647001953125,-1.7479500770568848,-6.610950469970703,2.2639501094818115
1747543544644295200,5.974295166015625,-2.1499500274658203,-6.9310503005981445,1.9699500799179077
1747543544653891000,5.98389111328125,-2.5360500812530518,-7.324050426483154,1.6849501132965088
1747543544663486000,5.99348583984375,-3.0360002517700195,-7.8409504890441895,1.3260000944137573
1747543544673080300,6.003080322265625,-3.6540002822875977,-8.521050453186035,0.8970000147819519
1747543544682675500,6.012675537109375,-4.434000015258789,-9.331050872802734,0.39705002307891846
1747543544692271000,6.02227099609375,-5.398950099945068,-10.317000389099121,-0.20100000500679016
1747543544701866200,6.0318662109375,-6.709050178527832,-11.244000434875488,-0.9169500470161438
1747543544711460400,6.04146044921875,-8.200950622558594,-12.205950736999512,-1.699950098991394
1747543544721055200,6.05105517578125,-9.442950248718262,-13.06095027923584,-2.3650500774383545
1747543544730651400,6.0606513671875,-9.898050308227539,-13.398000717163086,-2.422950029373169
1747543544740246000,6.07024609375,-9.903000831604004,-13.056000709533691,-1.6609500646591187
1747543544749840400,6.07984033203125,-10.030050277709961,-12.169950485229492,-0.4710000157356262
1747543544759435300,6.089435302734375,-9.759000778198242,-10.870050430297852,1.0600500106811523
1747543544769031200,6.09903125,-8.596050262451172,-9.390000343322754,2.4030001163482666
1747543544778626000,6.1086259765625,-6.999000549316406,-8.029050827026367,3.438000202178955
1747543544788220400,6.118220458984375,-5.470950126647949,-6.922050476074219,4.126950263977051
1747543544797815600,6.127815673828125,-4.011000156402588,-6.088950157165527,4.14900016784668
1747543544807411200,6.1374111328125,-3.592050075531006,-5.844000339508057,3.4639501571655273
1747543544817006000,6.147006103515625,-3.109950065612793,-7.5199503898620605,3.375000238418579
1747543544826600400,6.156600341796875,-1.828950047492981,-10.992000579833984,4.534049987792969
1747543544836195600,6.166195556640625,-1.4100000858306885,-14.031001091003418,5.158950328826904
1747543544845791200,6.175791259765625,-1.828950047492981,-15.546000480651855,4.278000354766846
1747543544855386400,6.185386474609375,-2.7060000896453857,-15.481050491333008,2.2980000972747803
1747543544864980500,6.19498046875,-4.099050045013428,-13.17300033569336,-0.5860500335693359
1747543544874575600,6.20457568359375,-6.010050296783447,-10.023000717163086,-3.1270501613616943
1747543544884171300,6.214171142578125,-9.097949981689453,-7.972950458526611,-5.569050312042236
1747543544893766400,6.223766357421875,-5.538000106811523,-8.097000122070312,-5.932950496673584
1747543544903360500,6.233360595703125,0.6190500259399414,-9.28695011138916,-3.6510002613067627
1747543544912955400,6.242955322265625,3.598050117492676,-10.566000938415527,-0.036000002175569534
1747543544922551300,6.25255126953125,2.515050172805786,-11.51205062866211,4.656000137329102
1747543544932146200,6.262146240234375,-1.4820001125335693,-11.572050094604492,8.029050827026367
1747543544951335400,6.28133544921875,-4.870050430297852,-9.766050338745117,7.861950397491455
1747543544960931300,6.290931396484375,-2.0500500202178955,-8.365950584411621,6.658050537109375
1747543544970526200,6.300526123046875,-0.7710000276565552,-6.996000289916992,5.81505012512207
1747543544980120600,6.31012060546875,-0.7950000166893005,-5.932950496673584,5.616000175476074
1747543544989715500,6.319715576171875,-1.3240500688552856,-5.569050312042236,5.797950267791748
1747543544999311400,6.329311279296875,-1.9039500951766968,-6.192000389099121,5.1160502433776855
1747543545008906200,6.33890625,-1.3290001153945923,-7.5319504737854,3.7110002040863037
1747543545018500400,6.348500244140625,0.8320500254631042,-9.112950325012207,2.479950189590454
1747543545028095500,6.358095458984375,2.805000066757202,-10.417950630187988,1.2990000247955322
1747543545037691100,6.367691162109375,3.3130502700805664,-11.442000389099121,0.45900002121925354
1747543545047286300,6.377286376953125,2.3239500522613525,-12.084000587463379,0.42600002884864807
1747543545056880400,6.38688037109375,0.2770500183105469,-12.187050819396973,-0.1860000044107437
1747543545066475500,6.3964755859375,-1.1759999990463257,-11.863950729370117,-1.0720500946044922
1747543545076071400,6.406071533203125,-1.5679501295089722,-11.337000846862793,-1.7470500469207764
1747543545085666600,6.41566650390625,-1.590000033378601,-10.92495059967041,-2.1090002059936523
1747543545095260700,6.4252607421875,-1.7239500284194946,-10.657050132751465,-2.559000015258789
1747543545104855600,6.43485546875,-1.8919501304626465,-10.357950210571289,-3.166950225830078
1747543545114451500,6.444451416015625,-1.8600001335144043,-9.883950233459473,-3.864000082015991
1747543545124046600,6.454046630859375,-1.7770501375198364,-9.462000846862793,-4.35705041885376
1747543545133640700,6.463640625,-1.4989501237869263,-9.357000350952148,-4.786050319671631
1747543545143235800,6.47323583984375,-1.4869500398635864,-9.618000030517578,-4.728000164031982
1747543545152831500,6.48283154296875,-1.9300501346588135,-10.525050163269043,-3.220050096511841
1747543545162426600,6.492426513671875,-2.344050168991089,-11.47095012664795,-1.294950008392334
1747543545172020700,6.502020751953125,-2.212050199508667,-12.084000587463379,0.022950001060962677
1747543545181615900,6.511615966796875,-1.8049501180648804,-12.249000549316406,0.5620500445365906
1747543545191211500,6.52121142578125,-1.4029500484466553,-12.177000999450684,1.0000500679016113
1747543545200806700,6.530806640625,-1.2450000047683716,-11.932950973510742,1.4310001134872437
1747543545210400800,6.54040087890625,-1.2619500160217285,-11.338950157165527,2.050950050354004
1747543545219996000,6.549995849609375,-1.3339500427246094,-10.552050590515137,2.848950147628784
1747543545229591600,6.559591552734375,-1.3650000095367432,-9.771000862121582,3.469050168991089
1747543545239186700,6.569186767578125,-1.4269500970840454,-9.151050567626953,3.646050214767456
1747543545248780800,6.57878076171875,-1.3549500703811646,-8.719950675964355,3.4110002517700195
1747543545258376000,6.5883759765625,-1.336050033569336,-8.461050033569336,2.7930002212524414
1747543545267971600,6.5979716796875,-1.39395010471344,-8.536050796508789,2.4180002212524414
1747543545277566700,6.607566650390625,-1.3150500059127808,-8.803950309753418,2.0680501461029053
1747543545287160800,6.617160888671875,-1.1590501070022583,-9.283050537109375,1.7950501441955566
1747543545296756000,6.626755859375,-1.0270500183105469,-9.726000785827637,1.3759500980377197
1747543545306351600,6.6363515625,-1.1209501028060913,-9.979050636291504,0.8680500388145447
1747543545315946800,6.64594677734375,-1.2619500160217285,-10.075050354003906,0.2580000162124634
1747543545325540900,6.655540771484375,-1.3429501056671143,-9.963000297546387,-0.39000001549720764
1747543545335136000,6.665135986328125,-1.3290001153945923,-9.730050086975098,-0.8689500689506531
1747543545344731600,6.674731689453125,-1.3480501174926758,-9.417000770568848,-1.0840500593185425
1747543545354326800,6.684326904296875,-1.390950083732605,-9.168000221252441,-1.015950083732605
1747543545363921200,6.693921142578125,-1.4220000505447388,-9.016950607299805,-0.8419500589370728
1747543545373516000,6.70351611328125,-1.4800500869750977,-9.01200008392334,-0.5100000500679016
1747543545383111700,6.713111572265625,-1.4530500173568726,-9.100950241088867,0.021000001579523087
1747543545392706800,6.722706787109375,-1.4490001201629639,-9.27495002746582,0.6390000581741333
1747543545402301200,6.73230126953125,-1.4940000772476196,-9.486000061035156,1.2130500078201294
1747543545411896000,6.74189599609375,-1.6470000743865967,-9.654000282287598,1.636950135231018
1747543545421491700,6.75149169921875,-1.9350000619888306,-9.75,1.7929500341415405
1747543545431086600,6.761086669921875,-2.2360501289367676,-9.690000534057617,1.735050082206726
1747543545440681000,6.770680908203125,-2.382000207901001,-9.534000396728516,1.519950032234192
1747543545450276000,6.780276123046875,-2.2890000343322754,-9.440999984741211,1.2469500303268433
1747543545459872000,6.7898720703125,-2.044950008392334,-9.417000770568848,0.9139500260353088
1747543545469467000,6.799466796875,-1.6930500268936157,-9.46500015258789,0.6079500317573547
1747543545479061000,6.80906103515625,-1.2000000476837158,-9.558000564575195,0.46905001997947693
1747543545488656100,6.81865625,-0.7969500422477722,-9.679950714111328,0.35100001096725464
1747543545498252000,6.828251953125,-0.4330500066280365,-9.702000617980957,0.21495001018047333
1747543545507847000,6.837846923828125,-0.15300001204013824,-9.655950546264648,0.07095000147819519
1747543545517441300,6.847441162109375,0.037050001323223114,-9.568050384521484,-0.031050002202391624
1747543545527036200,6.8570361328125,0.1469999998807907,-9.48900032043457,-0.07095000147819519
1747543545536631800,6.8666318359375,0.1660500019788742,-9.406949996948242,-0.1189500093460083
1747543545546227000,6.87622705078125,0.16905000805854797,-9.355050086975098,-0.08595000207424164
1747543545555821000,6.885821044921875,0.15495000779628754,-9.337950706481934,0.046950001269578934
1747543545565416200,6.895416259765625,0.20205001533031464,-9.321000099182129,0.2580000162124634
1747543545575011800,6.90501171875,0.30300000309944153,-9.289950370788574,0.49500003457069397
1747543545584607000,6.91460693359375,0.3769500255584717,-9.265950202941895,0.6940500140190125
1747543545594201000,6.924201171875,0.4420500099658966,-9.30405044555664,0.8520000576972961
1747543545603796200,6.933796142578125,0.40095001459121704,-9.412050247192383,0.9259500503540039
1747543545613392000,6.943391845703125,0.3679500222206116,-9.544050216674805,0.9670500755310059
1747543545622987000,6.952987060546875,0.25995001196861267,-9.63900089263916,0.7800000309944153
1747543545632581000,6.9625810546875,0.09495000541210175,-9.721050262451172,0.5089499950408936
1747543545642176300,6.97217626953125,-0.06495000422000885,-10.0420503616333,0.39195001125335693
1747543545651772000,6.98177197265625,-0.04605000093579292,-10.426950454711914,0.33705002069473267
1747543545661367000,6.991366943359375,-0.024000000208616257,-10.807950973510742,0.37800002098083496
1747543545670961400,7.00096142578125,0.034950003027915955,-11.056950569152832,0.2989500164985657
1747543545680556300,7.010556396484375,0.031950000673532486,-11.353950500488281,0.009000000543892384
1747543545690152200,7.020152099609375,-0.019050000235438347,-11.82300090789795,-0.18405000865459442
1747543545699747000,7.0297470703125,-0.06495000422000885,-12.448050498962402,-0.28200000524520874
1747543545709341400,7.039341552734375,-0.06195000186562538,-13.1089506149292,-0.286950021982193
1747543545718936600,7.0489365234375,0.05400000140070915,-13.804950714111328,-0.3040500283241272
1747543545728532200,7.0585322265625,0.2670000195503235,-14.481000900268555,-0.2179500162601471
1747543545738127400,7.06812744140625,0.5659500360488892,-15.007050514221191,-0.12195000797510147
1747543545747721500,7.077721435546875,0.9420000314712524,-15.505050659179688,-0.07095000147819519
1747543545757316600,7.087316650390625,1.3210500478744507,-15.643950462341309,0.016050001606345177
1747543545766912300,7.096912353515625,1.5070500373840332,-15.141000747680664,0.33900001645088196
1747543545776507400,7.10650732421875,1.4620500802993774,-14.217000961303711,1.048050045967102
1747543545786101500,7.1161015625,1.162950038909912,-13.171051025390625,1.8619500398635864
1747543545795696400,7.1256962890625,0.556950032711029,-12.04800033569336,2.5129501819610596
1747543545805292300,7.135292236328125,-0.6370500326156616,-10.852950096130371,3.0930001735687256
1747543545814887200,7.14488720703125,-2.694000244140625,-9.709050178527832,4.027950286865234
1747543545824481500,7.1544814453125,-5.302950382232666,-8.91195011138916,5.56095027923584
1747543545834076700,7.16407666015625,-7.188000202178955,-8.659950256347656,7.3690505027771
1747543545843672300,7.17367236328125,-6.814050197601318,-8.690999984741211,8.229000091552734
1747543545853267500,7.183267333984375,-4.398000240325928,-8.78700065612793,7.498050212860107
1747543545862861600,7.192861572265625,-1.8169500827789307,-9.003000259399414,5.812950134277344
1747543545872456700,7.202456787109375,0.35295000672340393,-9.345000267028809,4.266000270843506
1747543545882052400,7.21205224609375,1.3440001010894775,-9.928950309753418,3.744000196456909
1747543545891647200,7.221647216796875,1.725000023841858,-10.771950721740723,4.218000411987305
1747543545901241900,7.231241943359375,1.5529500246047974,-11.623950958251953,4.363950252532959
1747543545910836500,7.24083642578125,0.5140500068664551,-12.331050872802734,2.959050178527832
1747543545920432600,7.2504326171875,-0.36900001764297485,-12.81195068359375,1.0939500331878662
1747543545930027300,7.26002734375,-0.534000039100647,-12.976950645446777,-0.4620000123977661
1747543545949216500,7.279216552734375,0.47505003213882446,-11.971050262451172,-2.5759501457214355
1747543545958812400,7.2888125,0.4630500078201294,-10.827000617980957,-2.67900013923645
1747543545968407600,7.298407470703125,-0.22800001502037048,-9.711000442504883,-2.8819501399993896
1747543545978001700,7.308001708984375,-0.9649500250816345,-9.052950859069824,-3.3949501514434814
1747543545987596800,7.3175966796875,-1.9440001249313354,-8.847000122070312,-3.8710501194000244
1747543545997192400,7.3271923828125,-2.6100001335144043,-9.04800033569336,-3.8520002365112305
1747543546006787600,7.33678759765625,-2.830050230026245,-9.35205078125,-3.261000156402588
1747543546016381700,7.346381591796875,-2.4810001850128174,-9.582000732421875,-2.382000207901001
1747543546025976800,7.355976806640625,-1.9350000619888306,-9.673050880432129,-1.6609500646591187
1747543546035572500,7.365572509765625,-1.5540000200271606,-9.723000526428223,-0.9240000247955322
1747543546045167600,7.375167724609375,-1.297950029373169,-9.742050170898438,-0.39900001883506775
1747543546054761700,7.38476171875,-0.9049500226974487,-9.742050170898438,-0.07395000010728836
1747543546064356900,7.39435693359375,-0.6439500451087952,-9.795000076293945,0.3660000264644623
1747543546073952500,7.403952392578125,-0.6540000438690186,-9.855000495910645,1.651050090789795
1747543546083547600,7.413547607421875,-0.9630000591278076,-9.699000358581543,3.385050058364868
1747543546093141800,7.423141845703125,-1.0990500450134277,-9.366000175476074,4.06095027923584
1747543546102736600,7.432736572265625,-1.168950080871582,-9.052950859069824,4.074000358581543
1747543546112332500,7.44233251953125,-1.2190500497817993,-8.800950050354004,3.95205020904541
1747543546121927700,7.451927734375,-1.0990500450134277,-8.634000778198242,3.7920002937316895
1747543546131460000,7.461460205078125,-0.9000000357627869,-8.563950538635254,3.2719502449035645
1747543546141117000,7.471116943359375,-0.7399500608444214,-8.563950538635254,2.6620500087738037
1747543546150712600,7.480712646484375,-0.4720500111579895,-8.641050338745117,2.092050075531006
1747543546160307700,7.4903076171875,-0.1099500060081482,-8.836950302124023,1.683000087738037
1747543546169902000,7.499902099609375,-0.0499500036239624,-9.112950325012207,1.6230000257492065
1747543546179496700,7.50949658203125,-0.34995001554489136,-9.31605052947998,1.4839500188827515
1747543546189092900,7.5190927734375,-1.0270500183105469,-9.366000175476074,1.0980000495910645
1747543546198687500,7.5286875,-1.7839500904083252,-9.343050003051758,0.9019500613212585
1747543546208281900,7.53828173828125,-2.4690001010894775,-9.295050621032715,0.8779500126838684
1747543546217876700,7.547876708984375,-2.8969502449035645,-9.244050025939941,1.024049997329712
1747543546227472600,7.55747265625,-3.129000186920166,-9.220050811767578,1.3620001077651978
1747543546237067800,7.56706787109375,-3.268050193786621,-9.189000129699707,1.599000096321106
1747543546246662000,7.576661865234375,-3.280050039291382,-9.121950149536133,1.615950107574463
1747543546256257000,7.586257080078125,-3.079050064086914,-8.998050689697266,1.6630500555038452
1747543546265852700,7.595852783203125,-2.8210501670837402,-8.800950050354004,1.908000111579895
1747543546275447800,7.60544775390625,-2.845050096511841,-8.410950660705566,2.3550000190734863
1747543546285042000,7.6150419921875,-2.892000198364258,-7.91295051574707,2.430000066757202
1747543546294637000,7.624636962890625,-2.91195011138916,-7.462950229644775,2.4370501041412354
1747543546304233000,7.63423291015625,-2.880000114440918,-7.1419501304626465,2.302950143814087
1747543546313827800,7.643827880859375,-2.7679500579833984,-6.900000095367432,2.1229500770568848
1747543546323422000,7.653421875,-2.5639500617980957,-6.8359503746032715,1.963050127029419
1747543546333017000,7.66301708984375,-2.442000150680542,-6.924000263214111,1.9339500665664673
1747543546342612700,7.67261279296875,-2.4760501384735107,-7.057950496673584,1.6870501041412354
1747543546352208000,7.682207763671875,-2.634000062942505,-7.33905029296875,1.5840001106262207
1747543546361802000,7.691802001953125,-2.920950174331665,-7.674000263214111,1.2610501050949097
1747543546371397000,7.701397216796875,-3.3109500408172607,-7.978050231933594,0.8520000576972961
1747543546380992800,7.71099267578125,-3.697050094604492,-8.251049995422363,0.4300500154495239
1747543546390588000,7.720587890625,-4.030050277709961,-8.47095012664795,0.032999999821186066
1747543546400182000,7.73018212890625,-4.384050369262695,-8.641050338745117,-0.20295001566410065
1747543546409777200,7.739777099609375,-4.758000373840332,-8.821050643920898,-0.27300000190734863
1747543546419372800,7.749372802734375,-5.164950370788574,-9.031050682067871,-0.24900001287460327
1747543546428968000,7.758968017578125,-5.695950508117676,-9.349950790405273,-0.22005000710487366
1747543546438562300,7.768562255859375,-6.4960503578186035,-9.733050346374512,-0.0690000057220459
1747543546448080000,7.778079833984375,-7.494000434875488,-10.140000343322754,0.20295001566410065
1747543546457753000,7.787753173828125,-8.473050117492676,-10.546950340270996,0.7680000066757202
1747543546467348000,7.797347900390625,-8.944950103759766,-10.70205020904541,1.4910000562667847
1747543546476942300,7.8069423828125,-8.803950309753418,-10.48905086517334,2.197050094604492
1747543546486537500,7.816537353515625,-8.281949996948242,-10.063050270080566,2.8939502239227295
1747543546496133000,7.826133056640625,-7.594950199127197,-9.53895092010498,3.4210500717163086
1747543546505728300,7.835728271484375,-6.699000358581543,-8.940000534057617,3.853950262069702
1747543546515322400,7.845322265625,-5.872950077056885,-8.767950057983398,4.383000373840332
1747543546524917500,7.85491748046875,-5.290950298309326,-9.802050590515137,5.38200044631958
1747543546534513200,7.86451318359375,-4.39394998550415,-11.641050338745117,6.658050537109375
1747543546544108300,7.8741083984375,-2.6700000762939453,-12.654000282287598,6.532950401306152
1747543546553702400,7.883702392578125,-1.6930500268936157,-12.655950546264648,4.735050201416016
1747543546563297500,7.893297607421875,-1.9969501495361328,-11.634000778198242,1.735050082206726
1747543546572893200,7.90289306640625,-2.572050094604492,-10.207050323486328,-1.5100500583648682
1747543546582488300,7.91248828125,-2.890050172805786,-9.241950035095215,-3.778050184249878
1747543546592082400,7.92208251953125,-3.378000259399414,-9.349950790405273,-3.1530001163482666
1747543546601677600,7.931677490234375,-5.9569501876831055,-10.252050399780273,-0.6150000095367432
1747543546611273200,7.941273193359375,-8.299050331115723,-11.338950157165527,1.3450500965118408
1747543546620868400,7.950868408203125,-6.462000370025635,-12.031050682067871,1.9579501152038574
1747543546630462500,7.96046240234375,-1.9320000410079956,-12.070050239562988,1.8360000848770142
1747543546640057600,7.9700576171875,1.4640001058578491,-11.272050857543945,1.1920500993728638
1747543546649653500,7.979653564453125,2.659050226211548,-10.200000762939453,0.6790500283241272
1747543546659248400,7.989248291015625,2.218050003051758,-9.505050659179688,1.1059499979019165
1747543546668842500,7.998842529296875,1.1290500164031982,-8.938050270080566,1.7620500326156616
1747543546678437400,8.008437255859375,0.29100000858306885,-8.430000305175781,2.0970001220703125
1747543546688033500,8.018033447265625,-0.025950001552700996,-8.18595027923584,2.379000186920166
1747543546697628200,8.027628173828125,-0.08205000311136246,-8.044950485229492,2.571000099182129
1747543546707222500,8.037222412109376,0.17100000381469727,-8.068950653076172,2.608950138092041
1747543546716817700,8.046817626953125,0.6810000538825989,-8.293950080871582,2.427000045776367
1747543546726413300,8.056413330078126,1.171950101852417,-8.65095043182373,2.020050048828125
1747543546736008400,8.066008544921875,1.636950135231018,-9.141000747680664,1.6230000257492065
1747543546745602600,8.0756025390625,2.1540000438690186,-9.690000534057617,1.2400500774383545
1747543546755197700,8.08519775390625,2.2519500255584717,-10.120950698852539,0.6430500149726868
1747543546764793600,8.094793701171875,2.02305006980896,-10.390950202941895,-0.12195000797510147
1747543546774388500,8.104388427734374,1.749000072479248,-10.630950927734375,-0.8329500555992126
1747543546783982600,8.113982666015625,1.3759500980377197,-10.978050231933594,-1.336050033569336
1747543546793577700,8.12357763671875,0.7480500340461731,-11.449950218200684,-1.6900501251220703
1747543546803173400,8.13317333984375,-0.4620000123977661,-11.839950561523438,-1.6489500999450684
1747543546812768500,8.1427685546875,-2.164950132369995,-11.737051010131836,-0.8809500336647034
1747543546822362600,8.152362548828124,-3.7450501918792725,-11.19105052947998,0.21000000834465027
1747543546831957800,8.161957763671875,-4.438950061798096,-10.606950759887695,1.2199500799179077
1747543546841553400,8.171553466796874,-4.223999977111816,-10.099050521850586,1.8169500827789307
1747543546851064600,8.181064697265626,-3.5440502166748047,-9.679950714111328,1.990950107574463
1747543546860743000,8.190742919921876,-2.6269500255584717,-9.333000183105469,2.121000051498413
1747543546870337800,8.200337890625,-1.5709500312805176,-9.07395076751709,2.269050121307373
1747543546879933400,8.209933349609376,-0.5890500545501709,-8.887950897216797,2.451000213623047
1747543546889528600,8.219528564453125,-0.04605000093579292,-8.734050750732422,2.7169501781463623
1747543546899123000,8.229123046875,0.24795001745224,-8.641050338745117,2.9230501651763916
1747543546908718000,8.238718017578124,-0.0499500036239624,-8.791950225830078,3.0430500507354736
1747543546918313700,8.248313720703125,-0.4429500102996826,-8.979000091552734,2.952000141143799
1747543546927908900,8.257908935546874,-0.7230000495910645,-9.204000473022461,2.4250500202178955
1747543546937503000,8.2675029296875,-1.0300500392913818,-9.496050834655762,1.6710001230239868
1747543546956693800,8.28669384765625,-1.4179500341415405,-10.188000679016113,0.30300000309944153
1747543546966289000,8.296288818359375,-1.3620001077651978,-10.401000022888184,-0.3660000264644623
1747543546975883000,8.305883056640624,-1.420050024986267,-10.579950332641602,-0.9739500284194946
1747543546985478100,8.31547802734375,-1.4100000858306885,-10.635000228881836,-1.4860501289367676
1747543546995073800,8.32507373046875,-1.3960500955581665,-10.585050582885742,-1.7880001068115234
1747543547004669000,8.3346689453125,-1.4080500602722168,-10.458000183105469,-1.7710500955581665
1747543547014263000,8.344262939453126,-1.4700000286102295,-10.300050735473633,-1.443000078201294
1747543547023858200,8.353858154296875,-1.5919500589370728,-10.159050941467285,-0.814050018787384
1747543547033453800,8.363453857421876,-1.6710001230239868,-10.018050193786621,0.009000000543892384
1747543547043049000,8.373049072265625,-1.603950023651123,-9.883950233459473,0.7300500273704529
1747543547052643000,8.38264306640625,-1.6140000820159912,-9.714000701904297,1.287000060081482
1747543547062238200,8.39223828125,-1.6380001306533813,-9.52695083618164,1.8019500970840454
1747543547071833900,8.401833740234375,-1.5829501152038574,-9.307050704956055,2.1850500106811523
1747543547081429000,8.411428955078126,-1.3669500350952148,-9.160950660705566,2.3650500774383545
1747543547091023000,8.421023193359375,-1.009950041770935,-9.177000045776367,2.4649500846862793
1747543547100618200,8.4306181640625,-0.7609500288963318,-9.369000434875488,2.5470001697540283
1747543547110214100,8.440214111328125,-0.6349500417709351,-9.59595012664795,2.4180002212524414
1747543547119809000,8.44980908203125,-0.62295001745224,-9.769050598144531,2.2930500507354736
1747543547129403400,8.4594033203125,-0.7279500365257263,-9.880950927734375,2.1229500770568848
1747543547138998300,8.468998291015625,-0.7879500389099121,-9.931950569152832,1.7929500341415405
1747543547148594000,8.478593994140626,-0.6940500140190125,-9.879000663757324,1.3470001220703125
1747543547158189000,8.48818896484375,-0.6490500569343567,-9.807000160217285,0.9120000600814819
1747543547167783200,8.497783203125,-0.6390000581741333,-9.658950805664062,0.5359500050544739
1747543547177378300,8.50737841796875,-0.6919500231742859,-9.59595012664795,0.24795001745224
1747543547186974200,8.51697412109375,-0.675000011920929,-9.57705020904541,0.034950003027915955
1747543547196569000,8.526569091796874,-0.559950053691864,-9.62505054473877,-0.15000000596046448
1747543547206163500,8.53616357421875,-0.42600002884864807,-9.694050788879395,-0.3439500033855438
1747543547215758300,8.54575830078125,-0.36900001764297485,-9.838050842285156,-0.4900500178337097
1747543547225354000,8.55535400390625,-0.31905001401901245,-9.910050392150879,-0.5650500059127808
1747543547234949000,8.56494921875,-0.2659500241279602,-9.898050308227539,-0.5550000071525574
1747543547244543200,8.574543212890624,-0.13395000994205475,-9.819000244140625,-0.4639500081539154
1747543547254138400,8.584138427734375,0.006000000052154064,-9.679950714111328,-0.31095001101493835
1747543547263734000,8.593734130859374,0.1279500126838684,-9.594000816345215,-0.09495000541210175
1747543547273329200,8.6033291015625,0.21900001168251038,-9.510000228881836,0.11400000751018524
1747543547282923500,8.612923583984376,0.23805001378059387,-9.520050048828125,0.22395001351833344
1747543547292518400,8.622518310546875,0.22200001776218414,-9.619950294494629,0.39195001125335693
1747543547302114300,8.6321142578125,0.322050005197525,-9.754050254821777,0.5260500311851501
1747543547311709200,8.641709228515625,0.5160000324249268,-9.871950149536133,0.6790500283241272
1747543547321303600,8.651303466796875,0.753000020980835,-9.996000289916992,0.8040000200271606
1747543547330898400,8.6608984375,1.002000093460083,-10.120950698852539,0.9979500770568848
1747543547340494300,8.670494384765625,1.15500009059906,-10.321950912475586,1.1130000352859497
1747543547350089200,8.680089111328124,1.1860500574111938,-10.72605037689209,1.1320500373840332
1747543547359683600,8.68968359375,1.1430000066757202,-11.25105094909668,0.9550500512123108
1747543547369278500,8.699278564453126,1.1119500398635864,-11.52405071258545,0.559950053691864
1747543547378874400,8.708874267578125,1.1790000200271606,-11.416050910949707,0.14505000412464142
1747543547388469500,8.718469482421876,1.3300501108169556,-11.275050163269043,-0.13095000386238098
1747543547398063600,8.728063720703124,1.5720000267028809,-11.257950782775879,-0.23895001411437988
1747543547407658800,8.73765869140625,1.9240500926971436,-11.290950775146484,-0.2580000162124634
1747543547417254400,8.74725439453125,2.0530500411987305,-11.353950500488281,-0.33705002069473267
1747543547426849500,8.756849609375,2.179949998855591,-11.311050415039062,-0.5190000534057617
1747543547436443600,8.766443603515626,2.1229500770568848,-11.353950500488281,-0.6820500493049622
1747543547446038800,8.776038818359375,1.9140000343322754,-11.47605037689209,-0.6720000505447388
1747543547455634400,8.785634521484376,1.3590000867843628,-11.551950454711914,-0.6010500192642212
1747543547465229600,8.7952294921875,0.6139500141143799,-11.62695026397705,-0.20805001258850098
1747543547474823700,8.80482373046875,-0.06195000186562538,-11.725050926208496,0.49500003457069397
1747543547484418800,8.814418701171874,-0.3330000042915344,-11.766000747680664,1.1440500020980835
1747543547494014700,8.8240146484375,-0.534000039100647,-11.82300090789795,1.4220000505447388
1747543547503609600,8.833609619140624,-0.8020500540733337,-12.022050857543945,1.4959501028060913
1747543547513204000,8.843203857421875,-0.687000036239624,-12.265950202941895,1.7230501174926758
1747543547522798600,8.852798583984375,-0.37800002098083496,-12.192000389099121,2.0370001792907715
1747543547532394500,8.86239453125,-0.028950002044439316,-12.36405086517334,2.454000234603882
1747543547541989400,8.8719892578125,0.37995001673698425,-12.331050872802734,2.7529501914978027
1747543547551583700,8.881583740234374,0.6360000371932983,-12.24000072479248,2.9350502490997314
1747543547561179000,8.891178955078125,0.7699500322341919,-12.153000831604004,2.937000036239624
1747543547570774800,8.90077490234375,0.921000063419342,-11.7610502243042,2.8630502223968506
1747543547580369700,8.91036962890625,0.7840500473976135,-12.028950691223145,3.069000244140625
1747543547589963800,8.9199638671875,0.5689499974250793,-12.223050117492676,3.367950201034546
1747543547599559000,8.929558837890625,0.17805001139640808,-12.160950660705566,3.655050277709961
1747543547609090800,8.9390908203125,-0.05505000427365303,-11.883000373840332,3.8490002155303955
1747543547618749700,8.948749755859374,-0.15600000321865082,-11.446950912475586,3.8970000743865967
1747543547628344000,8.958343994140625,-0.1290000081062317,-10.884000778198242,3.9240002632141113
1747543547637939000,8.96793896484375,-0.09600000083446503,-10.336050033569336,3.936000108718872
1747543547647451400,8.977451416015626,0.018000001087784767,-9.94800090789795,4.120050430297852
1747543547657129700,8.987129638671876,0.17100000381469727,-9.670950889587402,4.3090500831604
1747543547666723800,8.996723876953125,0.3720000088214874,-9.58395004272461,4.6180500984191895
1747543547676319000,9.006319091796875,0.8989500403404236,-9.622950553894043,5.011050224304199
1747543547685915000,9.015914794921875,1.3129500150680542,-9.690000534057617,5.322000026702881
1747543547695509800,9.025509765625,1.4880000352859497,-9.667950630187988,5.451000213623047
1747543547705104100,9.035104248046874,1.5649501085281372,-9.667950630187988,5.145000457763672
1747543547714699000,9.044698974609375,1.6050000190734863,-9.675000190734863,4.282950401306152
1747543547724295000,9.054294921875,1.1910001039505005,-9.558000564575195,2.719050168991089
1747543547733890000,9.06389013671875,0.5929500460624695,-9.406949996948242,1.201050043106079
1747543547743484200,9.073484130859375,0.3630000054836273,-9.382950782775879,0.27900001406669617
1747543547753079300,9.083079345703124,0.3960000276565552,-9.559950828552246,-0.028050001710653305
1747543547762675000,9.092675048828125,0.7630500197410583,-9.999000549316406,0.08295000344514847
1747543547772270000,9.10227001953125,1.2199500799179077,-10.510950088500977,0.1960500031709671
1747543547781864200,9.1118642578125,1.4740500450134277,-10.939950942993164,0.3130500018596649
1747543547791459300,9.121459228515626,1.6440000534057617,-11.229000091552734,0.16005000472068787
1747543547801055000,9.131054931640625,1.6150500774383545,-11.353950500488281,0.06195000186562538
1747543547810650000,9.140650146484376,1.3900500535964966,-11.287050247192383,0.0880500078201294
1747543547820244200,9.150244140625,1.311000108718872,-11.143050193786621,0.4039500057697296
1747543547829839400,9.15983935546875,1.4640001058578491,-10.770000457763672,0.6840000152587891
1747543547839435000,9.16943505859375,1.6459500789642334,-10.257000923156738,1.0459500551223755
1747543547849030100,9.179030029296875,1.6840500831604004,-9.796950340270996,1.5100500583648682
1747543547858624300,9.188624267578126,1.5220500230789185,-9.34695053100586,1.867050051689148
1747543547868219400,9.198219482421875,1.2799500226974487,-8.884950637817383,2.009999990463257
1747543547877815000,9.20781494140625,0.9540000557899475,-8.526000022888184,2.0629501342773438
1747543547887410200,9.21741015625,0.6430500149726868,-8.332050323486328,2.1450002193450928
1747543547897004500,9.227004638671875,0.4510500133037567,-8.386950492858887,2.284050226211548
1747543547906599700,9.236599609375,0.27195000648498535,-8.614950180053711,2.5609500408172607
1747543547916195300,9.2461953125,0.07800000160932541,-8.947050094604492,2.8729500770568848
1747543547925790500,9.25579052734375,-0.025950001552700996,-9.25200080871582,3.114000082015991
1747543547935384600,9.265384521484375,-0.2560500204563141,-9.51300048828125,3.2119500637054443
1747543547944979700,9.274979736328126,-0.5100000500679016,-9.58905029296875,3.14805006980896
1747543547954575400,9.284575439453125,-0.859950065612793,-9.61305046081543,2.9230501651763916
1747543547964170500,9.29417041015625,-1.1899501085281372,-9.55305004119873,2.580000162124634
1747543547973764600,9.3037646484375,-1.4869500398635864,-9.457050323486328,2.2669501304626465
1747543547983359700,9.31335986328125,-1.5919500589370728,-9.388050079345703,2.0940001010894775
1747543547992955400,9.322955322265624,-1.4220000505447388,-9.325950622558594,1.8790501356124878
1747543548002550500,9.332550537109375,-1.1130000352859497,-9.313950538635254,1.8000000715255737
1747543548012144600,9.34214453125,-0.7470000386238098,-9.268050193786621,1.683000087738037
1747543548021739800,9.35173974609375,-0.4020000100135803,-9.192000389099121,1.5720000267028809
1747543548031335400,9.36133544921875,-0.1870500147342682,-9.151050567626953,1.5150001049041748
1747543548040930600,9.3709306640625,-0.08895000070333481,-9.157950401306152,1.5580500364303589
1747543548050525000,9.38052490234375,-0.1270500123500824,-9.211050033569336,1.6920000314712524
1747543548060119800,9.390119873046874,-0.26805001497268677,-9.31605052947998,1.8960001468658447
1747543548069715500,9.399715576171875,-0.46905001997947693,-9.440999984741211,1.9480501413345337
1747543548079310600,9.409310546875,-0.8910000324249268,-9.529050827026367,1.9320000410079956
1747543548088905000,9.418905029296875,-1.6309500932693481,-9.618000030517578,1.8619500398635864
1747543548098499600,9.42849951171875,-2.4180002212524414,-9.84795093536377,2.200050115585327
1747543548108095700,9.438095703125,-2.980950117111206,-10.023000717163086,2.8129501342773438
1747543548117690600,9.447690673828125,-3.0960001945495605,-10.14900016784668,3.385050058364868
1747543548127284700,9.45728466796875,-2.947050094604492,-10.233000755310059,3.6480002403259277
1747543548136879900,9.4668798828125,-2.539950132369995,-10.273950576782227,3.687000274658203
1747543548146475500,9.4764755859375,-2.11395001411438,-10.257000923156738,3.450000047683716
1747543548156070700,9.486070556640625,-1.7119500637054443,-10.081950187683105,3.246000051498413
1747543548165665000,9.4956650390625,-1.339050054550171,-9.87405014038086,3.078000068664551
1747543548175260000,9.505260009765625,-1.0060499906539917,-9.592050552368164,2.7310500144958496
1747543548184855800,9.514855712890625,-0.8760000467300415,-9.406949996948242,2.2139999866485596
1747543548194450700,9.52445068359375,-0.856950044631958,-9.235050201416016,1.8859500885009766
1747543548204045000,9.534045166015625,-0.8329500555992126,-9.109950065612793,1.6249500513076782
1747543548213640000,9.543639892578126,-0.8190000653266907,-9.124950408935547,1.0530000925064087
1747543548223235600,9.553235595703125,-0.8550000190734863,-9.295050621032715,0.7320000529289246
1747543548232830700,9.562830810546876,-1.0750499963760376,-9.442950248718262,0.39000001549720764
1747543548242425000,9.572425048828125,-1.4149500131607056,-9.546000480651855,0.21705001592636108
1747543548252020000,9.58202001953125,-1.6330500841140747,-9.550950050354004,0.3730500042438507
1747543548261615900,9.591615966796875,-1.6740000247955322,-9.378000259399414,0.5239500403404236
1747543548271210800,9.601210693359375,-1.5180001258850098,-9.097949981689453,0.6889500617980957
1747543548280805000,9.61080517578125,-1.3530000448226929,-8.818050384521484,0.8899500370025635
1747543548290400300,9.620400146484375,-1.2520500421524048,-8.410950660705566,1.1149500608444214
1747543548299996000,9.629995849609376,-1.1880000829696655,-8.006999969482422,1.4140501022338867
1747543548309591000,9.639591064453125,-1.0369499921798706,-7.623000144958496,1.6320000886917114
1747543548319185200,9.64918505859375,-0.9960000514984131,-7.294950485229492,1.88100004196167
1747543548328780300,9.6587802734375,-0.9480000734329224,-6.987000465393066,2.0269501209259033
1747543548338376000,9.6683759765625,-0.9049500226974487,-6.766050338745117,2.101950168609619
1747543548347971000,9.67797119140625,-1.0870500802993774,-6.6820502281188965,2.1450002193450928
1747543548357565200,9.687565185546875,-1.3840500116348267,-6.8020501136779785,2.2069501876831055
1747543548367160300,9.697160400390626,-1.683000087738037,-7.116000175476074,2.227950096130371
1747543548376756200,9.706756103515625,-1.8889501094818115,-7.606950283050537,2.1780002117156982
1747543548386351000,9.71635107421875,-2.020050048828125,-8.152950286865234,2.0899500846862793
1747543548395945200,9.7259453125,-2.2960500717163086,-8.679000854492188,1.9990501403808594
1747543548405540400,9.735540283203125,-2.67900013923645,-9.249000549316406,1.8720000982284546
1747543548415136300,9.74513623046875,-3.120000123977661,-9.77595043182373,1.714050054550171
1747543548424731100,9.754731201171875,-3.807000160217285,-10.159050941467285,1.5630000829696655
1747543548434325500,9.764325439453126,-4.717050075531006,-10.413000106811523,1.4119501113891602
1747543548443920100,9.773920166015625,-5.521050453186035,-10.426950454711914,1.3450500965118408
1747543548453516300,9.783516357421876,-5.895000457763672,-10.306950569152832,1.2990000247955322
1747543548463111200,9.793111083984375,-5.823000431060791,-10.075050354003906,1.231950044631958
1747543548472705300,9.802705322265625,-5.505000114440918,-9.790050506591797,1.1440500020980835
1747543548482300400,9.812300537109374,-5.160000324249268,-9.429000854492188,1.117050051689148
1747543548491896300,9.821896240234375,-4.73805046081543,-9.108000755310059,1.1770501136779785
1747543548501491200,9.8314912109375,-4.207050323486328,-8.908950805664062,1.3950001001358032
1747543548511085600,9.84108544921875,-3.7830002307891846,-8.895000457763672,1.7779500484466553
1747543548520680400,9.850680419921876,-3.457050085067749,-9.088950157165527,2.1949501037597656
1747543548530203000,9.860202880859376,-3.1960501670837402,-9.493050575256348,2.650050163269043
1747543548539871200,9.869871337890626,-3.0259501934051514,-10.105950355529785,3.05400013923645
1747543548549465600,9.879465576171874,-2.7300000190734863,-11.074050903320312,3.643050193786621
1747543548559060500,9.889060546875,-2.0500500202178955,-12.426000595092773,4.318950176239014
1747543548568594000,9.898593994140626,-1.1400001049041748,-13.729050636291504,4.70205020904541
1747543548578251300,9.908251220703125,-0.5100000500679016,-14.49000072479248,4.2709503173828125
1747543548587845600,9.917845703125,-1.0060499906539917,-14.338951110839844,2.4750001430511475
1747543548597440500,9.9274404296875,-2.9710500240325928,-13.039051055908203,-0.11700000613927841
1747543548607036400,9.937036376953126,-4.113000392913818,-11.382000923156738,-2.890050172805786
1747543548616631600,9.946631591796875,-2.323050022125244,-10.125000953674316,-4.174950122833252
1747543548626225700,9.9562255859375,-0.6799500584602356,-9.277950286865234,-2.683950185775757
1747543548635820500,9.965820556640624,-0.9790500402450562,-8.370000839233398,0.11400000751018524
1747543548645416400,9.97541650390625,-1.4850000143051147,-7.516050338745117,1.8790501356124878
1747543548655011600,9.985011474609376,-1.3620001077651978,-6.867000102996826,2.5009500980377197
1747543548664605700,9.994605712890625,-0.8910000324249268,-6.747000217437744,2.4750001430511475
1747543548674200800,10.004200927734376,-0.22995001077651978,-7.200000286102295,2.619000196456909
1747543548683796500,10.01379638671875,0.19005000591278076,-8.080950736999512,3.0229501724243164
1747543548693391600,10.0233916015625,-0.028950002044439316,-9.204000473022461,3.3990001678466797
1747543548702985700,10.03298583984375,-0.4549500346183777,-10.393950462341309,3.496950149536133
1747543548712580900,10.042580810546875,-0.814050018787384,-11.506950378417969,3.14805006980896
1747543548722176500,10.052176513671874,-0.9769500494003296,-12.31605052947998,2.401050090789795
1747543548731771600,10.061771728515625,-1.0390501022338867,-12.381000518798828,1.3620001077651978
1747543548741365800,10.07136572265625,-1.276050090789795,-11.703001022338867,0.28200000524520874
1747543548750961000,10.0809609375,-1.3860000371932983,-10.76205062866211,-0.30900001525878906
1747543548760556800,10.090556884765626,-1.3459500074386597,-9.975000381469727,-0.3439500033855438
1747543548770071000,10.100071044921876,-1.3669500350952148,-9.381000518798828,-0.1189500093460083
1747543548779746000,10.10974609375,-1.437000036239624,-9.034049987792969,0.1189500093460083
1747543548789341200,10.119341064453126,-1.4580000638961792,-8.916000366210938,0.32505002617836
1747543548798936800,10.128936767578125,-1.4220000505447388,-8.995050430297852,0.39900001883506775
1747543548808531700,10.13853173828125,-1.377000093460083,-9.169950485229492,0.4210500121116638
1747543548818126000,10.1481259765625,-1.1089500188827515,-9.414000511169434,0.5190000534057617
1747543548827721000,10.157720947265625,-0.8479500412940979,-9.75195026397705,0.700950026512146
1747543548837316900,10.16731689453125,-0.6199500560760498,-9.940950393676758,1.0720500946044922
1747543548846911700,10.176911865234375,-0.453000009059906,-10.003050804138184,1.5580500364303589
1747543548856506000,10.186506103515624,-0.49800002574920654,-9.93600082397461,2.0429999828338623
1747543548866101000,10.19610107421875,-0.6990000605583191,-9.826050758361816,2.4060001373291016
1747543548875697000,10.20569677734375,-0.9720000624656677,-9.661050796508789,2.611950159072876
1747543548885291800,10.215291748046875,-1.321950078010559,-9.562950134277344,2.707050085067749
1747543548894886100,10.22488623046875,-1.6549500226974487,-9.592050552368164,2.782050132751465
1747543548904481000,10.23448095703125,-1.9300501346588135,-9.643950462341309,2.7139501571655273
1747543548914077000,10.244076904296875,-2.1070501804351807,-9.726000785827637,2.599950075149536
1747543548923671800,10.253671875,-2.0380501747131348,-9.838050842285156,2.491950035095215
1747543548933266200,10.26326611328125,-1.7650500535964966,-9.967050552368164,2.3940000534057617
1747543548952457000,10.28245703125,-1.1400001049041748,-10.189950942993164,1.9699500799179077
1747543548962052000,10.292052001953126,-0.9790500402450562,-10.293000221252441,1.6849501132965088
1747543548971646200,10.301646240234374,-0.9480000734329224,-10.294950485229492,1.4220000505447388
1747543548981241300,10.311241455078125,-1.0060499906539917,-10.273950576782227,1.1269500255584717
1747543548990837200,10.320837158203124,-1.0030500888824463,-10.168950080871582,0.781950056552887
1747543549000432000,10.33043212890625,-1.0750499963760376,-9.898050308227539,0.5089499950408936
1747543549010026500,10.340026611328126,-1.0030500888824463,-9.93600082397461,0.4830000102519989
1747543549019621400,10.349621337890625,-0.8449500203132629,-9.951000213623047,0.4810500144958496
1747543549029217300,10.35921728515625,-0.6660000085830688,-10.018050193786621,0.6220500469207764
1747543549038812400,10.3688125,-0.51705002784729,-10.027050018310547,0.7200000286102295
1747543549048406500,10.378406494140625,-0.45705002546310425,-10.09695053100586,0.9139500260353088
1747543549058001700,10.388001708984374,-0.520050048828125,-10.16100025177002,1.0210500955581665
1747543549067597300,10.397597412109375,-0.5680500268936157,-10.180950164794922,1.0110000371932983
1747543549077192400,10.4071923828125,-0.6370500326156616,-10.147050857543945,1.0210500955581665
1747543549086786600,10.41678662109375,-0.6559500098228455,-10.105950355529785,1.0909500122070312
1747543549096381700,10.426381591796876,-0.6709500551223755,-9.988950729370117,1.258950114250183
1747543549105977600,10.4359775390625,-0.7930500507354736,-9.831000328063965,1.503000020980835
1747543549115572700,10.44557275390625,-0.999000072479248,-9.706050872802734,1.7899501323699951
1747543549125166800,10.455166748046874,-1.2019500732421875,-9.63705062866211,1.9579501152038574
1747543549134761700,10.46476171875,-1.2739500999450684,-9.56505012512207,1.9530000686645508
1747543549144357600,10.474357666015624,-1.3480501174926758,-9.63900089263916,1.8859500885009766
1747543549153952800,10.483952880859375,-1.336050033569336,-9.754050254821777,1.7539501190185547
1747543549163547000,10.493546875,-1.3410000801086426,-9.951000213623047,1.5559500455856323
1747543549173142000,10.50314208984375,-1.321950078010559,-10.033950805664062,1.2610501050949097
1747543549182737700,10.512737548828126,-1.3099501132965088,-10.153950691223145,1.0339500904083252
1747543549192332500,10.52233251953125,-1.2570000886917114,-10.125000953674316,0.8329500555992126
1747543549201927000,10.531927001953125,-1.165950059890747,-10.0420503616333,0.6700500249862671
1747543549211521800,10.541521728515624,-1.1209501028060913,-9.975000381469727,0.6889500617980957
1747543549221117700,10.55111767578125,-1.1160000562667847,-9.991050720214844,0.8490000367164612
1747543549230712800,10.560712890625,-1.128000020980835,-10.02495002746582,1.009950041770935
1747543549240307000,10.570306884765625,-1.237950086593628,-10.08495044708252,1.117050051689148
1747543549249902000,10.579902099609376,-1.429050087928772,-10.113000869750977,1.1130000352859497
1747543549259497700,10.589497802734375,-1.6470000743865967,-10.117950439453125,1.0410000085830688
1747543549269092600,10.599092529296875,-1.870050072669983,-10.09005069732666,0.9499500393867493
1747543549278687000,10.60868701171875,-2.0620501041412354,-10.06095027923584,0.8299500346183777
1747543549288281900,10.61828173828125,-2.1570000648498535,-10.018050193786621,0.7609500288963318
1747543549297878000,10.6278779296875,-2.155050039291382,-9.982050895690918,0.7729500532150269
1747543549307473000,10.637472900390625,-2.0400002002716064,-9.928950309753418,0.8250000476837158
1747543549317067000,10.64706689453125,-1.8439500331878662,-9.927000045776367,0.895050048828125
1747543549326662100,10.656662109375,-1.588050127029419,-9.90000057220459,0.9690000414848328
1747543549336258000,10.666258056640626,-1.3429501056671143,-9.879000663757324,1.0699501037597656
1747543549345853000,10.67585302734375,-1.1089500188827515,-9.880950927734375,1.1869500875473022
1747543549355447300,10.685447265625,-0.8689500689506531,-9.86400032043457,1.3020000457763672
1747543549365042200,10.695042236328124,-0.6780000329017639,-9.843000411987305,1.4620500802993774
1747543549374638000,10.70463818359375,-0.5239500403404236,-9.86400032043457,1.6630500555038452
1747543549384233000,10.71423291015625,-0.4410000145435333,-9.8860502243042,1.9240500926971436
1747543549393827000,10.7238271484375,-0.4140000343322754,-9.871950149536133,2.1610500812530518
1747543549403422200,10.733422119140625,-0.4240500330924988,-9.80505084991455,2.382000207901001
1747543549413018000,10.74301806640625,-0.4740000367164612,-9.670950889587402,2.476950168609619
1747543549422613000,10.752613037109375,-0.5650500059127808,-9.59595012664795,2.511000156402588
1747543549432207400,10.762207275390624,-0.6469500064849854,-9.60105037689209,2.3940000534057617
1747543549441802500,10.771802490234375,-0.6490500569343567,-9.706050872802734,2.1780002117156982
1747543549451398400,10.7813984375,-0.5959500074386597,-9.867000579833984,1.9290001392364502
1747543549460993300,10.7909931640625,-0.5749500393867493,-10.027050018310547,1.6920000314712524
1747543549470587400,10.80058740234375,-0.5890500545501709,-10.10205078125,1.4910000562667847
1747543549480182500,10.8101826171875,-0.6030000448226929,-10.081950187683105,1.3810501098632812
1747543549489778400,10.8197783203125,-0.6420000195503235,-9.972000122070312,1.3429501056671143
1747543549499373300,10.829373291015624,-0.7140000462532043,-9.819000244140625,1.3450500965118408
1747543549508967400,10.838967529296875,-0.742050051689148,-9.651000022888184,1.311000108718872
1747543549518562600,10.8485625,-0.7540500164031982,-9.510000228881836,1.2490500211715698
1747543549528158200,10.858158203125,-0.8190000653266907,-9.345000267028809,1.1680500507354736
1747543549537753300,10.86775341796875,-0.8740500211715698,-9.208050727844238,1.081950068473816
1747543549547347500,10.877347412109375,-0.9220500588417053,-9.124950408935547,1.0290000438690186
1747543549556942600,10.886942626953125,-0.9460500478744507,-9.08595085144043,1.0000500679016113
1747543549566538500,10.89653857421875,-1.0780500173568726,-9.03795051574707,0.9400500655174255
1747543549576133400,10.90613330078125,-1.2790501117706299,-8.992950439453125,0.8110500574111938
1747543549585727700,10.915727783203126,-1.6570501327514648,-9.03600025177002,0.7129500508308411
1747543549595322600,10.925322509765625,-2.1739501953125,-9.259050369262695,0.8760000467300415
1747543549604918500,10.93491845703125,-2.5860002040863037,-9.52695083618164,1.2130500078201294
1747543549614513400,10.944513427734375,-2.4780001640319824,-9.643950462341309,1.4770500659942627
1747543549624107800,10.954107666015625,-1.966050148010254,-9.58905029296875,1.5679501295089722
1747543549633702700,10.96370263671875,-1.3819500207901,-9.424050331115723,1.4500501155853271
1747543549643298300,10.97329833984375,-0.775950014591217,-9.217950820922852,1.1560500860214233
1747543549652893400,10.9828935546875,-0.20595000684261322,-9.189000129699707,1.0309500694274902
1747543549662487600,10.992487548828125,0.1660500019788742,-9.283050537109375,1.1100000143051147
1747543549672082700,11.002082763671876,0.3820500075817108,-9.442950248718262,1.1680500507354736
1747543549681678300,11.01167822265625,0.3750000298023224,-9.562950134277344,1.1749500036239624
1747543549691273500,11.0212734375,0.010950000956654549,-9.75,1.218000054359436
1747543549700867600,11.03086767578125,-1.4770500659942627,-9.975000381469727,1.2109500169754028
1747543549710462700,11.040462646484375,-2.5500001907348633,-10.189950942993164,1.2370500564575195
1747543549720058600,11.05005859375,-1.0339500904083252,-10.123050689697266,1.1370000839233398
1747543549729653800,11.05965380859375,-1.374000072479248,-9.931950569152832,0.08295000344514847
1747543549739247900,11.069247802734376,-1.8870000839233398,-9.831000328063965,-1.1389501094818115
1747543549748842800,11.0788427734375,-2.1450002193450928,-9.697050094604492,-1.9270501136779785
1747543549758438700,11.088438720703126,-2.004000186920166,-9.570000648498535,-1.963050127029419
1747543549768033800,11.09803369140625,-1.4179500341415405,-9.570000648498535,-0.51705002784729
1747543549777628000,11.1076279296875,-0.6589500308036804,-9.772950172424316,1.2559500932693481
1747543549787222800,11.117222900390624,-0.32100000977516174,-10.135050773620605,2.4850502014160156
1747543549796818700,11.126818603515625,-0.06195000186562538,-10.567950248718262,3.1690502166748047
1747543549806413600,11.13641357421875,0.11400000751018524,-10.966050148010254,3.598050117492676
1747543549816008000,11.146008056640625,-0.025950001552700996,-11.17905044555664,3.4399502277374268
1747543549825602800,11.155602783203125,-0.5680500268936157,-11.064000129699707,3.121950149536133
1747543549835198700,11.16519873046875,-1.7119500637054443,-10.669050216674805,2.9250001907348633
1747543549844793900,11.1747939453125,-2.572050094604492,-10.1089506149292,2.6760001182556152
1747543549854388000,11.184387939453124,-2.9380500316619873,-9.604050636291504,2.287950038909912
1747543549863983000,11.193983154296875,-3.1489500999450684,-9.256050109863281,2.158950090408325
1747543549873579000,11.2035791015625,-3.1050002574920654,-9.184950828552246,2.3740501403808594
1747543549883174000,11.213173828125,-2.845050096511841,-9.313950538635254,2.571000099182129
1747543549892768300,11.222768310546876,-2.509050130844116,-9.646950721740723,2.430000066757202
1747543549902363400,11.23236328125,-2.116950035095215,-10.07295036315918,2.061000108718872
1747543549911959000,11.241958984375,-1.741050124168396,-10.293000221252441,1.7620500326156616
1747543549921554200,11.25155419921875,-1.4389500617980957,-10.212000846862793,1.2300000190734863
1747543549931148300,11.261148193359375,-1.225950002670288,-9.807000160217285,0.7459500432014465
1747543549940743400,11.270743408203124,-1.3960500955581665,-9.28695011138916,0.6100500226020813
1747543549950339000,11.280339111328125,-1.9870500564575195,-8.872950553894043,0.7099500298500061
1747543549959934200,11.289934326171876,-2.5279500484466553,-8.683950424194336,1.1680500507354736
1747543549969528300,11.2995283203125,-2.725050210952759,-8.646000862121582,1.8019500970840454
1747543549979123500,11.30912353515625,-2.67900013923645,-8.72504997253418,2.3310000896453857
1747543549988719000,11.318718994140625,-2.6890501976013184,-8.964000701904297,2.67900013923645
1747543549998314200,11.328314208984375,-2.6580002307891846,-9.259050369262695,2.6860501766204834
1747543550007908400,11.337908447265624,-2.77305006980896,-9.547950744628906,2.5759501457214355
1747543550017503500,11.34750341796875,-2.860950231552124,-9.682950019836426,2.458050012588501
1747543550027099400,11.357099365234374,-2.5600500106811523,-9.666000366210938,2.020050048828125
1747543550036694300,11.3666943359375,-2.347050189971924,-9.486000061035156,1.4050500392913818
1747543550046288600,11.37628857421875,-2.1190500259399414,-9.388050079345703,0.675000011920929
1747543550055883500,11.385883544921874,-2.1979501247406006,-9.32295036315918,0.028050001710653305
1747543550065479400,11.3954794921875,-2.284050226211548,-9.32295036315918,-0.39000001549720764
1747543550075074300,11.40507421875,-2.4760501384735107,-9.321000099182129,-0.4159500300884247
1747543550084668700,11.414668701171875,-2.698050022125244,-9.30405044555664,-0.20805001258850098
1747543550094263600,11.424263671875,-2.751000165939331,-9.076950073242188,0.07605000585317612
1747543550103859500,11.433859375,-2.823000192642212,-8.670000076293945,0.3850500285625458
1747543550113454300,11.443454345703126,-3.346950054168701,-8.20995044708252,0.739050030708313
1747543550123048700,11.453048583984375,-4.1449503898620605,-7.759950160980225,1.1389501094818115
1747543550132643600,11.4626435546875,-4.461000442504883,-7.3309502601623535,1.3230000734329224
1747543550142239500,11.472239501953124,-4.099050045013428,-6.951000213623047,1.3210500478744507
1747543550151834400,11.48183447265625,-3.739950180053711,-6.697050094604492,1.2520500421524048
1747543550161428700,11.4914287109375,-3.7140002250671387,-6.6469502449035645,0.9000000357627869
1747543550171023600,11.501023681640625,-4.102050304412842,-7.078050136566162,0.8160000443458557
1747543550180619500,11.51061962890625,-4.111050128936768,-7.698000431060791,0.6649500131607056
1747543550190214700,11.520214599609375,-4.011000156402588,-8.454000473022461,0.5550000071525574
1747543550199808800,11.529808837890625,-3.9940502643585205,-9.064949989318848,0.5620500445365906
1747543550209403600,11.539403564453124,-4.066050052642822,-9.550950050354004,0.4519500136375427
1747543550218999600,11.54899951171875,-4.4730000495910645,-10.045950889587402,0.39000001549720764
1747543550228594700,11.5585947265625,-4.923000335693359,-10.609050750732422,0.8179500102996826
1747543550238188800,11.568188720703125,-5.46405029296875,-10.992000579833984,1.821000099182129
1747543550247784000,11.577783935546876,-5.683950424194336,-11.107050895690918,2.6020500659942627
1747543550257379600,11.587379638671875,-5.57895040512085,-10.918050765991211,2.7430500984191895
1747543550266974700,11.596974609375,-4.858050346374512,-10.678950309753418,2.322000026702881
1747543550276568800,11.60656884765625,-3.204000234603882,-10.176000595092773,0.8010000586509705
1747543550286164000,11.6161640625,-1.8720000982284546,-9.355050086975098,-1.2520500421524048
1747543550295760000,11.625759765625,-2.095050096511841,-9.022050857543945,-1.5370501279830933
1747543550305354800,11.635354736328125,-2.980950117111206,-9.93600082397461,1.0049999952316284
1747543550314948900,11.644948974609376,-4.558950424194336,-11.988000869750977,5.899050235748291
1747543550324544000,11.6545439453125,-6.193950176239014,-14.971050262451172,9.271950721740723
1747543550334140000,11.664139892578126,-5.518950462341309,-17.3470516204834,8.638050079345703
1747543550343735000,11.673735107421875,-3.751950263977051,-16.770000457763672,4.897950172424316
1747543550353329200,11.6833291015625,-1.9780501127243042,-14.530950546264648,2.121000051498413
1747543550362924300,11.69292431640625,-0.9670500755310059,-12.241950988769531,1.8360000848770142
1747543550372520000,11.70252001953125,-1.051050066947937,-10.417950630187988,2.2360501289367676
1747543550382115000,11.712114990234374,-1.4269500970840454,-9.213000297546387,2.533050060272217
1747543550391709200,11.721709228515625,-1.6900501251220703,-8.248050689697266,2.121000051498413
1747543550401304300,11.73130419921875,-1.9180500507354736,-7.494000434875488,1.2469500303268433
1747543550410900000,11.74089990234375,-1.9390500783920288,-7.113000392913818,0.28905001282691956
1747543550420495000,11.7504951171875,-2.053950071334839,-6.850050449371338,-0.34200000762939453
1747543550430089200,11.760089111328124,-2.3110501766204834,-6.808950424194336,-0.3829500079154968
1747543550439684400,11.769684326171875,-2.8470001220703125,-6.903000354766846,-0.0690000057220459
1747543550449280300,11.7792802734375,-3.418950080871582,-7.125000476837158,0.3540000021457672
1747543550458875100,11.788875244140625,-3.999000072479248,-7.456050395965576,0.6270000338554382
1747543550468469500,11.798469482421876,-4.398000240325928,-7.996950149536133,0.9690000414848328
1747543550478064400,11.808064453125,-4.558950424194336,-8.607000350952148,1.4140501022338867
1747543550487660300,11.817660400390626,-4.401000022888184,-9.163050651550293,1.672950029373169
1747543550497255400,11.82725537109375,-4.054049968719482,-9.5149507522583,1.6710001230239868
1747543550506849500,11.836849609375,-3.9049501419067383,-9.606000900268555,1.2660000324249268
1747543550516444700,11.846444580078124,-3.766050100326538,-9.682950019836426,0.7849500179290771
1747543550526040300,11.856040283203125,-3.5839502811431885,-9.796950340270996,0.3540000021457672
1747543550535635200,11.86563525390625,-3.3949501514434814,-10.10205078125,0.16005000472068787
1747543550545229600,11.8752294921875,-3.264000177383423,-10.576050758361816,0.16500000655651093
1747543550554824400,11.884824462890625,-3.4260001182556152,-11.019000053405762,0.45900002121925354
1747543550564420400,11.89442041015625,-3.829050064086914,-11.245950698852539,0.6960000395774841
1747543550574015500,11.904015380859375,-4.396049976348877,-11.172000885009766,1.0410000085830688
1747543550583609900,11.91360986328125,-4.645050048828125,-10.731000900268555,1.683000087738037
1747543550593204700,11.923204833984375,-4.462950229644775,-10.117950439453125,2.370000123977661
1747543550602800600,11.932800537109374,-4.24500036239624,-9.52695083618164,2.940000057220459
1747543550612395500,11.9423955078125,-4.173000335693359,-9.034049987792969,3.325050115585327
1747543550621989600,11.95198974609375,-4.176000118255615,-8.695950508117676,3.315000057220459
1747543550631584800,11.961584716796875,-4.019999980926514,-8.574000358581543,2.8249502182006836
1747543550641180400,11.971180419921875,-3.886050224304199,-8.605050086975098,1.9579501152038574
1747543550650775600,11.980775634765624,-3.697050094604492,-8.839950561523438,0.9190500378608704
1747543550660369700,11.99036962890625,-3.535950183868408,-9.193950653076172,-0.05895000323653221
1747543550669964800,11.99996484375,-3.261000156402588,-9.570000648498535,-0.9769500494003296
1747543550679560400,12.009560546875,-2.9260501861572266,-9.83595085144043,-1.5870001316070557
1747543550689155600,12.019155517578126,-2.851950168609619,-9.868950843811035,-1.3020000457763672
1747543550698749700,12.028749755859375,-3.204000234603882,-9.678000450134277,-0.14295001327991486
1747543550708344800,12.0383447265625,-3.718050241470337,-9.273000717163086,0.6310500502586365
1747543550717940500,12.0479404296875,-4.216050148010254,-8.928000450134277,1.1989500522613525
1747543550727468500,12.057468505859376,-4.384050369262695,-8.782050132751465,1.9870500564575195
1747543550737130000,12.0671298828125,-4.305000305175781,-8.701050758361816,2.8249502182006836
1747543550746724900,12.076724853515625,-4.197000026702881,-8.643000602722168,3.616950273513794
1747543550756320800,12.08632080078125,-4.081050395965576,-8.586000442504883,4.021049976348877
1747543550765915600,12.09591552734375,-4.0320000648498535,-8.562000274658203,4.218000411987305
1747543550775510000,12.105510009765625,-3.928950071334839,-8.635950088500977,4.209000110626221
1747543550785105200,12.115105224609374,-4.1419501304626465,-8.812950134277344,3.6030001640319824
1747543550794700800,12.12470068359375,-4.374000072479248,-9.070050239562988,2.6740500926971436
1747543550804296000,12.1342958984375,-4.747950077056885,-9.47700023651123,1.735050082206726
1747543550813890000,12.14389013671875,-4.117949962615967,-9.915000915527344,1.3230000734329224
1747543550823485200,12.153485107421876,-2.845050096511841,-10.116000175476074,0.7939500212669373
1747543550833080800,12.163080810546875,-2.5260000228881836,-10.027050018310547,-0.05895000323653221
1747543550842676000,12.172676025390626,-2.991000175476074,-9.781050682067871,-0.5239500403404236
1747543550852270000,12.18227001953125,-3.5220000743865967,-9.466950416564941,-0.37095001339912415
1747543550861865200,12.191865234375,-3.9270002841949463,-9.067049980163574,0.13305000960826874
1747543550871461000,12.201461181640624,-4.192950248718262,-8.643000602722168,0.6790500283241272
1747543550881056000,12.211055908203125,-4.2430500984191895,-8.326950073242188,0.9640500545501709
1747543550890650400,12.220650390625,-4.212000370025635,-8.155950546264648,1.0840500593185425
1747543550900245200,12.230245361328125,-4.249950408935547,-8.187000274658203,1.2610501050949097
1747543550909841200,12.239841064453126,-4.306950092315674,-8.425950050354004,1.2610501050949097
1747543550919436300,12.249436279296875,-4.328999996185303,-8.79900074005127,1.2280501127243042
1747543550929030400,12.259030517578125,-4.4509501457214355,-9.208050727844238,1.1890500783920288
1747543550948221200,12.27822119140625,-4.357950210571289,-9.529050827026367,0.7300500273704529
1747543550957816300,12.28781640625,-4.2330002784729,-9.382950782775879,0.5329500436782837
1747543550967410400,12.297410400390625,-4.090050220489502,-9.169950485229492,0.41100001335144043
1747543550977005600,12.307005615234376,-4.060050010681152,-9.019050598144531,0.3850500285625458
1747543550986601200,12.316601318359375,-4.252050399780273,-8.992950439453125,0.3679500222206116
1747543550996196400,12.3261962890625,-4.504050254821777,-9.091050148010254,0.3850500285625458
1747543551005790500,12.33579052734375,-4.765050411224365,-9.244050025939941,0.49500003457069397
1747543551015385600,12.345385498046875,-4.923000335693359,-9.436050415039062,0.7540500164031982
1747543551024981500,12.3549814453125,-4.870050430297852,-9.586950302124023,0.9790500402450562
1747543551034576600,12.36457666015625,-4.747950077056885,-9.62505054473877,1.0270500183105469
1747543551044170800,12.374170654296876,-4.651950359344482,-9.574950218200684,0.8350500464439392
