time,seconds_elapsed,z,y,x
1748142090076539600,0.06453955078125,8.955737113952637,2.1786649227142334,0.15194423496723175
1748142090094800400,0.08280029296875,8.844470977783203,1.903490424156189,-0.11126625537872314
1748142090113068000,0.101068115234375,9.029315948486328,1.5655041933059692,-0.14057832956314087
1748142090131331000,0.1193310546875,9.272786140441895,1.9866410493850708,-0.6137589812278748
1748142090149595400,0.137595458984375,9.530014038085938,3.0969107151031494,-0.8333004713058472
1748142090167859000,0.15585888671875,8.302495956420898,3.022135019302368,-0.9116654396057129
1748142090186126000,0.1741259765625,7.094718933105469,3.0233314037323,-0.8901300430297852
1748142090204384500,0.192384521484375,6.6831536293029785,2.3030917644500732,-0.16809579730033875
1748142090222654000,0.210654052734375,7.107879638671875,2.9760732650756836,0.49232324957847595
1748142090240918000,0.22891796875,9.09272575378418,4.197608947753906,1.9004993438720703
1748142090259179000,0.247178955078125,9.119645118713379,3.4845480918884277,0.46002015471458435
1748142090277450500,0.265450439453125,8.995218276977539,3.379862070083618,-1.2999008893966675
1748142090295707000,0.283706787109375,7.840681552886963,3.8356947898864746,-3.4396824836730957
1748142090313974000,0.30197412109375,7.045068264007568,4.601995944976807,-7.707880020141602
1748142090332229600,0.320229736328125,8.014161109924316,2.462214469909668,-2.6673989295959473
1748142090350504400,0.33850439453125,10.24905776977539,2.1924238204956055,1.7084753513336182
1748142090368770800,0.356770751953125,11.198410034179688,3.8356947898864746,0.9050851464271545
1748142090387031600,0.375031494140625,10.009775161743164,4.823930263519287,-0.6400800347328186
1748142090405300000,0.393300048828125,8.63330364227295,6.0472612380981445,0.44027936458587646
1748142090423562800,0.411562744140625,7.1886372566223145,6.647859573364258,0.2386840581893921
1748142090441826600,0.42982666015625,5.98444938659668,6.254240036010742,0.3320041298866272
1748142090460092700,0.4480927734375,7.208378314971924,5.108676433563232,1.0402796268463135
1748142090478351600,0.4663515625,8.72901725769043,5.024927616119385,0.19980068504810333
1748142090496620500,0.48462060546875,7.22034215927124,5.193621635437012,0.12681959569454193
1748142090514885400,0.502885498046875,6.022734642028809,4.2454657554626465,1.672582983970642
1748142090533149400,0.5211494140625,5.403591632843018,3.6598222255706787,3.1992039680480957
1748142090551410700,0.53941064453125,6.653243541717529,2.9078776836395264,1.9902302026748657
1748142090569678600,0.5576787109375,9.863214492797852,0.4217349886894226,1.0947163105010986
1748142090587943400,0.575943359375,10.681560516357422,-0.9684949517250061,2.076371908187866
1748142090606207500,0.59420751953125,9.317651748657227,0.064606212079525,3.1136605739593506
1748142090624454700,0.61245458984375,5.350351333618164,1.2813565731048584,4.692923545837402
1748142090642731300,0.630731201171875,0.882951557636261,2.6219353675842285,3.1310083866119385
1748142090661000400,0.64900048828125,-0.19262222945690155,2.32761812210083,2.922234535217285
1748142090679266800,0.667266845703125,4.315455436706543,0.4169493317604065,4.707878589630127
1748142090697530400,0.6855302734375,6.8967132568359375,0.08135596662759781,4.6061835289001465
1748142090715793200,0.703793212890625,5.973681926727295,-0.07597211748361588,4.2831525802612305
1748142090734060500,0.722060546875,5.302495002746582,0.6544370055198669,5.657829284667969
1748142090752324000,0.740323974609375,6.37747049331665,1.1772687435150146,7.05763053894043
1748142090770588400,0.75858837890625,5.949753284454346,1.170688509941101,7.862216949462891
1748142090788852000,0.77685205078125,4.430909156799316,1.2203395366668701,7.516454219818115
1748142090807116300,0.7951162109375,4.963312149047852,1.2269197702407837,6.616154670715332
1748142090825380000,0.813380126953125,4.099503517150879,0.9553344249725342,7.048058986663818
1748142090843646500,0.831646484375,2.633301258087158,0.9337990283966064,6.850651264190674
1748142090861910300,0.84991015625,1.9866410493850708,0.5946164131164551,6.578467845916748
1748142090880175400,0.86817529296875,2.5184457302093506,-0.4145565330982208,7.011568546295166
1748142090898434300,0.886434326171875,3.6358940601348877,-1.2544373273849487,10.36510944366455
1748142090916704500,0.90470458984375,2.748156785964966,-0.16151553392410278,12.3009033203125
1748142090934968300,0.92296826171875,1.3920245170593262,-0.43489551544189453,12.67179012298584
1748142090953233400,0.9412333984375,1.0456634759902954,-1.4883357286453247,11.504093170166016
1748142090971497000,0.9594970703125,1.3483555316925049,-1.6313068866729736,14.258232116699219
1748142090989762300,0.97776220703125,0.13698910176753998,-2.60339093208313,16.28734588623047
1748142091008023300,0.996023193359375,0.004785645287483931,-2.806182861328125,17.21516227722168
1748142091026294000,1.0142939453125,1.378864049911499,-1.210170030593872,21.643081665039062
1748142091044555000,1.032554931640625,1.9806588888168335,-0.6317051649093628,24.775285720825195
1748142091062819000,1.050819091796875,0.6951149702072144,-0.6448656916618347,24.117856979370117
1748142091081073000,1.069072998046875,-3.7286159992218018,-0.8763712644577026,23.34796714782715
1748142091099345000,1.087344970703125,-6.900900363922119,-1.1377872228622437,21.0969181060791
1748142091117613600,1.105613525390625,-4.433900356292725,-0.760917603969574,18.074186325073242
1748142091135878100,1.123878173828125,-2.644667148590088,-0.5419743061065674,17.45803451538086
1748142091154137300,1.142137451171875,-3.1076784133911133,-2.944368362426758,15.518651008605957
1748142091172399900,1.16039990234375,-4.074976921081543,-4.567300319671631,9.42054271697998
1748142091190672100,1.178672119140625,5.508277893066406,-14.974284172058105,-3.2506494522094727
1748142091208934000,1.196933837890625,5.727818965911865,-5.456831932067871,4.271188259124756
1748142091227203300,1.215203369140625,-5.239683151245117,-0.6029912829399109,12.619148254394531
1748142091245463800,1.2334638671875,-1.9489539861679077,0.17706887423992157,8.274978637695312
1748142091263729000,1.25172900390625,-3.2997024059295654,-4.862813949584961,5.185844898223877
1748142091281994000,1.269993896484375,-2.0315065383911133,-4.8161540031433105,6.135197162628174
1748142091300258000,1.288258056640625,3.0305099487304688,-1.4009976387023926,5.330012321472168
1748142091318523400,1.3065234375,2.386840581893921,-1.7024933099746704,4.211966037750244
1748142091336786200,1.3247861328125,0.42412781715393066,-2.2163519859313965,2.8522446155548096
1748142091355053300,1.34305322265625,-1.6600207090377808,-2.757728099822998,2.6219353675842285
1748142091373315800,1.36131591796875,-4.360321044921875,-2.6009981632232666,5.091328144073486
1748142091391576300,1.379576416015625,-3.7124643325805664,-1.866999864578247,7.176074981689453
1748142091409837300,1.39783740234375,-2.8965117931365967,-3.1543383598327637,5.201996326446533
1748142091428112000,1.41611181640625,-2.710469961166382,-3.7734813690185547,4.229912281036377
1748142091446370600,1.43437060546875,-0.735194742679596,-2.9186453819274902,2.4329023361206055
1748142091464639000,1.452638916015625,1.4931213855743408,-1.3094722032546997,3.2243285179138184
1748142091482903300,1.4709033203125,-3.4169507026672363,-8.567501068115234,15.468401908874512
1748142091501167900,1.48916796875,-4.996213912963867,-3.5300116539001465,13.446466445922852
1748142091519432000,1.507431884765625,-4.267001152038574,0.9451649188995361,11.743973731994629
1748142091537696800,1.52569677734375,-3.31884503364563,-2.0679969787597656,8.203194618225098
1748142091555949000,1.543948974609375,-4.175475597381592,-4.311268329620361,7.0923261642456055
1748142091574226400,1.562226318359375,-3.661616802215576,-3.833899974822998,7.474579811096191
1748142091610755300,1.59875537109375,-12.509676933288574,-7.216155052185059,8.435895919799805
1748142091629016000,1.61701611328125,-1.2867404222488403,-6.321837425231934,3.1280174255371094
1748142091647287300,1.635287353515625,2.18045973777771,-5.3318071365356445,2.059622049331665
1748142091665543400,1.65354345703125,4.8161540031433105,-5.372485160827637,2.316850423812866
1748142091683812000,1.67181201171875,4.342374801635742,-5.2181477546691895,3.418147087097168
1748142091702078500,1.690078369140625,2.922234535217285,-11.871391296386719,3.555734395980835
1748142091720342800,1.7083427734375,2.6356940269470215,-21.47977066040039,3.418147087097168
1748142091738606000,1.726606201171875,2.9551360607147217,-25.082164764404297,3.4887354373931885
1748142091756871000,1.744870849609375,2.9940192699432373,-17.300107955932617,6.498308181762695
1748142091775135200,1.76313525390625,2.4939193725585938,-10.363314628601074,3.5204403400421143
1748142091793405700,1.78140576171875,1.8035900592803955,-7.121638298034668,1.1539387702941895
1748142091811659800,1.79965966796875,1.703689694404602,-6.403791427612305,0.17946170270442963
1748142091829929000,1.817928955078125,2.2546372413635254,-8.207381248474121,-0.02512463741004467
1748142091848193500,1.836193603515625,2.4532413482666016,-9.643074989318848,-0.22372891008853912
1748142091866458000,1.8544580078125,-0.34576287865638733,-10.04267692565918,-0.37088751792907715
1748142091884722200,1.87272216796875,-8.752346992492676,-9.670592308044434,-0.6245267391204834
1748142091902987000,1.890987060546875,-9.747162818908691,-8.481958389282227,2.2055842876434326
1748142091921246500,1.90924658203125,-4.633700847625732,-7.978269100189209,3.452843189239502
1748142091939514600,1.9275146484375,-0.30508488416671753,-8.6303129196167,4.012165546417236
1748142091957780000,1.945780029296875,1.323829174041748,-6.560521602630615,6.833303451538086
1748142091976046000,1.964046142578125,3.483351469039917,-9.150752067565918,6.006583213806152
1748142091994309400,1.982309326171875,4.657629489898682,-8.601000785827637,4.919643402099609
1748142092012569600,2.000569580078125,2.276770830154419,-7.6390862464904785,5.9922261238098145
1748142092030837200,2.018837158203125,0.3601198196411133,-7.89631462097168,5.364708423614502
1748142092049104400,2.0371044921875,-0.2476571500301361,-9.53779125213623,3.6711881160736084
1748142092067362300,2.0553623046875,0.3074777126312256,-9.512666702270508,2.3497519493103027
1748142092085632300,2.07363232421875,-2.815753936767578,-9.835099220275879,2.3324038982391357
1748142092103896300,2.091896240234375,-3.3619158267974854,-10.079167366027832,3.820141315460205
1748142092122161400,2.110161376953125,-1.1012966632843018,-9.40917682647705,5.763113498687744
1748142092140425200,2.12842529296875,0.23629122972488403,-9.738189697265625,6.46241569519043
1748142092158690000,2.14668994140625,0.6855437159538269,-10.481760025024414,6.0538411140441895
1748142092176954600,2.16495458984375,2.82951283454895,-10.145567893981934,5.772684574127197
1748142092195219200,2.18321923828125,2.4819552898406982,-11.368898391723633,6.120840549468994
1748142092213483300,2.201483154296875,2.1092731952667236,-13.442877769470215,7.328617572784424
1748142092231743700,2.21974365234375,0.8823533654212952,-13.536795616149902,7.383652687072754
1748142092250012400,2.238012451171875,-1.4315061569213867,-14.495719909667969,5.761318683624268
1748142092268272600,2.256272705078125,-4.166502475738525,-12.131012916564941,5.995217323303223
1748142092286541300,2.274541259765625,-3.2781670093536377,-10.416555404663086,3.623929977416992
1748142092304805000,2.29280517578125,-3.9493536949157715,-9.463613510131836,2.7224340438842773
1748142092323071500,2.311071533203125,-1.8137595653533936,-10.983654022216797,4.054637908935547
1748142092341338600,2.329338623046875,1.4554343223571777,-12.334402084350586,3.930809497833252
1748142092359599000,2.34759912109375,2.6051857471466064,-11.503495216369629,4.183252334594727
1748142092377864200,2.3658642578125,2.3294129371643066,-10.110274314880371,4.286143779754639
1748142092396128300,2.384128173828125,1.1024930477142334,-10.295119285583496,2.7535407543182373
1748142092414389200,2.40238916015625,0.3756731450557709,-9.603593826293945,1.2496516704559326
1748142092432657400,2.420657470703125,-0.6915257573127747,-9.916455268859863,2.3563320636749268
1748142092450910500,2.438910400390625,-2.547757863998413,-8.492127418518066,2.4053850173950195
1748142092469186300,2.457186279296875,-4.085146427154541,-7.781459331512451,3.059821844100952
1748142092487451400,2.475451416015625,-3.94815731048584,-7.596015453338623,4.0833516120910645
1748142092505714000,2.4937138671875,-1.4189438819885254,-7.608577728271484,3.8913278579711914
1748142092523977000,2.51197705078125,0.14895321428775787,-7.41117000579834,4.270590305328369
1748142092542240500,2.530240478515625,0.6041877269744873,-7.941180229187012,3.7716867923736572
1748142092560513300,2.54851318359375,-1.3513466119766235,-7.989036560058594,2.895913600921631
1748142092578774300,2.566774169921875,-0.7615157961845398,-7.694121360778809,-0.23270200192928314
1748142092597036300,2.585036376953125,-2.0309081077575684,-5.788238048553467,-1.212562918663025
1748142092615303700,2.6033037109375,-2.8911280632019043,-4.0456647872924805,-0.6628118753433228
1748142092633567500,2.6215673828125,-3.0975089073181152,-4.171886444091797,1.1258230209350586
1748142092651828000,2.639827880859375,-2.3599212169647217,-5.675775527954102,2.3802602291107178
1748142092670094800,2.6580947265625,-2.3431715965270996,-6.412166595458984,2.627917528152466
1748142092688355600,2.67635546875,-3.996612071990967,-5.388038158416748,2.379063844680786
1748142092706625500,2.69462548828125,-6.058627128601074,-4.523033142089844,2.89172625541687
1748142092724889300,2.712889404296875,-8.094919204711914,-3.885345697402954,4.638486862182617
1748142092743154700,2.73115478515625,-10.077372550964355,-5.8612189292907715,5.371288776397705
1748142092761420300,2.749420166015625,-10.484152793884277,-8.513663291931152,7.205387115478516
1748142092779678700,2.7676787109375,-12.19382381439209,-10.791031837463379,6.736992359161377
1748142092797935400,2.785935302734375,-16.68335723876953,-14.108680725097656,7.368697166442871
1748142092816213800,2.8042138671875,-6.578467845916748,-18.5653133392334,6.321238994598389
1748142092834460000,2.8224599609375,8.447860717773438,-11.612966537475586,2.2713868618011475
1748142092852741400,2.840741455078125,3.869194269180298,-4.281357765197754,-0.02273181453347206
1748142092871005400,2.85900537109375,-4.302893161773682,-3.9044883251190186,1.578664779663086
1748142092889270500,2.8772705078125,2.434697151184082,-6.730412006378174,10.274182319641113
1748142092907534000,2.8955341796875,5.079962253570557,-12.019746780395508,1.8478572368621826
1748142092925798400,2.91379833984375,-4.878366947174072,-12.440284729003906,-3.0000014305114746
1748142092944064500,2.932064453125,-4.917848587036133,-10.220343589782715,0.6143572330474854
1748142092962329300,2.950329345703125,-2.7864420413970947,-8.164310455322266,0.08195417374372482
1748142092980592000,2.968592041015625,-2.661417007446289,-7.376473903656006,-0.8835497498512268
1748142092998857500,2.986857421875,-3.239283561706543,-6.390631198883057,-0.4265206456184387
1748142093017120500,3.00512060546875,-0.8865407705307007,-6.547959327697754,1.2897313833236694
1748142093035382800,3.0233828125,-0.062213387340307236,-7.231110095977783,1.6265212297439575
1748142093053649400,3.0416494140625,0.16031911969184875,-8.581260681152344,1.1030912399291992
1748142093071916800,3.059916748046875,0.7824530005455017,-9.990034103393555,2.1613171100616455
1748142093090179600,3.0781796875,1.5894324779510498,-10.53499984741211,2.9718856811523438
1748142093108445000,3.09644482421875,1.353141188621521,-10.077970504760742,3.3367912769317627
1748142093126708700,3.114708740234375,0.27816563844680786,-9.17467975616455,3.407379388809204
1748142093144973800,3.132973876953125,-0.8422735929489136,-8.166703224182129,4.180859565734863
1748142093163238000,3.15123779296875,-1.8592232465744019,-7.629515171051025,5.216951370239258
1748142093181503200,3.169503173828125,-2.421536445617676,-7.883154392242432,6.011966705322266
1748142093199767600,3.187767578125,-1.898106575012207,-8.294121742248535,6.014957904815674
1748142093218031400,3.20603125,-0.7208378314971924,-8.090731620788574,5.003392219543457
1748142093236296000,3.2242958984375,0.15194423496723175,-7.667799949645996,3.8638103008270264
1748142093254561000,3.24256103515625,-0.20877377688884735,-8.018348693847656,3.438486099243164
1748142093272812800,3.260812744140625,-0.22193430364131927,-8.74038314819336,3.1316065788269043
1748142093291084800,3.279084716796875,-0.7525427341461182,-8.785248756408691,2.9078776836395264
1748142093309350700,3.2973505859375,-3.568894863128662,-8.458627700805664,2.6464617252349854
1748142093327620000,3.3156201171875,-3.2727832794189453,-9.091529846191406,3.707080364227295
1748142093345883100,3.333883056640625,-0.3128615617752075,-10.116255760192871,5.133800983428955
1748142093364148200,3.352148193359375,0.7621139883995056,-9.926624298095703,5.227120876312256
1748142093382407200,3.3704072265625,0.9822536706924438,-8.535796165466309,5.209773063659668
1748142093400677000,3.388677001953125,0.016749758273363113,-8.739784240722656,6.8757758140563965
1748142093418941200,3.406941162109375,-1.83828604221344,-10.86281681060791,8.96231746673584
1748142093437205000,3.425205078125,-2.101496458053589,-12.67597770690918,9.67777156829834
1748142093455471000,3.44347119140625,0.6861419081687927,-12.851252555847168,7.978269100189209
1748142093473735200,3.461735107421875,1.0019944906234741,-14.46341609954834,7.147959232330322
1748142093491999200,3.479999267578125,-1.9663020372390747,-16.664813995361328,3.631108283996582
1748142093510264000,3.49826416015625,-1.970489501953125,-17.72124481201172,-0.17766708135604858
1748142093528528100,3.516528076171875,2.1720848083496094,-17.042280197143555,0.14895321428775787
1748142093546792000,3.5347919921875,3.332603693008423,-17.076976776123047,-1.555932879447937
1748142093565057500,3.5530576171875,1.064207911491394,-16.28435516357422,-4.706682205200195
1748142093583324000,3.571323974609375,-2.3024935722351074,-11.26062297821045,-3.697509288787842
1748142093601581300,3.589581298828125,-2.600399971008301,-7.756932735443115,-0.6448656916618347
1748142093619852000,3.60785205078125,-1.0145567655563354,-6.8141608238220215,0.05563312768936157
1748142093638109700,3.626109619140625,0.08793623000383377,-6.471987247467041,1.2831511497497559
1748142093656376600,3.64437646484375,0.8662018179893494,-5.819344520568848,2.2677977085113525
1748142093674643500,3.6626435546875,1.794616937637329,-4.811367988586426,3.486342668533325
1748142093692909300,3.680909423828125,1.9579271078109741,-4.099503517150879,4.524827480316162
1748142093711173400,3.69917333984375,0.4707878530025482,-4.267599105834961,5.608776092529297
1748142093729438500,3.7174384765625,-0.7106683254241943,-5.359922885894775,4.773082733154297
1748142093747702300,3.735702392578125,-0.23030917346477509,-5.605186939239502,2.5286152362823486
1748142093765967600,3.753967529296875,0.6173482537269592,-4.2795634269714355,1.3806586265563965
1748142093784231400,3.7722314453125,0.6592226624488831,-3.45882511138916,-0.2679961323738098
1748142093802496500,3.79049658203125,0.2231307178735733,-3.1627132892608643,-1.2137593030929565
1748142093820760600,3.808760498046875,-0.5168496966362,-3.026322364807129,-1.4943177700042725
1748142093839025200,3.827025146484375,-1.0109676122665405,-3.679563045501709,-1.4991034269332886
1748142093857288000,3.845287841796875,-1.506281852722168,-5.743372440338135,-1.5391831398010254
1748142093875555000,3.86355517578125,-3.635295867919922,-8.991629600524902,-0.23330020904541016
1748142093893812700,3.881812744140625,-9.7998046875,-12.91765308380127,3.586242914199829
1748142093912068400,3.900068359375,-26.210979461669922,-17.319849014282227,12.884751319885254
1748142093930344400,3.918344482421875,-15.075979232788086,-20.549560546875,14.8408842086792
1748142093948612400,3.9366123046875,-7.524828910827637,-15.120844841003418,7.944769382476807
1748142093966876700,3.954876708984375,-6.269195556640625,-6.834499835968018,4.481756687164307
1748142093985141500,3.9731416015625,-9.146564483642578,-3.1453654766082764,1.2317054271697998
1748142094003406300,3.99140625,1.3154542446136475,-1.2095718383789062,0.8333004713058472
1748142094021665800,4.009665771484375,5.818746566772461,0.10767702013254166,-0.6711867451667786
1748142094039934500,4.0279345703125,7.956135272979736,-3.70767879486084,-0.7722834944725037
1748142094058199600,4.046199462890625,6.626922130584717,-17.082361221313477,0.617946445941925
1748142094076463900,4.0644638671875,5.4071807861328125,-37.414772033691406,6.818347930908203
1748142094094728400,4.082728515625,4.003790378570557,-34.11985778808594,9.284749984741211
1748142094112993000,4.100992919921875,-2.5226333141326904,-11.821142196655273,4.270590305328369
1748142094131257600,4.119257568359375,-3.6287155151367188,-5.92223596572876,1.4739787578582764
1748142094149517000,4.13751708984375,0.02871387079358101,-5.103890895843506,0.4289134442806244
1748142094167785700,4.15578564453125,1.2598211765289307,-3.955335855484009,0.21296121180057526
1748142094186052000,4.174052001953125,2.609373092651367,-4.95493745803833,-0.666999340057373
1748142094204316000,4.19231591796875,3.972683906555176,-10.509875297546387,-0.39062830805778503
1748142094222580000,4.210580078125,3.2093734741210938,-12.5683012008667,-0.5593222975730896
1748142094240845000,4.228844970703125,-0.6442674994468689,-9.647860527038574,-1.795215129852295
1748142094259108600,4.247108642578125,-3.882952928543091,-6.6729841232299805,-1.568495273590088
1748142094277369600,4.26536962890625,-4.009772777557373,-4.667200565338135,-0.10169496387243271
1748142094295637800,4.2836376953125,-3.2404799461364746,-4.6887359619140625,1.9244276285171509
1748142094313903000,4.301903076171875,-2.3988046646118164,-6.0502519607543945,4.59421968460083
1748142094332167200,4.320167236328125,-0.7962117195129395,-7.724031448364258,6.678368091583252
1748142094350432300,4.338432373046875,0.9559326171875,-8.677571296691895,6.32363224029541
1748142094368696300,4.3566962890625,1.8436698913574219,-8.093722343444824,5.375475883483887
1748142094386961000,4.3749609375,1.657029628753662,-7.252645492553711,3.789632797241211
1748142094405220900,4.393220947265625,-0.582054078578949,-8.097311973571777,3.181257724761963
1748142094423489000,4.411489013671875,-2.940778970718384,-10.74138069152832,3.493520975112915
1748142094441772000,4.42977197265625,-1.5912270545959473,-12.565908432006836,5.663811206817627
1748142094460019500,4.44801953125,0.1136590763926506,-12.008380889892578,6.942774772644043
1748142094478283500,4.466283447265625,0.714257538318634,-9.65503978729248,6.681957244873047
1748142094496548000,4.484548095703125,0.4450650215148926,-8.408976554870605,7.759923934936523
1748142094514811400,4.502811279296875,-1.8221344947814941,-10.226325988769531,8.81934642791748
1748142094533078500,4.52107861328125,-3.686143398284912,-12.905689239501953,10.211370468139648
1748142094551330000,4.539330078125,-1.3244273662567139,-13.630115509033203,9.004789352416992
1748142094569606100,4.557606201171875,1.5553346872329712,-13.473984718322754,5.411966800689697
1748142094597001200,4.585001220703125,0.7728816866874695,-15.794424057006836,3.62153697013855
1748142094615268600,4.6032685546875,-1.3334003686904907,-18.436100006103516,1.7234305143356323
1748142094633532200,4.6215322265625,-2.7080769538879395,-20.11705780029297,-1.0929217338562012
1748142094651791600,4.63979150390625,-0.8189435601234436,-16.92922019958496,-0.9535398483276367
1748142094670061800,4.658061767578125,-0.3248256742954254,-12.997812271118164,-0.5377869009971619
1748142094688326100,4.676326171875,-0.20458634197711945,-10.438090324401855,-0.4821537733078003
1748142094706585000,4.694585205078125,0.7830511927604675,-8.62732219696045,0.35054850578308105
1748142094724853800,4.712853759765625,2.0608184337615967,-7.516454219818115,1.6839489936828613
1748142094743120400,4.731120361328125,2.8971099853515625,-6.550950050354004,2.410170555114746
1748142094761379800,4.7493798828125,2.7218358516693115,-5.134997367858887,2.4029922485351562
1748142094779648500,4.7676484375,1.685145378112793,-4.184448719024658,2.5501506328582764
1748142094797912800,4.785912841796875,-3.046661376953125,-3.5054850578308105,5.044070243835449
1748142094816177200,4.80417724609375,-3.6508491039276123,-3.872185230255127,6.221338748931885
1748142094834442200,4.822442138671875,0.19381862878799438,-5.121238708496094,5.082355499267578
1748142094852706300,4.840706298828125,1.7389838695526123,-6.236892223358154,2.5710878372192383
1748142094870971400,4.858971435546875,1.031306505203247,-5.835496425628662,-0.267397940158844
1748142094889235200,4.877235107421875,1.2580264806747437,-4.692325115203857,-1.0845468044281006
1748142094907500300,4.895500244140625,1.2023934125900269,-3.675973892211914,-2.0057835578918457
1748142094925764900,4.913764892578125,0.3439682424068451,-2.9455647468566895,-2.820539712905884
1748142094944029400,4.932029541015625,-0.42412781715393066,-2.7140591144561768,-3.1106693744659424
1748142094962288600,4.95028857421875,-1.9387845993041992,-4.089334011077881,-3.204587697982788
1748142094980557000,4.96855712890625,-5.663212776184082,-7.871190071105957,-1.3657035827636719
1748142094998823000,4.986822998046875,-21.735204696655273,-16.623537063598633,3.535395383834839
1748142095017087500,5.00508740234375,-17.39282989501953,-26.614768981933594,23.73799705505371
1748142095035348700,5.0233486328125,-10.112068176269531,-24.614967346191406,17.115262985229492
1748142095053616000,5.0416162109375,-8.900103569030762,-8.924032211303711,9.300901412963867
1748142095071876600,5.059876708984375,-6.314060688018799,-3.6526436805725098,2.554338216781616
1748142095090145800,5.078145751953125,-0.4576273262500763,-5.976672649383545,-1.77607262134552
1748142095108409600,5.09640966796875,9.838688850402832,-8.123034477233887,2.8905298709869385
1748142095126674700,5.1146748046875,9.208778381347656,-14.932409286499023,2.489732027053833
1748142095144939300,5.132939208984375,2.944368362426758,-14.447264671325684,1.389631748199463
1748142095163203600,5.15120361328125,-4.411766529083252,-13.457234382629395,1.789831280708313
1748142095181468000,5.169468017578125,-7.410571575164795,-10.25204849243164,-1.537388563156128
1748142095199732700,5.187732666015625,0.32303106784820557,-6.664609432220459,-1.587039589881897
1748142095217993500,5.205993408203125,3.7633118629455566,-5.587240695953369,-0.2350948303937912
1748142095236260000,5.224260009765625,3.5294134616851807,-6.440880298614502,1.2089736461639404
1748142095254528300,5.2425283203125,3.7112679481506348,-9.125029563903809,1.7497515678405762
1748142095272788000,5.2607880859375,2.7218358516693115,-11.068000793457031,2.2989044189453125
1748142095291058400,5.279058349609375,1.9926230907440186,-10.48534870147705,2.0865414142608643
1748142095309320400,5.297320556640625,0.8392825126647949,-8.6033935546875,1.685145378112793
1748142095327584300,5.315584228515625,-2.1678972244262695,-7.064210414886475,1.2729816436767578
1748142095345849000,5.33384912109375,-4.0803608894348145,-6.533003807067871,1.2346965074539185
1748142095364113400,5.352113525390625,-2.169692039489746,-7.121040344238281,2.4777679443359375
1748142095382373600,5.37037353515625,0.6430711150169373,-8.288737297058105,2.8049862384796143
1748142095400642600,5.388642578125,1.8741782903671265,-8.361120223999023,2.6159534454345703
1748142095418907000,5.406906982421875,1.4847464561462402,-7.518248558044434,2.3018953800201416
1748142095437171000,5.4251708984375,-1.303490161895752,-6.930212497711182,3.1746773719787598
1748142095455437300,5.443437255859375,-2.661417007446289,-6.989434719085693,4.23948335647583
1748142095473695700,5.46169580078125,-0.900897741317749,-8.399405479431152,4.190430641174316
1748142095491964000,5.4799638671875,-0.6454638838768005,-9.996614456176758,3.7956149578094482
1748142095519357700,5.507357666015625,-2.4257240295410156,-11.6183500289917,2.8498518466949463
1748142095537625300,5.525625244140625,-1.2681959867477417,-11.903096199035645,3.9804604053497314
1748142095555882800,5.5438828125,0.6616154313087463,-11.151749610900879,5.139782905578613
1748142095574155500,5.562155517578125,1.5433706045150757,-10.676176071166992,5.678766250610352
1748142095592420900,5.5804208984375,-0.6436693072319031,-12.199806213378906,6.049654006958008
1748142095610684700,5.5986845703125,-6.99541711807251,-15.381064414978027,6.355337142944336
1748142095628949800,5.61694970703125,-3.3589248657226562,-15.007184982299805,8.906683921813965
1748142095647212300,5.63521240234375,-0.9152546525001526,-12.393026351928711,6.585646152496338
1748142095665480000,5.65347998046875,0.49172505736351013,-12.395419120788574,6.065805435180664
1748142095683743000,5.671742919921875,1.657029628753662,-13.441082954406738,6.033502101898193
1748142095702007800,5.6900078125,2.523829698562622,-16.04387664794922,5.525625705718994
1748142095720272000,5.70827197265625,2.8450660705566406,-18.896718978881836,3.014956474304199
1748142095738537000,5.726536865234375,0.8488538265228271,-20.318056106567383,1.323829174041748
1748142095756799200,5.74479931640625,-3.2751760482788086,-17.909080505371094,1.3986048698425293
1748142095775062300,5.763062255859375,-0.11425728350877762,-14.386247634887695,-1.908276081085205
1748142095793329200,5.7813291015625,1.1820544004440308,-9.257830619812012,-3.1375887393951416
1748142095811590000,5.79958984375,1.1042876243591309,-5.613562107086182,-2.0512471199035645
1748142095829860600,5.817860595703125,1.1820544004440308,-3.6233317852020264,-0.7621139883995056
1748142095848124400,5.83612451171875,2.0931215286254883,-2.296511650085449,0.6149554252624512
1748142095866383600,5.854383544921875,2.8773691654205322,-1.534995675086975,1.805384635925293
1748142095884653600,5.872653564453125,2.235494613647461,-1.303490161895752,2.4191436767578125
1748142095902917000,5.890917236328125,2.35872483253479,-1.8502501249313354,2.7912275791168213
1748142095921182500,5.909182373046875,0.5778666734695435,-2.3120648860931396,3.468994617462158
1748142095939446300,5.9274462890625,-0.9170492887496948,-2.5812573432922363,1.7306089401245117
1748142095957710800,5.9457109375,1.2759727239608765,-2.441277265548706,-1.4781662225723267
1748142095975975400,5.963975341796875,1.8376877307891846,-1.841277003288269,-2.913261651992798
1748142095994240800,5.98224072265625,0.9966106414794922,-1.5194423198699951,-3.881756544113159
1748142096012504600,6.000504638671875,-0.2997010350227356,-2.4011974334716797,-3.4785659313201904
1748142096030758400,6.01875830078125,-15.338591575622559,-8.831310272216797,0.5054838061332703
1748142096049031400,6.037031494140625,-27.264419555664062,-23.58844566345215,26.867809295654297
1748142096067285500,6.055285400390625,-11.898310661315918,-32.90071487426758,16.60020637512207
1748142096085564000,6.07356396484375,-10.183255195617676,-13.543973922729492,11.34377384185791
1748142096103826400,6.091826416015625,-7.3675007820129395,-4.126422882080078,3.9284164905548096
1748142096122092800,6.1100927734375,0.6957131624221802,-4.8813581466674805,-4.1491546630859375
1748142096140351700,6.128351806640625,8.911469459533691,-8.074580192565918,-4.817350387573242
1748142096158620700,6.14662060546875,10.864611625671387,-12.626326560974121,-6.990033149719238
1748142096176885800,6.1648857421875,-8.511868476867676,-14.733805656433105,-6.888338088989258
1748142096195150000,6.183150146484375,2.9108686447143555,-16.489538192749023,0.7890332937240601
1748142096213415200,6.201415283203125,2.6051857471466064,-15.190834999084473,2.2983062267303467
1748142096231674400,6.21967431640625,3.16749906539917,-11.274980545043945,1.412961721420288
1748142096249944000,6.237944091796875,2.706282377243042,-8.640482902526855,1.8915263414382935
1748142096268208000,6.2562080078125,1.9722840785980225,-7.420741081237793,2.349153518676758
1748142096286473000,6.274472900390625,1.6360924243927002,-6.953542709350586,2.661417007446289
1748142096304736000,6.292736083984375,1.0253244638442993,-6.632306098937988,2.366501569747925
1748142096323003400,6.31100341796875,0.0323031060397625,-5.426323413848877,2.303689956665039
1748142096341266400,6.329266357421875,-2.3126630783081055,-5.36769962310791,1.820937991142273
1748142096359531300,6.34753125,-5.705685615539551,-6.744170665740967,0.7214360237121582
1748142096377789700,6.365789794921875,-6.019145488739014,-8.785248756408691,0.8243274092674255
1748142096396061400,6.3840615234375,-3.759124279022217,-8.539385795593262,1.0827522277832031
1748142096414325500,6.402325439453125,-1.0821540355682373,-6.047859191894531,2.352742910385132
1748142096432590000,6.420590087890625,0.33080771565437317,-6.461817741394043,4.926821708679199
1748142096450836500,6.43883642578125,1.236491084098816,-7.007380962371826,5.053641319274902
1748142096469121300,6.457121337890625,2.4873390197753906,-6.989434719085693,5.246861934661865
1748142096487380000,6.4753798828125,1.6474584341049194,-7.712067604064941,6.318846225738525
1748142096505647900,6.49364794921875,-11.742178916931152,-11.684751510620117,9.336793899536133
1748142096523912000,6.511911865234375,-9.515059471130371,-13.192229270935059,8.9850492477417
1748142096542177000,6.530177001953125,-3.9906299114227295,-12.384053230285645,4.378267288208008
1748142096560440800,6.54844091796875,-5.0907301902771,-12.086745262145996,-0.7076773047447205
1748142096578706200,6.5667060546875,-5.458028316497803,-11.762517929077148,-0.9840483069419861
1748142096596969000,6.584968994140625,-1.933998942375183,-13.12523078918457,5.075775146484375
1748142096615236400,6.603236328125,-0.24107688665390015,-15.568900108337402,8.267800331115723
1748142096633494500,6.62149462890625,2.2606191635131836,-17.348562240600586,7.150352478027344
1748142096651752700,6.639752685546875,5.3904314041137695,-20.651256561279297,5.9814581871032715
1748142096670028300,6.6580283203125,5.519643783569336,-24.294925689697266,6.205785751342773
1748142096688293600,6.676293701171875,4.953741073608398,-28.021747589111328,5.54177713394165
1748142096706557700,6.6945576171875,-5.121238708496094,-31.91187858581543,5.099104881286621
1748142096724821200,6.7128212890625,-8.277970314025879,-23.256441116333008,4.334000110626221
1748142096743087400,6.73108740234375,-3.9661035537719727,-17.74457359313965,11.061420440673828
1748142096761347300,6.749347412109375,-5.096114158630371,-16.515262603759766,16.981863021850586
1748142096779615700,6.76761572265625,-1.7270197868347168,-15.326626777648926,12.930215835571289
1748142096797880600,6.785880615234375,1.8628123998641968,-10.7766752243042,7.643871784210205
1748142096816143600,6.8041435546875,5.338985443115234,-5.603392601013184,1.7796618938446045
1748142096834411000,6.822410888671875,6.343372821807861,-2.6075785160064697,-2.134995937347412
1748142096852673500,6.840673583984375,5.66620397567749,-1.0372886657714844,-2.51425838470459
1748142096870939000,6.85893896484375,5.821737289428711,0.4301098585128784,-1.685145378112793
1748142096889195800,6.87719580078125,9.680164337158203,1.731805443763733,-3.245863914489746
1748142096907469000,6.895468994140625,13.103096961975098,4.692923545837402,-6.032904148101807
1748142096925733400,6.9137333984375,11.71286678314209,7.0923261642456055,-8.259425163269043
1748142096943997200,6.9319970703125,1.0205388069152832,11.201400756835938,-4.858626365661621
1748142096962261200,6.95026123046875,-2.1960129737854004,4.651647090911865,-5.372485160827637
1748142096980526300,6.9685263671875,-12.844073295593262,-1.521835207939148,-7.7832536697387695
1748142096998789000,6.9867890625,-23.78884506225586,-8.901898384094238,-3.2165517807006836
1748142097017055200,7.00505517578125,-18.13400650024414,-13.121641159057617,0.5670989751815796
1748142097035320600,7.023320556640625,-3.3074791431427,-5.910272121429443,0.07178468257188797
1748142097053584100,7.041584228515625,6.92901611328125,-3.8147575855255127,-6.4666032791137695
1748142097071843800,7.05984375,4.41057014465332,-12.455838203430176,-12.714860916137695
1748142097090113500,7.078113525390625,-2.1361923217773438,-27.622745513916016,-15.854244232177734
1748142097108372500,7.09637255859375,6.493522644042969,-22.917856216430664,-5.2253265380859375
1748142097126642700,7.114642578125,7.345367431640625,-18.662221908569336,1.9722840785980225
1748142097144901600,7.132901611328125,5.351547718048096,-18.449859619140625,-1.3854442834854126
1748142097163170800,7.1511708984375,8.769695281982422,-26.257041931152344,-2.2504496574401855
1748142097181441300,7.169441162109375,8.263014793395996,-34.6486701965332,8.552546501159668
1748142097199701000,7.187700927734375,3.3966116905212402,-37.88137435913086,14.880964279174805
1748142097217964500,7.205964599609375,-2.183450698852539,-32.898319244384766,18.511474609375
1748142097236230100,7.224230224609375,-12.41276741027832,-21.12443733215332,32.2432861328125
1748142097254493700,7.24249365234375,-45.396629333496094,-9.824930191040039,29.528627395629883
1748142097272759300,7.26075927734375,-11.062019348144531,-4.270590305328369,13.58764362335205
1748142097291022800,7.27902294921875,6.2500529289245605,-5.62373161315918,9.028120040893555
1748142097309288200,7.2972880859375,3.658625841140747,-5.023132801055908,6.390032768249512
1748142097327552000,7.315552001953125,0.7010970115661621,-2.820539712905884,3.960719585418701
1748142097345816600,7.333816650390625,0.2147558331489563,-0.1824527233839035,2.1194427013397217
1748142097364082200,7.352082275390625,0.7752745151519775,1.8855443000793457,1.4081761837005615
1748142097382342400,7.37034228515625,-7.437490940093994,4.4751763343811035,0.5832505226135254
1748142097400605400,7.38860546875,-7.855038642883301,3.683152198791504,-1.0761719942092896
1748142097418874400,7.406874267578125,0.02751746028661728,1.1365907192230225,-2.2642083168029785
1748142097437139700,7.4251396484375,0.14835500717163086,0.28115665912628174,-2.2707886695861816
1748142097455406300,7.44340625,-1.5194423198699951,-0.1908276081085205,-2.301297187805176
1748142097473668900,7.4616689453125,0.9230313301086426,-1.3411771059036255,0.7148557901382446
1748142097491934000,7.479933837890625,0.4654040038585663,-1.7138592004776,1.5427724123001099
1748142097510197800,7.49819775390625,-5.8061842918396,-7.875377655029297,7.941778182983398
1748142097528462800,7.516462890625,-14.422738075256348,-52.30889892578125,15.607185363769531
1748142097546724900,7.534724853515625,3.4133615493774414,-82.12346649169922,9.934999465942383
1748142097564994300,7.552994384765625,-14.769698143005371,-36.70829391479492,12.335000991821289
1748142097583256000,7.571256103515625,-9.163912773132324,-17.990436553955078,11.823534965515137
1748142097601522400,7.5895224609375,1.48055899143219,-11.894721031188965,9.173483848571777
1748142097619784000,7.607783935546875,2.475374937057495,-8.626724243164062,8.549555778503418
1748142097638051600,7.626051513671875,1.9022940397262573,-5.656632900238037,5.867201328277588
1748142097656313900,7.64431396484375,2.565704107284546,-3.139981508255005,0.07238288223743439
1748142097674578200,7.662578125,3.1657042503356934,-2.155933141708374,-2.1230318546295166
1748142097692844500,7.680844482421875,2.38983154296875,-1.511067509651184,-2.196611166000366
1748142097711108600,7.699108642578125,1.8059829473495483,0.05503492057323456,-1.4949159622192383
1748142097729367800,7.717367919921875,3.7501513957977295,1.1958130598068237,-0.8422735929489136
1748142097747633000,7.7356328125,4.325624942779541,2.1332013607025146,-1.334596872329712
1748142097765901600,7.753901611328125,6.475576400756836,2.668595552444458,-3.510270833969116
1748142097784167000,7.7721669921875,4.794618606567383,3.493520975112915,-3.0173492431640625
1748142097802431000,7.790430908203125,1.7575281858444214,8.46461009979248,0.17647066712379456
1748142097820696000,7.808696044921875,0.02273181453347206,5.721837043762207,-0.16271193325519562
1748142097838959600,7.826959716796875,1.1001001596450806,2.2295124530792236,-0.9403793215751648
1748142097857223700,7.8452236328125,-39.332618713378906,-9.17467975616455,-2.723630428314209
1748142097875490000,7.863489990234375,-6.168098449707031,-5.849255084991455,-0.2949153780937195
1748142097893754400,7.88175439453125,1.6414763927459717,-0.8464609980583191,-0.9840483069419861
1748142097912018200,7.90001806640625,3.7190446853637695,-3.4468610286712646,-3.9529430866241455
1748142097930283000,7.918282958984375,5.952744483947754,-10.50808048248291,-6.2536420822143555
1748142097948547600,7.936547607421875,6.117250919342041,-39.268611907958984,-9.21715259552002
1748142097966808000,7.95480810546875,8.234899520874023,-48.34339141845703,-1.5391831398010254
1748142097985080600,7.97308056640625,1.5248262882232666,-28.759334564208984,7.905886173248291
1748142098003343600,7.991343505859375,0.47617170214653015,-23.647069931030273,9.948160171508789
1748142098021600800,8.009600830078124,0.5862415432929993,-21.671794891357422,8.860024452209473
1748142098039870700,8.02787060546875,1.0301101207733154,-19.322641372680664,9.015557289123535
1748142098058134300,8.04613427734375,-6.884150981903076,-16.549957275390625,27.144180297851562
1748142098076406000,8.064406005859375,-19.812570571899414,-11.501102447509766,35.91267776489258
1748142098094664000,8.082663818359375,-14.073984146118164,-4.8466620445251465,21.987049102783203
1748142098112928800,8.1009287109375,-1.7868403196334839,-5.678766250610352,11.84865951538086
1748142098131192600,8.119192626953126,2.1415762901306152,-5.7756757736206055,8.075776100158691
1748142098149458000,8.1374580078125,-2.7667012214660645,-3.497708559036255,4.201198577880859
1748142098167722000,8.155721923828125,-10.043872833251953,0.3978067636489868,1.26699960231781
1748142098185974800,8.173974853515626,-2.1134605407714844,1.4063814878463745,3.7812578678131104
1748142098204251000,8.1922509765625,2.246262311935425,2.197807550430298,3.122633457183838
1748142098222504000,8.21050390625,-1.5284154415130615,3.297907829284668,2.017747640609741
1748142098240779300,8.228779296875,-4.386044025421143,2.816352367401123,-0.3439682424068451
1748142098259034400,8.247034423828126,0.0891326442360878,0.6424728631973267,-1.7724833488464355
1748142098277308200,8.26530810546875,1.0785647630691528,-0.09810572862625122,-1.8807586431503296
1748142098295575600,8.283575439453125,0.7076773047447205,-0.9696913957595825,-0.07357929646968842
1748142098313838300,8.30183837890625,0.3732803463935852,-1.6187444925308228,0.9212366938591003
1748142098332103400,8.320103515625,-0.251844584941864,-3.4953157901763916,3.837489366531372
1748142098350363000,8.33836279296875,-11.112268447875977,-22.61875343322754,18.636499404907227
1748142098368632300,8.35663232421875,-10.719246864318848,-70.04389953613281,18.458234786987305
1748142098386896600,8.374896728515624,-6.814758777618408,-51.60600662231445,10.149157524108887
1748142098405161500,8.393161376953126,-7.697112083435059,-21.15853500366211,17.042879104614258
1748142098423425800,8.41142578125,-4.865206718444824,-12.401999473571777,18.699310302734375
1748142098441686500,8.4296865234375,0.7812566161155701,-8.818747520446777,18.443279266357422
1748142098459955200,8.447955078125,-1.8418751955032349,-4.811966419219971,16.82872200012207
1748142098478219800,8.4662197265625,0.04307080805301666,-2.118844509124756,5.101497650146484
1748142098496483800,8.48448388671875,3.2542388439178467,-2.369492530822754,-0.841675341129303
1748142098514744300,8.502744384765625,3.9182469844818115,-3.551547050476074,-2.6141586303710938
1748142098533012000,8.521011962890626,2.809173822402954,-2.9377880096435547,-2.1756739616394043
1748142098551279000,8.539279052734376,2.6350958347320557,-1.6444673538208008,-1.2263215780258179
1748142098569542100,8.557542236328125,4.4512481689453125,-0.3326023519039154,-0.7262216806411743
1748142098587806200,8.57580615234375,7.761718273162842,1.394417405128479,-2.6297121047973633
1748142098606072600,8.594072509765626,8.743971824645996,1.8975083827972412,-3.7698919773101807
1748142098624340000,8.612340087890624,6.918248653411865,4.800002098083496,-1.714457392692566
1748142098642600700,8.6306005859375,6.250650882720947,7.09711217880249,-3.1064820289611816
1748142098660865800,8.64886572265625,0.2721835672855377,1.9387845993041992,-1.1539387702941895
1748142098679129600,8.667129638671875,-20.7242374420166,-6.799205780029297,4.72881555557251
1748142098697391000,8.68539111328125,-22.242483139038086,-6.352345943450928,9.524630546569824
1748142098715658800,8.70365869140625,-0.9266205430030823,-3.697509288787842,1.7341982126235962
1748142098733923800,8.721923828125,13.141382217407227,-9.888937950134277,-11.3240327835083
1748142098752187600,8.740187744140625,9.828518867492676,-18.178274154663086,-15.111871719360352
1748142098770448400,8.758448486328126,-0.9840483069419861,-27.792036056518555,-11.108080863952637
1748142098788716000,8.776716064453124,-3.9314076900482178,-25.194028854370117,-1.144965648651123
1748142098806982400,8.794982421875,2.582453727722168,-19.356739044189453,1.8957136869430542
1748142098825247500,8.81324755859375,5.2253265380859375,-22.010976791381836,1.5750755071640015
1748142098843511300,8.83151123046875,7.1270222663879395,-28.398019790649414,4.575077056884766
1748142098880040400,8.86804052734375,2.0608184337615967,-27.088546752929688,11.412567138671875
1748142098898304500,8.886304443359375,-0.49710890650749207,-22.322044372558594,9.947562217712402
1748142098916569600,8.904569580078125,8.070392608642578,-20.199609756469727,22.80180549621582
1748142098934834700,8.922834716796874,-30.945777893066406,-16.08515167236328,35.404205322265625
1748142098953097500,8.941097412109375,-30.512676239013672,-6.130411624908447,25.12523651123047
1748142098971358000,8.95935791015625,2.5196423530578613,-1.2975081205368042,8.866005897521973
1748142098989628200,8.977628173828125,2.248655080795288,-2.6979074478149414,7.740182876586914
1748142099007889000,8.995888916015625,0.8303094506263733,-1.9746768474578857,6.463014125823975
1748142099026155300,9.0141552734375,-1.965105652809143,2.736790895462036,5.528616905212402
1748142099044417500,9.03241748046875,-3.869194269180298,7.396214962005615,6.160920143127441
1748142099062689500,9.050689453125,-0.2667997181415558,4.3896331787109375,2.6530420780181885
1748142099080950000,9.068949951171875,1.6947166919708252,2.056631088256836,0.397208571434021
1748142099099215000,9.087215087890625,1.9178473949432373,1.2095718383789062,-0.5802595019340515
1748142099117474300,9.105474365234375,1.6145570278167725,0.7926225066184998,-0.9960124492645264
1748142099135744500,9.12374462890625,0.6424728631973267,-0.503689169883728,-0.07776673883199692
1748142099156248800,9.144248779296875,0.529412031173706,-2.3371894359588623,-0.2949153780937195
1748142099174545400,9.16254541015625,0.6502495408058167,-4.151547431945801,2.2402801513671875
1748142099192823300,9.1808232421875,3.2919256687164307,-23.481964111328125,12.06640625
1748142099211081700,9.199081787109375,-24.771099090576172,-94.91669464111328,19.00379753112793
1748142099229346000,9.217345947265626,-14.477174758911133,-47.9049072265625,20.992233276367188
1748142099247615700,9.23561572265625,-7.356733322143555,-17.50409507751465,14.906088829040527
1748142099265880000,9.253880126953124,1.6713865995407104,-7.545766353607178,10.02712345123291
1748142099284144600,9.27214453125,0.7256234884262085,-3.2548370361328125,9.196215629577637
1748142099302404400,9.290404296875,-2.651247501373291,0.8159525394439697,12.941581726074219
1748142099320673300,9.30867333984375,0.23808585107326508,1.3310075998306274,5.807380676269531
1748142099338939100,9.326939208984374,3.6460635662078857,-1.3052847385406494,-0.9236295223236084
1748142099357203000,9.345202880859375,3.4396824836730957,-2.8941190242767334,-2.6039891242980957
1748142099375467800,9.3634677734375,3.2338998317718506,-2.6297121047973633,-1.622931957244873
1748142099393732000,9.381732177734374,4.43330192565918,-0.8793623447418213,0.3888336718082428
1748142099411996700,9.39999658203125,9.345169067382812,0.5078766345977783,-1.2556337118148804
1748142099430261200,9.41826123046875,8.985647201538086,1.1282159090042114,-2.92283296585083
1748142099448520400,9.4365205078125,8.683553695678711,3.2889347076416016,-2.282752752304077
1748142099466791200,9.454791259765624,4.651647090911865,3.7322051525115967,-1.6947166919708252
1748142099485058800,9.473058837890624,1.6313068866729736,1.4841482639312744,-2.0518453121185303
1748142099503319600,9.491319580078125,-1.6169499158859253,-1.6815561056137085,-0.6634100675582886
1748142099521584000,9.509584228515624,-22.51227378845215,-7.227520942687988,8.258827209472656
1748142099539848700,9.5278486328125,-5.338985443115234,-3.6837503910064697,3.7046875953674316
1748142099558109000,9.54610888671875,0.6370890140533447,-4.638486862182617,-1.9848463535308838
1748142099576377300,9.56437744140625,4.9262237548828125,-11.187044143676758,-8.623732566833496
1748142099594643000,9.582642822265624,5.080560684204102,-15.316457748413086,-8.990432739257812
1748142099612907000,9.600906982421876,-0.7058826684951782,-32.8438835144043,-7.861020565032959
1748142099631171600,9.619171630859375,1.6983058452606201,-21.409780502319336,1.2029916048049927
1748142099649424600,9.637424560546876,2.0398812294006348,-19.526031494140625,4.212564468383789
1748142099667700700,9.65570068359375,3.991826295852661,-29.06920623779297,7.374081134796143
1748142099685965300,9.67396533203125,6.570691108703613,-31.698320388793945,15.63111400604248
1748142099704230000,9.69222998046875,1.3244273662567139,-28.24248504638672,11.751749992370605
1748142099722494000,9.710493896484374,-0.7292127013206482,-23.618356704711914,8.331808090209961
1748142099740759300,9.72875927734375,5.385047435760498,-19.557138442993164,19.764116287231445
1748142099759023400,9.7470234375,-42.241695404052734,-12.39841079711914,36.145381927490234
1748142099777288000,9.765287841796875,-18.37687873840332,-5.791228771209717,19.913667678833008
1748142099795553800,9.7835537109375,7.344171047210693,-2.734398126602173,11.038688659667969
1748142099813815800,9.80181591796875,6.1226348876953125,-1.4291132688522339,6.690930366516113
1748142099832076000,9.820075927734376,0.1339980661869049,-1.9878374338150024,5.182255744934082
1748142099850347000,9.838346923828125,-1.3848460912704468,0.6299105882644653,4.135993957519531
1748142099868610800,9.85661083984375,-8.052446365356445,4.965106964111328,6.13699197769165
1748142099886875400,9.87487548828125,-1.8951154947280884,4.42612361907959,2.8002007007598877
1748142099905135000,9.893135009765626,1.3298112154006958,1.8897316455841064,0.02392822690308094
1748142099923404800,9.91140478515625,2.5232315063476562,0.6783652305603027,-1.1581261157989502
1748142099941669000,9.929669189453126,2.0315065383911133,0.1459621787071228,-1.3405789136886597
1748142099959933700,9.94793359375,0.5312066078186035,-1.1096714735031128,-1.212562918663025
1748142099978198500,9.966198486328125,-0.6699903607368469,-2.2025933265686035,-0.7663014531135559
1748142099996462800,9.984462890625,-0.7549355626106262,-3.899702787399292,1.4554343223571777
1748142100014727000,10.002726806640625,-16.17906951904297,-23.64647102355957,12.616157531738281
1748142100032992800,10.02099267578125,-12.63589859008789,-70.6115951538086,13.437493324279785
1748142100051256300,10.03925634765625,-6.043671607971191,-57.047882080078125,9.914660453796387
1748142100069516500,10.0575166015625,-7.149155616760254,-23.516063690185547,17.078771591186523
1748142100087773400,10.0757734375,0.7310073375701904,-11.297712326049805,11.878569602966309
1748142100115178000,10.103177978515625,4.758127689361572,-7.548159122467041,8.073982238769531
1748142100133447700,10.12144775390625,-4.261617183685303,-4.015156269073486,12.799806594848633
1748142100151712500,10.13971240234375,-2.971287488937378,0.062213387340307236,5.151747226715088
1748142100169976300,10.157976318359376,0.8177471160888672,0.09451649338006973,-1.3465609550476074
1748142100188227800,10.176227783203124,3.758526086807251,-2.6362924575805664,-3.014956474304199
1748142100206521000,10.19452099609375,3.1968109607696533,-2.424527645111084,-2.3018953800201416
1748142100224759000,10.212759033203126,2.179861545562744,-1.275374412536621,-0.8871390223503113
1748142100243035100,10.23103515625,2.263011932373047,-0.4181457459926605,0.3846462368965149
1748142100261299200,10.24929931640625,2.084148406982422,0.38763725757598877,0.794417142868042
1748142100279560400,10.267560546875,8.151150703430176,2.4161527156829834,-1.6307085752487183
1748142100297828400,10.285828369140624,9.742975234985352,4.17427921295166,-4.466801643371582
1748142100316088600,10.304088623046875,8.081160545349121,3.8333017826080322,-6.052644729614258
1748142100361753900,10.34975390625,-31.25624656677246,-10.076175689697266,10.879566192626953
1748142100380018400,10.368018310546875,-9.367900848388672,-6.333801746368408,6.5874409675598145
1748142100398283300,10.386283203125,5.559723377227783,-8.706883430480957,-5.333003520965576
1748142100416542700,10.404542724609374,15.25903034210205,-17.59023666381836,-16.859230041503906
1748142100434812400,10.4228125,-1.327418327331543,-34.04926681518555,-5.174479007720947
1748142100453073000,10.441072998046875,-5.318646430969238,-30.834510803222656,-0.05144568532705307
1748142100471341600,10.459341552734376,-5.245067119598389,-14.817554473876953,5.911468505859375
1748142100489601800,10.477601806640624,-0.631106972694397,-8.520841598510742,4.421338081359863
1748142100507870700,10.49587060546875,1.703689694404602,-16.59661865234375,8.182256698608398
1748142100526135000,10.514135009765624,6.176473617553711,-28.637300491333008,12.603594779968262
1748142100553531600,10.54153173828125,3.281157970428467,-28.80061149597168,12.52463150024414
1748142100571798300,10.55979833984375,14.435300827026367,-19.61097526550293,19.428524017333984
1748142100590058200,10.578058349609375,1.9471594095230103,-16.495521545410156,23.84986114501953
1748142100608326000,10.596325927734375,-55.68995666503906,-13.483555793762207,20.21456527709961
1748142100626590000,10.61458984375,-11.61117172241211,-9.204590797424316,15.4091796875
1748142100644854800,10.632854736328126,8.418548583984375,-7.322037220001221,11.303693771362305
1748142100688233200,10.676233154296876,0.8105686902999878,-1.2915260791778564,3.326023578643799
1748142100706497800,10.694497802734375,-2.0709879398345947,2.2887349128723145,2.2618155479431152
1748142100724761600,10.71276171875,-6.295516490936279,4.7030930519104,2.3270199298858643
1748142100743027000,10.73102685546875,-2.050050735473633,3.5473594665527344,0.9864411354064941
1748142100761290500,10.74929052734375,1.222732424736023,1.5738791227340698,-0.5395814776420593
1748142100779556000,10.76755615234375,1.4841482639312744,0.5886343717575073,-1.1874382495880127
1748142100797818400,10.785818359375,-0.030508488416671753,0.17347964644432068,-1.1748759746551514
1748142100816083000,10.8040830078125,-0.2745763957500458,-0.7034898400306702,0.0771685317158699
1748142100827570200,10.815570068359374,0.29730820655822754,-1.4901303052902222,0.849452018737793
1748142100845765600,10.833765625,0.259621262550354,-1.740180253982544,1.241276741027832
1748142100864031000,10.852031005859375,-0.1621137410402298,-6.160920143127441,4.864608287811279
1748142100882294000,10.8702939453125,-18.082561492919922,-50.175697326660156,15.979867935180664
1748142100900559600,10.8885595703125,0.23389841616153717,-75.19684600830078,20.70389747619629
1748142100918822700,10.90682275390625,-13.777873039245605,-32.48196792602539,23.993431091308594
1748142100937084700,10.925084716796874,-10.619346618652344,-16.8460693359375,15.815959930419922
1748142100955352300,10.943352294921874,-2.475973129272461,-11.8528470993042,11.49093246459961
1748142100973612500,10.961612548828125,0.9643075466156006,-8.94676399230957,7.788039684295654
1748142100991881200,10.979881103515625,2.118844509124756,-4.380660057067871,2.5489542484283447
1748142101010148000,10.998148193359375,1.8598214387893677,-1.2281162738800049,-1.679761528968811
1748142101028411000,11.016410888671874,2.7906293869018555,-0.9954141974449158,-2.6386852264404297
1748142101046675700,11.03467578125,2.6087749004364014,-1.3280165195465088,-2.3748764991760254
1748142101064939500,11.052939453125,2.1948165893554688,-1.0917253494262695,-1.195214867591858
1748142101083206400,11.071206298828125,2.0093727111816406,-0.2225325107574463,-0.3367897868156433
1748142101101469200,11.08946923828125,1.6755740642547607,0.22193430364131927,0.6664010882377625
1748142101119733800,11.107733642578125,3.620340585708618,1.0546365976333618,0.267397940158844
1748142101137998300,11.125998291015625,6.340381622314453,2.912065267562866,-0.8895317912101746
1748142101156263700,11.144263671875,7.445267677307129,3.7405800819396973,-1.2424731254577637
1748142101174527000,11.16252685546875,3.7669010162353516,1.4404792785644531,-1.2921242713928223
1748142101192792800,11.180792724609375,-0.3433700501918793,0.15912270545959473,0.20159530639648438
1748142101211061200,11.199061279296876,-6.611967086791992,-2.3150558471679688,0.711864709854126
1748142101229310000,11.21731005859375,-13.313067436218262,-4.945366382598877,4.01037073135376
1748142101272698000,11.260697998046876,4.119842529296875,-15.535401344299316,-7.691728591918945
1748142101290960400,11.27896044921875,7.2059855461120605,-46.024147033691406,-19.014564514160156
1748142101309230300,11.297230224609375,0.2069791555404663,-23.225933074951172,2.9904301166534424
1748142101327492400,11.315492431640624,-3.535395383834839,-16.504493713378906,5.825326919555664
1748142101345757000,11.3337568359375,-5.392824172973633,-20.702102661132812,10.371689796447754
1748142101364021000,11.35202099609375,-2.5639095306396484,-23.825334548950195,14.234902381896973
1748142101382285800,11.370285888671875,1.1324033737182617,-21.420547485351562,13.024731636047363
1748142101400550400,11.38855029296875,0.9463613629341125,-18.51446533203125,8.586644172668457
1748142101418814200,11.406814208984375,9.166903495788574,-15.748960494995117,13.460225105285645
1748142101437079600,11.42507958984375,-27.76093101501465,-17.193029403686523,24.371496200561523
1748142101455342000,11.443342041015624,-19.720447540283203,-8.705686569213867,21.095125198364258
1748142101473608700,11.461608642578126,1.2538390159606934,-6.363711833953857,10.817353248596191
1748142101491855000,11.479855224609375,3.678964853286743,-4.628915309906006,6.328417778015137
1748142101510133000,11.498133056640626,1.0510473251342773,-2.451446771621704,3.893122434616089
1748142101528403700,11.51640380859375,-3.802793502807617,1.389631748199463,2.259422779083252
1748142101546665500,11.53466552734375,-7.052246570587158,5.216951370239258,6.141179084777832
1748142101564934000,11.552933837890626,-1.1838489770889282,5.797211170196533,5.799005508422852
1748142101583196200,11.571196044921875,-0.47796630859375,6.116054534912109,5.047060966491699
1748142101601460500,11.58946044921875,-2.9359934329986572,3.305086374282837,2.097309112548828
1748142101619725300,11.607725341796876,-1.2849457263946533,0.0891326442360878,-0.4265206456184387
1748142101637989600,11.62598974609375,-0.34636107087135315,-1.7820546627044678,-0.2063809484243393
1748142101656254000,11.64425390625,0.859621524810791,-3.9906299114227295,2.3611178398132324
1748142101674518800,11.662518798828126,1.7491533756256104,-10.556535720825195,9.624530792236328
1748142101692782300,11.6807822265625,-2.7014968395233154,-27.74717140197754,16.922040939331055
1748142101711049000,11.699049072265625,-10.303494453430176,-61.2634391784668,16.154542922973633
1748142101729312800,11.717312744140624,-10.913065910339355,-43.14019775390625,10.901700019836426
1748142101747577000,11.7355771484375,-0.8015955686569214,-20.50110626220703,9.510273933410645
1748142101765842000,11.753842041015625,1.2329018115997314,-11.563315391540527,14.607583999633789
1748142101784105200,11.772105224609374,-4.089334011077881,-6.001797199249268,19.237695693969727
1748142101802367500,11.790367431640625,-4.0558342933654785,-3.683152198791504,21.091535568237305
1748142101820635600,11.8086357421875,-1.7066807746887207,-1.2699905633926392,13.968700408935547
1748142101838900200,11.826900146484375,1.1934202909469604,-1.9836499691009521,1.0049854516983032
1748142101857163500,11.84516357421875,4.285545349121094,-3.710071563720703,-2.3808584213256836
1748142101875430100,11.86343017578125,3.246462106704712,-4.146761417388916,-2.9150562286376953
1748142101893694000,11.88169384765625,2.7224340438842773,-3.5168511867523193,-1.5595221519470215
1748142101911958500,11.89995849609375,2.531606435775757,-2.4364917278289795,0.4941178858280182
1748142101930222800,11.918222900390624,12.982857704162598,0.753140926361084,-0.34636107087135315
1748142101948487700,11.93648779296875,20.44009017944336,3.655634880065918,-6.451648235321045
1748142101966752300,11.954752197265625,10.028918266296387,3.995415687561035,-4.816751956939697
1748142101985016600,11.9730166015625,2.300100803375244,3.0077781677246094,-1.2957134246826172
1748142102003281400,11.991281494140624,-1.3070793151855469,2.09431791305542,0.633499801158905
1748142102021541000,12.009541015625,-19.4075870513916,-3.438486099243164,12.110074996948242
1748142102039809300,12.027809326171875,-12.124432563781738,1.0235298871994019,8.126026153564453
1748142102058075600,12.04607568359375,-4.989035129547119,-3.2691938877105713,2.9389843940734863
1748142102076344300,12.06434423828125,1.8305093050003052,-6.9344000816345215,-5.364708423614502
1748142102094604000,12.08260400390625,-3.2709884643554688,-22.179073333740234,-18.159130096435547
1748142102112868600,12.10086865234375,10.437492370605469,-40.19224166870117,-20.802003860473633
1748142102131133200,12.11913330078125,-3.1962127685546875,-25.405794143676758,1.196411371231079
1748142102149405700,12.13740576171875,-0.2069791555404663,-14.752947807312012,5.332405090332031
1748142102167662300,12.155662353515625,3.043670415878296,-14.740386009216309,5.1768717765808105
1748142102185927200,12.17392724609375,6.99122953414917,-24.68256378173828,5.5034918785095215
1748142102204191700,12.192191650390624,8.2695951461792,-31.552955627441406,15.66401481628418
1748142102222456000,12.2104560546875,7.6977105140686035,-31.43690299987793,14.096715927124023
1748142102240718300,12.22871826171875,6.820741176605225,-23.26003074645996,18.51984977722168
1748142102258987300,12.2469873046875,14.687145233154297,-19.265811920166016,25.132413864135742
1748142102277245700,12.26524560546875,-49.97350311279297,-15.437294960021973,38.608192443847656
1748142102295506200,12.283506103515625,-30.905696868896484,-4.418346881866455,25.645076751708984
1748142102313778000,12.30177783203125,8.640482902526855,-1.9489539861679077,8.301300048828125
1748142102332044500,12.32004443359375,7.408777236938477,-3.0652058124542236,6.202794551849365
1748142102350308000,12.33830810546875,1.6582261323928833,-2.14516544342041,5.719444274902344
1748142102368567800,12.35656787109375,1.089930772781372,0.40797626972198486,3.5479576587677
1748142102386836000,12.3748359375,-4.610371112823486,4.748556613922119,4.198207378387451
1748142102405103000,12.39310302734375,-2.0273189544677734,5.671587944030762,2.8498518466949463
1748142102423361300,12.411361328125,0.8063812255859375,2.844467878341675,0.8739784955978394
1748142102441626400,12.42962646484375,1.7461622953414917,0.9918249845504761,-0.25004997849464417
1748142102459895600,12.4478955078125,1.5194423198699951,0.2949153780937195,-0.1453639715909958
1748142102478160000,12.466159912109376,0.5096712112426758,-0.9589236974716187,0.8739784955978394
1748142102498702600,12.48670263671875,0.4133601188659668,-2.8002007007598877,3.449253797531128
1748142102516973600,12.5049736328125,1.231107234954834,-9.398408889770508,8.828319549560547
1748142102535237600,12.523237548828124,-17.00040626525879,-42.08915328979492,18.8057918548584
1748142102553502200,12.541502197265626,-1.9070796966552734,-69.62516021728516,12.638291358947754
1748142102571767000,12.55976708984375,9.407979965209961,-35.3515625,13.988441467285156
1748142102590032400,12.578032470703125,-9.851250648498535,-18.287147521972656,30.146574020385742
1748142102608296000,12.5962958984375,-12.112467765808105,-15.629319190979004,25.7318172454834
1748142102626560800,12.614560791015625,-0.19262222945690155,-10.211370468139648,9.981659889221191
1748142102644824800,12.632824951171875,1.4093725681304932,-3.6945180892944336,5.611767292022705
1748142102663085800,12.6510859375,2.056631088256836,0.05563312768936157,2.2085752487182617
1748142102681354500,12.6693544921875,2.8737800121307373,-0.7208378314971924,-1.3399807214736938
1748142102699614700,12.68761474609375,2.7391836643218994,-2.3150558471679688,-2.4269204139709473
1748142102717884000,12.7058837890625,3.0622148513793945,-2.3228325843811035,-1.8915263414382935
1748142102736148500,12.7241484375,6.948757171630859,-0.42771705985069275,0.10887342691421509
1748142102754412300,12.742412353515626,13.322638511657715,1.6037893295288086,0.4019941985607147
1748142102772677400,12.760677490234375,12.173484802246094,2.431705951690674,-1.6390835046768188
1748142102790942000,12.77894189453125,10.505687713623047,3.2315070629119873,-3.1746773719787598
1748142102809206800,12.797206787109374,6.44387149810791,3.6843485832214355,-2.214557409286499
1748142102827471000,12.81547119140625,1.7096717357635498,3.479762315750122,0.5156532526016235
1748142102845735700,12.833735595703125,-9.712467193603516,-1.0929217338562012,4.689932346343994
1748142102864000500,12.85200048828125,-22.29811668395996,-5.385645389556885,11.532208442687988
1748142102882264800,12.870264892578126,-10.889137268066406,-5.030909538269043,4.2723846435546875
1748142102900524000,12.88852392578125,3.5084762573242188,-5.111069202423096,-1.4937195777893066
1748142102918793700,12.906793701171875,12.011969566345215,-14.904891967773438,-11.693724632263184
1748142102937060600,12.925060546875,4.731208801269531,-30.159135818481445,-13.212568283081055
1748142102955322600,12.943322509765625,-2.2815563678741455,-28.667810440063477,-2.80558443069458
1748142102973587700,12.961587646484375,-2.7553353309631348,-18.06222152709961,4.880760192871094
1748142102991852300,12.979852294921875,1.4745769500732422,-15.707684516906738,6.787241458892822
1748142103010124000,12.9981240234375,6.118447303771973,-20.767906188964844,5.2731828689575195
1748142103028381200,13.016381103515625,8.200801849365234,-26.423341751098633,8.86361312866211
1748142103046646000,13.03464599609375,4.965106964111328,-25.46322250366211,8.14815902709961
1748142103064909300,13.052909423828124,1.399801254272461,-22.405792236328125,5.435296535491943
1748142103083176400,13.071176513671874,10.596614837646484,-18.78006935119629,14.623735427856445
1748142103101438200,13.089438232421875,-17.71286964416504,-17.42393684387207,36.341590881347656
1748142103119705600,13.10770556640625,-36.75136184692383,-7.624131202697754,27.537799835205078
1748142103137969000,13.125968994140624,-2.624328136444092,-4.124628067016602,15.173486709594727
1748142103156228000,13.14422802734375,9.493523597717285,-1.0875378847122192,7.03788948059082
1748142103174497300,13.162497314453125,1.6618152856826782,-1.852044701576233,4.505684852600098
1748142103192763100,13.18076318359375,0.04905286431312561,0.09511470049619675,2.255833625793457
1748142103211027200,13.199027099609374,-8.788239479064941,4.607978343963623,4.137788772583008
1748142103229287200,13.217287109375,-4.761716842651367,5.358726501464844,2.999403238296509
1748142103247556400,13.235556396484375,0.8069794178009033,2.8558337688446045,1.012762188911438
1748142103265820700,13.253820556640624,1.906481385231018,0.9547362327575684,-0.3080759048461914
1748142103284080400,13.272080322265625,0.45643091201782227,-0.06400800496339798,-1.7539390325546265
1748142103302350000,13.29035009765625,-0.15493527054786682,-1.0402796268463135,-0.9984052777290344
1748142103320614100,13.3086142578125,0.1136590763926506,-1.430309772491455,0.6203392744064331
1748142103338879200,13.326879150390624,-0.6628118753433228,-3.8386857509613037,4.854438781738281
1748142103357143300,13.345143310546876,-5.312066078186035,-21.764516830444336,18.996021270751953
1748142103375408000,13.363408203125,-7.5463643074035645,-71.71289825439453,18.814167022705078
1748142103393672400,13.38167236328125,-7.552346706390381,-64.69953155517578,4.157529354095459
1748142103411932700,13.3999326171875,-13.782658576965332,-23.20499610900879,9.186046600341797
1748142103430201000,13.418201171875,-0.7585247755050659,-14.370694160461426,8.62612533569336
1748142103448467200,13.43646728515625,2.9790642261505127,-10.587043762207031,9.114261627197266
1748142103466730500,13.45473046875,0.6436693072319031,-7.487142086029053,9.841081619262695
1748142103484995000,13.4729951171875,0.2829512655735016,-4.7712883949279785,9.55633544921875
1748142103503250200,13.491250244140625,-0.778863787651062,-1.700698733329773,3.6161532402038574
1748142103521513500,13.509513427734374,0.592223584651947,-0.973878800868988,-1.280758261680603
1748142103539789600,13.52778955078125,2.221735715866089,-1.794616937637329,-2.0721843242645264
1748142103558057200,13.54605712890625,1.6396816968917847,-0.7322037220001221,-1.3280165195465088
1748142103576318200,13.564318115234375,1.222732424736023,0.5838487148284912,-0.7704889178276062
1748142103594583000,13.5825830078125,0.9463613629341125,1.196411371231079,-0.33798620104789734
1748142103612847400,13.600847412109376,3.3373894691467285,2.396411895751953,0.2560320198535919
1748142103631108400,13.6191083984375,6.682555675506592,4.326821327209473,-0.47198426723480225
1748142103649371600,13.63737158203125,6.534798622131348,4.847858905792236,-1.1892328262329102
1748142103667641300,13.655641357421874,1.1623135805130005,2.792423963546753,0.7716853022575378
1748142103685905400,13.673905517578126,-0.18544375896453857,1.2113664150238037,0.5288137793540955
1748142103704171300,13.692171142578125,-0.061016976833343506,-0.2309073805809021,0.46360939741134644
1748142103722435300,13.710435302734375,-10.075577735900879,-3.6269209384918213,-0.9308080077171326
1748142103740699600,13.72869970703125,-13.418351173400879,-6.295516490936279,-2.7349963188171387
1748142103758964000,13.7469638671875,-7.335795879364014,-11.68594741821289,-1.4524433612823486
1748142103777228500,13.765228515625,13.177872657775879,-37.12464141845703,-14.78405475616455
1748142103795493000,13.7834931640625,6.690331935882568,-40.95315933227539,-3.768097400665283
1748142103813758000,13.801758056640624,1.5080764293670654,-19.89691925048828,6.117250919342041
1748142103832022300,13.820022216796875,-0.30927231907844543,-18.47498321533203,9.596415519714355
1748142103850287000,13.838287109375,-0.8344969153404236,-21.719053268432617,11.808579444885254
1748142103868552200,13.85655224609375,-0.5670989751815796,-22.322643280029297,12.120244979858398
1748142103886815500,13.8748154296875,0.5066801905632019,-21.196819305419922,7.462615489959717
1748142103905075500,13.893075439453124,3.5204403400421143,-18.48634910583496,9.795019149780273
1748142103923341000,13.911341064453126,3.2626137733459473,-17.822341918945312,22.09233283996582
1748142103941609200,13.929609130859374,-35.046478271484375,-10.197611808776855,30.257841110229492
1748142103959875000,13.947875,-10.284950256347656,-4.0217366218566895,19.35614013671875
1748142103978139100,13.96613916015625,4.598406791687012,-4.155136585235596,8.516056060791016
1748142103996390000,13.984389892578125,1.898106575012207,-3.397808074951172,5.323431968688965
1748142104030648800,14.01864892578125,-4.096512317657471,1.7288143634796143,2.700300455093384
1748142104048913000,14.036912841796875,-3.2171499729156494,4.442275047302246,4.29033088684082
1748142104067177000,14.055177001953124,-1.9525432586669922,4.098307132720947,2.775674343109131
1748142104085443000,14.073443115234374,-1.0091729164123535,2.454437732696533,1.0348957777023315
1748142104103707400,14.091707275390625,0.039481572806835175,0.6813562512397766,-0.7441678643226624
1748142104121968000,14.109968017578124,-0.1094716340303421,-0.15912270545959473,-1.6534404754638672
1748142104133454800,14.121454833984375,-0.32602208852767944,-0.8656035661697388,-1.1330015659332275
1748142104151652600,14.139652587890625,0.5335994362831116,-1.1623135805130005,0.12083754688501358
1748142104169917400,14.15791748046875,0.31345975399017334,-1.2759727239608765,1.0157532691955566
1748142104188181800,14.176181640625,-1.3256237506866455,-7.774280548095703,7.365706443786621
1748142104206446300,14.1944462890625,-10.631311416625977,-38.55255889892578,20.89053726196289
1748142104224706600,14.21270654296875,-2.9688947200775146,-71.71648406982422,14.328222274780273
1748142104242975200,14.230975341796874,-8.182256698608398,-40.01218032836914,16.704893112182617
1748142104261240600,14.249240478515626,-10.53799057006836,-18.72084617614746,18.772890090942383
1748142104279499300,14.267499267578126,-3.5132617950439453,-12.362518310546875,14.906686782836914
1748142104297770800,14.285770751953125,0.064606212079525,-10.841879844665527,9.90568733215332
1748142104316033300,14.304033203125,2.1056840419769287,-7.445267677307129,6.1710896492004395
1748142104334298400,14.32229833984375,1.9028922319412231,-4.185046672821045,0.8793623447418213
1748142104352562700,14.340562744140625,2.991626501083374,-3.057429075241089,-1.7521443367004395
1748142104370828300,14.358828369140625,3.056830883026123,-2.9138598442077637,-2.3300111293792725
1748142104389087200,14.377087158203125,1.9974087476730347,-1.800000786781311,-1.6319050788879395
1748142104407356400,14.3953564453125,1.6211373805999756,-0.6454638838768005,-0.9038887619972229
1748142104425621000,14.41362109375,1.587039589881897,0.43908295035362244,-0.15134602785110474
1748142104443884500,14.431884521484376,3.0311081409454346,1.236491084098816,-0.6807580590248108
1748142104462152400,14.45015234375,10.39501953125,3.266801118850708,-5.012365341186523
1748142104480409900,14.468409912109376,11.906685829162598,4.646263599395752,-7.041478633880615
1748142104498678800,14.4866787109375,4.357329845428467,3.277568817138672,-4.4374895095825195
1748142104516944100,14.504944091796874,-0.06640082597732544,0.7938188910484314,-0.4462614357471466
1748142104535199000,14.523198974609375,-25.753950119018555,-7.7838521003723145,8.061419486999512
1748142104553474600,14.541474609375,-15.239289283752441,-4.869394302368164,8.895915985107422
1748142104571737300,14.5597373046875,0.016749758273363113,-3.6508491039276123,0.8356932997703552
1748142104590003200,14.578003173828124,5.507679462432861,-11.57827091217041,-8.714659690856934
1748142104608266500,14.5962666015625,6.479165554046631,-19.240089416503906,-11.641081809997559
1748142104626530600,14.614530517578125,-4.759324073791504,-33.86083221435547,-8.867202758789062
1748142104644796000,14.6327958984375,-3.001796007156372,-21.98286247253418,2.892324447631836
1748142104663058700,14.65105859375,1.306481122970581,-14.398212432861328,2.785245656967163
1748142104681324800,14.66932470703125,3.129213809967041,-19.734804153442383,3.1268210411071777
1748142104699585300,14.687585205078125,6.801000118255615,-29.733213424682617,8.108677864074707
1748142104717852700,14.705852783203126,4.801198482513428,-30.084360122680664,14.853446960449219
1748142104736116500,14.724116455078125,1.5002998113632202,-25.995624542236328,12.479766845703125
1748142104754382300,14.74238232421875,2.630310297012329,-21.326629638671875,14.21875
1748142104772648400,14.7606484375,12.734601974487305,-15.494723320007324,19.194026947021484
1748142104790912300,14.778912353515626,-31.237701416015625,-11.294720649719238,30.882368087768555
1748142104809177900,14.797177734375,-28.639095306396484,-3.8739798069000244,23.129621505737305
1748142104827436500,14.8154365234375,5.087141036987305,-3.744767427444458,10.533205032348633
1748142104845706200,14.833706298828124,5.160720348358154,-4.837689399719238,6.225526332855225
1748142104863970300,14.85197021484375,1.6510475873947144,-2.420340061187744,4.881956577301025
1748142104882236400,14.870236328125,0.9337990283966064,1.573280930519104,4.443471431732178
1748142104900499200,14.888499267578124,-5.041079044342041,5.492125988006592,5.443671703338623
1748142104918764800,14.906764892578124,-2.239083766937256,4.371686935424805,3.056830883026123
1748142104937016800,14.925016845703125,0.22013968229293823,2.124826431274414,1.0839486122131348
1748142104955294200,14.943294189453125,0.7932206988334656,0.5676971673965454,0.03768695518374443
1748142104973546000,14.9615458984375,0.5790630578994751,0.005383851006627083,-0.6658028960227966
1748142104991822600,14.979822509765626,-0.01375873014330864,-0.882951557636261,-1.1724830865859985
1748142105010074600,14.99807470703125,0.7782655358314514,-1.5936198234558105,-0.1698904037475586
1748142105028353500,15.016353515625,0.41096729040145874,-1.7078771591186523,0.6610172390937805
1748142105046616000,15.034615966796874,0.2512463629245758,-9.993025779724121,7.70967435836792
1748142105064880600,15.052880615234375,-16.490137100219727,-56.091949462890625,15.668801307678223
1748142105083141000,15.07114111328125,-4.077369689941406,-79.75756072998047,6.362515449523926
1748142105101411000,15.0894111328125,-11.382657051086426,-28.16830825805664,11.651849746704102
1748142105119674400,15.10767431640625,-5.565705299377441,-12.912269592285156,11.515459060668945
1748142105137939200,15.125939208984375,0.8638089895248413,-8.867202758789062,9.257830619812012
1748142105156203500,15.14420361328125,0.36191442608833313,-6.908677101135254,8.289934158325195
1748142105174469400,15.162469482421875,-0.5419743061065674,-4.473979949951172,8.032705307006836
1748142105192732700,15.180732666015626,0.5629115104675293,-1.9776679277420044,2.6141586303710938
1748142105210997200,15.198997314453125,2.3294129371643066,-1.5284154415130615,-0.8009973764419556
1748142105229258800,15.2172587890625,3.253042459487915,-2.925823926925659,-2.2636101245880127
1748142105247527200,15.235527099609374,2.191227436065674,-2.3563320636749268,-2.0446670055389404
1748142105265791200,15.253791259765626,1.0259226560592651,-1.500898003578186,-1.1647064685821533
1748142105284060000,15.272059814453126,0.8745766878128052,-0.31764721870422363,0.06041877344250679
1748142105302320000,15.290320068359375,0.6897311210632324,0.37148571014404297,0.6287141442298889
1748142105320586000,15.3085859375,1.5026925802230835,1.073180913925171,0.7776673436164856
1748142105338844700,15.3268447265625,3.813561201095581,1.97407865524292,-0.06340979784727097
1748142105357109500,15.345109619140626,1.7222341299057007,2.328814744949341,0.8506484627723694
1748142105375379200,15.363379150390625,-0.7040880918502808,1.017547845840454,0.7932206988334656
1748142105393644300,15.381644287109374,-0.6083751320838928,0.3032902777194977,0.373878538608551
1748142105411907600,15.399907470703125,-5.696114540100098,-1.466800332069397,-0.34995031356811523
1748142105430172400,15.41817236328125,-21.023937225341797,-9.200403213500977,-3.8398821353912354
1748142105448437000,15.43643701171875,0.43908295035362244,-15.357733726501465,-5.434698581695557
1748142105466702600,15.45470263671875,11.726027488708496,-37.596031188964844,-17.848064422607422
1748142105484965600,15.472965576171875,7.299903869628906,-25.42374038696289,0.8309076428413391
1748142105503226000,15.49122607421875,0.6705885529518127,-15.139389038085938,5.226522922515869
1748142105521494500,15.50949462890625,-0.2063809484243393,-19.231714248657227,4.975276470184326
1748142105539748000,15.527748046875,0.372682124376297,-26.79662322998047,6.920042991638184
1748142105558014200,15.54601416015625,1.8137595653533936,-28.573293685913086,13.14975643157959
1748142105592268800,15.580268798828126,6.598208427429199,-19.183856964111328,16.76590919494629
1748142105610535200,15.59853515625,-12.181859970092773,-17.156538009643555,26.90609359741211
1748142105628798000,15.6167978515625,-32.3689079284668,-8.787042617797852,23.977876663208008
1748142105647063000,15.63506298828125,-8.557929992675781,-5.584847927093506,12.963714599609375
1748142105665330400,15.653330322265624,2.8079774379730225,-5.96889591217041,7.5433735847473145
1748142105683592400,15.671592529296875,4.269991874694824,-3.834498405456543,4.845465660095215
1748142105701860900,15.68986083984375,0.15074782073497772,-2.932404041290283,3.5024940967559814
1748142105720121300,15.708121337890624,-1.8454644680023193,-0.2721835672855377,2.9174489974975586
1748142105738382600,15.726382568359375,-7.537989616394043,3.690330743789673,7.139584541320801
1748142105756650200,15.744650146484375,-3.7292141914367676,5.215754985809326,6.468397617340088
1748142105774915600,15.76291552734375,-1.332802176475525,4.884349346160889,3.253640651702881
1748142105793179400,15.781179443359376,-1.9250258207321167,2.4059832096099854,-0.46002015471458435
1748142105811445200,15.7994453125,0.5934200286865234,0.18424734473228455,-1.6211373805999756
1748142105829704200,15.8177041015625,1.9142581224441528,-1.4691931009292603,0.1381855010986328
1748142105847972900,15.835972900390624,0.9966106414794922,-2.538186550140381,1.5499508380889893
1748142105866239000,15.854239013671876,1.9316060543060303,-10.529616355895996,8.093722343444824
1748142105884503600,15.872503662109375,-9.747162818908691,-36.95893859863281,14.839688301086426
1748142105902767900,15.890767822265625,-9.037691116333008,-74.97431182861328,6.060421466827393
1748142105921031400,15.909031494140624,-3.6532418727874756,-34.575687408447266,2.80558443069458
1748142105939296300,15.927296142578125,-3.436093330383301,-15.805789947509766,7.93998384475708
1748142105957561300,15.945561279296875,1.846660852432251,-12.645469665527344,13.600205421447754
1748142105975824600,15.96382470703125,0.3852444589138031,-11.092527389526367,18.263816833496094
1748142105994091500,15.982091552734374,-1.6791633367538452,-8.236693382263184,18.650257110595703
1748142106012349400,16.000349365234374,-1.1030912399291992,-3.978067636489868,9.597013473510742
1748142106039751200,16.027751220703124,2.201396942138672,-1.5708880424499512,-1.158724308013916
1748142106058014200,16.04601416015625,3.3164522647857666,-2.4466612339019775,-2.4197418689727783
1748142106076281300,16.06428125,2.349153518676758,-1.415354609489441,-1.6079767942428589
1748142106094544600,16.082544677734376,1.6534404754638672,-0.3002992272377014,-0.8398807644844055
1748142106112808200,16.10080810546875,1.500898003578186,0.5228317379951477,-0.26440688967704773
1748142106131070200,16.1190703125,4.2556352615356445,1.4590235948562622,-1.6366907358169556
1748142106149341000,16.1373408203125,7.131209850311279,2.827120065689087,-3.0376882553100586
1748142106167604200,16.155604248046874,7.898707389831543,4.7952165603637695,-2.8695926666259766
1748142106185867800,16.17386767578125,4.622334957122803,4.406980991363525,-2.7385854721069336
1748142106204132000,16.192132080078125,-0.3284149169921875,1.695314884185791,-0.3684946894645691
1748142106222392600,16.210392578125,-6.004788398742676,-2.210968017578125,-0.09391828626394272
1748142106240661200,16.2286611328125,-13.48893928527832,-3.751347780227661,2.9617161750793457
1748142106258925600,16.246925537109377,0.527019202709198,-3.730410575866699,-2.8797619342803955
1748142106277189600,16.265189697265626,-6.142973899841309,-16.6660099029541,-11.124232292175293
1748142106295449000,16.283448974609374,1.9357935190200806,-33.936805725097656,-17.139787673950195
1748142106313719600,16.301719482421873,-1.7102699279785156,-33.58326721191406,1.296311616897583
1748142106331984100,16.319984130859375,-0.9589236974716187,-16.77727508544922,7.454838752746582
1748142106350248400,16.33824853515625,0.778863787651062,-15.773487091064453,7.849654674530029
1748142106368513300,16.35651318359375,2.943171739578247,-25.036701202392578,9.730413436889648
1748142106386776800,16.37477685546875,3.937389612197876,-29.495128631591797,13.366307258605957
1748142106405042200,16.393042236328125,1.4111671447753906,-26.662025451660156,12.543774604797363
1748142106423308000,16.41130810546875,4.386641979217529,-20.53221321105957,16.453048706054688
1748142106441567000,16.42956689453125,-11.874980926513672,-16.092927932739258,29.35574722290039
1748142106459836700,16.447836669921877,-35.58905029296875,-4.080958843231201,28.65464973449707
1748142106478100200,16.466100341796874,-1.200000524520874,-1.8041882514953613,14.94257926940918
1748142106496360400,16.4843603515625,6.7657060623168945,-3.3846476078033447,7.447660446166992
1748142106514630000,16.5026298828125,3.2105698585510254,-2.276172637939453,4.357329845428467
1748142106532894200,16.520894287109375,0.9254241585731506,-0.589830756187439,2.45204496383667
1748142106551145200,16.539145263671877,-6.101099491119385,3.248854875564575,2.2719850540161133
1748142106569423400,16.55742333984375,-3.8213376998901367,4.444668292999268,3.2344980239868164
1748142106587688200,16.575688232421875,-0.7465606927871704,3.1663026809692383,1.7527425289154053
1748142106605952800,16.593952880859376,-1.5284154415130615,0.9314061999320984,-0.08973085135221481
1748142106624214500,16.612214599609374,-1.5098711252212524,-0.11964113265275955,-2.176870346069336
1748142106642479900,16.63047998046875,-2.1242282390594482,-0.8195417523384094,-2.530410051345825
1748142106660745500,16.648745361328125,-1.6175481081008911,-1.7569299936294556,-0.8632107973098755
1748142106679012000,16.66701220703125,-0.33020952343940735,-1.866999864578247,0.6496513485908508
1748142106697275100,16.685275146484376,-0.5539384484291077,-5.901896953582764,5.193023204803467
1748142106715540000,16.7035400390625,-12.968500137329102,-36.63351821899414,18.361923217773438
1748142106733798700,16.721798583984373,-3.460021495819092,-71.92585754394531,9.381061553955078
1748142106752070000,16.74006982421875,-8.820542335510254,-44.11048889160156,9.308079719543457
1748142106770335700,16.758335693359374,-11.314461708068848,-19.341184616088867,16.766508102416992
1748142106788598500,16.7765986328125,-2.651247501373291,-12.234501838684082,12.66879940032959
1748142106806863000,16.794863037109376,1.9794625043869019,-9.256035804748535,9.716654777526855
1748142106825127400,16.81312744140625,0.9625129103660583,-4.900500774383545,8.591429710388184
1748142106843380500,16.83138037109375,-1.581655740737915,-0.9337990283966064,2.6386852264404297
1748142106861652500,16.849652587890624,0.6634100675582886,-0.22911277413368225,-1.7126628160476685
1748142106879910400,16.867910400390624,1.8747764825820923,-1.389631748199463,-2.2480568885803223
1748142106898185700,16.886185791015624,1.4865410327911377,-0.898504912853241,-1.6534404754638672
1748142106916450000,16.904449951171873,1.2143574953079224,-0.1459621787071228,-0.9583254456520081
1748142106934715000,16.92271484375,2.2366909980773926,0.7950153350830078,-0.32303106784820557
1748142106952979200,16.940979248046876,4.96211576461792,1.8741782903671265,-0.4707878530025482
1748142106971244300,16.959244384765626,7.500900745391846,2.730808734893799,-2.0057835578918457
1748142106989503500,16.97750341796875,7.112067222595215,3.6400814056396484,-2.3718855381011963
1748142107007774000,16.99577392578125,2.892324447631836,2.8624141216278076,-1.0342975854873657
1748142107026036500,17.014036376953126,-0.4737788736820221,0.7363911867141724,0.06041877344250679
1748142107044302000,17.032302001953123,-2.2851455211639404,-0.04307080805301666,0.6424728631973267
1748142107062566400,17.05056640625,-21.71187400817871,-4.6887359619140625,7.216155052185059
1748142107080833300,17.068833251953127,-0.07776673883199692,-2.12542462348938,-1.1545369625091553
1748142107099093500,17.087093505859375,-5.478965759277344,-10.12463092803955,-4.1623148918151855
1748142107117355500,17.10535546875,3.2309088706970215,-32.06920623779297,-12.223135948181152
1748142107135624700,17.123624755859375,3.7387852668762207,-51.89134979248047,-5.030909538269043
1748142107153889300,17.14188916015625,-1.9172492027282715,-18.27398681640625,6.512664794921875
1748142107172152800,17.16015283203125,-3.992424488067627,-12.676576614379883,9.610174179077148
1748142107190420000,17.178419921875,-5.385047435760498,-19.24666976928711,14.706886291503906
1748142107208683300,17.196683349609376,3.200998544692993,-23.66860580444336,11.386246681213379
1748142107226948000,17.214947998046874,6.655037879943848,-22.559532165527344,10.691729545593262
1748142107245207600,17.23320751953125,7.643871784210205,-16.1910343170166,17.64766502380371
1748142107263476000,17.25147607421875,-19.183259963989258,-14.040485382080078,26.48555564880371
1748142107281738200,17.26973828125,-27.235706329345703,-10.185647964477539,21.128623962402344
1748142107300006000,17.288005859375,-2.181057929992676,-7.301100254058838,13.176675796508789
1748142107318270700,17.306270751953125,5.395814895629883,-5.815157413482666,7.533204078674316
1748142107336535300,17.324535400390626,0.5048855543136597,-4.077369689941406,5.633302688598633
1748142107354798600,17.342798583984376,-3.941577196121216,0.0891326442360878,2.2671995162963867
1748142107373065500,17.3610654296875,-4.031308174133301,3.3960134983062744,3.1621150970458984
1748142107391329300,17.379329345703123,-0.841675341129303,3.3571300506591797,3.479762315750122
1748142107409593600,17.397593505859376,-1.7629120349884033,3.0000014305114746,2.1996021270751953
1748142107427858200,17.415858154296874,-1.2819547653198242,1.6049858331680298,0.029910283163189888
1748142107446120400,17.434120361328127,-0.2907279431819916,0.0933200865983963,-1.8203397989273071
1748142107464385000,17.452385009765624,-0.3320041298866272,-0.656829833984375,-1.911865234375
1748142107482651600,17.470651611328126,0.39900317788124084,-1.4195420742034912,-0.45583271980285645
1748142107500911400,17.488911376953126,0.11066804826259613,-1.6079767942428589,0.8787640929222107
1748142107519179500,17.507179443359377,-1.7521443367004395,-8.322834968566895,7.234101295471191
1748142107537446700,17.52544677734375,-12.345170021057129,-37.11148452758789,18.446269989013672
1748142107555710000,17.5437099609375,-5.092525005340576,-68.25945281982422,11.274381637573242
1748142107573974800,17.561974853515625,-10.463214874267578,-34.760536193847656,15.17887020111084
1748142107592239000,17.580239013671875,-8.140382766723633,-16.14497184753418,17.04646873474121
1748142107610503700,17.598503662109376,-1.428515076637268,-11.722437858581543,13.910076141357422
1748142107628769000,17.61676904296875,-1.7276179790496826,-10.012167930603027,10.110872268676758
1748142107647031000,17.635031005859375,-1.0079765319824219,-7.201199531555176,5.191826820373535
1748142107665295600,17.653295654296876,-0.8446664214134216,-3.7034912109375,0.23688943684101105
1748142107683565000,17.67156494140625,1.0348957777023315,-2.368894338607788,-2.520240545272827
1748142107701823500,17.689823486328127,1.965105652809143,-2.3264217376708984,-2.809173822402954
1748142107720094200,17.70809423828125,1.2652050256729126,-1.32921302318573,-1.710868239402771
1748142107738350800,17.726350830078125,1.3250255584716797,-0.2793620526790619,-0.39900317788124084
1748142107756615200,17.744615234375,1.2532408237457275,0.5335994362831116,0.1423729509115219
1748142107774883600,17.762883544921873,1.4081761837005615,1.1120643615722656,0.047258246690034866
1748142107793150500,17.781150390625,5.061418056488037,2.286940336227417,-1.3028919696807861
1748142107811421700,17.799421630859374,7.800003528594971,3.570091485977173,-2.139183521270752
1748142107829678600,17.8176787109375,4.570889472961426,1.9513468742370605,-2.2396819591522217
1748142107847943000,17.83594287109375,0.32542386651039124,0.2147558331489563,-0.2189432680606842
1748142107866207500,17.85420751953125,-1.168893814086914,-0.28594231605529785,0.5389832854270935
1748142107884472300,17.872472412109374,-42.83332061767578,-8.47597599029541,14.364114761352539
1748142107902737000,17.89073681640625,1.2975081205368042,-4.160520553588867,-1.4374881982803345
1748142107921000700,17.909000732421877,3.331407308578491,-11.878569602966309,-8.100900650024414
1748142107939266000,17.92726611328125,6.652047157287598,-35.8510627746582,-20.01775550842285
1748142107957530000,17.945530029296876,1.551147222518921,-34.06661605834961,-3.3266217708587646
1748142107975793700,17.963793701171873,-1.4817553758621216,-15.815959930419922,5.070989608764648
1748142107994060300,17.982060302734375,-0.10827522724866867,-11.137990951538086,6.523432731628418
1748142108012319200,18.0003193359375,0.8344969153404236,-17.69611930847168,10.185050010681152
1748142108030587000,18.0185869140625,0.7698906660079956,-23.669801712036133,14.744573593139648
1748142108048854300,18.036854248046875,-1.1012966632843018,-23.63510513305664,9.095717430114746
1748142108067116300,18.0551162109375,-0.06340979784727097,-21.04128646850586,9.622735977172852
1748142108085379000,18.073379150390625,-8.595617294311523,-21.55634117126465,21.023937225341797
1748142108103641900,18.091641845703126,-27.199813842773438,-15.357135772705078,24.368505477905273
1748142108121911300,18.109911376953125,-11.161321640014648,-7.871788501739502,12.153145790100098
1748142108140175600,18.128175537109374,5.070989608764648,-5.709274768829346,7.208378314971924
1748142108158440200,18.146440185546876,3.332603693008423,-4.680361270904541,5.391627788543701
1748142108176704800,18.164704833984374,-0.08374879509210587,-2.7936203479766846,3.1968109607696533
1748142108194969900,18.182969970703127,-4.338785648345947,1.3872389793395996,1.8011972904205322
1748142108213234000,18.20123388671875,-5.164309501647949,3.9810585975646973,3.476173162460327
1748142108231499000,18.2194990234375,-0.8626125454902649,3.352344512939453,2.8151557445526123
1748142108249763600,18.237763671875,1.6115660667419434,2.9413771629333496,1.9627127647399902
1748142108268027600,18.256027587890625,-0.0011964113218709826,1.6845471858978271,0.4863412082195282
1748142108286292500,18.27429248046875,0.5856433510780334,-0.33738797903060913,-0.14416755735874176
1748142108304557000,18.29255712890625,0.22432711720466614,-1.461416482925415,0.3523431420326233
1748142108322820900,18.31082080078125,-2.5663022994995117,-2.967698335647583,1.6480566263198853
1748142108341087200,18.329087158203127,-10.198209762573242,-12.772289276123047,6.222535133361816
1748142108359346000,18.347345947265627,-9.193822860717773,-39.4343147277832,9.138189315795898
1748142108377615400,18.365615478515625,-0.12502498924732208,-57.86323547363281,5.481358528137207
1748142108395879700,18.383879638671875,0.41934216022491455,-38.30430603027344,14.308481216430664
1748142108414144300,18.402144287109376,-5.465207099914551,-19.97348976135254,23.62074851989746
1748142108432409300,18.420409423828126,-9.538987159729004,-12.819547653198242,23.12842559814453
1748142108450658600,18.438658447265624,-4.369892120361328,-11.345568656921387,7.393223762512207
1748142108468938000,18.45693798828125,-1.5750755071640015,-5.151747226715088,4.23948335647583
1748142108487204000,18.4752041015625,0.024526432156562805,-2.3431715965270996,2.0063817501068115
1748142108505465900,18.4934658203125,2.2713868618011475,-2.293520450592041,-0.6574280261993408
1748142108523731700,18.511731689453125,3.0963125228881836,-2.7637102603912354,-2.23848557472229
1748142108541995300,18.529995361328126,2.3641088008880615,-1.077966570854187,-1.6654045581817627
1748142108560262100,18.54826220703125,2.9204399585723877,0.16390834748744965,-0.8847461938858032
1748142108578525400,18.566525390625,4.934000492095947,1.26699960231781,0.6664010882377625
1748142108596789000,18.5847890625,7.299305438995361,1.9872392416000366,0.3756731450557709
1748142108615051300,18.60305126953125,11.102697372436523,4.030111312866211,-1.4524433612823486
1748142108633318100,18.621318115234374,8.47597599029541,4.95912504196167,-1.301695466041565
1748142108651577000,18.6395771484375,1.567897081375122,1.8047864437103271,-0.32961133122444153
1748142108669848300,18.657848388671876,-1.4368900060653687,-0.31824541091918945,0.3577269911766052
1748142108688113000,18.67611279296875,-41.4598388671875,-9.281759262084961,11.361122131347656
1748142108706372600,18.69437255859375,0.24466611444950104,-2.087737798690796,1.719243049621582
1748142108724642000,18.71264208984375,1.797009825706482,-5.864808082580566,-3.325425386428833
1748142108742906400,18.73090625,2.9724838733673096,-17.133209228515625,-13.277772903442383
1748142108761171000,18.7491708984375,5.434698581695557,-38.16731643676758,-18.24886131286621
1748142108779445500,18.767445556640624,-8.321041107177734,-24.17827606201172,3.8781673908233643
1748142108797700900,18.785700927734375,-2.7559335231781006,-12.636496543884277,5.972485542297363
1748142108815965000,18.80396484375,2.5232315063476562,-14.011771202087402,3.906881093978882
1748142108834229200,18.822229248046874,5.7996039390563965,-22.700708389282227,5.064409255981445
1748142108852493600,18.84049365234375,4.914857864379883,-26.741588592529297,10.565508842468262
1748142108870754000,18.858754150390624,2.173281192779541,-26.529224395751953,9.686744689941406
1748142108889021400,18.877021484375,1.801795482635498,-22.336999893188477,11.00877857208252
1748142108907288800,18.895288818359376,3.772284984588623,-20.782861709594727,22.934606552124023
1748142108925551900,18.9135517578125,-48.083770751953125,-12.536596298217773,33.74418258666992
1748142108943815700,18.931815673828126,-15.169897079467773,-5.020142078399658,15.608980178833008
1748142108962082300,18.950082275390624,7.630711555480957,-5.516054630279541,9.10229778289795
1748142108980341500,18.968341552734376,4.538586139678955,-4.786243438720703,4.814957141876221
1748142108998604800,18.986604736328125,0.7716853022575378,-2.8875386714935303,3.549154281616211
1748142109016874800,19.004874755859376,1.6211373805999756,0.24287149310112,2.3222343921661377
1748142109035123500,19.02312353515625,0.5647061467170715,2.8564319610595703,3.4618160724639893
1748142109053405200,19.0414052734375,-5.665007591247559,5.190032482147217,3.741776466369629
1748142109071657500,19.059657470703126,-3.1004998683929443,3.0346972942352295,1.6911274194717407
1748142109089933000,19.07793310546875,-1.3381860256195068,1.1012966632843018,-0.6448656916618347
1748142109108194300,19.0961943359375,0.597607433795929,0.003589233849197626,-1.6217355728149414
1748142109119680000,19.107679931640625,1.3130614757537842,-1.153340458869934,0.0011964113218709826
1748142109137879000,19.125879150390624,0.6442674994468689,-1.4398809671401978,0.7124629616737366
1748142109156142800,19.144142822265625,-0.09212367236614227,-3.3714871406555176,1.9878374338150024
1748142109174408000,19.162407958984375,-10.961520195007324,-23.452054977416992,8.286344528198242
1748142109192673500,19.180673583984376,-14.873785972595215,-69.22496032714844,5.356333255767822
1748142109210936800,19.198936767578125,-4.022933006286621,-56.123653411865234,-1.308275818824768
1748142109229201400,19.217201416015627,-5.232504844665527,-25.41476821899414,9.383454322814941
1748142109247466000,19.235466064453124,-2.118844509124756,-16.372888565063477,13.59482192993164
1748142109265731800,19.25373193359375,-3.728017568588257,-12.862019538879395,11.857632637023926
1748142109283978200,19.271978271484375,-2.146361827850342,-10.103693962097168,7.719843864440918
1748142109302259700,19.290259765625,-0.735194742679596,-5.744568824768066,4.12343168258667
1748142109320510200,19.30851025390625,0.8721838593482971,-1.5158531665802002,1.2741780281066895
1748142109338790700,19.326790771484376,2.7290141582489014,-1.0504491329193115,-1.9070796966552734
1748142109357056800,19.345056884765626,2.950350284576416,-0.9463613629341125,-2.026122570037842
1748142109375317500,19.3633173828125,2.1888344287872314,0.16091732680797577,-1.2394821643829346
1748142109393582800,19.381582763671876,1.3046865463256836,1.100698471069336,-0.5754738450050354
1748142109411848200,19.39984814453125,2.1816561222076416,1.8735800981521606,-0.006580262444913387
1748142109430107400,19.418107421875,6.594020843505859,3.5024940967559814,-0.8787640929222107
1748142109448371200,19.43637109375,9.403793334960938,4.923232555389404,-1.3770694732666016
1748142109466640000,19.454639892578125,7.189235687255859,4.1970109939575195,-1.0007981061935425
1748142109484906800,19.47290673828125,1.5302101373672485,2.181057929992676,0.24945175647735596
1748142109503170000,19.491170166015625,-0.3475574851036072,0.9254241585731506,0.8967102766036987
1748142109521434600,19.5094345703125,-0.23449662327766418,0.11844471842050552,0.8727820515632629
1748142109539698700,19.52769873046875,-50.80979537963867,-11.277373313903809,-2.7044878005981445
1748142109557964500,19.545964599609373,-0.1178465187549591,-8.846863746643066,-0.15732808411121368
1748142109576227800,19.564227783203126,12.339786529541016,-31.097721099853516,-18.789640426635742
1748142109594492200,19.5824921875,12.707682609558105,-39.38107681274414,-9.485149383544922
1748142109612757200,19.60075732421875,3.3134610652923584,-19.257436752319336,3.046661376953125
1748142109631022800,19.61902294921875,-1.140179991722107,-22.35793685913086,6.242276191711426
1748142109649280000,19.637280029296875,-7.429714202880859,-29.598020553588867,12.101700782775879
1748142109667551500,19.655551513671874,-9.559925079345703,-25.302305221557617,14.258232116699219
1748142109685814800,19.673814697265627,-4.9262237548828125,-20.169700622558594,7.124629497528076
1748142109704076300,19.692076171875,-4.506881237030029,-15.40798282623291,7.674380302429199
1748142109722344700,19.7103447265625,-12.751352310180664,-15.022738456726074,11.532208442687988
1748142109740609000,19.728609130859375,-18.178274154663086,-10.754541397094727,16.384254455566406
1748142109758873600,19.74687353515625,-2.5764718055725098,-7.498507976531982,11.83430290222168
1748142109777139200,19.76513916015625,3.541975736618042,-6.131608009338379,5.607579708099365
1748142109795401200,19.783401123046875,-0.4588237404823303,-4.053441524505615,2.9904301166534424
1748142109813663000,19.8016630859375,-9.43609619140625,-0.1782652884721756,1.7312071323394775
1748142109831933200,19.81993310546875,-5.280959606170654,0.7178468108177185,4.446462631225586
1748142109850197500,19.838197509765624,1.2885349988937378,2.1343977451324463,4.446462631225586
1748142109868461000,19.8564609375,-4.184448719024658,4.2592244148254395,5.644070625305176
1748142109886725600,19.8747255859375,-3.817748546600342,4.089334011077881,3.2129626274108887
1748142109904990200,19.892990234375,0.5132604837417603,0.2763710021972656,1.0666006803512573
1748142109923255800,19.911255859375,1.8394824266433716,-2.4765713214874268,1.591825246810913
1748142109941518800,19.929518798828123,0.924227774143219,-4.826323509216309,4.01754903793335
1748142109959779600,19.947779541015624,0.6999006271362305,-12.148360252380371,7.316653251647949
1748142109978048500,19.966048583984374,-11.551351547241211,-33.15016555786133,10.542776107788086
1748142109996314400,19.984314453125,-9.09093189239502,-56.858848571777344,3.1764719486236572
1748142110014577400,20.002577392578125,-4.493122577667236,-37.52125549316406,2.8552355766296387
1748142110032842200,20.02084228515625,-1.3519448041915894,-20.654247283935547,8.359326362609863
1748142110051102500,20.0391025390625,0.25363919138908386,-15.723237991333008,20.248065948486328
1748142110069367800,20.057367919921877,-7.533204078674316,-13.157533645629883,23.8319149017334
1748142110087635700,20.0756357421875,-5.433502197265625,-8.825926780700684,11.974282264709473
1748142110105900300,20.093900390625,-1.1270195245742798,-1.9112670421600342,4.445266246795654
1748142110124165000,20.1121650390625,2.297109842300415,-0.12861421704292297,-0.07357929646968842
1748142110142428700,20.1304287109375,3.8536407947540283,-1.516451358795166,-1.9860427379608154
1748142110160695800,20.14869580078125,3.01196551322937,-1.5032907724380493,-2.1948165893554688
1748142110178958300,20.166958251953126,2.203789710998535,-0.50907301902771,-1.2269197702407837
1748142110197223200,20.18522314453125,4.409972190856934,0.7926225066184998,0.19621145725250244
1748142110215489000,20.203489013671874,10.462018966674805,0.9732806086540222,-2.210968017578125
1748142110233751000,20.2217509765625,13.683954238891602,2.9138598442077637,-3.924229145050049
1748142110252017400,20.240017333984376,9.111868858337402,3.950550079345703,-3.187838077545166
1748142110270281200,20.25828125,3.730410575866699,2.7672994136810303,-1.2478569746017456
1748142110288546600,20.276546630859375,-0.06580262631177902,1.210768222808838,1.2556337118148804
1748142110306810600,20.294810546875,-18.914066314697266,-7.3884382247924805,6.690930366516113
1748142110325070300,20.3130703125,-17.34138298034668,-4.382454872131348,12.251850128173828
1748142110343339500,20.331339599609375,1.1120643615722656,-2.169692039489746,0.9966106414794922
1748142110361606000,20.34960595703125,3.8009986877441406,-8.776275634765625,-6.5252275466918945
1748142110379868700,20.36786865234375,10.317851066589355,-19.37887191772461,-14.063815116882324
1748142110398127400,20.38612744140625,7.772486209869385,-39.03052520751953,-13.702498435974121
1748142110416397600,20.4043974609375,0.15613168478012085,-28.684558868408203,4.432703971862793
1748142110434663200,20.4226630859375,-6.005984783172607,-24.651456832885742,10.38066291809082
1748142110452926500,20.440926513671876,-8.107481002807617,-28.42254638671875,14.57049560546875
1748142110471186200,20.459186279296876,0.26979073882102966,-26.813371658325195,15.281163215637207
1748142110489451300,20.477451171875,2.6261229515075684,-22.865812301635742,7.754539966583252
1748142110507722000,20.495721923828125,-1.6552350521087646,-19.217954635620117,6.235097408294678
1748142110525985000,20.513985107421874,-3.603590965270996,-13.022936820983887,21.002403259277344
1748142110544247300,20.532247314453127,-26.71765899658203,-8.921041488647461,23.805593490600586
1748142110562515500,20.550515380859373,-10.352546691894531,-5.164907455444336,14.23131275177002
1748142110580780300,20.5687802734375,3.99900484085083,-4.777868747711182,8.541180610656738
1748142110599043600,20.587043701171876,1.6193426847457886,-4.264009952545166,5.064409255981445
1748142110651549000,20.639548828125,-1.1784651279449463,2.66560435295105,3.4031920433044434
1748142110669816300,20.65781640625,-0.8177471160888672,2.843869686126709,2.4747767448425293
1748142110688080100,20.676080078125,-1.7336000204086304,2.74755859375,0.898504912853241
1748142110706341600,20.694341552734375,-0.6777670383453369,1.8532410860061646,-1.0755738019943237
1748142110724610800,20.71261083984375,-1.2592228651046753,0.46360939741134644,-2.23848557472229
1748142110742875100,20.730875244140623,-1.0342975854873657,-0.6867401003837585,-2.0303099155426025
1748142110761139700,20.7491396484375,-0.013160524889826775,-1.911865234375,-0.5324030518531799
1748142110779405600,20.767405517578126,0.04247260093688965,-1.8687944412231445,0.649053156375885
1748142110797664300,20.785664306640626,-0.7393822073936462,-9.234500885009766,6.967899322509766
1748142110815932200,20.80393212890625,-12.296117782592773,-42.232723236083984,17.539987564086914
1748142110834199000,20.822198974609375,-8.184051513671875,-76.26165008544922,3.9906299114227295
1748142110852462600,20.840462646484376,-12.728021621704102,-33.96492004394531,7.671389579772949
1748142110870727700,20.858727783203125,-6.952346324920654,-15.026926040649414,11.43529987335205
1748142110888991700,20.87699169921875,1.5296118259429932,-9.05862808227539,10.937592506408691
1748142110907256000,20.895256103515624,2.4879374504089355,-6.820741176605225,10.680363655090332
1748142110925521000,20.91352099609375,1.1736794710159302,-5.988038539886475,10.574481010437012
1748142110943784700,20.93178466796875,-1.3184453248977661,-2.3772692680358887,6.830312252044678
1748142110962051000,20.950051025390625,0.35114672780036926,-0.37447673082351685,-0.30149564146995544
1748142110980314600,20.968314697265626,3.081955671310425,-2.293520450592041,-2.8737800121307373
1748142110998579000,20.986578857421875,2.500499725341797,-2.352144718170166,-2.5663022994995117
1748142111016845800,21.004845703125,1.2041879892349243,-1.2628121376037598,-1.495514154434204
1748142111035106300,21.023106201171874,1.2287144660949707,-0.2793620526790619,-0.9439685344696045
1748142111057929200,21.04592919921875,1.9884356260299683,0.6107679605484009,-0.1698904037475586
1748142111076194300,21.0641943359375,5.645864963531494,1.6713865995407104,-1.795215129852295
1748142111094474500,21.082474609375,5.963512420654297,2.3192434310913086,-1.633699655532837
1748142111112735000,21.10073486328125,0.6825526356697083,0.8620143532752991,0.48454657196998596
1748142111130999600,21.11899951171875,-0.5802595019340515,-0.07896314561367035,0.43130627274513245
1748142111149264000,21.137263916015623,-17.585451126098633,-4.270590305328369,1.4757733345031738
1748142111167529500,21.155529541015625,0.15553347766399384,-1.4847464561462402,-1.0977073907852173
1748142111185791700,21.173791748046874,-6.860222339630127,-6.463014125823975,-5.134997367858887
1748142111204059100,21.19205908203125,-0.005383851006627083,-21.06401824951172,-12.763914108276367
1748142111222319900,21.21031982421875,5.377869129180908,-44.528038024902344,-22.158733367919922
1748142111240591000,21.228591064453123,2.9419753551483154,-23.335405349731445,1.397408366203308
1748142111258850800,21.246850830078124,-1.389033555984497,-15.369697570800781,6.065207004547119
1748142111277115100,21.265115234375,-9.19442081451416,-23.047069549560547,13.068999290466309
1748142111295376600,21.283376708984374,-1.3142578601837158,-24.137001037597656,9.818349838256836
1748142111313646000,21.30164599609375,2.5016961097717285,-21.936800003051758,7.8041911125183105
1748142111331904500,21.319904541015624,-0.4785645306110382,-18.516857147216797,6.117250919342041
1748142111350173000,21.3381728515625,0.48454657196998596,-16.057035446166992,8.828917503356934
1748142111368439800,21.356439697265625,-22.10310173034668,-15.178272247314453,19.936399459838867
1748142111386704400,21.374704345703126,-14.991632461547852,-9.06999397277832,20.561525344848633
1748142111404967700,21.3929677734375,1.607378602027893,-6.08614444732666,11.742776870727539
1748142111423232300,21.411232177734377,4.073182582855225,-4.5236310958862305,5.995815277099609
1748142111441484800,21.42948486328125,-3.4408788681030273,-2.7774689197540283,2.56510591506958
1748142111459762700,21.4477626953125,-5.631507873535156,0.7381857633590698,2.5058834552764893
1748142111478016500,21.4660166015625,-0.7501499056816101,2.4777679443359375,4.613960266113281
1748142111496290300,21.484290283203126,-1.0307083129882812,3.059821844100952,4.01754903793335
1748142111514554600,21.5025546875,-1.6265212297439575,4.511068820953369,2.968296527862549
1748142111532819700,21.52081982421875,-1.9716858863830566,3.325425386428833,1.4057832956314087
1748142111551067100,21.539067138671875,0.6065805554389954,1.1024930477142334,0.03768695518374443
1748142111569344300,21.55734423828125,1.7419748306274414,-0.7722834944725037,1.430309772491455
1748142111587608300,21.5756083984375,0.49232324957847595,-1.8903298377990723,2.3132612705230713
1748142111605877800,21.593877685546875,-2.9551360607147217,-6.278168201446533,5.618347644805908
1748142111624143400,21.612143310546877,-15.513267517089844,-32.64468002319336,6.328417778015137
1748142111642407200,21.6304072265625,-1.5332010984420776,-70.65646362304688,2.2432711124420166
1748142111660671200,21.648671142578124,-5.222335338592529,-43.867618560791016,13.904093742370605
1748142111678937000,21.66693701171875,-10.976475715637207,-21.841087341308594,18.23450469970703
1748142111697199000,21.68519921875,-3.236292600631714,-13.97528076171875,18.629919052124023
1748142111715466200,21.70346630859375,-0.893121063709259,-11.525030136108398,13.51884937286377
1748142111733729300,21.721729248046874,-0.08554340898990631,-8.519644737243652,4.913661479949951
1748142111751995100,21.7399951171875,0.4570291340351105,-4.833501815795898,1.1629117727279663
1748142111770259000,21.758259033203124,1.5391831398010254,-3.6741790771484375,-2.5471596717834473
1748142111788523300,21.776523193359374,3.19860577583313,-3.132802963256836,-3.036491870880127
1748142111806786800,21.794786865234375,2.306680917739868,-1.6809579133987427,-2.4089741706848145
1748142111825055000,21.813054931640625,1.4368900060653687,-0.11186445504426956,-1.1629117727279663
1748142111843312000,21.83131201171875,1.2352946996688843,1.1222338676452637,0.10169496387243271
1748142111861575400,21.849575439453126,7.433901786804199,2.4388844966888428,-0.8033902049064636
1748142111879847200,21.86784716796875,9.258428573608398,5.5244293212890625,-2.341377019882202
1748142111898111700,21.88611181640625,8.924630165100098,6.68016242980957,-3.5222349166870117
1748142111916370400,21.904370361328127,4.391427993774414,5.44426965713501,-1.963310956954956
1748142111934639600,21.9226396484375,0.45224347710609436,2.6536402702331543,-0.16689938306808472
1748142111952904000,21.940904052734375,-14.380266189575195,-3.4743785858154297,3.3481571674346924
1748142111971169800,21.959169677734376,-13.272987365722656,-3.5467612743377686,3.972683906555176
1748142111989433300,21.977433349609374,0.2919243574142456,-4.426722049713135,-1.1132607460021973
1748142112007698200,21.9956982421875,8.624929428100586,-15.62393569946289,-12.943375587463379
1748142112025961200,22.013961181640624,13.822139739990234,-39.434913635253906,-25.101306915283203
1748142112044229400,22.0322294921875,1.6408780813217163,-24.4396915435791,-2.8396823406219482
1748142112062491400,22.050491455078124,-3.3684961795806885,-24.34996223449707,2.2677977085113525
1748142112080742700,22.06874267578125,1.667797327041626,-28.28555679321289,-0.9122636318206787
1748142112099008800,22.0870087890625,2.861217737197876,-30.531818389892578,0.5353940725326538
1748142112117288200,22.1052880859375,3.326023578643799,-26.72902488708496,7.714460372924805
1748142112135551000,22.123551025390626,1.4057832956314087,-21.861425399780273,9.133403778076172
1748142112153812700,22.141812744140626,0.6927221417427063,-18.704694747924805,10.02293586730957
1748142112172080000,22.160080078125,-9.227322578430176,-15.710675239562988,22.18086814880371
1748142112190341000,22.178341064453125,-30.64966583251953,-8.578866958618164,27.854848861694336
1748142112208607700,22.196607666015623,-9.976275444030762,-3.844667673110962,13.695919036865234
1748142112226872600,22.21487255859375,8.636893272399902,-1.2442678213119507,5.956333637237549
1748142112245137000,22.233136962890626,0.7417750358581543,-3.401397466659546,5.092525005340576
1748142112263403500,22.251403564453124,-1.0995019674301147,-2.0309081077575684,3.8392839431762695
1748142112290796300,22.27879638671875,-4.594817638397217,2.00518536567688,5.862415313720703
1748142112309063000,22.29706298828125,-4.214957237243652,4.387240409851074,5.988038539886475
1748142112327326700,22.31532666015625,0.4408775866031647,2.68953275680542,1.3435698747634888
1748142112345591000,22.333591064453124,0.9607182741165161,0.6083751320838928,-0.7872386574745178
1748142112363855400,22.35185546875,0.06340979784727097,-0.3128615617752075,-1.6013965606689453
1748142112382120000,22.370119873046875,1.0265209674835205,-1.3357932567596436,-0.8273184299468994
1748142112400380000,22.3883798828125,0.3403790295124054,-1.6157535314559937,0.21714866161346436
1748142112418647800,22.406647705078125,-6.280561447143555,-6.826723098754883,4.5547380447387695
1748142112436914700,22.424914794921875,-15.67358684539795,-40.20540237426758,10.630712509155273
1748142112455178200,22.44317822265625,-3.035893678665161,-68.79903411865234,9.151947975158691
1748142112473443000,22.461443115234374,-3.8392839431762695,-42.30630111694336,16.757535934448242
1748142112491710500,22.47971044921875,-5.56450891494751,-22.642683029174805,19.941783905029297
1748142112509972000,22.497971923828125,-3.238685369491577,-14.94257926940918,13.890335083007812
1748142112528236500,22.516236572265626,-1.9579271078109741,-10.478170394897461,9.765707015991211
1748142112546498000,22.534498046875,-1.3310075998306274,-6.049654006958008,6.200401782989502
1748142112587591200,22.575591064453125,4.219742774963379,-3.215355396270752,-2.8103702068328857
1748142112605862100,22.593862060546876,4.613361835479736,-3.431307554244995,-3.466601848602295
1748142112624123000,22.612122802734376,3.7944185733795166,-2.173281192779541,-2.606980323791504
1748142112642384400,22.63038427734375,2.4424736499786377,-1.0067801475524902,-1.2203395366668701
1748142112660654300,22.648654296875,4.580460548400879,0.5461617708206177,-0.14656038582324982
1748142112678913300,22.666913330078124,7.945367813110352,2.4532413482666016,-1.4428720474243164
1748142112697182200,22.68518212890625,9.469595909118652,5.186442852020264,-3.2931220531463623
1748142112715448000,22.703447998046876,6.732804775238037,5.760122299194336,-2.83669114112854
1748142112733712400,22.72171240234375,2.1332013607025146,6.2871413230896,0.9188438653945923
1748142112751976000,22.739975830078127,-1.2454642057418823,-1.6307085752487183,-1.1222338676452637
1748142112770242000,22.758241943359376,-32.0093879699707,-7.719245910644531,4.278367042541504
1748142112788504600,22.776504638671874,-1.6474584341049194,-2.4741785526275635,-0.10887342691421509
1748142112806771200,22.794771240234375,7.992625713348389,-6.656832695007324,-9.792028427124023
1748142112825033500,22.813033447265624,9.391828536987305,-18.62932014465332,-19.028324127197266
1748142112843288000,22.8312880859375,-15.009578704833984,-40.6002197265625,-13.439288139343262
1748142112861558500,22.84955859375,-4.5445685386657715,-26.291139602661133,3.43190598487854
1748142112879827700,22.86782763671875,1.6109678745269775,-14.519647598266602,4.6402812004089355
1748142112898093000,22.886093017578126,4.161118507385254,-14.008780479431152,6.022136211395264
1748142112916353000,22.90435302734375,7.6977105140686035,-24.683759689331055,9.084351539611816
1748142112934616600,22.922616455078124,7.103692054748535,-31.337602615356445,16.7856502532959
1748142112952885800,22.9408857421875,2.6039891242980957,-30.317062377929688,10.541580200195312
1748142112971151600,22.959151611328124,1.8335003852844238,-23.031517028808594,9.64965534210205
1748142112989416200,22.977416259765626,5.4418768882751465,-18.332012176513672,18.754344940185547
1748142113007679500,22.995679443359375,-69.35057830810547,-11.756535530090332,23.709880828857422
1748142113025944800,23.01394482421875,-10.193424224853516,-6.33798885345459,11.09611701965332
1748142113044208400,23.03220849609375,9.468399047851562,-3.5545380115509033,5.886941909790039
1748142113062474500,23.050474609375,1.0265209674835205,-3.809373617172241,5.880959987640381
1748142113080737500,23.068737548828125,1.8795621395111084,-0.8638089895248413,4.47697114944458
1748142113099003400,23.08700341796875,-0.1704886108636856,2.7044878005981445,5.486144065856934
1748142113117267000,23.105266845703124,-6.113661766052246,6.114858150482178,5.920441627502441
1748142113135532800,23.12353271484375,-1.5595221519470215,4.851448059082031,2.2546372413635254
1748142113153794300,23.141794189453126,-0.4468596279621124,2.7696921825408936,0.039481572806835175
1748142113181192700,23.169192626953127,2.1607189178466797,0.27756741642951965,0.5706881880760193
1748142113199457300,23.187457275390624,0.5389832854270935,-1.1204391717910767,1.2993026971817017
1748142113217721900,23.205721923828126,-0.030508488416671753,-2.0338993072509766,2.3228325843811035
1748142113235981300,23.223981201171874,-5.480760097503662,-16.75095558166504,7.005586624145508
1748142113254249700,23.242249755859376,-17.233108520507812,-76.29993438720703,2.982055187225342
1748142113272516600,23.2605166015625,1.740180253982544,-62.72724914550781,5.0255255699157715
1748142113290779000,23.27877880859375,-6.458826541900635,-25.433910369873047,9.558728218078613
1748142113309045500,23.29704541015625,-1.5296118259429932,-14.67219066619873,12.547962188720703
1748142113327309000,23.31530908203125,-0.7304090857505798,-10.894521713256836,13.02951717376709
1748142113345573400,23.333573486328124,-4.607978343963623,-8.95394229888916,9.540184020996094
1748142113363838200,23.351838134765625,-1.8759729862213135,-5.089533805847168,2.2743778228759766
1748142113382093800,23.37009375,0.9044869542121887,-1.911865234375,-1.8065811395645142
1748142113400362200,23.3883623046875,3.0317063331604004,-1.9698911905288696,-2.648256540298462
1748142113418631400,23.40663134765625,2.8384859561920166,-0.5485545992851257,-1.852044701576233
1748142113436896300,23.424896240234375,3.3924243450164795,0.3613162338733673,-1.28255295753479
