time,seconds_elapsed,z,y,x
1748142090113068000,0.101068115234375,-0.5410604476928711,-0.530221700668335,-0.07921267300844193
1748142090131331000,0.1193310546875,-0.283294677734375,-0.15984106063842773,-0.3932690918445587
1748142090149595400,0.137595458984375,0.012582778930664062,0.8073685169219971,-0.46133577823638916
1748142090167859000,0.15585888671875,-1.1569147109985352,0.5278604030609131,-0.4125504493713379
1748142090186126000,0.1741259765625,-2.3148951530456543,0.34441399574279785,-0.406013548374176
1748142090204384500,0.192384521484375,-2.6972198486328125,-0.502274751663208,0.15340979397296906
1748142090222654000,0.210654052734375,-2.249573230743408,0.0725562572479248,0.47408628463745117
1748142090240918000,0.22891796875,-0.24767589569091797,1.2560150623321533,1.5479216575622559
1748142090259179000,0.247178955078125,-0.18629932403564453,0.45299720764160156,-0.030875325202941895
1748142090277450500,0.265450439453125,-0.2606391906738281,0.20377898216247559,-1.825538992881775
1748142090295707000,0.283706787109375,-1.3522844314575195,0.4777400493621826,-3.9353139400482178
1748142090313974000,0.30197412109375,-2.0891571044921875,1.0901544094085693,-8.224440574645996
1748142090332229600,0.320229736328125,-1.0792646408081055,-1.1351523399353027,-3.310185432434082
1748142090350504400,0.33850439453125,1.1828022003173828,-1.456754207611084,0.9743990302085876
1748142090368770800,0.356770751953125,2.176224708557129,0.0791475772857666,0.1694507598876953
1748142090387031600,0.375031494140625,1.088160514831543,0.8419821262359619,-1.4181935787200928
1748142090405300000,0.393300048828125,-0.13558006286621094,1.7579054832458496,-0.4395182728767395
1748142090423562800,0.411562744140625,-1.3960304260253906,2.0191168785095215,-0.7378392219543457
1748142090441826600,0.42982666015625,-2.428279399871826,1.3440518379211426,-0.7648042440414429
1748142090460092700,0.4480927734375,-1.093719482421875,0.0461883544921875,-0.20341557264328003
1748142090478351600,0.4663515625,0.4718046188354492,-0.09152793884277344,-1.122244954109192
1748142090496620500,0.48462060546875,-1.0403337478637695,0.07951784133911133,-1.1821911334991455
1748142090514885400,0.502885498046875,-2.2756285667419434,-0.7981114387512207,0.3277801275253296
1748142090533149400,0.5211494140625,-2.9553871154785156,-1.2475428581237793,1.7279973030090332
1748142090551410700,0.53941064453125,-1.780350685119629,-1.7987546920776367,0.29924607276916504
1748142090569678600,0.5576787109375,1.3855581283569336,-4.070326805114746,-0.9342687129974365
1748142090587943400,0.575943359375,2.2516422271728516,-5.334527015686035,-0.38910603523254395
1748142090606207500,0.59420751953125,1.0648603439331055,-4.322078227996826,0.13045072555541992
1748142090624454700,0.61245458984375,-2.565779685974121,-3.275297164916992,1.1041367053985596
1748142090642731300,0.630731201171875,-6.546909332275391,-2.107867479324341,-1.205519676208496
1748142090661000400,0.64900048828125,-7.112373352050781,-2.377281427383423,-2.219653367996216
1748142090679266800,0.667266845703125,-2.1455154418945312,-4.070651054382324,-1.1785025596618652
1748142090697530400,0.6855302734375,0.8509340286254883,-4.119213104248047,-1.9053268432617188
1748142090715793200,0.703793212890625,0.34580087661743164,-3.981992483139038,-2.7682909965515137
1748142090734060500,0.722060546875,0.15895843505859375,-2.941608428955078,-1.9133186340332031
1748142090752324000,0.740323974609375,1.7634296417236328,-2.0983242988586426,-0.9888157844543457
1748142090770588400,0.75858837890625,1.856668472290039,-1.7853291034698486,-0.5829377174377441
1748142090788852000,0.77685205078125,0.867692232131958,-1.4155396223068237,-1.270524024963379
1748142090807116300,0.7951162109375,1.9827759265899658,-1.0570087432861328,-2.4831786155700684
1748142090825380000,0.813380126953125,1.71140718460083,-0.9135489463806152,-2.318985939025879
1748142090843646500,0.831646484375,0.7952966690063477,-0.44380366802215576,-2.7251243591308594
1748142090861910300,0.84991015625,0.6873557567596436,-0.20348769426345825,-3.1517257690429688
1748142090880175400,0.86817529296875,1.7979013919830322,-0.537544310092926,-2.8115854263305664
1748142090898434300,0.886434326171875,3.505690574645996,-0.6276249289512634,0.5345668792724609
1748142090916704500,0.90470458984375,3.1304728984832764,1.2234913110733032,2.5542917251586914
1748142090934968300,0.92296826171875,2.150761604309082,1.67155921459198,3.077503204345703
1748142090953233400,0.9412333984375,2.050267219543457,1.3229198455810547,2.1155128479003906
1748142090971497000,0.9594970703125,2.502101421356201,1.8993102312088013,5.134137153625488
1748142090989762300,0.97776220703125,1.3018245697021484,1.5915756225585938,7.451455116271973
1748142091008023300,0.996023193359375,1.0917346477508545,1.968691110610962,8.669651985168457
1748142091026294000,1.0142939453125,2.3072359561920166,4.052619457244873,13.371103286743164
1748142091044555000,1.032554931640625,2.666147232055664,4.935658931732178,16.682010650634766
1748142091062819000,1.050819091796875,1.0766416788101196,5.015023708343506,16.06946563720703
1748142091081073000,1.069072998046875,-3.654749870300293,4.688615798950195,15.225152015686035
1748142091099345000,1.087344970703125,-7.008182525634766,4.160607814788818,12.797622680664062
1748142091117613600,1.105613525390625,-4.604327201843262,4.153017520904541,9.541802406311035
1748142091135878100,1.123878173828125,-2.854804515838623,3.8811898231506348,8.661127090454102
1748142091154137300,1.142137451171875,-3.335165500640869,0.8725905418395996,6.441710472106934
1748142091172399900,1.16039990234375,-4.249049186706543,-1.3426802158355713,0.11471271514892578
1748142091190672100,1.178672119140625,5.522126197814941,-12.16897964477539,-12.693595886230469
1748142091208934000,1.196933837890625,6.23986291885376,-2.8542659282684326,-5.216552734375
1748142091227203300,1.215203369140625,-3.965175151824951,1.7103238105773926,3.127431869506836
1748142091245463800,1.2334638671875,-0.024588942527770996,1.9896700382232666,-1.2166328430175781
1748142091263729000,1.25172900390625,-0.9218158721923828,-3.349177837371826,-4.255440711975098
1748142091281994000,1.269993896484375,0.577674388885498,-3.4647889137268066,-3.2696046829223633
1748142091300258000,1.288258056640625,5.604983329772949,-0.24516010284423828,-4.1103739738464355
1748142091318523400,1.3065234375,4.912382125854492,-0.6643939018249512,-5.255287170410156
1748142091336786200,1.3247861328125,3.0068132877349854,-1.171858549118042,-6.598875999450684
1748142091355053300,1.34305322265625,1.0523309707641602,-1.575819730758667,-6.776522636413574
1748142091373315800,1.36131591796875,-1.536332607269287,-1.1885182857513428,-4.242156028747559
1748142091391576300,1.379576416015625,-0.8575401306152344,-0.2185373306274414,-2.1091113090515137
1748142091409837300,1.39783740234375,-0.09036636352539062,-1.2656168937683105,-4.052153587341309
1748142091428112000,1.41611181640625,-0.00013637542724609375,-1.6018140316009521,-4.990517616271973
1748142091446370600,1.43437060546875,1.8652007579803467,-0.36803221702575684,-6.721651077270508
1748142091464639000,1.452638916015625,4.093689441680908,1.8797657489776611,-5.727092742919922
1748142091482903300,1.4709033203125,-0.5955376625061035,-4.563656806945801,6.921494483947754
1748142091501167900,1.48916796875,-1.7886199951171875,1.1175315380096436,5.376306533813477
1748142091519432000,1.507431884765625,-0.5801360607147217,6.073930263519287,4.1880950927734375
1748142091537696800,1.52569677734375,1.0063509941101074,3.5296056270599365,1.3542180061340332
1748142091555949000,1.543948974609375,0.09287691116333008,1.818033218383789,0.6791448593139648
1748142091574226400,1.562226318359375,-0.14753365516662598,2.855571985244751,1.1661176681518555
1748142091592478200,1.580478271484375,-34.02897262573242,0.035483360290527344,12.923151969909668
1748142091610755300,1.59875537109375,-9.202045440673828,0.1343836784362793,2.7905778884887695
1748142091629016000,1.61701611328125,2.2660951614379883,1.0877032279968262,-2.28525710105896
1748142091647287300,1.635287353515625,5.68229866027832,2.207883358001709,-3.2039499282836914
1748142091665543400,1.65354345703125,8.128623962402344,2.429067611694336,-2.678544521331787
1748142091683812000,1.67181201171875,7.3957061767578125,2.9307289123535156,-1.1673290729522705
1748142091702078500,1.690078369140625,5.689755439758301,-3.3699026107788086,-0.5399842262268066
1748142091720342800,1.7083427734375,5.233366012573242,-12.656614303588867,-0.05469679832458496
1748142091738606000,1.726606201171875,5.521276473999023,-15.993449211120605,0.7673025131225586
1748142091756871000,1.744870849609375,5.546344757080078,-8.049134254455566,4.388416290283203
1748142091775135200,1.76313525390625,5.0016021728515625,-1.0441770553588867,1.679518461227417
1748142091793405700,1.78140576171875,4.220016002655029,2.2358860969543457,-0.6105202436447144
1748142091811659800,1.79965966796875,3.983745574951172,2.988161563873291,-1.5826807022094727
1748142091829929000,1.817928955078125,4.326595306396484,1.2258272171020508,-1.8230615854263306
1748142091848193500,1.836193603515625,4.161755084991455,-0.15395641326904297,-2.107268810272217
1748142091866458000,1.8544580078125,0.7750689387321472,-0.49656105041503906,-2.401759624481201
1748142091884722200,1.87272216796875,-8.28878402709961,-0.10086822509765625,-2.794994354248047
1748142091902987000,1.890987060546875,-9.691645622253418,1.0862035751342773,-0.018723726272583008
1748142091921246500,1.90924658203125,-4.691198825836182,1.5806026458740234,1.1888680458068848
1748142091939514600,1.9275146484375,-0.3601484000682831,0.9076461791992188,1.660069227218628
1748142091957780000,1.945780029296875,1.2827370166778564,2.9491796493530273,4.367240905761719
1748142091976046000,1.964046142578125,3.38350772857666,0.3319969177246094,3.439121723175049
1748142091994309400,1.982309326171875,4.320478916168213,0.8765811920166016,2.354426145553589
1748142092012569600,2.000569580078125,1.6215723752975464,1.8288812637329102,3.4550883769989014
1748142092030837200,2.018837158203125,-0.5725603103637695,1.5507407188415527,2.8379507064819336
1748142092049104400,2.0371044921875,-1.3426737785339355,-0.1037607192993164,1.1620278358459473
1748142092067362300,2.0553623046875,-0.9015902280807495,-0.08110427856445312,-0.11464905738830566
1748142092085632300,2.07363232421875,-4.12638521194458,-0.40304088592529297,-0.07613134384155273
1748142092103896300,2.091896240234375,-4.7473063468933105,-0.6432514190673828,1.470649003982544
1748142092122161400,2.110161376953125,-2.5614027976989746,0.03222846984863281,3.4835522174835205
1748142092140425200,2.12842529296875,-1.2733532190322876,-0.2835369110107422,4.2737226486206055
1748142092158690000,2.14668994140625,-0.8270916938781738,-1.0107784271240234,3.9405171871185303
1748142092176954600,2.16495458984375,1.3311835527420044,-0.6609230041503906,3.712024688720703
1748142092195219200,2.18321923828125,0.967877984046936,-1.8765382766723633,4.108843803405762
1748142092213483300,2.201483154296875,0.5943843126296997,-3.9434633255004883,5.351525783538818
1748142092231743700,2.21974365234375,-0.5847851037979126,-4.030877113342285,5.401416778564453
1748142092250012400,2.238012451171875,-2.789442777633667,-4.982243537902832,3.7364346981048584
1748142092268272600,2.256272705078125,-5.29946231842041,-2.598064422607422,3.9217946529388428
1748142092286541300,2.274541259765625,-4.054167747497559,-0.8625936508178711,1.4806339740753174
1748142092304805000,2.29280517578125,-4.260761737823486,0.10919761657714844,0.5424196720123291
1748142092323071500,2.311071533203125,-1.5503766536712646,-1.4123172760009766,1.858494520187378
1748142092341338600,2.329338623046875,2.3368427753448486,-2.806736946105957,1.7022809982299805
1748142092359599000,2.34759912109375,4.073061943054199,-2.0579471588134766,1.910984992980957
1748142092377864200,2.3658642578125,4.29915189743042,-0.7739419937133789,1.9396100044250488
1748142092396128300,2.384128173828125,3.4626917839050293,-1.0784330368041992,0.2932860851287842
1748142092414389200,2.40238916015625,3.0329790115356445,-0.4889516830444336,-1.2891056537628174
1748142092432657400,2.420657470703125,2.2047553062438965,-0.8752288818359375,-0.1845686435699463
1748142092450910500,2.438910400390625,0.5732636451721191,0.48800182342529297,-0.08570647239685059
1748142092469186300,2.457186279296875,-0.7167539596557617,1.1262226104736328,0.6316180229187012
1748142092487451400,2.475451416015625,-0.29633069038391113,1.2085371017456055,1.6883487701416016
1748142092505714000,2.4937138671875,2.504866123199463,1.0657906532287598,1.4499928951263428
1748142092523977000,2.51197705078125,4.281062126159668,1.1230931282043457,1.680396318435669
1748142092542240500,2.530240478515625,4.839500904083252,0.46743059158325195,0.9440629482269287
1748142092560513300,2.54851318359375,2.956130266189575,0.30614328384399414,-0.15247464179992676
1748142092578774300,2.566774169921875,3.658351421356201,0.5063471794128418,-3.3765604496002197
1748142092597036300,2.585036376953125,2.4946253299713135,2.369579315185547,-4.316609859466553
1748142092615303700,2.6033037109375,1.7243096828460693,4.094435214996338,-3.67889666557312
1748142092633567500,2.6215673828125,1.5714771747589111,3.9424195289611816,-1.8773102760314941
1748142092651828000,2.639827880859375,2.3151512145996094,2.4127392768859863,-0.6831960678100586
1748142092670094800,2.6580947265625,2.304044485092163,1.6894536018371582,-0.4432995319366455
1748142092688355600,2.67635546875,0.6326396465301514,2.7610559463500977,-0.5906376838684082
1748142092706625500,2.69462548828125,-1.3971014022827148,3.6652474403381348,0.08699846267700195
1748142092724889300,2.712889404296875,-3.3807787895202637,4.320860862731934,1.9798004627227783
1748142092743154700,2.73115478515625,-5.386138916015625,2.382129669189453,2.7893259525299072
1748142092761420300,2.749420166015625,-5.857395172119141,-0.2186145782470703,4.674181938171387
1748142092779678700,2.7676787109375,-7.577608585357666,-2.4719982147216797,4.266996383666992
1748142092797935400,2.785935302734375,-11.954751968383789,-5.8521881103515625,4.901086330413818
1748142092816213800,2.8042138671875,-1.6698780059814453,-10.46407413482666,3.6924684047698975
1748142092834460000,2.8224599609375,13.282220840454102,-3.5255308151245117,-0.5339329242706299
1748142092852741400,2.840741455078125,8.380159378051758,3.92842435836792,-3.0070955753326416
1748142092871005400,2.85900537109375,-0.013915061950683594,4.415107250213623,-1.428389072418213
1748142092889270500,2.8772705078125,6.604684829711914,1.6247949600219727,7.1987504959106445
1748142092907534000,2.8955341796875,8.96556282043457,-3.588592529296875,-1.3896880149841309
1748142092925798400,2.91379833984375,-1.3520231246948242,-3.774632453918457,-6.018415451049805
1748142092944064500,2.932064453125,-1.6403050422668457,-1.3473625183105469,-2.056703567504883
1748142092962329300,2.950329345703125,0.23610258102416992,0.8351240158081055,-2.4607884883880615
1748142092980592000,2.968592041015625,0.003175497055053711,1.7441482543945312,-3.3925843238830566
1748142092998857500,2.986857421875,-0.9371657371520996,2.8501100540161133,-2.850468635559082
1748142093017120500,3.00512060546875,1.1350517272949219,2.788196086883545,-1.012471079826355
1748142093035382800,3.0233828125,1.7314767837524414,2.1765031814575195,-0.5681596994400024
1748142093053649400,3.0416494140625,1.7621004581451416,0.8800373077392578,-1.0050077438354492
1748142093071916800,3.059916748046875,2.2049973011016846,-0.4847831726074219,0.1259557008743286
1748142093090179600,3.0781796875,2.792858600616455,-0.9927740097045898,0.9703366756439209
1748142093108445000,3.09644482421875,2.2502903938293457,-0.5000076293945312,1.3472176790237427
1748142093126708700,3.114708740234375,0.8154441118240356,0.43517398834228516,1.4446369409561157
1748142093144973800,3.132973876953125,-0.6566101908683777,1.4674415588378906,2.2765910625457764
1748142093163238000,3.15123779296875,-1.9759643077850342,2.018681526184082,3.382998466491699
1748142093181503200,3.169503173828125,-2.7527151107788086,1.7691650390625,4.22911262512207
1748142093199767600,3.187767578125,-2.3475451469421387,1.356123924255371,4.247989177703857
1748142093218031400,3.20603125,-1.2390382289886475,1.555588722229004,3.2342329025268555
1748142093236296000,3.2242958984375,-0.4864591658115387,1.9740309715270996,2.110713481903076
1748142093254561000,3.24256103515625,-1.0748143196105957,1.6137399673461914,1.7328226566314697
1748142093272812800,3.260812744140625,-1.3530553579330444,0.8764123916625977,1.5001027584075928
1748142093291084800,3.279084716796875,-2.1653199195861816,0.8114891052246094,1.3864091634750366
1748142093309350700,3.2973505859375,-5.236001491546631,1.1172637939453125,1.2631067037582397
1748142093327620000,3.3156201171875,-5.056722640991211,0.48206520080566406,2.4661364555358887
1748142093345883100,3.333883056640625,-2.099205732345581,-0.5269641876220703,4.029562950134277
1748142093364148200,3.352148193359375,-0.9937074184417725,-0.3187255859375,4.246891975402832
1748142093382407200,3.3704072265625,-0.7439650893211365,1.0885801315307617,4.350801467895508
1748142093400677000,3.388677001953125,-1.6850659847259521,0.897089958190918,6.118802070617676
1748142093418941200,3.406941162109375,-3.4824953079223633,-1.2134056091308594,8.23940372467041
1748142093437205000,3.425205078125,-3.584484100341797,-3.006707191467285,8.868977546691895
1748142093455471000,3.44347119140625,-0.5055834054946899,-3.1598005294799805,6.964516639709473
1748142093473735200,3.461735107421875,0.17272543907165527,-4.763195991516113,5.875103950500488
1748142093491999200,3.479999267578125,-2.3245019912719727,-6.972455024719238,2.0933127403259277
1748142093510264000,3.49826416015625,-1.677154779434204,-8.047338485717773,-1.8481335639953613
1748142093528528100,3.516528076171875,3.2346506118774414,-7.421131134033203,-1.5192033052444458
1748142093546792000,3.5347919921875,5.141581058502197,-7.567944526672363,-3.229602813720703
1748142093565057500,3.5530576171875,3.4349262714385986,-6.914194107055664,-6.465669631958008
1748142093583324000,3.571323974609375,0.4439980983734131,-2.0092334747314453,-5.5407633781433105
1748142093601581300,3.589581298828125,0.4808058738708496,1.3797168731689453,-2.5336291790008545
1748142093619852000,3.60785205078125,2.403329849243164,2.201091766357422,-1.8391536474227905
1748142093638109700,3.626109619140625,3.8097763061523438,2.4256057739257812,-0.5963529348373413
1748142093656376600,3.64437646484375,4.837943077087402,2.9682507514953613,0.38079774379730225
1748142093674643500,3.6626435546875,5.932203769683838,3.884368419647217,1.5291062593460083
1748142093692909300,3.680909423828125,6.1537065505981445,4.540859699249268,2.4471774101257324
1748142093711173400,3.69917333984375,4.622504711151123,4.351325511932373,3.357645034790039
1748142093729438500,3.7174384765625,3.338925361633301,3.2410888671875,2.276811122894287
1748142093747702300,3.735702392578125,3.711906671524048,2.9693946838378906,-0.2212364673614502
1748142093765967600,3.753967529296875,4.47158145904541,4.283820152282715,-1.5262949466705322
1748142093784231400,3.7722314453125,4.445855140686035,5.122448921203613,-3.2110824584960938
1748142093802496500,3.79049658203125,3.952044725418091,5.466315269470215,-4.089006423950195
1748142093820760600,3.808760498046875,3.1433658599853516,5.676280975341797,-4.230568885803223
1748142093839025200,3.827025146484375,2.5253443717956543,5.1252336502075195,-4.062952518463135
1748142093857288000,3.845287841796875,1.749261498451233,3.20980167388916,-3.9532434940338135
1748142093875555000,3.86355517578125,-0.8557925224304199,0.1496572494506836,-2.5306179523468018
1748142093893812700,3.881812744140625,-7.616438865661621,-3.5928821563720703,1.3891372680664062
1748142093912068400,3.900068359375,-24.385744094848633,-7.9048871994018555,10.74932861328125
1748142093930344400,3.918344482421875,-13.116310119628906,-11.184419631958008,12.605302810668945
1748142093948612400,3.9366123046875,-5.360215187072754,-5.833437919616699,5.574578285217285
1748142093966876700,3.954876708984375,-3.994265556335449,2.3892459869384766,1.9677095413208008
1748142093985141500,3.9731416015625,-6.78239107131958,6.003974437713623,-1.468353033065796
1748142094003406300,3.99140625,3.8473219871520996,7.84575891494751,-2.0297906398773193
1748142094021665800,4.009665771484375,8.471755981445312,9.095235824584961,-3.638141632080078
1748142094039934500,4.0279345703125,10.570619583129883,5.295407295227051,-3.7260189056396484
1748142094058199600,4.046199462890625,9.068185806274414,-7.961505889892578,-2.1104609966278076
1748142094076463900,4.0644638671875,7.644332408905029,-28.145732879638672,4.44318962097168
1748142094094728400,4.082728515625,6.15604829788208,-24.803524017333984,7.021082878112793
1748142094112993000,4.100992919921875,-0.5536421537399292,-2.496993064880371,1.874657154083252
1748142094131257600,4.119257568359375,-1.9705822467803955,3.4384565353393555,-1.0131464004516602
1748142094149517000,4.13751708984375,1.4911212921142578,4.269340515136719,-2.132995128631592
1748142094167785700,4.15578564453125,2.607649803161621,5.416350364685059,-2.4171061515808105
1748142094186052000,4.174052001953125,3.8391189575195312,4.418900489807129,-3.347057819366455
1748142094204316000,4.19231591796875,4.985203742980957,-1.114649772644043,-3.085937261581421
1748142094222580000,4.210580078125,3.7855329513549805,-3.142972946166992,-3.276536226272583
1748142094240845000,4.228844970703125,-0.6718064546585083,-0.21200180053710938,-4.5345001220703125
1748142094259108600,4.247108642578125,-4.414169788360596,2.7697482109069824,-4.228231430053711
1748142094277369600,4.26536962890625,-4.818316459655762,4.799822807312012,-2.5963618755340576
1748142094295637800,4.2836376953125,-4.17082405090332,4.817920207977295,-0.3647037744522095
1748142094313903000,4.301903076171875,-3.456988573074341,3.4907565116882324,2.5178632736206055
1748142094332167200,4.320167236328125,-2.0094223022460938,1.8311219215393066,4.762042999267578
1748142094350432300,4.338432373046875,-0.3755456805229187,0.8746747970581055,4.474708557128906
1748142094368696300,4.3566962890625,0.40651750564575195,1.4496145248413086,3.561460018157959
1748142094386961000,4.3749609375,0.057244300842285156,2.280059337615967,2.0608646869659424
1748142094405220900,4.393220947265625,-2.390854835510254,1.4302005767822266,1.6469337940216064
1748142094423489000,4.411489013671875,-4.8997602462768555,-1.2162847518920898,2.1461691856384277
1748142094441772000,4.42977197265625,-3.5896410942077637,-3.028742790222168,4.474127769470215
1748142094460019500,4.44801953125,-1.8547828197479248,-2.448831558227539,5.8959269523620605
1748142094478283500,4.466283447265625,-1.1853457689285278,-0.07110404968261719,5.739365100860596
1748142094496548000,4.484548095703125,-1.3768627643585205,1.1939458847045898,6.858913421630859
1748142094514811400,4.502811279296875,-3.5562663078308105,-0.6097383499145508,7.8887553215026855
1748142094533078500,4.52107861328125,-5.258184909820557,-3.2683000564575195,9.205623626708984
1748142094551330000,4.539330078125,-2.603633403778076,-3.970010757446289,7.808566093444824
1748142094569606100,4.557606201171875,0.6721140742301941,-3.805203437805176,3.94527006149292
1748142094587870700,4.57587060546875,1.0337295532226562,-5.05983829498291,2.7019150257110596
1748142094606135800,4.5941357421875,-0.11389316618442535,-7.388840675354004,0.869011402130127
1748142094624405000,4.612405029296875,-1.3973394632339478,-10.064169883728027,-1.8894726037979126
1748142094642665000,4.6306650390625,-0.19225943088531494,-9.539416313171387,-3.647353172302246
1748142094660923000,4.6489228515625,1.8102893829345703,-5.736268997192383,-3.176962375640869
1748142094679195600,4.667195556640625,2.5158638954162598,-2.5448970794677734,-3.142474889755249
1748142094697456600,4.68545654296875,3.3179707527160645,-0.5504550933837891,-2.933831214904785
1748142094715722800,4.70372265625,4.989716529846191,0.7975468635559082,-1.9215688705444336
1748142094733984800,4.72198486328125,5.925459861755371,1.5381245613098145,-0.8479998111724854
1748142094752253700,4.740253662109375,6.2132158279418945,2.8600149154663086,-0.5521407127380371
1748142094770516000,4.758515869140625,5.924118518829346,4.085407257080078,-0.562929630279541
1748142094788779800,4.77677978515625,3.195047378540039,4.9800825119018555,0.36869049072265625
1748142094807044900,4.795044921875,-1.3574459552764893,5.195985794067383,3.168494462966919
1748142094825311000,4.81331103515625,1.9426252841949463,4.151589870452881,2.6205525398254395
1748142094843574000,4.831573974609375,5.1455488204956055,2.7563672065734863,0.7841103076934814
1748142094861834200,4.849834228515625,5.049541473388672,2.2182235717773438,-2.6427419185638428
1748142094880103000,4.86810302734375,4.878358364105225,3.17147159576416,-4.069417953491211
1748142094898363100,4.886363037109375,5.204118728637695,4.296459197998047,-4.811739444732666
1748142094916632300,4.90463232421875,4.593672752380371,5.205299377441406,-5.618762016296387
1748142094934896000,4.922896240234375,3.6285560131073,5.870858192443848,-6.09706974029541
1748142094953160000,4.941159912109375,2.4465243816375732,5.552443504333496,-6.177599906921387
1748142094971426300,4.95942626953125,-0.20444297790527344,3.3141708374023438,-5.43416690826416
1748142094989674800,4.9776748046875,-8.709005355834961,-2.268644332885742,-2.318668842315674
1748142095007950600,4.99595068359375,-22.957998275756836,-12.65796947479248,12.607898712158203
1748142095026219000,5.014218994140625,-9.027685165405273,-19.026752471923828,21.26404571533203
1748142095044484400,5.032484375,-7.396622657775879,-6.757401466369629,9.951007843017578
1748142095062748200,5.050748046875,-5.238908767700195,3.736205577850342,3.2302093505859375
1748142095081013500,5.069013427734375,-1.1019508838653564,4.849128246307373,-3.6516470909118652
1748142095099277300,5.08727734375,7.81007719039917,2.309803009033203,-2.4430549144744873
1748142095117542700,5.105542724609375,13.924954414367676,-2.702569007873535,0.9832262992858887
1748142095135805000,5.123804931640625,8.023653030395508,-6.537815093994141,-1.2594276666641235
1748142095154072300,5.142072265625,3.5274806022644043,-4.03889274597168,-1.0496505498886108
1748142095172338700,5.160338623046875,-7.689065933227539,-3.295943260192871,-2.0324478149414062
1748142095190601000,5.17860107421875,-0.9544433355331421,1.1841259002685547,-4.6835222244262695
1748142095208864500,5.196864501953125,4.567086219787598,3.4055399894714355,-3.2995705604553223
1748142095227129000,5.215129150390625,5.373779773712158,3.635887622833252,-1.675126314163208
1748142095245390300,5.233390380859375,5.239209175109863,1.8239927291870117,-0.47819364070892334
1748142095263654100,5.251654052734375,4.469376087188721,-0.7956695556640625,-0.03501129150390625
1748142095281917200,5.269917236328125,3.1208763122558594,-1.5858573913574219,0.2316129207611084
1748142095300189000,5.28818896484375,2.2916419506073,-0.08985042572021484,-0.29183709621429443
1748142095318451700,5.30645166015625,-0.3819979429244995,1.9401917457580566,-0.6735798120498657
1748142095336717000,5.324717041015625,-3.8491499423980713,2.9210596084594727,-0.934689998626709
1748142095354981000,5.342981201171875,-4.1355204582214355,2.9631786346435547,-0.15797162055969238
1748142095373246200,5.36124609375,-1.155696153640747,1.9055976867675781,0.7866507768630981
1748142095391510800,5.3795107421875,0.5269910097122192,1.1260042190551758,1.0607612133026123
1748142095409774800,5.39777490234375,0.9858777523040771,1.6595096588134766,0.6782829761505127
1748142095428039400,5.416039306640625,-1.0999276638031006,2.398495674133301,1.0726211071014404
1748142095446302200,5.43430224609375,-4.315145492553711,2.7404098510742188,2.4982190132141113
1748142095464570400,5.4525703125,-3.9145750999450684,2.0591530799865723,3.0480926036834717
1748142095482834700,5.470834716796875,-2.658565044403076,0.21892452239990234,3.100421905517578
1748142095501096400,5.489096435546875,-3.7950611114501953,-1.0941343307495117,2.3176915645599365
1748142095519357700,5.507357666015625,-5.007245063781738,-2.1855716705322266,2.025042772293091
1748142095537625300,5.525625244140625,-3.9227330684661865,-2.4811935424804688,3.2797513008117676
1748142095555882800,5.5438828125,-1.9898778200149536,-1.7231121063232422,4.5291547775268555
1748142095574155500,5.562155517578125,-1.0847418308258057,-1.2375268936157227,5.1282453536987305
1748142095592420900,5.5804208984375,-3.277566909790039,-2.7601804733276367,5.549765586853027
1748142095610684700,5.5986845703125,-9.56680679321289,-5.921572685241699,5.911746025085449
1748142095628949800,5.61694970703125,-5.651932716369629,-5.477272033691406,8.434263229370117
1748142095647212300,5.63521240234375,-2.769200325012207,-2.7769594192504883,5.937612056732178
1748142095665480000,5.65347998046875,-0.8277084231376648,-2.7098073959350586,5.16712760925293
1748142095683743000,5.671742919921875,0.9138826131820679,-3.723184585571289,4.847207069396973
1748142095702007800,5.6900078125,2.3972585201263428,-6.336627006530762,4.0461106300354
1748142095720272000,5.70827197265625,3.3532650470733643,-9.239082336425781,1.299924373626709
1748142095738537000,5.726536865234375,1.9748611450195312,-10.739118576049805,-0.5394015312194824
1748142095756799200,5.74479931640625,-1.5475521087646484,-8.440803527832031,-0.572342038154602
1748142095775062300,5.763062255859375,2.123903274536133,-5.041886329650879,-3.959775686264038
1748142095793329200,5.7813291015625,3.7999823093414307,-0.01755523681640625,-5.213370323181152
1748142095811590000,5.79958984375,3.9993929862976074,3.547161102294922,-4.112615585327148
1748142095829860600,5.817860595703125,4.283689022064209,5.476550579071045,-2.7927680015563965
1748142095848124400,5.83612451171875,5.322944641113281,6.760822296142578,-1.406507968902588
1748142095866383600,5.854383544921875,6.142454147338867,7.503259658813477,-0.2453770637512207
1748142095884653600,5.872653564453125,5.445822238922119,7.734262466430664,0.28014564514160156
1748142095902917000,5.890917236328125,5.465129852294922,7.179087162017822,0.46817684173583984
1748142095921182500,5.909182373046875,3.573960542678833,6.675666332244873,0.853546142578125
1748142095939446300,5.9274462890625,2.078061103820801,6.298542022705078,-1.2363901138305664
1748142095957710800,5.9457109375,4.380266189575195,6.328761577606201,-4.655179023742676
1748142095975975400,5.963975341796875,5.103265285491943,6.868361949920654,-6.095314025878906
1748142095994240800,5.98224072265625,4.400994777679443,7.199492931365967,-6.8861188888549805
1748142096012504600,6.000504638671875,3.11531138420105,6.416390419006348,-6.161513328552246
1748142096030758400,6.01875830078125,-12.310044288635254,0.217315673828125,-1.8452867269515991
1748142096049031400,6.037031494140625,-24.389745712280273,-14.446667671203613,24.694673538208008
1748142096067285500,6.055285400390625,-8.902326583862305,-23.845481872558594,14.233064651489258
1748142096085564000,6.07356396484375,-7.057239055633545,-4.594273567199707,8.749881744384766
1748142096103826400,6.091826416015625,-4.087312698364258,4.702702045440674,1.1168491840362549
1748142096122092800,6.1100927734375,4.093233108520508,3.8907628059387207,-7.000516891479492
1748142096140351700,6.128351806640625,12.273383140563965,0.7186594009399414,-7.645320892333984
1748142096158620700,6.14662060546875,13.905653953552246,-3.667628288269043,-9.653680801391602
1748142096176885800,6.1648857421875,-5.877416610717773,-5.512066841125488,-9.026020050048828
1748142096195150000,6.183150146484375,5.300751209259033,-7.081066131591797,-0.7153196930885315
1748142096213415200,6.201415283203125,4.839085578918457,-5.692461967468262,1.1803861856460571
1748142096231674400,6.21967431640625,5.246048927307129,-1.7212772369384766,0.4931790232658386
1748142096249944000,6.237944091796875,4.5119829177856445,0.981572151184082,1.1325762271881104
1748142096268208000,6.2562080078125,3.381455421447754,2.27614164352417,1.7285515069961548
1748142096286473000,6.274472900390625,2.548353672027588,2.807687282562256,2.1447396278381348
1748142096304736000,6.292736083984375,1.3708192110061646,3.168208599090576,1.9284013509750366
1748142096323003400,6.31100341796875,-0.24436667561531067,4.378958702087402,1.9586063623428345
1748142096341266400,6.329266357421875,-3.2230424880981445,4.401566028594971,1.606669545173645
1748142096359531300,6.34753125,-7.123574733734131,2.9653234481811523,0.6648821234703064
1748142096377789700,6.365789794921875,-7.718873977661133,0.877619743347168,0.9164705276489258
1748142096396061400,6.3840615234375,-5.59613037109375,1.095717430114746,1.2957161664962769
1748142096414325500,6.402325439453125,-3.1335673332214355,3.5378546714782715,2.7295680046081543
1748142096432590000,6.420590087890625,-1.9993544816970825,3.0479769706726074,5.514804840087891
1748142096450836500,6.43883642578125,-1.3437466621398926,2.4263572692871094,5.7884297370910645
1748142096469121300,6.457121337890625,-0.38128089904785156,2.3521690368652344,6.0734758377075195
1748142096487380000,6.4753798828125,-1.654714584350586,1.4737486839294434,7.253664493560791
1748142096505647900,6.49364794921875,-15.521063804626465,-2.6912336349487305,10.325189590454102
1748142096523912000,6.511911865234375,-13.504963874816895,-4.2688493728637695,9.763521194458008
1748142096542177000,6.530177001953125,-7.877632141113281,-3.3924503326416016,4.85017728805542
1748142096560440800,6.54844091796875,-8.689379692077637,-2.9673986434936523,-0.40814512968063354
1748142096578706200,6.5667060546875,-8.612868309020996,-2.4762563705444336,-0.7950431108474731
1748142096596969000,6.584968994140625,-4.488553047180176,-3.652608871459961,5.028086185455322
1748142096615236400,6.603236328125,-2.077454090118408,-5.940622329711914,7.781014919281006
1748142096633494500,6.62149462890625,1.2383242845535278,-7.636324882507324,6.149053573608398
1748142096651752700,6.639752685546875,5.1741156578063965,-10.935954093933105,4.569300651550293
1748142096670028300,6.6580283203125,5.976417541503906,-14.624996185302734,4.548213005065918
1748142096688293600,6.676293701171875,5.895558834075928,-18.41746711730957,3.7088184356689453
1748142096706557700,6.6945576171875,-3.964020252227783,-22.37000846862793,3.068495750427246
1748142096724821200,6.7128212890625,-6.992652416229248,-13.776946067810059,2.0941929817199707
1748142096743087400,6.73108740234375,-2.5167059898376465,-8.355360984802246,8.552064895629883
1748142096761347300,6.749347412109375,-3.56372332572937,-7.282994270324707,13.97964096069336
1748142096779615700,6.76761572265625,-0.1444108486175537,-6.327500343322754,9.302780151367188
1748142096797880600,6.785880615234375,3.5975265502929688,-2.0015525817871094,3.560420036315918
1748142096816143600,6.8041435546875,7.405034065246582,3.01790189743042,-2.47615909576416
1748142096834411000,6.822410888671875,8.83824634552002,5.965816497802734,-6.255455017089844
1748142096852673500,6.840673583984375,8.47555160522461,7.5669941902160645,-6.356679916381836
1748142096870939000,6.85893896484375,8.800098419189453,9.090563774108887,-5.262683391571045
1748142096889195800,6.87719580078125,12.701517105102539,10.44254207611084,-6.659844398498535
1748142096907469000,6.895468994140625,16.00345802307129,13.41560173034668,-9.521015167236328
1748142096925733400,6.9137333984375,14.309723854064941,15.802555084228516,-12.010011672973633
1748142096943997200,6.9319970703125,3.210421562194824,19.915294647216797,-8.853857040405273
1748142096962261200,6.95026123046875,-0.38765740394592285,13.311991691589355,-9.665852546691895
1748142096980526300,6.9685263671875,-11.221028327941895,7.040534496307373,-12.340986251831055
1748142096998789000,6.9867890625,-21.779769897460938,-0.3853902816772461,-7.706220626831055
1748142097017055200,7.00505517578125,-15.389252662658691,-4.621644973754883,-3.547116756439209
1748142097035320600,7.023320556640625,-0.0201113224029541,2.5161733627319336,-3.786914587020874
1748142097053584100,7.041584228515625,10.510759353637695,4.4460649490356445,-10.421947479248047
1748142097071843800,7.05984375,7.997427463531494,-4.284361839294434,-16.84891128540039
1748142097090113500,7.078113525390625,1.7897405624389648,-19.302200317382812,-19.323936462402344
1748142097108372500,7.09637255859375,10.830896377563477,-14.367945671081543,-7.386987686157227
1748142097126642700,7.114642578125,11.811185836791992,-9.982156753540039,0.869538426399231
1748142097144901600,7.132901611328125,9.562511444091797,-9.592649459838867,-1.9029879570007324
1748142097163170800,7.1511708984375,12.334002494812012,-17.11012077331543,-2.4532151222229004
1748142097181441300,7.169441162109375,10.616769790649414,-25.118282318115234,8.456039428710938
1748142097199701000,7.187700927734375,4.151904582977295,-28.102750778198242,14.459714889526367
1748142097217964500,7.205964599609375,-2.8718602657318115,-23.124988555908203,17.912822723388672
1748142097236230100,7.224230224609375,-14.11103630065918,-11.461027145385742,32.09101104736328
1748142097254493700,7.24249365234375,-47.26435852050781,-0.19872474670410156,29.83572006225586
1748142097272759300,7.26075927734375,-12.476340293884277,5.430448532104492,13.963972091674805
1748142097291022800,7.27902294921875,4.826760292053223,4.077686786651611,9.36284065246582
1748142097309288200,7.2972880859375,1.8095664978027344,4.608759880065918,6.634711265563965
1748142097327552000,7.315552001953125,-1.5790069103240967,6.721668243408203,4.02305269241333
1748142097345816600,7.333816650390625,-2.3152427673339844,9.295608520507812,1.928413987159729
1748142097364082200,7.352082275390625,-1.83957839012146,11.332778930664062,0.9581257104873657
1748142097382342400,7.37034228515625,-9.967880249023438,13.935808181762695,-0.050032734870910645
1748142097400605400,7.38860546875,-9.953150749206543,13.243205070495605,-1.8038508892059326
1748142097418874400,7.406874267578125,-1.5443429946899414,10.790628433227539,-3.086352825164795
1748142097437139700,7.4251396484375,-0.9570208191871643,9.993064880371094,-3.177691698074341
1748142097455406300,7.44340625,-2.091874837875366,9.564749717712402,-3.240445613861084
1748142097473668900,7.4616689453125,0.939189076423645,8.430590629577637,-0.23820877075195312
1748142097491934000,7.479933837890625,1.1055068969726562,8.032846450805664,0.5395104289054871
1748142097510197800,7.49819775390625,-4.435244083404541,1.7899489402770996,6.87493896484375
1748142097528462800,7.516462890625,-11.971726417541504,-42.90694808959961,14.16279411315918
1748142097546724900,7.534724853515625,6.5298309326171875,-73.10997772216797,7.563497543334961
1748142097564994300,7.552994384765625,-11.969184875488281,-27.88375473022461,9.028597831726074
1748142097583256000,7.571256103515625,-6.566654205322266,-9.407388687133789,7.787858009338379
1748142097601522400,7.5895224609375,4.144907474517822,-3.586467742919922,4.632962226867676
1748142097619784000,7.607783935546875,5.39590311050415,-0.5673704147338867,3.723903179168701
1748142097638051600,7.626051513671875,5.182061195373535,2.1964311599731445,0.9318327903747559
1748142097656313900,7.64431396484375,6.211888313293457,4.628480911254883,-4.7379374504089355
1748142097674578200,7.662578125,7.108465194702148,5.678586006164551,-6.576772689819336
1748142097692844500,7.680844482421875,6.494418144226074,6.474499702453613,-6.210663318634033
1748142097711108600,7.699108642578125,5.9461669921875,8.200647354125977,-5.129223823547363
1748142097729367800,7.717367919921875,7.799870014190674,9.483758926391602,-4.246705532073975
1748142097747633000,7.7356328125,8.175079345703125,10.564193725585938,-4.615884780883789
1748142097765901600,7.753901611328125,10.02935791015625,11.287790298461914,-6.6292643547058105
1748142097784167000,7.7721669921875,7.958737373352051,12.360416412353516,-5.842811584472656
1748142097802431000,7.790430908203125,4.590106964111328,17.497182846069336,-2.4663305282592773
1748142097820696000,7.808696044921875,2.657883644104004,14.755428314208984,-3.0012030601501465
1748142097838959600,7.826959716796875,3.4565887451171875,11.22719955444336,-4.121085166931152
1748142097857223700,7.8452236328125,-37.16264343261719,-0.19653034210205078,-6.088605880737305
1748142097875490000,7.863489990234375,-3.2337214946746826,3.062755584716797,-3.225092887878418
1748142097893754400,7.88175439453125,5.098388671875,7.978712558746338,-3.5861358642578125
1748142097912018200,7.90001806640625,7.609749794006348,5.248363971710205,-6.372481346130371
1748142097930283000,7.918282958984375,10.093894958496094,-1.9170637130737305,-8.629632949829102
1748142097948547600,7.936547607421875,10.303499221801758,-30.740493774414062,-11.738899230957031
1748142097966808000,7.95480810546875,12.092244148254395,-39.719608306884766,-4.254508018493652
1748142097985080600,7.97308056640625,4.474562644958496,-19.80532455444336,5.124957084655762
1748142098003343600,7.991343505859375,2.3952279090881348,-14.47923469543457,6.969761848449707
1748142098021600800,8.009600830078124,1.6061532497406006,-12.483055114746094,5.5225830078125
1748142098039870700,8.02787060546875,1.0162683725357056,-10.035529136657715,5.801916122436523
1748142098058134300,8.04613427734375,-7.989999771118164,-7.086164474487305,24.756807327270508
1748142098076406000,8.064406005859375,-21.519771575927734,-1.9877185821533203,34.18092727661133
1748142098094664000,8.082663818359375,-15.880014419555664,4.691263198852539,20.517202377319336
1748142098112928800,8.1009287109375,-3.615988254547119,3.860053539276123,10.414841651916504
1748142098131192600,8.119192626953126,0.06537842750549316,3.706651210784912,6.605271339416504
1748142098149458000,8.1374580078125,-5.235810279846191,5.884270668029785,2.6971397399902344
1748142098167722000,8.155721923828125,-12.64914608001709,9.745806694030762,-0.21710467338562012
1748142098185974800,8.173974853515626,-4.523211479187012,10.799626350402832,2.250244617462158
1748142098204251000,8.1922509765625,0.06979632377624512,11.620655059814453,1.4266868829727173
1748142098222504000,8.21050390625,-3.4861035346984863,12.725760459899902,0.09147250652313232
1748142098240779300,8.228779296875,-5.915890216827393,12.277785301208496,-2.487936496734619
1748142098259034400,8.247034423828126,-0.8789207339286804,10.148155212402344,-4.049574851989746
1748142098277308200,8.26530810546875,0.6818963885307312,9.439412117004395,-4.199322700500488
1748142098295575600,8.283575439453125,0.8882132768630981,8.579258918762207,-2.3745291233062744
1748142098313838300,8.30183837890625,1.1751421689987183,7.899942398071289,-1.375494360923767
1748142098332103400,8.320103515625,1.222592830657959,5.937212944030762,1.515014410018921
1748142098350363000,8.33836279296875,-8.823323249816895,-13.417208671569824,16.05359649658203
1748142098368632300,8.35663232421875,-7.516299247741699,-61.45147705078125,14.910497665405273
1748142098386896600,8.374896728515624,-3.5836477279663086,-43.55803680419922,5.506770133972168
1748142098405161500,8.393161376953126,-4.7942914962768555,-13.422219276428223,11.701325416564941
1748142098423425800,8.41142578125,-2.1502041816711426,-4.986793041229248,12.826542854309082
1748142098441686500,8.4296865234375,3.5487990379333496,-1.7580962181091309,12.16910457611084
1748142098459955200,8.447955078125,1.32655930519104,1.9355254173278809,10.399938583374023
1748142098478219800,8.4662197265625,3.818751811981201,4.455582618713379,-1.176903247833252
1748142098496483800,8.48448388671875,7.596469402313232,4.315618515014648,-6.614354610443115
1748142098514744300,8.502744384765625,8.662321090698242,3.432424783706665,-7.6678571701049805
1748142098533012000,8.521011962890626,7.704413414001465,4.398087501525879,-6.533709526062012
1748142098551279000,8.539279052734376,7.488393783569336,5.995378494262695,-5.074518203735352
1748142098569542100,8.557542236328125,9.123682022094727,7.556730270385742,-4.2801971435546875
1748142098587806200,8.57580615234375,12.078781127929688,9.54839038848877,-6.029840469360352
1748142098606072600,8.594072509765626,12.53905200958252,10.360047340393066,-7.032868385314941
1748142098624340000,8.612340087890624,10.05850601196289,13.533426284790039,-4.957237720489502
1748142098642600700,8.6306005859375,8.624639511108398,15.951302528381348,-6.659770488739014
1748142098660865800,8.64886572265625,1.7393430471420288,10.798603057861328,-5.157123565673828
1748142098679129600,8.667129638671875,-20.15003204345703,2.023383617401123,0.4264712333679199
1748142098697391000,8.68539111328125,-21.00499725341797,2.409775733947754,5.236783504486084
1748142098715658800,8.70365869140625,1.862370491027832,4.918379783630371,-2.0968594551086426
1748142098733923800,8.721923828125,16.927600860595703,-1.4803876876831055,-14.735283851623535
1748142098752187600,8.740187744140625,13.689977645874023,-9.781624794006348,-18.467206954956055
1748142098770448400,8.758448486328126,2.5394740104675293,-19.14240264892578,-14.175968170166016
1748142098788716000,8.776716064453124,-0.6217818260192871,-16.23800277709961,-3.472114086151123
1748142098806982400,8.794982421875,5.808999538421631,-10.1865234375,0.4812912940979004
1748142098825247500,8.81324755859375,8.223410606384277,-12.699169158935547,0.705237627029419
1748142098843511300,8.83151123046875,9.424251556396484,-18.87051773071289,3.9684348106384277
1748142098861771000,8.84977099609375,6.905142307281494,-19.024578094482422,13.62606143951416
1748142098898304500,8.886304443359375,-1.287240982055664,-12.67820930480957,8.271860122680664
1748142098916569600,8.904569580078125,6.329760551452637,-10.615878105163574,21.57784080505371
1748142098934834700,8.922834716796874,-33.821861267089844,-6.70773983001709,35.162109375
1748142098953097500,8.941097412109375,-33.04273223876953,3.3409366607666016,25.470251083374023
1748142098971358000,8.95935791015625,0.52364182472229,8.303142547607422,9.162246704101562
1748142098989628200,8.977628173828125,0.11997532844543457,6.8745527267456055,8.021077156066895
1748142099007889000,8.995888916015625,-1.56594717502594,7.538888454437256,6.523743629455566
1748142099026155300,9.0141552734375,-4.5474724769592285,12.197162628173828,5.1900200843811035
1748142099044417500,9.03241748046875,-6.373685836791992,16.862703323364258,5.510812759399414
1748142099062689500,9.050689453125,-2.4666948318481445,13.914695739746094,1.775808334350586
1748142099080950000,9.068949951171875,-0.12323236465454102,11.641072273254395,-0.696774423122406
1748142099099215000,9.087215087890625,0.5003601312637329,10.834961891174316,-1.897058367729187
1748142099117474300,9.105474365234375,0.6421242952346802,10.441190719604492,-2.538794994354248
1748142099135744500,9.12374462890625,0.21772027015686035,9.14313793182373,-1.8700754642486572
1748142099156248800,9.144248779296875,0.8238090872764587,7.253272533416748,-2.4003052711486816
1748142099174545400,9.16254541015625,1.749807596206665,5.30274772644043,-0.19858407974243164
1748142099192823300,9.1808232421875,5.247387886047363,-14.29572868347168,9.17048168182373
1748142099211081700,9.199081787109375,-21.819530487060547,-86.30146026611328,15.29586410522461
1748142099229346000,9.217345947265626,-11.33673095703125,-39.87712478637695,16.25272560119629
1748142099247615700,9.23561572265625,-4.660951137542725,-9.85692310333252,9.331308364868164
1748142099265880000,9.253880126953124,4.070690155029297,-0.25667810440063477,3.8648133277893066
1748142099284144600,9.27214453125,3.14725661277771,3.7645537853240967,2.7349019050598145
1748142099302404400,9.290404296875,0.282623291015625,7.6913933753967285,6.53779935836792
1748142099320673300,9.30867333984375,3.9885096549987793,8.130204200744629,-0.24144840240478516
1748142099338939100,9.326939208984374,8.040897369384766,5.600264549255371,-6.386706829071045
1748142099357203000,9.345202880859375,8.191871643066406,4.297634124755859,-7.347328186035156
1748142099375467800,9.3634677734375,8.059383392333984,4.923755168914795,-5.67302131652832
1748142099393732000,9.381732177734374,9.081748962402344,7.024448871612549,-3.1640431880950928
1748142099411996700,9.39999658203125,13.633600234985352,8.727812767028809,-4.529714584350586
1748142099430261200,9.41826123046875,12.64647388458252,9.6746187210083,-6.118210315704346
1748142099448520400,9.4365205078125,11.537671089172363,12.101343154907227,-5.574984073638916
1748142099466791200,9.454791259765624,6.624549865722656,12.725008010864258,-5.140851974487305
1748142099485058800,9.473058837890624,2.6923913955688477,10.562427520751953,-5.67017936706543
1748142099503319600,9.491319580078125,-1.4699712991714478,7.394796848297119,-4.435781002044678
1748142099521584000,9.509584228515624,-22.71563720703125,1.8241596221923828,4.431473731994629
1748142099539848700,9.5278486328125,-4.701929569244385,5.3443474769592285,-0.13404440879821777
1748142099558109000,9.54610888671875,2.3709325790405273,4.300525665283203,-5.692293167114258
1748142099576377300,9.56437744140625,7.6697893142700195,-2.4237184524536133,-12.136266708374023
1748142099594643000,9.582642822265624,8.493309020996094,-6.711728096008301,-12.301846504211426
1748142099612907000,9.600906982421876,2.8618884086608887,-24.201419830322266,-10.897087097167969
1748142099631171600,9.619171630859375,4.785770416259766,-12.363870620727539,-1.0793124437332153
1748142099649424600,9.637424560546876,4.40317964553833,-10.108948707580566,2.720050811767578
1748142099667700700,9.65570068359375,5.6460981369018555,-19.443912506103516,6.3477654457092285
1748142099685965300,9.67396533203125,7.361541271209717,-21.9610595703125,14.645201683044434
1748142099704230000,9.69222998046875,0.9986905455589294,-18.523658752441406,10.389459609985352
1748142099722494000,9.710493896484374,-1.972388505935669,-14.001571655273438,6.787247657775879
1748142099740759300,9.72875927734375,3.430464029312134,-9.992999076843262,18.736936569213867
1748142099759023400,9.7470234375,-45.094642639160156,-3.013096809387207,36.253196716308594
1748142099777288000,9.765287841796875,-21.20611572265625,3.5828943252563477,20.481853485107422
1748142099795553800,9.7835537109375,4.975920677185059,6.775362014770508,11.464276313781738
1748142099813815800,9.80181591796875,3.725062370300293,8.077198028564453,7.020538330078125
1748142099832076000,9.820075927734376,-2.6465365886688232,7.415823936462402,5.4333038330078125
1748142099850347000,9.838346923828125,-4.490578651428223,9.935192108154297,4.177643775939941
1748142099868610800,9.85661083984375,-11.228178977966309,14.245280265808105,5.906596660614014
1748142099886875400,9.87487548828125,-4.7484846115112305,13.801117897033691,2.289902687072754
1748142099905135000,9.893135009765626,-1.0420924425125122,11.378787994384766,-0.7881112098693848
1748142099923404800,9.91140478515625,0.6614309549331665,10.254717826843262,-2.2509984970092773
1748142099941669000,9.929669189453126,0.6837575435638428,9.77856159210205,-2.6795761585235596
1748142099959933700,9.94793359375,-0.26655662059783936,8.553123474121094,-2.7683682441711426
1748142099978198500,9.966198486328125,-0.8183438777923584,7.45674991607666,-2.537811517715454
1748142099996462800,9.984462890625,-0.14862465858459473,5.699933052062988,-0.5382012128829956
1748142100014727000,10.002726806640625,-14.70492935180664,-14.209330558776855,10.312849044799805
1748142100032992800,10.02099267578125,-9.974897384643555,-61.633575439453125,10.44919204711914
1748142100051256300,10.03925634765625,-2.9724624156951904,-48.592742919921875,5.94120979309082
1748142100069516500,10.0575166015625,-4.37126350402832,-15.369166374206543,12.317033767700195
1748142100087773400,10.0757734375,3.3315391540527344,-3.5201802253723145,6.441895484924316
1748142100106053000,10.09405322265625,6.201822280883789,-0.5672788619995117,2.035921096801758
1748142100124301000,10.112301025390625,3.3620638847351074,1.0552639961242676,3.993093967437744
1748142100142579500,10.130579345703126,-1.5917658805847168,4.488702774047852,3.076268196105957
1748142100160839000,10.1488388671875,2.51629376411438,7.775667667388916,-4.783751010894775
1748142100179102500,10.1671025390625,6.724390983581543,5.13084602355957,-8.565266609191895
1748142100197361200,10.185361083984375,7.972229480743408,4.395124435424805,-8.12689208984375
1748142100215631600,10.203631591796874,6.884140968322754,5.7587151527404785,-6.290688514709473
1748142100233903400,10.2219033203125,6.045286655426025,7.106048583984375,-4.400510787963867
1748142100252167000,10.2401669921875,6.286919116973877,8.28604507446289,-3.304687261581421
1748142100270431000,10.258430908203126,8.430610656738281,9.551870346069336,-3.498931407928467
1748142100288696600,10.276696533203125,12.029306411743164,12.765934944152832,-6.472369194030762
1748142100306959400,10.29495947265625,13.942965507507324,13.294361114501953,-11.037141799926758
1748142100325225200,10.31322509765625,3.9835739135742188,11.112106323242188,-7.295231342315674
1748142100361753900,10.34975390625,-31.562728881835938,-1.3522272109985352,6.354293346405029
1748142100380018400,10.368018310546875,-8.482377052307129,2.2453842163085938,1.8616509437561035
1748142100398283300,10.386283203125,8.330398559570312,-0.37817955017089844,-9.77047348022461
1748142100416542700,10.404542724609374,19.26713752746582,-9.512738227844238,-20.78497314453125
1748142100434812400,10.4228125,2.7056775093078613,-25.81433868408203,-8.725786209106445
1748142100453073000,10.441072998046875,-2.3475863933563232,-21.991100311279297,-3.149768590927124
1748142100471341600,10.459341552734376,-2.975842237472534,-5.619200706481934,3.2996389865875244
1748142100489601800,10.477601806640624,1.459791660308838,0.8120517730712891,2.168437957763672
1748142100507870700,10.49587060546875,3.697039842605591,-7.199488639831543,6.120809555053711
1748142100526135000,10.514135009765624,7.480982780456543,-19.093353271484375,10.67680549621582
1748142100544398600,10.532398681640625,4.556493759155273,-22.672842025756836,9.626858711242676
1748142100562665700,10.550665771484375,8.298709869384766,-13.62629222869873,14.228744506835938
1748142100580929000,10.568928955078125,7.558359146118164,-9.115863800048828,21.722885131835938
1748142100599193600,10.587193603515624,-37.47069549560547,-5.080977439880371,24.711538314819336
1748142100617458200,10.605458251953126,-38.129783630371094,-1.1696033477783203,15.659272193908691
1748142100635716600,10.623716552734376,2.3079874515533447,1.3212823867797852,14.636141777038574
1748142100688233200,10.676233154296876,-2.234642505645752,8.027679443359375,2.9344120025634766
1748142100706497800,10.694497802734375,-5.107326984405518,11.598759651184082,1.630739450454712
1748142100724761600,10.71276171875,-9.089599609375,14.073599815368652,1.4878113269805908
1748142100743027000,10.73102685546875,-4.352005958557129,13.032726287841797,-0.0504918098449707
1748142100761290500,10.74929052734375,-0.6048645973205566,11.13904857635498,-1.7815607786178589
1748142100779556000,10.76755615234375,0.06928420066833496,10.198524475097656,-2.618849754333496
1748142100797818400,10.785818359375,-0.9957551956176758,9.817492485046387,-2.751215934753418
1748142100816083000,10.8040830078125,-0.6838018298149109,8.95461654663086,-1.6557883024215698
1748142100827570200,10.815570068359374,0.22008812427520752,8.159530639648438,-0.9790094494819641
1748142100845765600,10.833765625,0.8963239789009094,7.8519816398620605,-0.7780417203903198
1748142100864031000,10.852031005859375,1.271374225616455,3.3074073791503906,2.6674745082855225
1748142100882294000,10.8702939453125,-15.744349479675293,-40.9502067565918,13.530567169189453
1748142100900559600,10.8885595703125,3.074512481689453,-66.45626831054688,17.21091079711914
1748142100918822700,10.90682275390625,-11.755274772644043,-24.117843627929688,19.229347229003906
1748142100937084700,10.925084716796874,-9.175724983215332,-8.96161937713623,10.109804153442383
1748142100955352300,10.943352294921874,-0.7194017171859741,-4.548559665679932,5.132724285125732
1748142100973612500,10.961612548828125,3.521822929382324,-2.1818790435791016,1.1096391677856445
1748142100991881200,10.979881103515625,5.404473304748535,2.0433855056762695,-4.148880958557129
1748142101010148000,10.998148193359375,5.696539878845215,5.162659645080566,-8.109764099121094
1748142101028411000,11.016410888671874,7.08858585357666,5.63274621963501,-8.51030158996582
1748142101046675700,11.03467578125,7.19380521774292,5.683285713195801,-7.5371880531311035
1748142101064939500,11.052939453125,6.825925350189209,6.338064670562744,-5.681676864624023
1748142101083206400,11.071206298828125,6.49019718170166,7.598138809204102,-4.272103786468506
1748142101101469200,11.08946923828125,5.87205696105957,8.371420860290527,-2.894030809402466
1748142101119733800,11.107733642578125,7.443465232849121,9.47263240814209,-3.0776631832122803
1748142101137998300,11.125998291015625,9.668603897094727,11.58139419555664,-4.117085933685303
1748142101156263700,11.144263671875,10.117534637451172,12.63277816772461,-4.472055912017822
1748142101174527000,11.16252685546875,5.625675201416016,10.477953910827637,-4.683609962463379
1748142101192792800,11.180792724609375,0.6743798851966858,9.22786808013916,-3.4541382789611816
1748142101211061200,11.199061279296876,-6.392969131469727,6.675516605377197,-3.2581892013549805
1748142101229310000,11.21731005859375,-12.89990234375,3.9354257583618164,-0.18769407272338867
1748142101272698000,11.260697998046876,7.294417858123779,-6.943009376525879,-11.265157699584961
1748142101290960400,11.27896044921875,10.836977005004883,-37.39161682128906,-22.003633499145508
1748142101309230300,11.297230224609375,3.369948148727417,-14.192973136901855,0.7610673904418945
1748142101327492400,11.315492431640624,-1.5610032081604004,-7.03387451171875,4.119270324707031
1748142101345757000,11.3337568359375,-4.503298282623291,-11.047276496887207,8.80345344543457
1748142101364021000,11.35202099609375,-2.5467426776885986,-14.169498443603516,12.437856674194336
1748142101382285800,11.370285888671875,0.29037511348724365,-11.882630348205566,10.834895133972168
1748142101400550400,11.38855029296875,-0.5975371599197388,-9.102738380432129,6.239823341369629
1748142101418814200,11.406814208984375,7.022261619567871,-6.394670486450195,11.378615379333496
1748142101437079600,11.42507958984375,-30.864309310913086,-7.989823341369629,22.94765853881836
1748142101455342000,11.443342041015624,-22.932336807250977,0.5011425018310547,19.978239059448242
1748142101473608700,11.461608642578126,-1.8039458990097046,2.882558822631836,9.59316349029541
1748142101491855000,11.479855224609375,0.4943830966949463,4.567665100097656,5.053928852081299
1748142101510133000,11.498133056640626,-2.3686375617980957,6.659375190734863,2.6141409873962402
1748142101528403700,11.51640380859375,-7.330727577209473,10.460247993469238,0.990151047706604
1748142101546665500,11.53466552734375,-10.449654579162598,14.341337203979492,4.901116371154785
1748142101564934000,11.552933837890626,-4.25864315032959,15.01852798461914,4.432882308959961
1748142101583196200,11.571196044921875,-3.243525743484497,15.39600944519043,3.429678201675415
1748142101601460500,11.58946044921875,-5.359095573425293,12.604068756103516,0.07721507549285889
1748142101619725300,11.607725341796876,-3.2115278244018555,9.396228790283203,-2.9042305946350098
1748142101637989600,11.62598974609375,-1.6366486549377441,7.526769161224365,-3.0700395107269287
1748142101656254000,11.64425390625,0.3085307478904724,5.2811455726623535,-0.8475487232208252
1748142101674518800,11.662518798828126,2.0515623092651367,-1.4294042587280273,5.988164901733398
1748142101692782300,11.6807822265625,-1.3578523397445679,-18.997661590576172,12.640174865722656
1748142101711049000,11.699049072265625,-8.03762435913086,-53.1871452331543,11.014525413513184
1748142101729312800,11.717312744140624,-8.589584350585938,-35.61916732788086,4.996110439300537
1748142101747577000,11.7355771484375,1.3066105842590332,-13.365989685058594,3.0665011405944824
1748142101765842000,11.753842041015625,3.221550941467285,-4.589168548583984,7.952020168304443
1748142101784105200,11.772105224609374,-2.0645318031311035,0.8855643272399902,12.502628326416016
1748142101802367500,11.790367431640625,-1.7945771217346191,3.0607240200042725,14.286121368408203
1748142101820635600,11.8086357421875,1.0312215089797974,5.320406913757324,7.187463283538818
1748142101838900200,11.826900146484375,4.579092979431152,4.625467300415039,-5.457240581512451
1748142101857163500,11.84516357421875,8.248603820800781,3.16172194480896,-8.206596374511719
1748142101875430100,11.86343017578125,7.517040252685547,3.107130527496338,-8.01013469696045
1748142101893694000,11.88169384765625,7.031898498535156,4.107412338256836,-6.039358139038086
1748142101911958500,11.89995849609375,6.724132061004639,5.462660789489746,-3.6002233028411865
1748142101930222800,11.918222900390624,16.963558197021484,8.740057945251465,-4.481562614440918
1748142101948487700,11.93648779296875,23.83541488647461,11.673501014709473,-11.028254508972168
1748142101966752300,11.954752197265625,12.426046371459961,12.174083709716797,-9.72884750366211
1748142101985016600,11.9730166015625,3.507922649383545,11.315886497497559,-6.42143440246582
1748142102003281400,11.991281494140624,-1.2480721473693848,10.432537078857422,-4.582632541656494
1748142102021541000,12.009541015625,-20.006446838378906,4.9060564041137695,6.940136432647705
1748142102039809300,12.027809326171875,-12.239241600036621,9.295653343200684,2.8062386512756348
1748142102058075600,12.04607568359375,-3.8525161743164062,4.859129905700684,-2.484727144241333
1748142102076344300,12.06434423828125,4.17891263961792,0.983433723449707,-10.711770057678223
1748142102094604000,12.08260400390625,-0.13400053977966309,-14.401829719543457,-23.304269790649414
1748142102112868600,12.10086865234375,14.10806655883789,-32.01020812988281,-24.839862823486328
1748142102131133200,12.11913330078125,-0.27620959281921387,-16.608585357666016,-2.079313278198242
1748142102149405700,12.13740576171875,2.2357864379882812,-5.60008430480957,2.7165069580078125
1748142102167662300,12.155662353515625,5.199429512023926,-5.42210578918457,2.924777030944824
1748142102185927200,12.17392724609375,8.625434875488281,-15.219132423400879,3.430659532546997
1748142102204191700,12.192191650390624,9.042696952819824,-21.961732864379883,13.687260627746582
1748142102222456000,12.2104560546875,7.644217491149902,-21.807024002075195,12.1636323928833
1748142102240718300,12.22871826171875,6.246195316314697,-13.563647270202637,17.08046531677246
1748142102258987300,12.2469873046875,12.96688461303711,-9.635688781738281,24.330413818359375
1748142102277245700,12.26524560546875,-53.093265533447266,-6.145027160644531,38.96989440917969
1748142102295506200,12.283506103515625,-33.55276107788086,4.979320526123047,26.568326950073242
1748142102313778000,12.30177783203125,6.611893177032471,7.627050399780273,8.93409538269043
1748142102332044500,12.32004443359375,5.148537635803223,6.468609809875488,6.672698020935059
1748142102350308000,12.33830810546875,-1.1237916946411133,7.258831024169922,5.953144550323486
1748142102368567800,12.35656787109375,-2.1458616256713867,9.667272567749023,3.3229470252990723
1748142102386836000,12.3748359375,-8.047123908996582,13.911245346069336,3.4735107421875
1748142102405103000,12.39310302734375,-5.277607440948486,14.876520156860352,1.8375811576843262
1748142102423361300,12.411361328125,-2.088325262069702,12.144757270812988,-0.33878952264785767
1748142102441626400,12.42962646484375,-0.7709305286407471,10.371736526489258,-1.6834983825683594
1748142102459895600,12.4478955078125,-0.6224063634872437,9.725423812866211,-1.843096375465393
1748142102478160000,12.466159912109376,-1.2073943614959717,8.487200736999512,-1.1917498111724854
1748142102498702600,12.48670263671875,-1.0501835346221924,6.63663387298584,1.152752161026001
1748142102516973600,12.5049736328125,0.733058750629425,-0.0899209976196289,5.7192840576171875
1748142102535237600,12.523237548828124,-16.53507423400879,-33.072689056396484,14.916192054748535
1748142102553502200,12.541502197265626,-0.17936480045318604,-61.23052978515625,7.812102317810059
1748142102571767000,12.55976708984375,10.993427276611328,-27.38165283203125,8.441863059997559
1748142102590032400,12.578032470703125,-9.020851135253906,-10.455305099487305,24.249303817749023
1748142102608296000,12.5962958984375,-11.442863464355469,-8.187824249267578,19.327545166015625
1748142102626560800,12.614560791015625,1.0851390361785889,-3.341886520385742,3.048081398010254
1748142102644824800,12.632824951171875,3.482067584991455,2.811537265777588,-1.4804620742797852
1748142102663085800,12.6510859375,4.986446380615234,6.44437313079834,-4.6853485107421875
1748142102681354500,12.6693544921875,6.687880516052246,5.819071292877197,-7.631404876708984
1748142102699614700,12.68761474609375,7.222714900970459,4.563047885894775,-7.852461814880371
1748142102717884000,12.7058837890625,7.881474494934082,4.93812894821167,-6.457056522369385
1748142102736148500,12.7241484375,11.80476188659668,7.173957824707031,-3.8118698596954346
1748142102754412300,12.742412353515626,17.88714027404785,9.4929780960083,-3.2909340858459473
1748142102772677400,12.760677490234375,16.047700881958008,10.570293426513672,-5.572515964508057
1748142102790942000,12.77894189453125,13.483735084533691,11.600839614868164,-7.3947954177856445
1748142102809206800,12.797206787109374,8.4559965133667,12.27363395690918,-6.560334205627441
1748142102827471000,12.81547119140625,2.666247844696045,12.199138641357422,-3.9290030002593994
1748142102845735700,12.833735595703125,-9.808615684509277,7.643815994262695,0.18006229400634766
1748142102864000500,12.85200048828125,-22.690420150756836,3.27492618560791,6.893064975738525
1748142102882264800,12.870264892578126,-10.105067253112793,3.466775894165039,-0.6161818504333496
1748142102900524000,12.88852392578125,6.056415557861328,3.1776723861694336,-6.136200904846191
1748142102918793700,12.906793701171875,15.854608535766602,-6.856474876403809,-15.840364456176758
1748142102937060600,12.925060546875,8.770055770874023,-22.072717666625977,-17.088102340698242
1748142102955322600,12.943322509765625,0.8428788185119629,-20.03331184387207,-6.320087909698486
1748142102973587700,12.961587646484375,-0.3507881164550781,-8.941261291503906,2.120964765548706
1748142102991852300,12.979852294921875,3.5434696674346924,-6.340266227722168,4.664433479309082
1748142103010124000,12.9981240234375,7.844847679138184,-11.288278579711914,3.358978271484375
1748142103028381200,13.016381103515625,9.27440071105957,-16.886886596679688,6.763189315795898
1748142103046646000,13.03464599609375,4.998382568359375,-15.966042518615723,5.6325554847717285
1748142103064909300,13.052909423828124,0.4366067051887512,-12.989787101745605,2.804044008255005
1748142103083176400,13.071176513671874,8.992568016052246,-9.316035270690918,12.54747200012207
1748142103101438200,13.089438232421875,-20.509563446044922,-8.077810287475586,35.26150131225586
1748142103119705600,13.10770556640625,-40.301170349121094,1.5200986862182617,27.37771224975586
1748142103137969000,13.125968994140624,-5.766827583312988,5.167431831359863,14.98762035369873
1748142103156228000,13.14422802734375,6.604151725769043,8.282217979431152,6.669834136962891
1748142103174497300,13.162497314453125,-1.5997018814086914,7.391902923583984,4.069119453430176
1748142103192763100,13.18076318359375,-3.6517717838287354,9.16127872467041,1.6410412788391113
1748142103211027200,13.199027099609374,-12.76875114440918,13.532745361328125,3.2475810050964355
1748142103229287200,13.217287109375,-8.618854522705078,14.31128978729248,1.862465739250183
1748142103247556400,13.235556396484375,-2.6387743949890137,11.946369171142578,-0.3412245512008667
1748142103265820700,13.253820556640624,-1.0755057334899902,10.175372123718262,-1.8783364295959473
1748142103284080400,13.272080322265625,-2.0624423027038574,9.261829376220703,-3.508096218109131
1748142103302350000,13.29035009765625,-2.1707749366760254,8.384136199951172,-2.881134033203125
1748142103320614100,13.3086142578125,-1.3427393436431885,8.070359230041504,-1.3947786092758179
1748142103338879200,13.326879150390624,-1.4942195415496826,5.701249599456787,2.6682205200195312
1748142103357143300,13.345143310546876,-5.371274471282959,-12.271620750427246,16.464996337890625
1748142103375408000,13.363408203125,-6.529314994812012,-62.556854248046875,15.38585090637207
1748142103393672400,13.38167236328125,-6.088232517242432,-56.089778900146484,-0.3637962341308594
1748142103411932700,13.3999326171875,-12.581396102905273,-14.908002853393555,4.040743827819824
1748142103430201000,13.418201171875,0.5050278902053833,-6.33326530456543,3.0954031944274902
1748142103448467200,13.43646728515625,4.442579746246338,-2.7504525184631348,3.3472819328308105
1748142103466730500,13.45473046875,2.268239974975586,0.19856882095336914,3.9150099754333496
1748142103484995000,13.4729951171875,1.942402720451355,2.799159526824951,3.4922232627868652
1748142103503250200,13.491250244140625,0.9134840965270996,5.801200866699219,-2.5238142013549805
1748142103521513500,13.509513427734374,2.4891419410705566,6.6092529296875,-7.259028434753418
1748142103539789600,13.52778955078125,4.393801689147949,6.012479782104492,-7.6529154777526855
1748142103558057200,13.54605712890625,3.9683837890625,7.353662490844727,-6.424510955810547
1748142103576318200,13.564318115234375,3.566925287246704,8.934423446655273,-5.40927791595459
1748142103594583000,13.5825830078125,3.2215375900268555,9.77361011505127,-4.5767998695373535
1748142103612847400,13.600847412109376,5.48685359954834,11.170368194580078,-3.6273579597473145
1748142103631108400,13.6191083984375,8.61933708190918,13.267094612121582,-4.07440710067749
1748142103649371600,13.63737158203125,8.139774322509766,13.917356491088867,-4.624039649963379
1748142103667641300,13.655641357421874,2.3965628147125244,11.923419952392578,-2.652703285217285
1748142103685905400,13.673905517578126,0.767683744430542,10.276920318603516,-3.150965929031372
1748142103704171300,13.692171142578125,0.6087360382080078,8.685765266418457,-3.6237900257110596
1748142103722435300,13.710435302734375,-9.667778015136719,5.094004154205322,-5.455010414123535
1748142103740699600,13.72869970703125,-12.679537773132324,2.250234603881836,-7.545707702636719
1748142103758964000,13.7469638671875,-5.27712345123291,-3.26077938079834,-6.0911993980407715
1748142103777228500,13.765228515625,16.7205867767334,-28.753868103027344,-18.536630630493164
1748142103795493000,13.7834931640625,10.239789009094238,-32.29335021972656,-6.776478290557861
1748142103813758000,13.801758056640624,4.257881164550781,-10.835409164428711,3.4869954586029053
1748142103832022300,13.820022216796875,1.477200984954834,-9.138472557067871,7.1060590744018555
1748142103850287000,13.838287109375,-0.23884481191635132,-12.221997261047363,9.363710403442383
1748142103868552200,13.85655224609375,-1.2100489139556885,-12.850890159606934,9.59324836730957
1748142103886815500,13.8748154296875,-1.061880350112915,-11.886627197265625,4.749341011047363
1748142103905075500,13.893075439453124,1.5188121795654297,-9.228751182556152,7.19268798828125
1748142103923341000,13.911341064453126,0.6640074253082275,-8.572021484375,20.068988800048828
1748142103941609200,13.929609130859374,-38.519073486328125,-1.0840330123901367,29.158159255981445
1748142103959875000,13.947875,-13.755014419555664,5.11726188659668,18.496257781982422
1748142103978139100,13.96613916015625,1.3024160861968994,5.025665283203125,7.431842803955078
1748142103996390000,13.984389892578125,-1.5846487283706665,5.701799392700195,4.141853332519531
1748142104030648800,14.01864892578125,-7.926383018493652,10.666630744934082,1.3668352365493774
1748142104048913000,14.036912841796875,-6.899890422821045,13.424026489257812,2.8378169536590576
1748142104067177000,14.055177001953124,-5.322012424468994,13.176053047180176,1.161062240600586
1748142104085443000,14.073443115234374,-3.9282562732696533,11.649250984191895,-0.7896577715873718
1748142104103707400,14.091707275390625,-2.3650968074798584,9.981871604919434,-2.7797021865844727
1748142104121968000,14.109968017578124,-1.970868706703186,9.233614921569824,-3.835705041885376
1748142104133454800,14.121454833984375,-1.88798987865448,8.57193660736084,-3.358914375305176
1748142104151652600,14.139652587890625,-0.4282606840133667,8.340370178222656,-2.1709704399108887
1748142104169917400,14.15791748046875,-0.01759830117225647,8.2532958984375,-1.347485899925232
1748142104188181800,14.176181640625,-0.986119270324707,1.732522964477539,4.911025047302246
1748142104206446300,14.1944462890625,-9.513930320739746,-29.20138931274414,18.083757400512695
1748142104224706600,14.21270654296875,-1.2457327842712402,-62.837703704833984,10.472297668457031
1748142104242975200,14.230975341796874,-6.758184432983398,-31.532371520996094,11.929670333862305
1748142104261240600,14.249240478515626,-9.541475296020508,-10.49981689453125,13.463375091552734
1748142104279499300,14.267499267578126,-2.5149495601654053,-4.453290939331055,9.14082145690918
1748142104297770800,14.285770751953125,1.4381033182144165,-3.2719616889953613,3.769899845123291
1748142104316033300,14.304033203125,3.9529995918273926,-0.13495922088623047,-0.1544322967529297
1748142104334298400,14.32229833984375,4.171827793121338,3.011977195739746,-5.43939208984375
1748142104352562700,14.340562744140625,5.6560564041137695,4.214406967163086,-7.825113773345947
1748142104370828300,14.358828369140625,6.040980339050293,4.567378520965576,-7.98314094543457
1748142104389087200,14.377087158203125,5.106161594390869,5.946620941162109,-6.840216636657715
1748142104407356400,14.3953564453125,4.660513401031494,7.350323677062988,-5.761902332305908
1748142104425621000,14.41362109375,4.428619384765625,8.639975547790527,-4.779993057250977
1748142104443884500,14.431884521484376,5.623234748840332,9.575133323669434,-5.207462787628174
1748142104462152400,14.45015234375,12.663268089294434,11.70878791809082,-9.52006721496582
1748142104480409900,14.468409912109376,13.567861557006836,13.199267387390137,-11.603216171264648
1748142104498678800,14.4866787109375,5.1093854904174805,11.921775817871094,-9.065929412841797
1748142104516944100,14.504944091796874,-0.3090439438819885,9.425281524658203,-5.150501728057861
1748142104535199000,14.523198974609375,-26.844310760498047,0.7438716888427734,3.29042387008667
1748142104553474600,14.541474609375,-15.858278274536133,3.546074867248535,3.8459415435791016
1748142104571737300,14.5597373046875,0.9156659841537476,4.585696697235107,-4.466124534606934
1748142104590003200,14.578003173828124,7.842831134796143,-3.6188244819641113,-14.005054473876953
1748142104608266500,14.5962666015625,9.648303031921387,-11.480401992797852,-16.793190002441406
1748142104626530600,14.614530517578125,-1.6973576545715332,-25.86398696899414,-13.70914077758789
1748142104644796000,14.6327958984375,-0.45195770263671875,-13.35004997253418,-1.066009759902954
1748142104663058700,14.65105859375,3.306833267211914,-5.25070858001709,-0.20272040367126465
1748142104681324800,14.66932470703125,4.624236106872559,-10.2955961227417,0.8468430042266846
1748142104699585300,14.687585205078125,7.725564002990723,-20.128116607666016,6.272091865539551
1748142104717852700,14.705852783203126,4.6777024269104,-20.395877838134766,13.253575325012207
1748142104736116500,14.724116455078125,0.279842734336853,-16.370466232299805,10.972027778625488
1748142104754382300,14.74238232421875,0.7313557863235474,-11.777059555053711,12.965980529785156
1748142104772648400,14.7606484375,10.466400146484375,-5.982232093811035,18.354856491088867
1748142104790912300,14.778912353515626,-34.38591766357422,-2.003645896911621,30.915771484375
1748142104809177900,14.797177734375,-31.949405670166016,5.32243013381958,23.928720474243164
1748142104827436500,14.8154365234375,2.0920588970184326,5.576281547546387,11.120590209960938
1748142104845706200,14.833706298828124,2.032749891281128,4.4523797035217285,6.579899787902832
1748142104863970300,14.85197021484375,-1.837568998336792,6.7455363273620605,5.062309741973877
1748142104882236400,14.870236328125,-2.8591537475585938,10.619465827941895,4.321066379547119
1748142104900499200,14.888499267578124,-8.961433410644531,14.474531173706055,5.000569820404053
1748142104918764800,14.906764892578124,-5.951157093048096,13.434165954589844,2.453714370727539
1748142104937016800,14.925016845703125,-3.0894737243652344,11.33247184753418,0.3375176787376404
1748142104955294200,14.943294189453125,-2.0587897300720215,9.909255027770996,-0.9260045886039734
1748142104973546000,14.9615458984375,-1.7573316097259521,9.459107398986816,-1.901613473892212
1748142104991822600,14.979822509765626,-1.8013606071472168,8.654928207397461,-2.6652486324310303
1748142105010074600,14.99807470703125,-0.4043389558792114,7.993066787719727,-1.9377915859222412
1748142105028353500,15.016353515625,-0.11342665553092957,7.879361152648926,-1.4097132682800293
1748142105046616000,15.034615966796874,0.4416951537132263,-0.47256946563720703,5.291782379150391
1748142105064880600,15.052880615234375,-15.369131088256836,-46.80354309082031,12.659201622009277
1748142105083141000,15.07114111328125,-2.098494291305542,-70.95401000976562,2.4559223651885986
1748142105101411000,15.0894111328125,-9.574821472167969,-19.670772552490234,7.041404724121094
1748142105119674400,15.10767431640625,-4.068141937255859,-4.679970741271973,6.343044281005859
1748142105137939200,15.125939208984375,2.2430460453033447,-0.9374809265136719,3.599903106689453
1748142105156203500,15.14420361328125,1.9003691673278809,0.7306914329528809,2.2813000679016113
1748142105174469400,15.162469482421875,1.3575307130813599,2.959683418273926,1.8694229125976562
1748142105192732700,15.180732666015626,2.850008010864258,5.376645088195801,-3.512634515762329
1748142105210997200,15.198997314453125,4.9325666427612305,5.931941509246826,-6.666477680206299
1748142105229258800,15.2172587890625,6.067281723022461,4.786066055297852,-7.68768310546875
1748142105247527200,15.235527099609374,5.023200988769531,5.682011604309082,-6.957516193389893
1748142105265791200,15.253791259765626,3.71077299118042,6.869475841522217,-5.576019763946533
1748142105284060000,15.272059814453126,3.3238017559051514,8.343700408935547,-3.899482250213623
1748142105302320000,15.290320068359375,2.8546054363250732,9.2542085647583,-2.986994504928589
1748142105320586000,15.3085859375,3.35595440864563,10.11098861694336,-2.616147994995117
1748142105338844700,15.3268447265625,5.299534797668457,11.125189781188965,-3.329676389694214
1748142105357109500,15.345109619140626,2.765625238418579,11.544065475463867,-2.404247522354126
1748142105375379200,15.363379150390625,-0.04197591543197632,10.191269874572754,-2.673232316970825
1748142105393644300,15.381644287109374,-0.2831882834434509,9.344748497009277,-3.4708523750305176
1748142105411907600,15.399907470703125,-5.717488765716553,7.393805503845215,-4.609938621520996
1748142105430172400,15.41817236328125,-20.7825927734375,-0.5106706619262695,-8.435883522033691
1748142105448437000,15.43643701171875,2.1959760189056396,-6.783808708190918,-9.91999626159668
1748142105466702600,15.45470263671875,14.755844116210938,-29.023685455322266,-21.5927791595459
1748142105484965600,15.472965576171875,10.424444198608398,-16.551921844482422,-2.023195743560791
1748142105503226000,15.49122607421875,2.963646173477173,-5.883147239685059,2.853828191757202
1748142105521494500,15.50949462890625,0.9968200922012329,-9.716421127319336,2.8458642959594727
1748142105539748000,15.527748046875,0.5705806612968445,-17.18614959716797,4.897237300872803
1748142105558014200,15.54601416015625,1.0985935926437378,-18.969318389892578,11.225000381469727
1748142105592268800,15.580268798828126,4.388583183288574,-9.711702346801758,15.436062812805176
1748142105610535200,15.59853515625,-15.377655982971191,-7.897560119628906,26.319076538085938
1748142105628798000,15.6167978515625,-35.9762077331543,0.33524322509765625,23.946189880371094
1748142105647063000,15.63506298828125,-12.045551300048828,3.583765983581543,12.851766586303711
1748142105665330400,15.653330322265624,-0.6068713665008545,3.22255277633667,7.202073574066162
1748142105683592400,15.671592529296875,0.6972229480743408,5.29083251953125,4.364470481872559
1748142105701860900,15.68986083984375,-3.716276168823242,6.06825065612793,2.955134868621826
1748142105720121300,15.708121337890624,-5.909371852874756,8.63332462310791,2.2493059635162354
1748142105738382600,15.726382568359375,-11.598512649536133,12.588226318359375,6.352640151977539
1748142105756650200,15.744650146484375,-7.515499591827393,14.2178373336792,5.505017280578613
1748142105774915600,15.76291552734375,-4.717588424682617,14.006903648376465,1.964808702468872
1748142105793179400,15.781179443359376,-4.874392509460449,11.614740371704102,-2.158139705657959
1748142105811445200,15.7994453125,-1.8658108711242676,9.461400985717773,-3.6980485916137695
1748142105829704200,15.8177041015625,-0.013573288917541504,7.847336769104004,-2.302210807800293
1748142105847972900,15.835972900390624,-0.3331037759780884,6.780485153198242,-1.2622923851013184
1748142105866239000,15.854239013671876,1.307559609413147,-1.2797632217407227,4.83518123626709
1748142105884503600,15.872503662109375,-9.38723087310791,-27.944698333740234,10.933820724487305
1748142105902767900,15.890767822265625,-7.514495372772217,-66.38621520996094,1.517014503479004
1748142105921031400,15.909031494140624,-1.8989002704620361,-26.322338104248047,-2.2508575916290283
1748142105939296300,15.927296142578125,-1.9149106740951538,-7.783923149108887,2.4511656761169434
1748142105957561300,15.945561279296875,3.147054672241211,-4.788330078125,7.822391986846924
1748142105975824600,15.96382470703125,1.584789752960205,-3.4323368072509766,12.204889297485352
1748142105994091500,15.982091552734374,-0.36540699005126953,-0.8511991500854492,12.279804229736328
1748142106012349400,16.000349365234374,0.5795974731445312,3.1542434692382812,3.0261764526367188
1748142106030620000,16.018619873046877,2.8893632888793945,6.043308734893799,-5.315503120422363
1748142106048883700,16.0368837890625,5.9891276359558105,4.956838607788086,-8.437847137451172
1748142106067147800,16.055147705078124,5.884054183959961,5.524585247039795,-7.588084697723389
1748142106085411300,16.073411376953125,4.781763076782227,6.82480525970459,-6.372779369354248
1748142106103680300,16.09168017578125,4.631460666656494,8.142196655273438,-5.559638977050781
1748142106121942000,16.10994189453125,5.377336502075195,9.14194393157959,-5.1871418952941895
1748142106140206800,16.128206787109374,8.755067825317383,10.470939636230469,-7.14953088760376
1748142106158470100,16.14647021484375,10.262834548950195,12.694462776184082,-7.502460479736328
1748142106176731400,16.1647314453125,8.393577575683594,13.27976131439209,-7.622561454772949
1748142106194999000,16.1829990234375,2.22830867767334,11.720118522644043,-6.024034023284912
1748142106213266200,16.20126611328125,-1.1422288417816162,9.15378475189209,-4.992503643035889
1748142106231529500,16.219529541015625,-27.262540817260742,1.5291643142700195,-0.3920736312866211
1748142106249793500,16.23779345703125,-0.2932555675506592,6.892458438873291,-5.499786853790283
1748142106268059600,16.2560595703125,0.9078631401062012,-1.0526161193847656,-12.663800239562988
1748142106286324200,16.27432421875,-3.1750497817993164,-16.600555419921875,-18.444244384765625
1748142106304587000,16.2925869140625,5.087600231170654,-31.625652313232422,-15.680883407592773
1748142106322852900,16.310852783203124,-0.5255818367004395,-14.955314636230469,4.208147048950195
1748142106341118700,16.32911865234375,1.5143762826919556,-4.506946563720703,5.343235969543457
1748142106359377700,16.347377685546874,2.6736974716186523,-10.596086502075195,5.928986549377441
1748142106377645600,16.3656455078125,3.004673480987549,-19.052024841308594,9.991494178771973
1748142106395911000,16.383910888671874,1.011040449142456,-19.335559844970703,11.35965633392334
1748142106414174700,16.4021748046875,-0.8055527210235596,-14.378552436828613,11.601425170898438
1748142106432435200,16.420435302734376,6.188433647155762,-7.325079917907715,21.858911514282227
1748142106450691600,16.438691650390624,-43.68943405151367,-0.5636978149414062,32.386043548583984
1748142106468969500,16.456969482421876,-18.346920013427734,7.563168525695801,21.408052444458008
1748142106487233000,16.47523291015625,3.1677916049957275,5.899894714355469,8.982281684875488
1748142106505498600,16.49349853515625,2.0202503204345703,6.750351905822754,4.910131454467773
1748142106523762000,16.511761962890624,-1.9579441547393799,7.507013320922852,2.239790916442871
1748142106542027800,16.53002783203125,-4.361019611358643,9.8197660446167,0.5265787839889526
1748142106560291300,16.548291259765627,-10.628046989440918,13.335962295532227,2.096475601196289
1748142106578556400,16.566556396484376,-5.612613677978516,12.99421501159668,0.9778714179992676
1748142106596819200,16.584819091796874,-4.05461311340332,11.11051082611084,-0.7939122915267944
1748142106615086800,16.6030869140625,-4.37869119644165,9.46590518951416,-3.2507615089416504
1748142106633345000,16.621344970703124,-3.5551486015319824,9.073596954345703,-4.790727138519287
1748142106651600400,16.639600341796875,-3.7161715030670166,8.009041786193848,-3.941331148147583
1748142106669878800,16.657878662109376,-1.2814503908157349,7.681586742401123,-2.3721163272857666
1748142106688139500,16.676139404296876,0.1921290159225464,7.3693389892578125,-1.0727555751800537
1748142106706406700,16.69440673828125,-4.647331714630127,-8.019115447998047,9.425837516784668
1748142106724674300,16.71267431640625,-8.12099838256836,-49.83849334716797,13.144929885864258
1748142106742936800,16.730936767578125,-0.5473101139068604,-57.41133117675781,0.12694454193115234
1748142106761202400,16.749202392578123,-11.878727912902832,-19.50050926208496,10.606688499450684
1748142106779466200,16.76746630859375,-5.376287460327148,-6.742932319641113,9.6498384475708
1748142106797731000,16.78573095703125,1.5393775701522827,-3.087833881378174,4.874417304992676
1748142106815995000,16.803994873046875,3.975104808807373,-0.04169750213623047,2.833754062652588
1748142106834261000,16.822260986328125,0.5908324718475342,4.729255199432373,-0.22464275360107422
1748142106852519400,16.84051953125,1.8140695095062256,7.041571617126465,-6.472277641296387
1748142106870788600,16.85878857421875,4.239085674285889,6.172688007354736,-8.518509864807129
1748142106889054700,16.8770546875,4.785053253173828,6.313822269439697,-7.752052307128906
1748142106907319000,16.895319091796875,4.21516752243042,7.339404582977295,-6.408125877380371
1748142106925582800,16.913582763671876,4.335534572601318,8.339037895202637,-5.267319202423096
1748142106943848000,16.931847900390625,6.195376396179199,9.681044578552246,-4.565736770629883
1748142106962110700,16.95011083984375,9.440380096435547,10.765331268310547,-6.021344184875488
1748142106980374300,16.968374267578124,9.071017265319824,11.7308988571167,-6.640758514404297
1748142106998641000,16.986640869140626,6.306668281555176,12.378026008605957,-6.452637672424316
1748142107016906200,17.00490625,1.0676189661026,10.791123390197754,-4.595242977142334
1748142107035170000,17.023170166015625,-1.7303141355514526,9.014933586120605,-3.9824986457824707
1748142107053435100,17.04143505859375,-23.111862182617188,4.609147548675537,1.1902527809143066
1748142107071709000,17.059708984375,-2.7181200981140137,6.892580509185791,-3.7130608558654785
1748142107089964300,17.07796435546875,-3.436042070388794,2.9018983840942383,-8.03638744354248
1748142107108228000,17.09622802734375,1.393014907836914,-9.767013549804688,-11.189950942993164
1748142107126494000,17.114493896484376,9.40559196472168,-41.20305633544922,-20.141462326049805
1748142107144758300,17.13275830078125,1.7421913146972656,-21.90622329711914,1.521498203277588
1748142107163021600,17.151021484375,-1.709965467453003,-3.810413360595703,4.746753692626953
1748142107181287700,17.16928759765625,-6.129398822784424,-6.173653602600098,9.432687759399414
1748142107199547400,17.18754736328125,-0.7674482464790344,-12.685713768005371,10.321076393127441
1748142107217814500,17.205814453125,4.198148250579834,-14.481476783752441,7.995375633239746
1748142107236082200,17.224082275390625,7.194238662719727,-9.307336807250977,10.885149955749512
1748142107254341000,17.242341064453125,-1.7372772693634033,-5.644552230834961,20.088096618652344
1748142107272610300,17.2606103515625,-41.61231231689453,-4.309483528137207,24.5394229888916
1748142107290871000,17.27887109375,-15.139673233032227,0.7005758285522461,15.9330415725708
1748142107309142300,17.297142333984375,0.9317665100097656,2.7052860260009766,8.093562126159668
1748142107327404800,17.31540478515625,-0.9124753475189209,3.8903861045837402,5.373830318450928
1748142107345668600,17.333668701171874,-5.065922260284424,6.571910858154297,2.5501537322998047
1748142107363932400,17.351932373046875,-9.541749954223633,11.325601577758789,0.687232255935669
1748142107382185500,17.370185546875,-4.956340312957764,12.603713035583496,2.1073522567749023
1748142107400461300,17.38846142578125,-4.325929164886475,12.363849639892578,1.0407986640930176
1748142107418716400,17.40671630859375,-4.359329700469971,11.656444549560547,-0.759770393371582
1748142107436989400,17.424989501953124,-2.794229745864868,10.013812065124512,-3.5102272033691406
1748142107455256600,17.443256591796874,-1.752004623413086,9.11133861541748,-4.608606338500977
1748142107473519400,17.461519287109375,-0.9714889526367188,8.2528076171875,-3.776592493057251
1748142107491783700,17.47978369140625,0.08196388185024261,7.932307243347168,-2.49010968208313
1748142107510050000,17.498050048828127,0.3062745928764343,6.654594421386719,-0.45920324325561523
1748142107528313600,17.516313720703124,-7.108930587768555,-10.209053039550781,11.008930206298828
1748142107546570200,17.5345703125,-7.319711208343506,-49.56390380859375,13.45952320098877
1748142107564844500,17.552844482421875,-4.885411262512207,-48.379737854003906,4.856782913208008
1748142107583108400,17.5711083984375,-9.316302299499512,-14.424355506896973,12.150836944580078
1748142107601367300,17.5893671875,-1.882994294166565,-5.489388942718506,9.781246185302734
1748142107619636000,17.607635986328123,0.24621164798736572,-3.389939308166504,5.757745742797852
1748142107637901300,17.6259013671875,0.7295427322387695,-1.8552069664001465,1.205014705657959
1748142107656164900,17.644164794921874,1.3983652591705322,1.8187241554260254,-3.6568825244903564
1748142107674430200,17.66243017578125,2.8699252605438232,4.4327850341796875,-7.537430286407471
1748142107692694300,17.6806943359375,4.764432907104492,4.885171890258789,-8.711969375610352
1748142107710960000,17.698960205078127,4.826751708984375,5.88889217376709,-7.571915626525879
1748142107729223700,17.7172236328125,4.246163368225098,7.238102436065674,-5.814260959625244
1748142107747488800,17.73548876953125,4.340585231781006,8.47479248046875,-4.414977073669434
1748142107765752300,17.75375244140625,3.4925804138183594,9.385316848754883,-4.010440349578857
1748142107784018200,17.77201806640625,6.257781028747559,10.224367141723633,-4.126395225524902
1748142107802282000,17.790281982421874,9.81281852722168,12.31391716003418,-6.220681190490723
1748142107820546800,17.808546875,7.793874263763428,11.802074432373047,-6.360306739807129
1748142107838809600,17.8268095703125,2.4244418144226074,9.98532772064209,-4.978157997131348
1748142107857076200,17.845076171875,-0.9560160636901855,8.929661750793457,-3.590395212173462
1748142107875345400,17.863345458984377,-18.617900848388672,6.118555545806885,1.2836427688598633
1748142107893605000,17.881605224609373,-4.469367980957031,5.360897064208984,-1.85032320022583
1748142107911869000,17.899868896484374,2.987288475036621,2.206632137298584,-7.594217300415039
1748142107930134500,17.918134521484376,7.152422904968262,-13.905092239379883,-18.49462890625
1748142107948405800,17.93640576171875,7.429957389831543,-31.683042526245117,-18.472190856933594
1748142107966663200,17.9546630859375,0.6647769212722778,-15.30525016784668,2.2173781394958496
1748142107984927200,17.97292724609375,1.0422871112823486,-1.8617219924926758,4.120147705078125
1748142108003192800,17.99119287109375,1.0189458131790161,-3.7155628204345703,6.845220565795898
1748142108021456600,18.00945654296875,1.5087528228759766,-12.479484558105469,13.320600509643555
1748142108039721700,18.0277216796875,-1.6910040378570557,-14.151758193969727,10.393821716308594
1748142108057980400,18.04598046875,-2.149704933166504,-12.5527925491333,7.154276371002197
1748142108076249900,18.064249755859375,-2.883769989013672,-11.296775817871094,12.481344223022461
1748142108094516200,18.08251611328125,-24.727279663085938,-10.701554298400879,25.140018463134766
1748142108112779000,18.100779052734374,-24.585283279418945,-1.5833148956298828,16.496440887451172
1748142108131045000,18.119045166015624,-4.732037544250488,2.659792423248291,8.486064910888672
1748142108149309400,18.137309326171874,1.895470380783081,3.718202590942383,5.407508850097656
1748142108167573000,18.155572998046875,-2.4683868885040283,5.001452922821045,3.630812406539917
1748142108185838600,18.173838623046876,-5.705960273742676,7.9836039543151855,1.1136808395385742
1748142108204102000,18.192101806640625,-9.840524673461914,12.151735305786133,1.6797401905059814
1748142108222363000,18.21036279296875,-6.46193790435791,12.84699535369873,1.7789708375930786
1748142108240629000,18.22862890625,-2.4673690795898438,12.327428817749023,1.0841662883758545
1748142108258898200,18.246898193359375,-1.2536978721618652,11.847824096679688,-0.35524725914001465
1748142108277159200,18.2651591796875,-2.304734230041504,9.98189640045166,-2.345003843307495
1748142108295436300,18.283436279296875,-0.8700143694877625,8.28765869140625,-2.1957621574401855
1748142108313684500,18.3016845703125,-1.9399131536483765,7.635529041290283,-2.02498197555542
1748142108331953400,18.319953369140624,-6.084017753601074,2.625476837158203,0.6822240352630615
1748142108350219800,18.3382197265625,-12.167984008789062,-13.80864143371582,4.934823989868164
1748142108368484000,18.356484130859375,-2.4020211696624756,-45.409854888916016,2.511185646057129
1748142108386748000,18.374747802734376,2.633923292160034,-42.3612174987793,4.370304584503174
1748142108405013200,18.39301318359375,-0.6098645925521851,-18.466585159301758,15.058910369873047
1748142108423276500,18.411276611328127,-7.861734390258789,-6.865181922912598,20.62582778930664
1748142108441538000,18.4295380859375,-6.058017253875732,-5.1034674644470215,7.775259494781494
1748142108459807000,18.447806884765626,-1.1602752208709717,-0.35769128799438477,-0.8403110504150391
1748142108478072300,18.466072265625,1.1094216108322144,3.950688362121582,-2.9093856811523438
1748142108496323300,18.4843232421875,3.6326699256896973,5.400617599487305,-5.204341888427734
1748142108514600700,18.5026005859375,6.408287048339844,4.857550621032715,-6.960490703582764
1748142108532852200,18.520852294921873,6.235019683837891,5.910233497619629,-6.793397903442383
1748142108551111200,18.539111083984373,5.837498664855957,7.717957973480225,-5.586668491363525
1748142108569388300,18.55738818359375,7.67115592956543,9.130084037780762,-3.6627087593078613
1748142108587657700,18.57565771484375,8.936918258666992,10.140873908996582,-2.861285924911499
1748142108605923300,18.59392333984375,12.54893970489502,11.70765495300293,-4.146466255187988
1748142108624187600,18.612187744140623,12.845149040222168,13.609619140625,-5.586528778076172
1748142108642451200,18.630451171875,5.942420959472656,12.950169563293457,-4.556639194488525
1748142108660717300,18.64871728515625,-0.26905155181884766,9.32131576538086,-4.3435540199279785
1748142108678980600,18.666980712890624,-8.40756607055664,6.891876220703125,-2.5662546157836914
1748142108697245700,18.68524560546875,-17.55537223815918,3.747587203979492,2.6533374786376953
1748142108715509200,18.70350927734375,2.7081265449523926,5.306074142456055,-5.4707560539245605
1748142108733776000,18.72177587890625,5.598309516906738,-1.598672866821289,-12.33773422241211
1748142108752038400,18.740038330078125,3.573153257369995,-22.041725158691406,-24.171350479125977
1748142108770304300,18.75830419921875,1.835437297821045,-24.352571487426758,-9.27981185913086
1748142108788558800,18.776558837890626,-5.89876127243042,-7.3187360763549805,4.559869289398193
1748142108806835200,18.794835205078126,1.711248517036438,-2.322056770324707,3.2516345977783203
1748142108825098200,18.81309814453125,5.08834171295166,-8.411615371704102,2.257627487182617
1748142108843357400,18.831357421875,6.676190376281738,-16.30631446838379,6.541894912719727
1748142108861622000,18.8496220703125,3.144308090209961,-17.129806518554688,10.36594009399414
1748142108879892000,18.86789208984375,-0.20931875705718994,-14.909119606018066,7.480156421661377
1748142108898155300,18.8861552734375,7.553866863250732,-11.27503490447998,12.464981079101562
1748142108916416000,18.904416015625,-25.26967430114746,-8.78960132598877,34.187416076660156
1748142108934684400,18.922684326171876,-40.873348236083984,1.3168234825134277,23.485233306884766
1748142108952949800,18.94094970703125,-4.288187026977539,4.473465442657471,11.922253608703613
1748142108971213800,18.9592138671875,4.734238624572754,3.89852237701416,6.308843612670898
1748142108989479200,18.977479248046876,-2.0764012336730957,5.00816535949707,4.214622974395752
1748142109007742700,18.99574267578125,-2.9773988723754883,7.66987943649292,2.198195219039917
1748142109026008300,19.01400830078125,-2.642892360687256,10.344039916992188,1.6968677043914795
1748142109044272000,19.032272216796876,-7.191344261169434,13.361642837524414,3.412656784057617
1748142109062537200,19.050537109375,-8.788007736206055,13.302323341369629,1.568097710609436
1748142109080794600,19.068794677734374,-5.390388011932373,10.877542495727539,-0.630761981010437
1748142109099066600,19.087066650390625,-3.4586377143859863,9.836297988891602,-2.7504611015319824
1748142109119680000,19.107679931640625,-1.0436097383499146,8.242688179016113,-1.596124291419983
1748142109137879000,19.125879150390624,-1.150882601737976,8.029377937316895,-1.1690596342086792
1748142109156142800,19.144142822265625,-1.2380714416503906,6.126970291137695,-0.23457670211791992
1748142109174408000,19.162407958984375,-11.317682266235352,-13.984630584716797,5.6856608390808105
1748142109192673500,19.180673583984376,-14.066864013671875,-59.93070983886719,2.265259027481079
1748142109210936800,19.198936767578125,-2.470677137374878,-47.09765625,-4.880981922149658
1748142109229201400,19.217201416015627,-3.680044651031494,-16.551183700561523,5.422083377838135
1748142109247466000,19.235466064453124,-0.7309608459472656,-7.701516151428223,9.169251441955566
1748142109265731800,19.25373193359375,-2.4634156227111816,-4.484197616577148,6.86159610748291
1748142109283978200,19.271978271484375,-0.784156322479248,-2.107926845550537,2.1512765884399414
1748142109302259700,19.290259765625,0.9834533929824829,1.9167499542236328,-1.808293342590332
1748142109320510200,19.30851025390625,3.1405506134033203,5.980502128601074,-4.684775352478027
1748142109338790700,19.326790771484376,5.543852806091309,6.48178768157959,-7.579261779785156
1748142109357056800,19.345056884765626,6.110721588134766,6.751986980438232,-7.275033950805664
1748142109375317500,19.3633173828125,5.4538187980651855,8.075824737548828,-6.085044860839844
1748142109393582800,19.381582763671876,4.4940009117126465,9.221028327941895,-5.118964195251465
1748142109411848200,19.39984814453125,5.216365337371826,10.166399002075195,-4.336801052093506
1748142109430107400,19.418107421875,9.403657913208008,11.953093528747559,-5.0511932373046875
1748142109448371200,19.43637109375,11.86804485321045,13.555633544921875,-5.390508651733398
1748142109466640000,19.454639892578125,9.159284591674805,13.022289276123047,-4.862408638000488
1748142109484906800,19.47290673828125,2.913332462310791,11.14887809753418,-3.535456895828247
1748142109503170000,19.491170166015625,0.45316511392593384,9.9556303024292,-2.904956579208374
1748142109521434600,19.5094345703125,-0.011166691780090332,9.164348602294922,-2.9689674377441406
1748142109539698700,19.52769873046875,-50.889102935791016,-2.233438491821289,-6.554853439331055
1748142109557964500,19.545964599609373,1.3683655261993408,0.24376487731933594,-3.590055465698242
1748142109576227800,19.564227783203126,15.18259334564209,-22.011699676513672,-21.226083755493164
1748142109594492200,19.5824921875,15.933502197265625,-30.17673110961914,-10.650189399719238
1748142109612757200,19.60075732421875,5.922321319580078,-9.799188613891602,2.6667659282684326
1748142109631022800,19.61902294921875,0.340328574180603,-12.654463768005371,6.122241020202637
1748142109649280000,19.637280029296875,-7.332594394683838,-19.78482437133789,11.932806015014648
1748142109667551500,19.655551513671874,-10.793130874633789,-15.578739166259766,13.741418838500977
1748142109685814800,19.673814697265627,-7.106957912445068,-10.656498908996582,6.081434726715088
1748142109704076300,19.692076171875,-7.1761274337768555,-6.0765228271484375,6.201173305511475
1748142109722344700,19.7103447265625,-15.899917602539062,-5.821981430053711,10.198628425598145
1748142109740609000,19.728609130859375,-21.751955032348633,-1.6443634033203125,15.660381317138672
1748142109758873600,19.74687353515625,-6.1369500160217285,1.6244120597839355,11.217058181762695
1748142109777139200,19.76513916015625,-0.07265925407409668,2.9591197967529297,4.842430114746094
1748142109795401200,19.783401123046875,-4.367432594299316,4.910572052001953,2.182947874069214
1748142109813663000,19.8016630859375,-13.581595420837402,8.681041717529297,0.9531481266021729
1748142109831933200,19.81993310546875,-9.36256217956543,9.60915470123291,3.694631814956665
1748142109850197500,19.838197509765624,-2.568807601928711,11.11505126953125,3.5765163898468018
1748142109868461000,19.8564609375,-7.805102348327637,13.307490348815918,4.485165596008301
1748142109886725600,19.8747255859375,-7.0446953773498535,13.230794906616211,1.668904185295105
1748142109904990200,19.892990234375,-2.19539475440979,9.504430770874023,-0.9126123189926147
1748142109923255800,19.911255859375,-0.26659631729125977,6.80047607421875,-0.8506479263305664
1748142109941518800,19.929518798828123,-0.49191224575042725,4.441281795501709,1.0809309482574463
1748142109959779600,19.947779541015624,0.1158977746963501,-2.983194351196289,3.8177688121795654
1748142109978048500,19.966048583984374,-11.05501651763916,-24.223363876342773,6.4530110359191895
1748142109996314400,19.984314453125,-7.639815807342529,-48.324134826660156,-1.4901647567749023
1748142110014577400,20.002577392578125,-2.8318700790405273,-29.289127349853516,-2.267301082611084
1748142110032842200,20.02084228515625,0.16831088066101074,-12.596732139587402,2.922877788543701
1748142110051102500,20.0391025390625,1.5444340705871582,-7.773446559906006,14.59740161895752
1748142110069367800,20.057367919921877,-6.400003433227539,-5.446259021759033,17.825626373291016
1748142110087635700,20.0756357421875,-4.181318283081055,-1.546337604522705,5.470433235168457
1748142110105900300,20.093900390625,0.7003556489944458,5.0595479011535645,-2.2593994140625
1748142110124165000,20.1121650390625,4.872520446777344,6.786542892456055,-6.588625907897949
1748142110142428700,20.1304287109375,7.05631160736084,5.5554656982421875,-8.036018371582031
1748142110160695800,20.14869580078125,6.575307846069336,5.826715469360352,-7.709274768829346
1748142110178958300,20.166958251953126,5.8677167892456055,7.103192329406738,-6.269377708435059
1748142110197223200,20.18522314453125,7.980166912078857,8.646232604980469,-4.531343460083008
1748142110215489000,20.203489013671874,13.727103233337402,9.043622970581055,-6.790151596069336
1748142110233751000,20.2217509765625,16.298025131225586,11.227924346923828,-8.483386039733887
1748142110252017400,20.240017333984376,10.770380973815918,12.474167823791504,-7.806334972381592
1748142110270281200,20.25828125,4.338682174682617,11.430002212524414,-5.861931324005127
1748142110288546600,20.276546630859375,-0.4448617100715637,9.901266098022461,-3.328162908554077
1748142110306810600,20.294810546875,-20.17594337463379,1.23785400390625,2.1465468406677246
1748142110325070300,20.3130703125,-18.235042572021484,4.15574836730957,7.457437992095947
1748142110343339500,20.331339599609375,1.7915163040161133,6.197188377380371,-4.129274368286133
1748142110361606000,20.34960595703125,5.988464832305908,-0.6153450012207031,-11.56347370147705
1748142110379868700,20.36786865234375,13.55095100402832,-11.354732513427734,-18.74660873413086
1748142110398127400,20.38612744140625,11.210824966430664,-30.77761459350586,-17.800437927246094
1748142110416397600,20.4043974609375,2.720405340194702,-19.716506958007812,1.3310465812683105
1748142110434663200,20.4226630859375,-4.852518081665039,-15.138492584228516,8.213676452636719
1748142110452926500,20.440926513671876,-8.059898376464844,-18.751384735107422,12.858556747436523
1748142110471186200,20.459186279296876,-0.420871764421463,-17.209657669067383,13.344038963317871
1748142110489451300,20.477451171875,1.07140052318573,-13.493840217590332,5.258424282073975
1748142110507722000,20.495721923828125,-4.111579418182373,-10.040878295898438,3.7427632808685303
1748142110525985000,20.513985107421874,-6.707823753356934,-3.8742170333862305,19.257877349853516
1748142110544247300,20.532247314453127,-30.364948272705078,0.145721435546875,22.91964340209961
1748142110562515500,20.550515380859373,-14.053496360778809,3.9000091552734375,13.59705924987793
1748142110580780300,20.5687802734375,0.3447237014770508,4.294737815856934,7.749433994293213
1748142110599043600,20.587043701171876,-2.287796974182129,4.688058376312256,4.120518684387207
1748142110651549000,20.639548828125,-5.2831597328186035,11.495150566101074,2.1763992309570312
1748142110669816300,20.65781640625,-4.6341552734375,11.786467552185059,1.1344443559646606
1748142110688080100,20.676080078125,-5.105890274047852,11.844168663024902,-0.5965918302536011
1748142110706341600,20.694341552734375,-3.580808639526367,11.086357116699219,-2.7194406986236572
1748142110724610800,20.71261083984375,-3.6546785831451416,9.816452980041504,-4.024872303009033
1748142110742875100,20.730875244140623,-2.8206887245178223,8.78124713897705,-3.9264535903930664
1748142110761139700,20.7491396484375,-1.086937665939331,7.644489765167236,-2.5268797874450684
1748142110779405600,20.767405517578126,-0.2674447298049927,7.725670337677002,-1.4319067001342773
1748142110797664300,20.785664306640626,-0.2636755406856537,0.3274726867675781,4.765477180480957
1748142110815932200,20.80393212890625,-10.846729278564453,-32.9147834777832,14.773962020874023
1748142110834199000,20.822198974609375,-6.180607795715332,-67.46575164794922,0.07946157455444336
1748142110852462600,20.840462646484376,-10.964834213256836,-25.430171966552734,3.1135692596435547
1748142110870727700,20.858727783203125,-5.308749198913574,-6.653421401977539,6.543375492095947
1748142110888991700,20.87699169921875,3.192906379699707,-0.8903541564941406,5.713910102844238
1748142110907256000,20.895256103515624,4.1792378425598145,1.0817985534667969,5.068417072296143
1748142110925521000,20.91352099609375,2.93729567527771,1.6495003700256348,4.62556791305542
1748142110943784700,20.93178466796875,0.6366199254989624,5.085290908813477,0.7199783325195312
1748142110962051000,20.950051025390625,2.640172004699707,7.093777179718018,-6.287428855895996
1748142110980314600,20.968314697265626,5.648022651672363,5.384980201721191,-8.46640396118164
1748142110998579000,20.986578857421875,5.125796318054199,5.629772186279297,-7.683234214782715
1748142111016845800,21.004845703125,3.6903231143951416,7.027721405029297,-6.168300628662109
1748142111035106300,21.023106201171874,3.4532227516174316,8.27963924407959,-5.246220588684082
1748142111057929200,21.04592919921875,3.827716588973999,9.438458442687988,-4.089693069458008
1748142111076194300,21.0641943359375,7.146965026855469,10.677543640136719,-5.439903736114502
1748142111094474500,21.082474609375,7.0190324783325195,11.469715118408203,-5.06565523147583
1748142111112735000,21.10073486328125,1.2337937355041504,10.061279296875,-2.9328229427337646
1748142111130999600,21.11899951171875,-0.4691188335418701,9.074118614196777,-3.149233102798462
1748142111149264000,21.137263916015623,-17.730432510375977,4.773371696472168,-2.372844934463501
1748142111167529500,21.155529541015625,0.317592978477478,7.44146203994751,-5.215335369110107
1748142111185791700,21.173791748046874,-6.37441873550415,2.3454761505126953,-9.47753620147705
1748142111204059100,21.19205908203125,1.460520625114441,-12.326947212219238,-17.031543731689453
1748142111222319900,21.21031982421875,7.700654983520508,-35.626426696777344,-25.6259708404541
1748142111240591000,21.228591064453123,5.3235039710998535,-14.053993225097656,-0.7784243822097778
1748142111258850800,21.246850830078124,0.20657289028167725,-5.782822608947754,4.6451096534729
1748142111277115100,21.265115234375,-8.683257102966309,-13.322335243225098,11.801130294799805
1748142111295376600,21.283376708984374,-1.9367396831512451,-14.4463529586792,8.360033988952637
1748142111313646000,21.30164599609375,0.8000378608703613,-12.418682098388672,6.092138290405273
1748142111331904500,21.319904541015624,-3.0216052532196045,-9.210723876953125,4.291255474090576
1748142111350173000,21.3381728515625,-2.552835702896118,-6.874321937561035,7.147757530212402
1748142111368439800,21.356439697265625,-25.786964416503906,-6.139813423156738,18.91570472717285
1748142111386704400,21.374704345703126,-18.9046630859375,-0.08926200866699219,20.020057678222656
1748142111404967700,21.3929677734375,-2.1952719688415527,2.9384231567382812,11.13232135772705
1748142111423232300,21.411232177734377,0.1650094985961914,4.450141429901123,5.3066511154174805
1748142111441484800,21.42948486328125,-7.593375205993652,6.089443206787109,1.9355381727218628
1748142111459762700,21.4477626953125,-9.792205810546875,9.608458518981934,1.9906353950500488
1748142111478016500,21.4660166015625,-4.700196743011475,11.446691513061523,4.1523590087890625
1748142111496290300,21.484290283203126,-4.6539154052734375,12.159914016723633,3.4384589195251465
1748142111514554600,21.5025546875,-4.8120880126953125,13.758275032043457,2.1641390323638916
1748142111532819700,21.52081982421875,-4.746884346008301,12.680039405822754,0.34474992752075195
1748142111551067100,21.539067138671875,-1.7119190692901611,10.538369178771973,-1.3652766942977905
1748142111569344300,21.55734423828125,-0.060364723205566406,8.70814037322998,-0.385786771774292
1748142111587608300,21.5756083984375,-0.7064394950866699,7.581089973449707,0.004893302917480469
1748142111605877800,21.593877685546875,-3.414787769317627,3.114865303039551,2.7730507850646973
1748142111624143400,21.612143310546877,-14.945419311523438,-23.444740295410156,2.916221857070923
1748142111642407200,21.6304072265625,-0.13408684730529785,-61.707481384277344,-1.5802063941955566
1748142111660671200,21.648671142578124,-4.024129867553711,-34.98357009887695,9.865118980407715
1748142111678937000,21.66693701171875,-10.060401916503906,-13.04549503326416,13.935029983520508
1748142111697199000,21.68519921875,-2.2613131999969482,-5.375883102416992,13.958723068237305
1748142111715466200,21.70346630859375,0.34230101108551025,-3.2672643661499023,8.317893028259277
1748142111733729300,21.721729248046874,1.4686861038208008,-0.5944881439208984,-0.705359935760498
1748142111751995100,21.7399951171875,2.319179058074951,2.938612461090088,-4.577275276184082
1748142111770259000,21.758259033203124,3.745081663131714,4.143601894378662,-8.09984016418457
1748142111788523300,21.776523193359374,5.685170650482178,4.872821807861328,-8.186135292053223
1748142111806786800,21.794786865234375,4.905060768127441,6.5752949714660645,-7.081308364868164
1748142111825055000,21.813054931640625,3.9929039478302,8.38840103149414,-5.397387504577637
1748142111843312000,21.83131201171875,3.673208713531494,9.815662384033203,-3.792860507965088
1748142111861575400,21.849575439453126,9.690013885498047,11.280574798583984,-4.463872909545898
1748142111879847200,21.86784716796875,11.176753044128418,14.478215217590332,-5.9195356369018555
1748142111898111700,21.88611181640625,10.397699356079102,15.673174858093262,-7.210790634155273
1748142111916370400,21.904370361328127,5.262845039367676,14.45068645477295,-5.806090354919434
1748142111934639600,21.9226396484375,0.6039196252822876,11.622269630432129,-4.189924240112305
1748142111952904000,21.940904052734375,-14.966649055480957,5.444999694824219,-0.7426643371582031
1748142111971169800,21.959169677734376,-13.33363151550293,5.3148603439331055,-0.28440141677856445
1748142111989433300,21.977433349609374,1.5539592504501343,4.356899738311768,-5.348564147949219
1748142112007698200,21.9956982421875,11.001134872436523,-6.886971473693848,-16.776880264282227
1748142112025961200,22.013961181640624,16.46425437927246,-30.476581573486328,-28.165184020996094
1748142112044229400,22.0322294921875,3.7311882972717285,-15.04785442352295,-4.826897621154785
1748142112062491400,22.050491455078124,-1.9157637357711792,-14.700177192687988,1.167504072189331
1748142112080742700,22.06874267578125,2.2151660919189453,-18.49698257446289,-1.421137809753418
1748142112099008800,22.0870087890625,2.4514687061309814,-20.7298583984375,0.23371750116348267
1748142112117288200,22.1052880859375,1.9754068851470947,-17.01358413696289,7.402316093444824
1748142112135551000,22.123551025390626,-0.8616936206817627,-12.329623222351074,8.571321487426758
1748142112153812700,22.141812744140626,-2.3231923580169678,-9.39914608001709,9.237961769104004
1748142112172080000,22.160080078125,-12.951377868652344,-6.63668155670166,21.981935501098633
1748142112190341000,22.178341064453125,-34.52623748779297,0.40146541595458984,28.550132751464844
1748142112208607700,22.196607666015623,-13.425074577331543,5.305283069610596,14.440268516540527
1748142112226872600,22.21487255859375,5.352224349975586,7.97913122177124,6.529778003692627
1748142112245137000,22.233136962890626,-3.003063201904297,5.646672248840332,5.632774353027344
1748142112263403500,22.251403564453124,-5.308350086212158,6.8202409744262695,4.185195446014404
1748142112299927800,22.287927734375,-11.743189811706543,12.750882148742676,7.342097282409668
1748142112318198000,22.306197998046876,-5.442518711090088,12.410367965698242,2.4824562072753906
1748142112336460800,22.324460693359374,-2.539942502975464,10.556683540344238,-1.172194004058838
1748142112354719500,22.342719482421874,-2.6246063709259033,9.29139518737793,-2.615450859069824
1748142112372987600,22.360987548828124,-1.9514844417572021,8.597832679748535,-3.2623343467712402
1748142112391254500,22.379254638671874,-0.950365424156189,7.885049343109131,-2.2418313026428223
1748142112409519000,22.39751904296875,-1.7800991535186768,7.351780891418457,-1.4068571329116821
1748142112427781400,22.415781494140624,-13.722417831420898,-10.72270679473877,4.92763614654541
1748142112446045200,22.434045166015625,-8.863210678100586,-52.5345344543457,6.764891147613525
1748142112464314600,22.452314697265624,-1.021915316581726,-49.34037399291992,7.031626224517822
1748142112482577400,22.470577392578125,-4.290095806121826,-21.493011474609375,15.941954612731934
1748142112500840700,22.4888408203125,-3.8521721363067627,-9.683965682983398,12.168038368225098
1748142112519093000,22.507093017578125,-1.4926462173461914,-4.591212272644043,5.960450649261475
1748142112537365000,22.525364990234376,-1.2354801893234253,-0.4635610580444336,1.9501538276672363
1748142112587591200,22.575591064453125,7.197709560394287,4.020077705383301,-8.780197143554688
1748142112605862100,22.593862060546876,8.017865180969238,4.045822620391846,-8.882006645202637
1748142112624123000,22.612122802734376,7.301297187805176,5.617280006408691,-7.484918594360352
1748142112642384400,22.63038427734375,5.81289005279541,7.078184127807617,-5.695270538330078
1748142112660654300,22.648654296875,7.664833068847656,8.855766296386719,-4.408729076385498
1748142112678913300,22.666913330078124,10.582843780517578,10.93948745727539,-5.655138969421387
1748142112697182200,22.68518212890625,11.538914680480957,13.805493354797363,-7.551939010620117
1748142112715448000,22.703447998046876,8.102400779724121,14.435302734375,-7.260583400726318
1748142112733712400,22.72171240234375,2.6702940464019775,14.916130065917969,-3.7672340869903564
1748142112751976000,22.739975830078127,-1.5401053428649902,6.8732380867004395,-6.052038192749023
1748142112770242000,22.758241943359376,-32.49143981933594,0.5926966667175293,-0.9566445350646973
1748142112788504600,22.776504638671874,-0.8345287442207336,5.691187858581543,-5.534445285797119
1748142112806771200,22.794771240234375,9.940238952636719,1.3941264152526855,-15.10009765625
1748142112825033500,22.813033447265624,11.61978816986084,-10.464210510253906,-24.042011260986328
1748142112843288000,22.8312880859375,-12.856795310974121,-31.961912155151367,-17.61638641357422
1748142112861558500,22.84955859375,-2.7128515243530273,-17.04039764404297,0.6655879020690918
1748142112879827700,22.86782763671875,2.8875744342803955,-4.917961120605469,3.0099685192108154
1748142112898093000,22.886093017578126,4.89439058303833,-4.268888473510742,5.015275001525879
1748142112916353000,22.90435302734375,7.738743305206299,-14.90749740600586,8.181294441223145
1748142112934616600,22.922616455078124,6.133476257324219,-21.65790557861328,15.456963539123535
1748142112952885800,22.9408857421875,0.6259136199951172,-20.894168853759766,8.611939430236816
1748142112971151600,22.959151611328124,-0.8077572584152222,-13.782994270324707,7.674141883850098
1748142112989416200,22.977416259765626,1.5941190719604492,-9.370865821838379,17.657344818115234
1748142113007679500,22.995679443359375,-73.99461364746094,-3.119917869567871,23.8738956451416
1748142113025944800,23.01394482421875,-14.41710090637207,2.514591693878174,11.121845245361328
1748142113044208400,23.03220849609375,5.504418849945068,5.415799140930176,5.6478495597839355
1748142113062474500,23.050474609375,-3.1031737327575684,5.08534574508667,5.629248142242432
1748142113080737500,23.068737548828125,-2.37992525100708,7.9628400802612305,4.038007736206055
1748142113099003400,23.08700341796875,-4.487945079803467,11.484237670898438,4.748469829559326
1748142113117267000,23.105266845703124,-10.22722053527832,14.973907470703125,4.97875452041626
1748142113135532800,23.12353271484375,-5.230392932891846,13.890863418579102,1.1933399438858032
1748142113153794300,23.141794189453126,-3.652858257293701,11.965142250061035,-1.1867969036102295
1748142113172062700,23.160062744140625,-1.1478570699691772,10.101740837097168,-1.6254770755767822
1748142113190320000,23.178320068359376,-0.9440256357192993,8.696537971496582,-0.6301674842834473
1748142113208589600,23.196589599609375,-1.6950868368148804,7.983592987060547,-0.6862813234329224
1748142113226855000,23.21485498046875,-1.534172534942627,4.441232681274414,1.3496181964874268
1748142113245119700,23.23311962890625,-19.305587768554688,-37.6060676574707,2.4883999824523926
1748142113263378700,23.251378662109374,0.8315315246582031,-72.75455474853516,-0.2510855197906494
1748142113281644500,23.26964453125,-2.2707765102386475,-29.793119430541992,3.331012487411499
1748142113299912200,23.287912109375,-4.095029354095459,-9.667682647705078,7.384515285491943
1748142113318177800,23.306177734375,0.6052635312080383,-3.6249265670776367,8.59476375579834
1748142113336441300,23.32444140625,-3.121544361114502,-1.4551067352294922,7.641651153564453
1748142113354707200,23.342707275390627,-2.6202237606048584,0.6955299377441406,-0.16065073013305664
1748142113372970200,23.36097021484375,0.40394967794418335,5.096877098083496,-5.52636194229126
1748142113391236000,23.379236083984374,3.949258804321289,6.074838638305664,-7.9851202964782715
1748142113409499400,23.39749951171875,5.069570541381836,6.7782087326049805,-7.25177001953125
1748142113427765500,23.415765625,4.976149559020996,8.257372856140137,-6.3381829261779785
1748142113446029300,23.434029296875,7.8511962890625,9.61323356628418,-5.062816619873047
1748142113464293000,23.452293212890623,12.308963775634766,10.184774398803711,-5.876262664794922
1748142113482557400,23.470557373046876,14.57501220703125,12.496047973632812,-7.935917854309082
1748142113500822500,23.488822509765626,12.213213920593262,12.865914344787598,-8.509883880615234
1748142113519087600,23.507087646484376,4.295242786407471,13.041905403137207,-5.4524359703063965
1748142113537347800,23.525347900390624,0.44025903940200806,11.02814769744873,-2.858914613723755
