time,seconds_elapsed,z,y,x
1747977670935850800,0.084850830078125,10.192826271057129,1.8783657550811768,0.34995031356811523
1747977670954117600,0.10311767578125,10.767104148864746,1.932802438735962,0.8943174481391907
1747977670972383200,0.12138330078125,11.326425552368164,1.726421594619751,1.3758729696273804
1747977670990645800,0.139645751953125,12.51745319366455,1.4213366508483887,1.052243709564209
1747977671008909000,0.157908935546875,12.999009132385254,1.2711870670318604,0.893121063709259
1747977671027174000,0.176173828125,12.062817573547363,0.9960124492645264,1.306481122970581
1747977671045425700,0.19442578125,11.711071968078613,1.2065808773040771,1.6085749864578247
1747977671063701500,0.212701416015625,12.504891395568848,1.079761266708374,2.1613171100616455
1747977671081965600,0.230965576171875,13.377673149108887,0.6149554252624512,2.589034080505371
1747977671100230100,0.249230224609375,13.210175514221191,0.5204389095306396,2.6662025451660156
1747977671118494000,0.267493896484375,11.563315391540527,0.5712863802909851,2.5740790367126465
1747977671136758000,0.285758056640625,9.662816047668457,0.6131607890129089,2.2959132194519043
1747977671155022000,0.30402197265625,8.407780647277832,0.8709874153137207,2.021935224533081
1747977671173281500,0.322281494140625,7.974679470062256,1.2628121376037598,1.9417755603790283
1747977671191549200,0.340549072265625,8.267202377319336,1.5080764293670654,2.104487419128418
1747977671209815800,0.35881591796875,8.387441635131836,1.6360924243927002,2.2480568885803223
1747977671228078000,0.377078125,7.820342540740967,1.923829436302185,2.1774685382843018
1747977671246342700,0.3953427734375,7.089933395385742,2.107478618621826,1.9884356260299683
1747977671264606200,0.413606201171875,6.307480335235596,2.187039852142334,1.913659930229187
1747977671282869800,0.431869873046875,6.169294834136963,2.410768747329712,1.679761528968811
1747977671301139700,0.4501396484375,6.784250259399414,2.4699912071228027,1.3435698747634888
1747977671319399200,0.468399169921875,7.479963779449463,2.2432711124420166,1.179063320159912
1747977671337663000,0.4866630859375,7.545766353607178,2.1571295261383057,0.9876375198364258
1747977671355927000,0.504927001953125,7.115057945251465,2.2205393314361572,0.4863412082195282
1747977671374192600,0.523192626953125,6.440880298614502,2.313859462738037,-0.15732808411121368
1747977671392460300,0.541460205078125,5.90668249130249,2.710469961166382,-0.5431707501411438
1747977671410719200,0.55971923828125,6.448657035827637,3.3206396102905273,-0.5437689423561096
1747977671428983600,0.577983642578125,7.76470947265625,3.0101709365844727,-0.6472585201263428
1747977671447245600,0.59624560546875,10.17009449005127,4.244269371032715,1.0133603811264038
1747977671465513000,0.614512939453125,9.859625816345215,2.493321180343628,1.6959130764007568
1747977671483775500,0.632775390625,9.910472869873047,1.9507486820220947,0.054436713457107544
1747977671502039300,0.651039306640625,10.344172477722168,1.5343974828720093,-1.5158531665802002
1747977671520303600,0.6693037109375,11.440683364868164,2.578864574432373,-1.8945173025131226
1747977671538568400,0.687568359375,12.229118347167969,3.4259238243103027,-1.067797064781189
1747977671556831200,0.705831298828125,13.079767227172852,2.733799934387207,0.527019202709198
1747977671575096600,0.7240966796875,15.049657821655273,1.3280165195465088,0.09990034252405167
1747977671593360000,0.74235986328125,14.868999481201172,0.4546363055706024,-0.18783657252788544
1747977671611624400,0.76062451171875,10.01874828338623,2.98085880279541,-0.4085744619369507
1747977671629889500,0.7788896484375,11.767901420593262,5.560919761657715,-1.7808582782745361
1747977671648150800,0.79715087890625,10.766505241394043,5.395216941833496,-0.9804590940475464
1747977671666411300,0.815411376953125,9.279964447021484,3.696911096572876,-0.898504912853241
1747977671684675800,0.83367578125,8.837292671203613,1.1377872228622437,-2.1589243412017822
1747977671702943000,0.85194287109375,10.146764755249023,0.6269195079803467,-4.515256404876709
1747977671721209900,0.8702099609375,9.44327449798584,0.4408775866031647,-3.022135019302368
1747977671739472400,0.888472412109375,9.031110763549805,1.0235298871994019,-0.877567708492279
1747977671757737200,0.9067373046875,9.53360366821289,1.648654818534851,0.6478567123413086
1747977671776000800,0.925000732421875,10.668997764587402,1.5254244804382324,2.2809581756591797
1747977671794264800,0.943264892578125,10.777273178100586,2.5363919734954834,1.9950158596038818
1747977671812529000,0.96152880859375,10.401001930236816,3.084348440170288,1.5182459354400635
1747977671830793200,0.979793212890625,9.262616157531738,2.486740827560425,1.567897081375122
1747977671849057000,0.99805712890625,8.109275817871094,1.7228323221206665,1.7461622953414917
1747977671867321300,1.0163212890625,6.7280192375183105,1.6103696823120117,1.2999008893966675
1747977671885585000,1.0345849609375,5.482554912567139,2.114656925201416,0.633499801158905
1747977671903848000,1.052847900390625,5.398806095123291,3.1064820289611816,-1.9573289155960083
1747977671922114600,1.071114501953125,6.985247611999512,2.6057839393615723,-0.5886343717575073
1747977671940377600,1.089377685546875,7.670791149139404,2.8689942359924316,0.15134602785110474
1747977671958636800,1.10763671875,6.994818687438965,3.565305709838867,-0.13280165195465088
1747977671976906000,1.125906005859375,7.605587005615234,2.7116663455963135,-0.833898663520813
1747977671995170000,1.144170166015625,7.6013994216918945,2.403590440750122,-0.15493527054786682
1747977672013429000,1.162428955078125,8.758329391479492,2.906083106994629,-0.25244277715682983
1747977672031693000,1.180693115234375,9.640084266662598,2.5884358882904053,-0.37926238775253296
1747977672049961200,1.198961181640625,9.769296646118164,3.3200414180755615,0.5682953596115112
1747977672068227300,1.217227294921875,8.9910306930542,3.751347780227661,1.6612170934677124
1747977672086490000,1.235489990234375,9.279366493225098,3.0658040046691895,1.6498512029647827
1747977672104753700,1.253753662109375,11.758330345153809,2.251646041870117,1.48055899143219
1747977672123018800,1.272018798828125,12.320643424987793,2.324627161026001,1.140179991722107
1747977672141270300,1.290270263671875,11.160722732543945,2.5058834552764893,0.841675341129303
1747977672159546400,1.30854638671875,10.965707778930664,2.345564365386963,1.277169108390808
1747977672177810400,1.326810546875,11.320444107055664,1.882553219795227,0.7447660565376282
1747977672196075000,1.345074951171875,11.525030136108398,2.00518536567688,0.3810569941997528
1747977672214337500,1.363337646484375,11.969496726989746,1.7324036359786987,0.8147560954093933
1747977672232604000,1.38160400390625,10.909476280212402,1.3860424757003784,1.3525429964065552
1747977672250865700,1.39986572265625,9.667601585388184,1.0169496536254883,1.7084753513336182
1747977672269132300,1.41813232421875,8.640482902526855,0.5563312768936157,2.159522533416748
1747977672287398400,1.4363984375,6.595217227935791,0.2147558331489563,1.9674984216690063
1747977672305659400,1.454659423828125,4.732405185699463,-0.31345975399017334,2.2576282024383545
1747977672323923000,1.4729228515625,4.473979949951172,-0.6113662123680115,2.606980323791504
1747977672342187300,1.491187255859375,4.113860130310059,-0.3762713670730591,3.081955671310425
1747977672360448000,1.509447998046875,3.266202926635742,0.026919255033135414,3.418745279312134
1747977672378711600,1.527711669921875,2.7284159660339355,0.1860419660806656,3.855435371398926
1747977672396979200,1.545979248046875,2.6727828979492188,-0.6203392744064331,5.614758491516113
1747977672415244000,1.564244140625,1.6959130764007568,-0.21714866161346436,3.88594388961792
1747977672433507800,1.5825078125,0.5318048596382141,0.20099709928035736,3.5778679847717285
1747977672451772000,1.60077197265625,3.291327476501465,-1.1132607460021973,3.7328033447265625
1747977672470035200,1.61903515625,5.653641700744629,-0.4163511395454407,4.221537113189697
1747977672488288000,1.6372880859375,5.80199670791626,-0.3068794906139374,6.090929985046387
1747977672506564000,1.655564208984375,5.057828903198242,-0.3080759048461914,6.217151641845703
1747977672524829400,1.673829345703125,4.500301361083984,0.4833501875400543,7.429714202880859
1747977672543085800,1.6920859375,4.9704909324646,1.5702898502349854,10.185050010681152
1747977672561355800,1.710355712890625,5.3748779296875,1.4883357286453247,11.70449161529541
1747977672579621600,1.72862158203125,4.754538536071777,1.557727575302124,11.682358741760254
1747977672597883400,1.74688330078125,3.555734395980835,0.6514459848403931,11.066804885864258
1747977672616149200,1.765149169921875,1.7742780447006226,-0.20997019112110138,10.150951385498047
1747977672634408200,1.783408203125,1.0516455173492432,-0.4253242313861847,9.923035621643066
1747977672652676600,1.801676513671875,0.5754738450050354,-0.7549355626106262,10.903494834899902
1747977672670937300,1.819937255859375,0.6993024349212646,-0.39421752095222473,12.06640625
1747977672689207600,1.83820751953125,1.2711870670318604,-0.5383850932121277,13.73898983001709
1747977672707468800,1.85646875,1.3567304611206055,-0.6813562512397766,13.886746406555176
1747977672725732900,1.87473291015625,0.33499518036842346,-1.5176477432250977,13.098311424255371
1747977672743996700,1.89299658203125,-0.8297112584114075,-3.0993034839630127,11.927024841308594
1747977672762261000,1.911260986328125,-0.26560330390930176,-3.9284164905548096,11.80020523071289
1747977672780525300,1.929525390625,-1.2191431522369385,-4.788636207580566,11.739188194274902
1747977672798786300,1.947786376953125,-1.0809576511383057,-4.955535888671875,11.867801666259766
1747977672817052000,1.966052001953125,-1.4626128673553467,-5.466403484344482,12.738191604614258
1747977672835318300,1.984318359375,-1.9884356260299683,-6.337390899658203,13.890933990478516
1747977672853581800,2.002581787109375,-1.0887342691421509,-6.199803352355957,12.597613334655762
1747977672871844900,2.020844970703125,-0.07058826833963394,-7.643871784210205,13.392029762268066
1747977672890110500,2.0391103515625,0.9314061999320984,-7.524828910827637,13.11266803741455
1747977672908373500,2.05737353515625,0.8428717851638794,-7.7007012367248535,12.294920921325684
1747977672926638000,2.07563818359375,1.2861422300338745,-8.321639060974121,9.42772102355957
1747977672944901400,2.0939013671875,2.1655044555664062,-8.535198211669922,8.244470596313477
1747977672963165700,2.112165771484375,2.4113669395446777,-8.475378036499023,7.138986587524414
1747977672981425200,2.130425048828125,0.9487541913986206,-8.444869041442871,6.415157318115234
1747977672999694300,2.1486943359375,0.7076773047447205,-7.83111047744751,6.503093719482422
1747977673017958100,2.166958251953125,1.9154545068740845,-7.090531826019287,7.156334400177002
1747977673036209200,2.185209228515625,0.8925228714942932,-5.912066459655762,8.538188934326172
1747977673063622000,2.212621826171875,1.1096714735031128,-4.981258392333984,9.772886276245117
1747977673081881300,2.23088134765625,0.6610172390937805,-4.817948341369629,9.582656860351562
1747977673100142800,2.249142822265625,0.7268198728561401,-5.398207664489746,8.156534194946289
1747977673118404600,2.267404541015625,1.9130617380142212,-6.725028038024902,7.45364236831665
1747977673136676000,2.285676025390625,3.2548370361328125,-7.2867431640625,8.440083503723145
1747977673154926800,2.3039267578125,2.991626501083374,-6.567699909210205,9.005986213684082
1747977673173203000,2.322202880859375,2.6057839393615723,-5.995815277099609,8.34736156463623
1747977673191467000,2.340467041015625,2.6727828979492188,-5.554937839508057,7.692924976348877
1747977673209731000,2.35873095703125,2.5848467350006104,-5.511867046356201,6.817749977111816
1747977673227995100,2.3769951171875,2.2809581756591797,-5.4628143310546875,7.549953460693359
1747977673246259200,2.39525927734375,3.3619158267974854,-4.925625324249268,9.18425178527832
1747977673264523300,2.413523193359375,2.066800594329834,-6.4217376708984375,7.420143127441406
1747977673282787300,2.431787353515625,3.680161237716675,-8.605188369750977,6.897311210632324
1747977673301051400,2.450051513671875,4.811367988586426,-6.676573276519775,7.466204643249512
1747977673319315500,2.4683154296875,5.168497085571289,-6.963113784790039,7.603792190551758
1747977673337579500,2.48657958984375,5.151747226715088,-6.464210510253906,7.920242786407471
1747977673355837700,2.504837646484375,4.003790378570557,-6.430710792541504,6.866204738616943
1747977673374107600,2.523107666015625,2.944368362426758,-6.406782627105713,7.0546393394470215
1747977673392373000,2.541373046875,3.4169507026672363,-6.21356201171875,8.622536659240723
1747977673410635800,2.5596357421875,3.1543383598327637,-6.930212497711182,7.723433494567871
1747977673428895000,2.57789501953125,0.0323031060397625,-6.064609050750732,8.434102058410645
1747977673447164200,2.5961640625,-0.7591229677200317,-4.872385025024414,10.690533638000488
1747977673465423600,2.614423583984375,0.9930213689804077,-6.404987812042236,11.291729927062988
1747977673483692000,2.632692138671875,0.6885347366333008,-3.153740167617798,12.15793228149414
1747977673501956000,2.6509560546875,1.7539390325546265,-3.0837502479553223,10.409975051879883
1747977673520220200,2.66922021484375,1.9316060543060303,-4.064209461212158,8.6243314743042
1747977673538481200,2.687481201171875,1.2693923711776733,-1.6468602418899536,-0.008374879136681557
1747977673556748500,2.70574853515625,1.8586249351501465,-1.6002001762390137,4.366901397705078
1747977673575012400,2.724012451171875,2.4837498664855957,0.21176479756832123,5.061418056488037
1747977673593276700,2.742276611328125,1.1665010452270508,0.26081767678260803,5.126622676849365
1747977673611536000,2.760535888671875,-1.3986048698425293,-0.4731806814670563,3.930809497833252
1747977673629803500,2.778803466796875,-2.9288148880004883,-1.4739787578582764,2.5597219467163086
1747977673648070000,2.79706982421875,-3.6813576221466064,-1.7886348962783813,1.934597134590149
1747977673666332700,2.815332763671875,-3.059821844100952,-2.181057929992676,2.9659037590026855
1747977673684597000,2.833596923828125,-2.0159530639648438,-1.795215129852295,5.355136871337891
1747977673702859800,2.85185986328125,-2.117648124694824,-0.6011967062950134,8.422736167907715
1747977673721126100,2.870126220703125,-1.6223337650299072,0.37148571014404297,10.216754913330078
1747977673739389700,2.8883896484375,0.08255238085985184,-1.6689938306808472,11.879167556762695
1747977673757653000,2.906653076171875,-2.4837498664855957,-0.035892341285943985,13.890933990478516
1747977673775917300,2.924917236328125,-5.512465000152588,1.3609179258346558,14.48315715789795
1747977673794180400,2.943180419921875,-7.534400463104248,1.222732424736023,13.813166618347168
1747977673812441600,2.961441650390625,-7.57507848739624,0.3397808074951172,14.237295150756836
1747977673830709500,2.97970947265625,-8.041080474853516,0.7501499056816101,14.138590812683105
1747977673848959700,2.997959716796875,-6.556334018707275,2.00518536567688,10.573883056640625
1747977673867238000,3.01623779296875,-1.9507486820220947,0.44805604219436646,8.601000785827637
1747977673885500400,3.03450048828125,3.4785659313201904,-1.6630117893218994,8.71047306060791
1747977673903767000,3.05276708984375,2.2540390491485596,-4.8675994873046875,10.937592506408691
1747977673922029600,3.071029541015625,1.3369896411895752,-5.632704734802246,10.01037311553955
1747977673940294100,3.089294189453125,3.0071799755096436,-6.03110933303833,8.571090698242188
1747977673958553000,3.107552978515625,3.401397466659546,-5.842674732208252,9.364909172058105
1747977673976822300,3.125822265625,2.6009981632232666,-5.520241737365723,9.495916366577148
1747977673995085600,3.14408544921875,1.3381860256195068,-5.134997367858887,7.901698589324951
1747977674013350100,3.16235009765625,-0.02751746028661728,-4.369294166564941,6.595815658569336
1747977674031614200,3.1806142578125,-0.6789634227752686,-4.390231132507324,5.793622016906738
1747977674049877500,3.19887744140625,-1.6815561056137085,-4.936991214752197,4.680361270904541
1747977674068143400,3.217143310546875,-0.8548358678817749,-6.518647193908691,3.757927894592285
1747977674086401800,3.23540185546875,-0.16929219663143158,-8.165507316589355,3.6873397827148438
1747977674104670200,3.253670166015625,-1.8143577575683594,-8.070990562438965,6.159125328063965
1747977674122944500,3.271944580078125,-1.1988041400909424,-8.219346046447754,10.088738441467285
1747977674141199400,3.290199462890625,0.4301098585128784,-9.538987159729004,8.791828155517578
1747977674159464400,3.30846435546875,0.037088751792907715,-10.088738441467285,7.041478633880615
1747977674177726700,3.326726806640625,0.35413774847984314,-8.532805442810059,5.622535228729248
1747977674195991000,3.344990966796875,0.8847461938858032,-6.089135646820068,5.663212776184082
1747977674214256600,3.363256591796875,0.4295116662979126,-6.3529438972473145,5.44845724105835
1747977674232517000,3.38151708984375,-0.21176479756832123,-6.952944278717041,5.6931233406066895
1747977674250783000,3.399782958984375,-0.8081758618354797,-6.659823417663574,7.311269760131836
1747977674269047000,3.418047119140625,-1.1341979503631592,-7.10429048538208,7.526623725891113
1747977674287311400,3.436311279296875,-1.6965112686157227,-8.108677864074707,7.478767395019531
1747977674305575400,3.454575439453125,-0.5796613097190857,-10.132407188415527,8.83669376373291
1747977674323838500,3.47283837890625,-0.064606212079525,-9.379266738891602,9.137591361999512
1747977674342104600,3.4911044921875,0.9002995491027832,-9.736394882202148,8.135597229003906
1747977674360367900,3.509367919921875,0.8632107973098755,-9.108877182006836,7.552944660186768
1747977674378627000,3.527626953125,0.7549355626106262,-8.26839828491211,6.789036273956299
1747977674396894500,3.54589453125,0.32602208852767944,-8.518448829650879,5.699105262756348
1747977674415160800,3.564160888671875,-2.8283164501190186,-10.095318794250488,4.847858905792236
1747977674433419000,3.5824189453125,-8.303692817687988,-11.422139167785645,7.186842918395996
1747977674451688000,3.60068798828125,-0.4265206456184387,-10.708479881286621,7.859824180603027
1747977674469947400,3.618947509765625,1.1868400573730469,-8.906683921813965,6.897311210632324
1747977674488215000,3.637215087890625,-0.3481557071208954,-9.293723106384277,6.560521602630615
1747977674506481200,3.655481201171875,-0.5377869009971619,-10.73300552368164,5.611767292022705
1747977674524744200,3.673744140625,0.6951149702072144,-12.743575096130371,5.300102233886719
1747977674543008300,3.69200830078125,1.5092729330062866,-15.716058731079102,5.399404525756836
1747977674561272600,3.7102724609375,1.4709876775741577,-18.381664276123047,3.9942193031311035
1747977674579536400,3.728536376953125,1.0253244638442993,-19.031314849853516,2.397010087966919
1747977674597801000,3.746801025390625,-0.5048855543136597,-13.185050964355469,3.5467612743377686
1747977674616064800,3.765064697265625,-2.616551637649536,-8.073383331298828,2.472982168197632
1747977674634325800,3.78332568359375,-2.874378204345703,-7.779066562652588,0.24526432156562805
1747977674652595700,3.801595703125,-2.142772674560547,-8.229515075683594,-0.6747759580612183
1747977674670855200,3.819855224609375,-0.42711883783340454,-7.210771083831787,0.42771705985069275
1747977674689122800,3.838122802734375,0.2309073805809021,-5.903093338012695,0.031106693670153618
1747977674707385300,3.85638525390625,0.8297112584114075,-3.881756544113159,1.2185449600219727
1747977674725644500,3.87464453125,1.5882359743118286,-3.456432342529297,4.1347975730896
1747977674743912000,3.892911865234375,2.386840581893921,-4.429114818572998,4.380660057067871
1747977674762178600,3.911178466796875,1.8628123998641968,-5.74397087097168,1.2137593030929565
1747977674780437200,3.929437255859375,1.2891331911087036,-5.309673309326172,0.20159530639648438
1747977674798700800,3.94770068359375,1.1318050622940063,-4.444069862365723,0.8009973764419556
1747977674816969500,3.965969482421875,0.6658028960227966,-4.76530647277832,0.2231307178735733
1747977674835233500,3.984233642578125,-0.028115665540099144,-5.9647088050842285,-2.316850423812866
1747977674853497600,4.00249755859375,-1.3848460912704468,-7.1234331130981445,-4.501497745513916
1747977674871762000,4.020761962890625,-3.7130625247955322,-7.23589563369751,-5.605785369873047
1747977674890025700,4.039025634765625,-13.485350608825684,-10.220941543579102,-6.540780544281006
1747977674908289800,4.057289794921875,-26.412574768066406,-18.266807556152344,-3.180659532546997
1747977674926542000,4.0755419921875,-17.93899154663086,-19.843677520751953,2.89172625541687
1747977674944818400,4.093818359375,-13.396217346191406,-14.152349472045898,-1.1084750890731812
1747977674963086300,4.11208642578125,-7.423133850097656,-7.235297679901123,-0.2554338276386261
1747977674981341400,4.130341552734375,-2.9216363430023193,-4.515854358673096,-0.9834501147270203
1747977674999608800,4.14860888671875,-2.578864574432373,-7.182655334472656,-0.9451649188995361
1747977675017874700,4.166874755859375,0.355932354927063,-10.549356460571289,0.02392822690308094
1747977675036139300,4.18513916015625,3.163909673690796,-13.447663307189941,-2.5878376960754395
1747977675054397400,4.2033974609375,2.2271196842193604,-15.376277923583984,-1.9286150932312012
1747977675072667400,4.22166748046875,-0.05922235921025276,-14.09552001953125,1.9567307233810425
1747977675090930700,4.2399306640625,1.8113667964935303,-10.359127044677734,5.095515727996826
1747977675109194800,4.25819482421875,7.0857462882995605,-8.545368194580078,-3.469592809677124
1747977675127461400,4.27646142578125,2.926422119140625,-9.227322578430176,-1.1563315391540527
1747977675145723000,4.294722900390625,2.5423741340637207,-10.213165283203125,-0.50129634141922
1747977675163987000,4.312987060546875,1.0019944906234741,-12.17527961730957,4.936991214752197
1747977675182251000,4.3312509765625,-2.1092731952667236,-13.404592514038086,5.592624664306641
1747977675200515300,4.349515380859375,-8.881559371948242,-12.747164726257324,1.547558069229126
1747977675218775300,4.367775390625,-6.592824459075928,-8.34018325805664,1.2095718383789062
1747977675237043500,4.38604345703125,-2.0859432220458984,-6.576074600219727,0.37447673082351685
1747977675255306500,4.404306396484375,0.13040883839130402,-6.530013084411621,-0.9834501147270203
1747977675273572900,4.42257275390625,1.2610175609588623,-6.412166595458984,-1.4213366508483887
1747977675291835000,4.4408349609375,2.290529489517212,-6.7310099601745605,-1.7252250909805298
1747977675310101000,4.45910107421875,0.3290131092071533,-7.4572319984436035,-0.37806597352027893
1747977675328363800,4.47736376953125,-1.109073281288147,-7.976474285125732,1.7766708135604858
1747977675346627800,4.4956279296875,-0.9248259663581848,-7.432106971740723,0.26560330390930176
1747977675364893000,4.513892822265625,-3.0490541458129883,-7.322037220001221,0.2512463629245758
1747977675383155200,4.5321552734375,-3.778865098953247,-8.634500503540039,0.6143572330474854
1747977675401415400,4.55041552734375,-1.1676974296569824,-10.138389587402344,1.1234302520751953
1747977675419684400,4.568684326171875,-0.6693921089172363,-12.287742614746094,1.3148560523986816
1747977675437948400,4.586948486328125,-1.1012966632843018,-12.247064590454102,2.2295124530792236
1747977675456212700,4.605212646484375,-2.1714866161346436,-11.586047172546387,2.768495798110962
1747977675474476500,4.6234765625,-2.03629207611084,-11.985050201416016,3.882354736328125
1747977675492736000,4.641736083984375,-0.31345975399017334,-11.517851829528809,4.787439823150635
1747977675511003600,4.660003662109375,0.061016976833343506,-10.707880973815918,4.438685894012451
1747977675529270000,4.67827001953125,-2.850450038909912,-10.594820022583008,2.613560438156128
1747977675547533000,4.696532958984375,-4.511068820953369,-11.23908805847168,0.32542386651039124
1747977675565797000,4.714797119140625,-2.218146562576294,-12.80758285522461,1.4231312274932861
1747977675584060000,4.733059814453125,-0.039481572806835175,-14.383854866027832,4.419543266296387
1747977675602326500,4.751326416015625,-1.158724308013916,-13.076775550842285,5.265406131744385
1747977675620589300,4.76958935546875,-0.5102694034576416,-12.811172485351562,0.9505487680435181
1747977675638852000,4.78785205078125,2.523829698562622,-13.414761543273926,0.8955138921737671
1747977675657119000,4.806118896484375,1.6372889280319214,-16.340585708618164,2.341975212097168
1747977675675382300,4.82438232421875,-1.0666006803512573,-17.562122344970703,3.5611183643341064
1747977675693645800,4.842645751953125,-1.9046868085861206,-16.58884048461914,4.697709083557129
1747977675711909000,4.8609091796875,0.2386840581893921,-14.10688591003418,0.784247636795044
1747977675730175000,4.879175048828125,-1.2795618772506714,-11.025528907775879,1.5332010984420776
1747977675748432100,4.89743212890625,0.388235479593277,-8.563912391662598,0.19920247793197632
1747977675766702300,4.915702392578125,-0.4983053207397461,-8.193024635314941,2.042872428894043
1747977675784967400,4.933967529296875,-0.6879364848136902,-6.915257453918457,0.6532405614852905
1747977675803230500,4.95223046875,-0.7058826684951782,-5.063212871551514,-1.7784653902053833
1747977675821494500,4.97049462890625,-0.9451649188995361,-3.875176191329956,-2.048854351043701
1747977675839753700,4.988753662109375,-0.5216353535652161,-4.246662139892578,-0.09451649338006973
1747977675858021400,5.007021484375,1.5445669889450073,-3.9900317192077637,1.0061819553375244
1747977675876288000,5.0252880859375,2.523829698562622,-4.416552543640137,1.8789639472961426
1747977675894550800,5.04355078125,1.8628123998641968,-4.907679080963135,1.932204246520996
1747977675912815000,5.061815185546875,1.4937195777893066,-4.664209365844727,0.8955138921737671
1747977675931079200,5.0800791015625,-0.02871387079358101,-4.073182582855225,0.048454657196998596
1747977675949343200,5.09834326171875,-0.877567708492279,-4.696512699127197,-0.31405797600746155
1747977675967607300,5.116607177734375,-1.7982062101364136,-5.532804012298584,-0.5808576941490173
1747977675985870300,5.134870361328125,-4.117449760437012,-6.248856544494629,-1.1509476900100708
1747977676004132000,5.153132080078125,-7.733603000640869,-8.10807991027832,-0.997208833694458
1747977676022398200,5.171398193359375,-13.065409660339355,-11.146366119384766,0.3206382393836975
1747977676040652500,5.189652587890625,-13.494921684265137,-16.217952728271484,-1.0205388069152832
1747977676058927900,5.207927978515625,-15.440884590148926,-18.867406845092773,1.8400806188583374
1747977676077191700,5.226191650390625,-10.663614273071289,-13.465011596679688,2.224726915359497
1747977676095451100,5.244451171875,-5.4281182289123535,-7.162914752960205,1.1748759746551514
1747977676113719800,5.2627197265625,-9.305088996887207,-8.94556713104248,-0.03409772366285324
1747977676131984100,5.280984130859375,0.9427721500396729,-13.804792404174805,3.1794631481170654
1747977676150248200,5.299248291015625,11.10030460357666,-14.276776313781738,1.3968101739883423
1747977676168512500,5.317512451171875,-0.33080771565437317,-15.802200317382812,-4.429712772369385
1747977676186776300,5.3357763671875,2.12542462348938,-11.37488079071045,0.7698906660079956
1747977676205040600,5.35404052734375,5.0117669105529785,-10.196415901184082,0.07657032459974289
1747977676223304400,5.372304443359375,2.7050859928131104,-8.503493309020996,0.6771687865257263
1747977676241569000,5.390569091796875,0.005982056725770235,-8.3629150390625,-0.23030917346477509
1747977676259832300,5.408832275390625,0.7190431952476501,-8.461020469665527,0.6717849373817444
1747977676278097400,5.427097412109375,1.5984054803848267,-10.806585311889648,1.0301101207733154
1747977676296361200,5.445361328125,0.3768695592880249,-12.40140151977539,1.7240287065505981
1747977676314625300,5.463625244140625,-1.0474581718444824,-11.430513381958008,1.561316728591919
1747977676332891000,5.481890869140625,-2.1571295261383057,-8.585447311401367,-0.0729810893535614
1747977676351147300,5.500147216796875,-3.373281717300415,-6.660421848297119,-0.5982056856155396
1747977676369411300,5.518411376953125,-2.1134605407714844,-5.996413707733154,-0.08374879509210587
1747977676387682800,5.536682861328125,-0.04366901144385338,-6.182455539703369,-0.5808576941490173
1747977676405945900,5.55494580078125,-0.4061816334724426,-7.743174076080322,0.19680966436862946
1747977676424209000,5.573208984375,0.12801600992679596,-8.178069114685059,0.5491527915000916
1747977676442475000,5.59147509765625,0.5784648656845093,-7.700103282928467,0.6352944374084473
1747977676460738000,5.609738037109375,0.25244277715682983,-8.116454124450684,0.711864709854126
1747977676479002000,5.628002197265625,-0.137587308883667,-7.915457248687744,0.8991031050682068
1747977676497266400,5.646266357421875,-1.5954145193099976,-8.568099975585938,1.2604193687438965
1747977676515530200,5.6645302734375,-2.7499513626098633,-8.847461700439453,1.8460626602172852
1747977676533794600,5.682794677734375,-2.5800609588623047,-9.722038269042969,2.528017044067383
1747977676552059000,5.701058837890625,-1.540379524230957,-11.252248764038086,2.5573291778564453
1747977676570323000,5.719322998046875,-1.0803594589233398,-12.493525505065918,3.253042459487915
1747977676588584700,5.737584716796875,-1.4321043491363525,-13.546367645263672,3.625126361846924
1747977676606849800,5.755849853515625,-0.6598208546638489,-11.57827091217041,3.975076675415039
1747977676625115100,5.774115234375,0.3643072545528412,-10.65224838256836,3.5294134616851807
1747977676643381000,5.792381103515625,-1.0917253494262695,-11.477173805236816,2.991028308868408
1747977676661643300,5.810643310546875,-3.4755749702453613,-12.401999473571777,1.7467604875564575
1747977676679907600,5.828907470703125,-5.230710506439209,-13.800604820251465,0.9068797826766968
1747977676707303000,5.856302978515625,-0.7184450030326843,-14.510076522827148,2.3258235454559326
1747977676725568000,5.874568115234375,-2.0889341831207275,-11.823534965515137,3.5617165565490723
1747977676743831300,5.892831298828125,-1.8885352611541748,-13.14796257019043,-1.7730815410614014
1747977676762096400,5.911096435546875,1.8939191102981567,-13.502697944641113,-0.5527420043945312
1747977676780360000,5.92935986328125,3.183650493621826,-15.018550872802734,0.1501496136188507
1747977676798619600,5.94761962890625,2.8911280632019043,-15.687943458557129,-1.160519003868103
1747977676816889600,5.9658896484375,1.2675977945327759,-14.767903327941895,-0.9786644577980042
1747977676835149600,5.984149658203125,-3.332005500793457,-13.424931526184082,-0.048454657196998596
1747977676853412600,6.00241259765625,-3.8117663860321045,-11.826525688171387,0.16031911969184875
1747977676871681000,6.020680908203125,-0.8709874153137207,-9.232706069946289,-0.038285162299871445
1747977676889944800,6.03894482421875,1.5080764293670654,-6.498308181762695,0.06580262631177902
1747977676908204000,6.0572041015625,0.7848458290100098,-5.18823766708374,0.8578268885612488
1747977676926472400,6.075472412109375,-0.22552353143692017,-5.159523963928223,1.5014961957931519
1747977676944737500,6.093737548828125,-0.1136590763926506,-5.520840167999268,0.893121063709259
1747977676963001300,6.11200146484375,1.7796618938446045,-5.2977094650268555,-0.1052841991186142
1747977676981265400,6.130265380859375,1.339382529258728,-4.90109920501709,0.5509474277496338
1747977676999529000,6.148529052734375,0.010169495828449726,-4.647459983825684,1.3435698747634888
1747977677017793800,6.166793701171875,-0.1339980661869049,-5.767899036407471,0.8117650747299194
1747977677036057600,6.1850576171875,-0.2386840581893921,-6.200401782989502,-0.2745763957500458
1747977677054322000,6.203322021484375,-0.5838487148284912,-5.685346603393555,0.20518454909324646
1747977677072585700,6.221585693359375,-1.0803594589233398,-5.3557353019714355,-0.24287149310112
1747977677090849000,6.23984912109375,-0.7543373107910156,-5.486144065856934,-1.3818551301956177
1747977677109115000,6.258114990234375,-0.49172505736351013,-6.134599208831787,-4.133601188659668
1747977677127378700,6.276378662109375,-7.2711896896362305,-6.212964057922363,-7.859225749969482
1747977677145642200,6.294642333984375,-20.53221321105957,-10.164112091064453,-6.788437843322754
1747977677163902700,6.31290283203125,-20.66680908203125,-18.90629005432129,-1.2430713176727295
1747977677182168800,6.3311689453125,-14.226527214050293,-19.601404190063477,-0.014356935396790504
1747977677200431000,6.34943115234375,-7.101299285888672,-12.145369529724121,6.236293792724609
1747977677218694400,6.3676943359375,-4.135993957519531,-7.098308563232422,0.37806597352027893
1747977677236963000,6.385963134765625,-1.2089736461639404,-5.433502197265625,-5.493920803070068
1747977677255227100,6.40422705078125,1.5499508380889893,-11.123634338378906,-6.26859712600708
1747977677273491200,6.4224912109375,5.024927616119385,-15.817753791809082,-2.8151557445526123
1747977677291755000,6.440755126953125,-1.7030915021896362,-16.61097526550293,-0.4582255482673645
1747977677310019600,6.45901953125,-1.4177473783493042,-9.626923561096191,5.13739013671875
1747977677328296200,6.477296142578125,2.2570300102233887,-10.75992488861084,6.308676719665527
1747977677346549000,6.495549072265625,3.930211305618286,-10.265807151794434,2.7379872798919678
1747977677364808700,6.51380859375,3.634697675704956,-8.26121997833252,0.0011964113218709826
1747977677383079200,6.5320791015625,1.4117653369903564,-8.418548583984375,-2.9312076568603516
1747977677401336800,6.5503369140625,0.729810893535614,-9.896714210510254,-2.3048863410949707
1747977677419602400,6.5686025390625,-0.2907279431819916,-10.039685249328613,-3.40797758102417
1747977677437866800,6.58686669921875,-1.3818551301956177,-8.923434257507324,-4.202394962310791
1747977677456134000,6.6051337890625,-2.4125633239746094,-7.982456207275391,-3.8021950721740723
1747977677474400500,6.623400390625,-3.135794162750244,-7.527820110321045,-3.469592809677124
1747977677492660700,6.64166064453125,-3.298506021499634,-6.999006271362305,-2.6362924575805664
1747977677510924500,6.659924560546875,-2.5495524406433105,-6.893123626708984,-1.1455638408660889
1747977677529189000,6.678189208984375,-0.28175488114356995,-6.4079790115356445,1.963310956954956
1747977677547448800,6.69644873046875,-1.0492527484893799,-6.8512492179870605,1.1276177167892456
1747977677565717200,6.71471728515625,-0.18364913761615753,-7.977072715759277,-0.3152543902397156
1747977677583980500,6.73298046875,0.32183465361595154,-8.858827590942383,-0.8297112584114075
1747977677602245600,6.75124560546875,-0.053240302950143814,-9.483354568481445,0.7722834944725037
1747977677620494300,6.769494384765625,-2.26959228515625,-9.519247055053711,2.2408783435821533
1747977677638769000,6.787768798828125,-3.303889751434326,-9.875777244567871,1.568495273590088
1747977677657032000,6.806031982421875,-1.9794625043869019,-10.37647533416748,1.2634103298187256
1747977677675297300,6.82429736328125,-0.8697910308837891,-11.554940223693848,2.115255117416382
1747977677693564200,6.842564208984375,-0.41515472531318665,-12.644272804260254,2.423929452896118
1747977677711831600,6.86083154296875,0.08973085135221481,-12.343375205993652,1.552343726158142
1747977677730093300,6.87909326171875,0.015553346835076809,-11.160722732543945,0.4546363055706024
1747977677748358400,6.8973583984375,-0.5413761138916016,-10.65942668914795,0.23629122972488403
1747977677766617300,6.915617431640625,-2.292922258377075,-10.87837028503418,0.885344386100769
1747977677784888300,6.933888427734375,-3.565903902053833,-11.846266746520996,1.2693923711776733
1747977677803147800,6.952147705078125,-3.511467218399048,-13.893924713134766,1.3046865463256836
1747977677821410300,6.970410400390625,-1.0480563640594482,-14.313864707946777,2.0303099155426025
1747977677839678500,6.988678466796875,0.592223584651947,-13.613964080810547,2.0374884605407715
1747977677857943000,7.006943115234375,-0.4307080805301666,-13.191631317138672,0.9212366938591003
1747977677876206300,7.025206298828125,-1.3381860256195068,-12.698111534118652,-0.023330021649599075
1747977677894471400,7.043471435546875,1.3154542446136475,-13.519448280334473,-2.8755745887756348
1747977677912735000,7.06173486328125,2.1433708667755127,-15.148362159729004,-3.243471145629883
1747977677930994400,7.079994384765625,-0.013160524889826775,-17.191234588623047,-5.011168956756592
1747977677949262000,7.098261962890625,-1.6151553392410278,-14.634503364562988,1.0462616682052612
1747977677967529000,7.116529052734375,-3.2883365154266357,-11.334800720214844,0.7148557901382446
1747977677985791700,7.134791748046875,-1.7916259765625,-8.61595630645752,-0.7100701332092285
1747977678004054500,7.153054443359375,-0.6125625967979431,-7.091129779815674,0.5760720372200012
1747977678022320600,7.171320556640625,-0.0364905446767807,-6.5904316902160645,1.1114661693572998
1747977678040584200,7.189584228515625,-0.6711867451667786,-6.269195556640625,0.5156532526016235
1747977678058846700,7.2078466796875,-0.15194423496723175,-6.409773826599121,0.3278166949748993
1747977678077113300,7.22611328125,0.3074777126312256,-6.226124286651611,0.623330295085907
1747977678095376100,7.244376220703125,0.4169493317604065,-6.174678802490234,0.29790642857551575
1747977678113640400,7.262640380859375,1.3914263248443604,-5.510072231292725,-0.372682124376297
1747977678131904500,7.280904541015625,1.5810575485229492,-4.460819721221924,-0.8117650747299194
1747977678150168600,7.29916845703125,1.2945170402526855,-3.5808591842651367,-0.34576287865638733
1747977678168427800,7.317427734375,0.8303094506263733,-3.322434186935425,-1.119242787361145
1747977678186697200,7.335697265625,0.0933200865983963,-3.4947173595428467,-1.5337992906570435
1747977678204959700,7.353959716796875,-1.1473584175109863,-4.230510234832764,-2.1828525066375732
1747977678223226400,7.372226318359375,-2.393420934677124,-5.032105922698975,-2.693121910095215
1747977678241489000,7.390489013671875,-4.036093711853027,-6.316453456878662,-2.7535407543182373
1747977678259753700,7.408753662109375,-8.951549530029297,-8.525627136230469,-2.434697151184082
1747977678278012700,7.4270126953125,-17.96471405029297,-12.790833473205566,-1.311864972114563
1747977678296280000,7.445280029296875,-19.203598022460938,-20.493330001831055,2.1954147815704346
1747977678314546700,7.463546630859375,-11.547761917114258,-19.311872482299805,5.236692428588867
1747977678332810000,7.48181005859375,-8.324629783630371,-11.779267311096191,5.19242525100708
1747977678351073800,7.50007373046875,-5.643472194671631,-8.474181175231934,-0.672383189201355
1747977678369337900,7.518337890625,-3.397808074951172,-10.073184967041016,-4.840680122375488
1747977678387601700,7.5366015625,0.26560330390930176,-14.882759094238281,-2.2677977085113525
1747977678405865500,7.554865478515625,5.612963676452637,-15.428321838378906,2.373081922531128
1747977678424130300,7.57313037109375,2.0309081077575684,-12.001800537109375,0.31465616822242737
1747977678442399000,7.59139892578125,-3.263810157775879,-6.27278470993042,-3.156731367111206
1747977678460658200,7.609658203125,3.9732820987701416,-4.820341110229492,-3.6442689895629883
1747977678478921000,7.6279208984375,4.273581027984619,-6.70289421081543,-2.93001127243042
1747977678497188600,7.646188720703125,1.5026925802230835,-9.990633010864258,-2.196611166000366
1747977678515446500,7.664446533203125,0.8679963946342468,-12.005987167358398,-0.9260223507881165
1747977678533709800,7.682709716796875,1.755135416984558,-13.561920166015625,3.0969107151031494
1747977678551978200,7.700978271484375,-1.7724833488464355,-12.780065536499023,3.741776466369629
1747977678570244000,7.719244140625,-0.5401797294616699,-10.686346054077148,2.7517459392547607
1747977678588507400,7.73750732421875,-1.5858432054519653,-8.353941917419434,2.733799934387207
1747977678606771000,7.75577099609375,-1.710868239402771,-7.536194801330566,2.9072794914245605
1747977678625035800,7.774035888671875,-0.5186443328857422,-7.432705402374268,2.2546372413635254
1747977678643299600,7.792299560546875,-1.8939191102981567,-8.291130065917969,1.6630117893218994
1747977678661563600,7.810563720703125,-2.3186452388763428,-8.02373218536377,1.1910275220870972
1747977678679828700,7.828828857421875,-1.4781662225723267,-7.343572616577148,0.25244277715682983
1747977678698079000,7.847078857421875,-1.0701899528503418,-6.923034191131592,0.6586244106292725
1747977678716356000,7.865356201171875,-0.06340979784727097,-7.094120979309082,0.5030909776687622
1747977678734619600,7.88361962890625,0.8327022790908813,-7.216753005981445,0.22851456701755524
1747977678752883000,7.901883056640625,-0.6915257573127747,-7.902894973754883,0.8620143532752991
1747977678771149300,7.9201494140625,-2.228316068649292,-9.301499366760254,1.3800604343414307
1747977678789407700,7.93840771484375,-3.11246395111084,-10.907682418823242,1.4949159622192383
1747977678807675100,7.956675048828125,-1.6199408769607544,-10.952547073364258,2.6871397495269775
1747977678825941500,7.97494140625,-0.6520441770553589,-11.042278289794922,2.4981069564819336
1747977678844203500,7.99320361328125,-0.5892325639724731,-11.44128131866455,3.324826955795288
1747977678862470000,8.011469970703125,-0.6251249313354492,-12.163315773010254,3.4815568923950195
1747977678880732700,8.029732666015626,-0.3565305769443512,-11.58544921875,3.046661376953125
1747977678898996700,8.047996826171875,-0.5958128571510315,-11.179865837097168,4.133601188659668
1747977678917261000,8.066260986328125,-2.169692039489746,-11.395817756652832,3.0939197540283203
1747977678935525000,8.084525146484374,-3.2063822746276855,-11.510075569152832,3.105883836746216
1747977678953789200,8.1027890625,-2.344966173171997,-12.53001594543457,3.5856447219848633
1747977678972053200,8.12105322265625,-0.3756731450557709,-13.646267890930176,4.42612361907959
1747977678990317800,8.13931787109375,0.06640082597732544,-12.775279998779297,2.283949136734009
1747977679008586800,8.157586669921875,-0.2189432680606842,-11.5585298538208,0.8799605369567871
1747977679026845000,8.175844970703125,1.7437695264816284,-12.314661979675293,-1.5355939865112305
1747977679045106000,8.19410595703125,3.8057844638824463,-14.286347389221191,-2.241476535797119
1747977679063372800,8.212372802734375,0.6556333899497986,-15.449857711791992,-1.9399809837341309
1747977679081639200,8.23063916015625,-2.8600213527679443,-14.339588165283203,-0.8733802437782288
1747977679099902200,8.248902099609374,-2.9892337322235107,-13.313067436218262,-0.617946445941925
1747977679118166300,8.267166259765625,-2.616551637649536,-11.650653839111328,2.3772692680358887
1747977679136426500,8.285426513671876,0.22073788940906525,-10.006186485290527,2.359323024749756
1747977679154694400,8.3036943359375,0.373878538608551,-8.691329956054688,2.389233350753784
1747977679172958500,8.32195849609375,0.08614161610603333,-7.891529083251953,2.472383975982666
1747977679191222500,8.340222412109375,-0.6125625967979431,-7.014559745788574,2.2408783435821533
1747977679209487000,8.358487060546874,-0.46779683232307434,-6.302694797515869,1.7964116334915161
1747977679227751200,8.376751220703126,0.2757728099822998,-6.216553211212158,1.2502498626708984
1747977679246015000,8.395014892578125,1.1330015659332275,-5.803193092346191,-0.3200400173664093
1747977679264279000,8.413279052734374,1.657029628753662,-4.047459602355957,0.3798605799674988
1747977679282543400,8.43154345703125,0.7782655358314514,-3.1549365520477295,0.7459624409675598
1747977679300802600,8.449802490234376,0.8889335989952087,-2.038684844970703,1.1156535148620605
1747977679319070500,8.468070556640624,0.9056833982467651,-2.3336002826690674,0.6610172390937805
1747977679337336600,8.486336669921876,0.5958128571510315,-2.973680257797241,0.014955141581594944
1747977679355600000,8.504599853515625,-0.06759724020957947,-3.840480327606201,-0.49651068449020386
1747977679373862700,8.522862548828124,-1.195214867591858,-5.032105922698975,-0.9068797826766968
1747977679392129000,8.54112890625,-4.329214572906494,-6.993622303009033,-0.625723123550415
1747977679410395000,8.559394775390626,-12.736994743347168,-11.138589859008789,-0.005383851006627083
1747977679428651500,8.577651611328125,-19.19342803955078,-14.671591758728027,-2.7224340438842773
1747977679446920200,8.595920166015626,-12.933804512023926,-17.616558074951172,0.22971096634864807
1747977679465184500,8.6141845703125,-12.53719425201416,-18.876379013061523,2.393420934677124
1747977679483444200,8.6324443359375,-10.163514137268066,-13.928620338439941,2.390429735183716
1747977679501713000,8.650712890625,-6.366104602813721,-8.921041488647461,1.1982059478759766
1747977679519976400,8.6689765625,-5.179264545440674,-6.578467845916748,-5.090131759643555
1747977679538240500,8.687240478515625,2.644667148590088,-7.204190731048584,-4.395615100860596
1747977679556503600,8.705503662109376,8.130212783813477,-10.74676513671875,-7.9657063484191895
1747977679574769000,8.723768798828125,5.669195175170898,-13.503894805908203,-6.591628074645996
1747977679593034000,8.742033935546875,-3.702893018722534,-16.469200134277344,-2.190030813217163
1747977679611297000,8.760297119140626,0.26979073882102966,-12.467204093933105,2.8528428077697754
1747977679629561000,8.77856103515625,2.9617161750793457,-8.656036376953125,2.3647069931030273
1747977679647821800,8.79682177734375,4.1042890548706055,-8.74756145477295,1.2903295755386353
1747977679666087200,8.815087158203125,3.4402806758880615,-11.072188377380371,0.9589236974716187
1747977679684354600,8.8333544921875,2.0572292804718018,-12.17228889465332,1.4578272104263306
1747977679702617000,8.8516171875,0.8877372145652771,-11.548359870910645,2.4221346378326416
1747977679720881000,8.869880859375,0.02153540402650833,-10.228120803833008,3.2057840824127197
1747977679739146800,8.888146728515625,-1.350150227546692,-9.466604232788086,3.363112211227417
1747977679757405400,8.906405517578126,-3.387638568878174,-8.288139343261719,3.6083765029907227
1747977679775661600,8.92466162109375,-4.990829944610596,-6.821937561035156,3.7094733715057373
1747977679793938700,8.942938720703125,-3.5264222621917725,-6.6107707023620605,2.7260231971740723
1747977679812189700,8.961189697265626,-0.7848458290100098,-7.342376232147217,0.8057830333709717
1747977679830465000,8.979465087890626,0.31046873331069946,-7.727620601654053,0.3487538993358612
1747977679848720000,8.997719970703125,0.33439695835113525,-7.737192153930664,0.39182472229003906
1747977679866994700,9.01599462890625,0.11126625537872314,-7.51286506652832,0.4450650215148926
1747977679885258200,9.03425830078125,-0.16689938306808472,-7.791628837585449,0.41156548261642456
1747977679903518000,9.05251806640625,-1.306481122970581,-8.361120223999023,0.054436713457107544
1747977679921786000,9.0707861328125,-2.2809581756591797,-9.705886840820312,-0.035892341285943985
1747977679940051200,9.08905126953125,-1.9884356260299683,-10.97049331665039,0.5258227586746216
1747977679958314500,9.107314453125,-1.588834285736084,-11.788839340209961,1.3848460912704468
1747977679976579000,9.1255791015625,-1.2921242713928223,-12.151351928710938,2.0817556381225586
1747977679994841600,9.143841552734376,-1.1545369625091553,-12.3278226852417,2.129014015197754
1747977680013108200,9.162108154296876,-0.7543373107910156,-11.640483856201172,2.569293260574341
1747977680031371300,9.180371337890625,-0.7758727669715881,-10.97468090057373,4.2586259841918945
1747977680049635300,9.19863525390625,-1.4267204999923706,-11.759527206420898,4.8329033851623535
1747977680067899000,9.21689892578125,-1.9591234922409058,-14.11406421661377,3.8883368968963623
1747977680086164000,9.2351640625,-2.3641088008880615,-15.565311431884766,4.58584451675415
1747977680104423000,9.2534228515625,-0.865005373954773,-13.834104537963867,3.7190446853637695
1747977680122691800,9.27169189453125,-2.5776681900024414,-14.083556175231934,0.9487541913986206
1747977680140955600,9.28995556640625,-4.353740692138672,-14.499906539916992,-2.2719850540161133
1747977680159215400,9.30821533203125,0.4055834412574768,-15.78126335144043,-2.2983062267303467
1747977680177482800,9.326482666015625,4.712066173553467,-16.555940628051758,-0.9888339638710022
1747977680195749000,9.3447490234375,5.157131195068359,-15.180665016174316,-0.7202396392822266
1747977680214013000,9.363012939453125,0.7537391185760498,-12.028120994567871,1.0444670915603638
1747977680232276000,9.38127587890625,-2.8211379051208496,-10.86161994934082,1.4033905267715454
1747977680250540500,9.39954052734375,-2.8636105060577393,-9.735198974609375,1.7060825824737549
1747977680268800300,9.41780029296875,-0.16749759018421173,-9.060422897338867,0.21355941891670227
1747977680287068400,9.436068359375,1.578664779663086,-7.3914289474487305,1.058824062347412
1747977680305333200,9.454333251953125,0.5443671345710754,-6.729813575744629,2.420340061187744
1747977680323597000,9.47259716796875,-1.4727823734283447,-7.18086051940918,4.031308174133301
1747977680341859600,9.490859619140625,-1.2616157531738281,-6.683752059936523,1.8550357818603516
1747977680360126000,9.5091259765625,1.028315544128418,-6.790830612182617,-0.45523449778556824
1747977680378390000,9.52739013671875,1.5206388235092163,-5.61954402923584,-0.14356936514377594
1747977680396653000,9.545653076171876,1.5146567821502686,-4.417748928070068,-0.6586244106292725
1747977680414912500,9.56391259765625,1.0360921621322632,-3.2853455543518066,-1.062413215637207
1747977680433179600,9.5821796875,0.36670008301734924,-2.978466033935547,-1.9070796966552734
1747977680451442700,9.600442626953125,0.09032905846834183,-2.6255247592926025,-2.283949136734009
1747977680469709600,9.61870947265625,0.2919243574142456,-2.9832515716552734,-3.0113673210144043
1747977680487973600,9.6369736328125,0.11066804826259613,-2.868396043777466,-3.116053342819214
1747977680506237200,9.6552373046875,-0.8739784955978394,-3.8189449310302734,-4.062414646148682
1747977680524502000,9.673501953125,-5.258227825164795,-5.903093338012695,-5.356931686401367
1747977680542753500,9.69175341796875,-15.236896514892578,-11.397612571716309,-0.8662018179893494
1747977680561030000,9.71002978515625,-22.18924331665039,-20.175085067749023,2.8528428077697754
1747977680579293700,9.728293701171875,-15.403197288513184,-25.0223445892334,5.672185897827148
1747977680597558500,9.74655859375,-10.001399993896484,-16.612171173095703,4.797011375427246
1747977680615822600,9.764822509765626,-6.589833736419678,-6.7621169090271,3.569493293762207
1747977680634083600,9.78308349609375,-2.416750907897949,-2.7601208686828613,-0.3655036687850952
1747977680652352300,9.801352294921875,0.4737788736820221,-6.405586242675781,-5.035097122192383
1747977680670610000,9.81960986328125,4.449453830718994,-10.465009689331055,-1.1180464029312134
1747977680688877300,9.837877197265625,4.994419097900391,-17.11466407775879,-3.3720853328704834
1747977680707143700,9.856143798828125,-1.6109678745269775,-20.212770462036133,-1.6307085752487183
1747977680725401900,9.87440185546875,-2.844467878341675,-11.788240432739258,1.1437692642211914
1747977680743671300,9.89267138671875,2.392822742462158,-7.733603000640869,-1.1096714735031128
1747977680761934800,9.910934814453125,3.178266763687134,-6.098108291625977,-0.9708877801895142
1747977680780199000,9.929198974609376,2.2743778228759766,-7.936992645263672,-0.550349235534668
1747977680798458000,9.9474580078125,1.7234305143356323,-9.985847473144531,0.0933200865983963
1747977680816727300,9.965727294921875,1.0959128141403198,-11.032707214355469,0.9254241585731506
1747977680834991600,9.98399169921875,0.4103690981864929,-11.052447319030762,1.6636099815368652
1747977680853255400,10.00225537109375,0.02751746028661728,-10.095916748046875,1.622931957244873
1747977680871519200,10.020519287109375,-0.6634100675582886,-8.268997192382812,1.1485549211502075
1747977680889772300,10.038772216796875,-2.0027925968170166,-7.417151927947998,0.6173482537269592
1747977680908047000,10.057047119140625,-2.2983062267303467,-7.097710132598877,0.3170489966869354
1747977680926297600,10.075297607421875,-1.4608181715011597,-7.818548202514648,0.4576273262500763
1747977680944574200,10.09357421875,-0.1950150430202484,-9.040681838989258,0.7016952633857727
1747977680962840000,10.111840087890625,0.1423729509115219,-8.904291152954102,1.6049858331680298
1747977680981105000,10.13010498046875,0.054436713457107544,-8.105687141418457,1.677966833114624
1747977680999367700,10.14836767578125,0.018544375896453857,-7.526025295257568,1.5499508380889893
1747977681017627000,10.166626953125,-0.32183465361595154,-7.966304779052734,1.6121642589569092
1747977681035894800,10.184894775390624,-2.4185454845428467,-8.568697929382324,2.252244234085083
1747977681054160600,10.20316064453125,-4.629513740539551,-9.779465675354004,1.9776679277420044
1747977681072420000,10.221420166015625,-2.9515466690063477,-9.996614456176758,1.4093725681304932
1747977681090688300,10.239688232421875,-0.841675341129303,-10.509875297546387,2.035693883895874
1747977681108952600,10.25795263671875,-0.11545369029045105,-10.603195190429688,2.54536509513855
1747977681127216600,10.276216552734375,-0.03349951654672623,-11.724830627441406,2.6249263286590576
1747977681145480200,10.294480224609375,-0.2566302418708801,-12.436097145080566,2.3712873458862305
1747977681163744500,10.31274462890625,0.06041877344250679,-11.268998146057129,3.108276605606079
1747977681182009300,10.33100927734375,-0.6089733839035034,-10.871191024780273,4.081557273864746
1747977681200273000,10.34927294921875,-2.3670997619628906,-11.794222831726074,3.170490026473999
1747977681218537000,10.367536865234374,-4.7126641273498535,-14.144573211669922,2.306680917739868
1747977681236801000,10.385801025390625,-4.54636287689209,-12.966107368469238,4.053441524505615
1747977681255065000,10.404065185546875,-1.6163517236709595,-11.227124214172363,4.499104976654053
1747977681273329200,10.4223291015625,0.0029910283628851175,-12.484552383422852,3.0831520557403564
1747977681291593200,10.44059326171875,0.47557350993156433,-13.666007995605469,1.3298112154006958
1747977681309856000,10.45885595703125,1.6785650253295898,-14.161322593688965,0.18843477964401245
1747977681328123000,10.477122802734375,2.41375994682312,-15.428321838378906,0.251844584941864
1747977681346386000,10.495385986328126,0.8823533654212952,-16.685152053833008,-0.9900303483009338
1747977681364649700,10.513649658203125,-1.306481122970581,-15.387045860290527,-0.3188436031341553
1747977681382913500,10.53191357421875,-2.3856441974639893,-13.381860733032227,0.26500511169433594
1747977681401178400,10.550178466796876,-2.2498514652252197,-10.76949691772461,0.584446907043457
1747977681419437600,10.5684375,-0.5982056856155396,-8.587242126464844,0.9613165259361267
1747977681437705700,10.586705810546874,0.5880361795425415,-7.210771083831787,1.597209095954895
1747977681455969800,10.6049697265625,1.6295121908187866,-6.616154670715332,2.7864420413970947
1747977681474234600,10.623234619140625,0.7112665176391602,-6.416952133178711,3.8219358921051025
1747977681492497700,10.64149755859375,-1.5415760278701782,-6.181857109069824,5.38624382019043
1747977681510762200,10.65976220703125,-1.2903295755386353,-6.62213659286499,1.573280930519104
1747977681529021400,10.678021484375,1.4727823734283447,-5.61954402923584,-0.363709032535553
1747977681547289600,10.69628955078125,2.1720848083496094,-4.573282241821289,-0.9565308690071106
1747977681565555700,10.7145556640625,1.6522440910339355,-4.048655986785889,-1.633699655532837
1747977681583818800,10.73281884765625,1.3980066776275635,-4.009772777557373,-2.0925233364105225
1747977681602082300,10.751082275390624,0.7292127013206482,-3.9589250087738037,-2.3539392948150635
1747977681620347000,10.769346923828126,-0.053240302950143814,-3.865006685256958,-2.423929452896118
1747977681638606300,10.7876064453125,-0.4372883439064026,-4.058227062225342,-2.743969440460205
1747977681656874000,10.8058740234375,-0.5964110493659973,-5.173880577087402,-3.586841106414795
1747977681675139800,10.824139892578126,-3.2380871772766113,-6.939185619354248,-5.200201988220215
1747977681693399600,10.842399658203124,-21.234506607055664,-9.314062118530273,-4.762315273284912
1747977681711665400,10.86066552734375,-20.456241607666016,-13.305888175964355,-0.29790642857551575
1747977681729933000,10.87893310546875,-15.118452072143555,-15.39781379699707,-0.656829833984375
1747977681748195000,10.897195068359375,-9.093324661254883,-16.091732025146484,-1.2735798358917236
1747977681766461400,10.91546142578125,-5.043471813201904,-13.036097526550293,1.9645073413848877
1747977681784718800,10.93371875,-1.2658032178878784,-7.467999458312988,1.3806586265563965
1747977681802986200,10.951986328125,-3.053839921951294,-6.049654006958008,-1.7078771591186523
1747977681821252400,10.97025244140625,0.5605186820030212,-8.988637924194336,-2.5902304649353027
1747977681839516000,10.988515869140626,3.655036687850952,-13.398012161254883,-2.933600664138794
1747977681857779700,11.00677978515625,2.4502503871917725,-19.211973190307617,-3.6993038654327393
1747977681876043800,11.025043701171874,-3.8835511207580566,-17.075780868530273,-1.1575279235839844
1747977681894307600,11.0433076171875,0.37148571014404297,-9.842277526855469,-0.4486542344093323
1747977681912572400,11.061572509765625,-0.6873382925987244,-5.983851432800293,1.3435698747634888
1747977681930835000,11.0798349609375,0.6484549641609192,-5.338985443115234,1.714457392692566
1747977681949101300,11.098101318359374,1.9645073413848877,-7.359724044799805,0.5461617708206177
1747977681967363600,11.116363525390625,2.397010087966919,-9.53360366821289,-0.5335994362831116
1747977681985628700,11.134628662109375,2.166700839996338,-10.962119102478027,-0.6071787476539612
1747977682003889400,11.152889404296875,0.6855437159538269,-10.688738822937012,0.26201409101486206
1747977682022157600,11.171157470703125,0.18125630915164948,-8.139784812927246,0.8171489238739014
1747977682040415500,11.18941552734375,-0.582054078578949,-6.920042991638184,0.9110672473907471
1747977682058680000,11.20768017578125,-1.0378868579864502,-7.322037220001221,0.7010970115661621
1747977682076949500,11.225949462890625,-0.7860422134399414,-7.503891944885254,0.5760720372200012
1747977682095212800,11.244212890625,-1.058824062347412,-7.593024253845215,0.4570291340351105
1747977682113476000,11.26247607421875,-1.730010747909546,-8.824131965637207,1.2987045049667358
1747977682131741000,11.280740966796875,-1.3459627628326416,-7.747361660003662,2.3132612705230713
1747977682150004700,11.299004638671875,-1.1647064685821533,-4.821537494659424,3.1489546298980713
1747977682168269000,11.31726904296875,-1.1383854150772095,-9.34457015991211,1.8562321662902832
1747977682186532400,11.335532470703125,-3.1316065788269043,-12.229118347167969,-0.09990034252405167
1747977682204797400,11.35379736328125,-4.843072891235352,-9.437292098999023,0.07058826833963394
1747977682223061000,11.37206103515625,-3.589233875274658,-9.500103950500488,-0.49172505736351013
1747977682241324800,11.39032470703125,-0.8045865893363953,-10.934002876281738,-1.2987045049667358
1747977682259588600,11.408588623046874,0.23270200192928314,-11.97009563446045,-1.1252248287200928
1747977682277852400,11.426852294921876,-0.003589233849197626,-12.656835556030273,0.973878800868988
1747977682296118800,11.445118896484376,-1.6211373805999756,-12.851850509643555,3.3684961795806885
1747977682314381000,11.463381103515625,-1.1808580160140991,-9.437292098999023,5.80199670791626
1747977682332646400,11.481646484375,0.061016976833343506,-9.357730865478516,6.105287075042725
1747977682350909400,11.499909423828125,0.4875376224517822,-11.906685829162598,5.143970489501953
1747977682369174000,11.518174072265625,0.4953143000602722,-14.533406257629395,4.619344234466553
1747977682387433000,11.536432861328125,0.3655036687850952,-14.888142585754395,6.737590312957764
1747977682405701600,11.55470166015625,-2.435295343399048,-11.824132919311523,9.909276962280273
1747977682423966200,11.57296630859375,-6.607779502868652,-9.435498237609863,6.296712875366211
1747977682442230000,11.59122998046875,-4.217350006103516,-14.450854301452637,2.5154547691345215
1747977682460493800,11.609493896484375,-0.7668996453285217,-13.689338684082031,-1.1162517070770264
1747977682478764500,11.6277646484375,0.6640082597732544,-14.294722557067871,-0.4983053207397461
1747977682497022500,11.6460224609375,2.318047046661377,-14.234902381896973,2.0853450298309326
1747977682515286300,11.664286376953125,2.1583259105682373,-11.648859024047852,4.581058979034424
1747977682533550000,11.682550048828125,-0.5886343717575073,-11.669198036193848,3.9702908992767334
1747977682551810000,11.70081005859375,-1.466800332069397,-10.450055122375488,2.070389747619629
1747977682570077200,11.7190771484375,-0.7172485589981079,-9.602995872497559,2.586641311645508
1747977682588343800,11.73734375,0.12861421704292297,-7.197610378265381,4.72582483291626
1747977682606606300,11.7556064453125,-0.3170489966869354,-6.820741176605225,3.507878065109253
1747977682624869000,11.773869140625,-1.1054840087890625,-5.810371398925781,1.8418751955032349
1747977682643136300,11.79213623046875,-1.459621787071228,-5.486144065856934,0.9583254456520081
1747977682661398800,11.810398681640624,-1.339382529258728,-6.7076802253723145,1.3435698747634888
1747977682679662800,11.828662841796875,0.35473597049713135,-6.8865437507629395,1.2586246728897095
1747977682697926700,11.8469267578125,1.3100703954696655,-6.126822471618652,0.41096729040145874
1747977682716191500,11.86519140625,1.7778671979904175,-6.709474563598633,-2.431705951690674
1747977682734462000,11.8834619140625,-0.08015955984592438,-5.636891841888428,-2.651247501373291
1747977682752719000,11.901718994140625,-1.067797064781189,-5.1804609298706055,-1.2137593030929565
1747977682770983000,11.91998291015625,-1.8203397989273071,-5.627320766448975,0.21774685382843018
1747977682789244400,11.938244384765625,-0.46420758962631226,-4.118646144866943,-0.2566302418708801
1747977682807514000,11.95651416015625,1.3950155973434448,-3.1489546298980713,-0.857228696346283
1747977682825774800,11.97477490234375,-3.8608193397521973,-5.257031440734863,-1.174277663230896
1747977682844038700,11.99303857421875,-12.390035629272461,-8.916254997253418,1.3836497068405151
1747977682862304800,12.0113046875,-18.672391891479492,-13.192827224731445,6.22193717956543
1747977682880567800,12.02956787109375,-16.400405883789062,-18.183656692504883,11.93480110168457
1747977682898826500,12.047826416015624,-8.139185905456543,-15.208182334899902,8.295916557312012
1747977682917094400,12.066094482421875,-8.668000221252441,-10.939387321472168,9.498908042907715
1747977682935361000,12.084361083984374,-8.056633949279785,-11.9132661819458,5.607579708099365
1747977682953623800,12.102623779296875,-4.575675010681152,-14.804991722106934,2.7499513626098633
1747977682971889200,12.12088916015625,5.158327579498291,-13.882558822631836,1.319043517112732
1747977682990150100,12.139150146484376,0.4977070987224579,-14.404792785644531,-3.8315072059631348
1747977683008411100,12.1574111328125,-1.2352946996688843,-10.88016414642334,-1.9818553924560547
1747977683026680000,12.17568017578125,0.16689938306808472,-11.21216869354248,3.634697675704956
1747977683044944000,12.19394384765625,3.8739798069000244,-11.861222267150879,3.7022948265075684
1747977683063208000,12.2122080078125,4.04985237121582,-9.900901794433594,2.307877540588379
1747977683081472300,12.23047216796875,1.7784653902053833,-9.453444480895996,1.9310078620910645
1747977683099736000,12.248736083984374,0.9822536706924438,-5.311468124389648,3.4642090797424316
1747977683117993200,12.2669931640625,-0.6885347366333008,-5.155336380004883,4.9986066818237305
1747977683136264000,12.285263916015625,0.4701896607875824,-4.716851711273193,0.19980068504810333
1747977683154524000,12.30352392578125,-6.300302028656006,-4.887938499450684,1.978864312171936
1747977683172792600,12.32179248046875,-6.722635269165039,-4.058825492858887,3.5545380115509033
1747977683191056400,12.340056396484375,0.7178468108177185,-5.870790481567383,3.655036687850952
1747977683209320400,12.358320556640624,2.359323024749756,-8.139784812927246,3.1890344619750977
1747977683227584800,12.376584716796875,1.602592945098877,-6.786643028259277,3.6807594299316406
1747977683245847600,12.39484765625,1.5798611640930176,-7.689335346221924,3.6939198970794678
1747977683264112600,12.413112548828124,-0.10348957777023315,-6.773482799530029,4.803591251373291
1747977683282377700,12.431377685546876,-0.1417747437953949,-11.122437477111816,9.637691497802734
1747977683300641000,12.44964111328125,-1.7635103464126587,-11.224132537841797,8.646464347839355
1747977683318904800,12.46790478515625,-3.5856447219848633,-9.953543663024902,5.313860893249512
1747977683337169000,12.4861689453125,-2.017747640609741,-10.940583229064941,3.926621913909912
1747977683355427800,12.504427734375,1.23589289188385,-10.708479881286621,4.575077056884766
1747977683373697300,12.522697265625,1.5774682760238647,-11.303693771362305,4.635495662689209
1747977683391961000,12.540961181640625,0.24586252868175507,-8.887541770935059,8.382058143615723
1747977683410220500,12.559220458984376,-3.142374277114868,-9.68375301361084,8.240283012390137
1747977683428487700,12.57748779296875,-0.2841476798057556,-14.032110214233398,3.315854072570801
1747977683446754600,12.595754638671876,2.2546372413635254,-12.600006103515625,2.6572296619415283
1747977683465017300,12.614017333984375,1.6265212297439575,-10.557731628417969,5.866004943847656
1747977683483281700,12.63228173828125,0.857228696346283,-9.90149974822998,10.201799392700195
1747977683501545000,12.650544921875,0.605384111404419,-10.65523910522461,9.880562782287598
1747977683519810600,12.668810546875,2.7080769538879395,-10.727622032165527,8.943174362182617
1747977683538073600,12.687073486328124,4.008575916290283,-11.24327564239502,6.820741176605225
1747977683556337700,12.705337646484375,3.5300116539001465,-12.339188575744629,4.467400074005127
1747977683574601200,12.723601318359375,3.6699917316436768,-11.81336498260498,2.435295343399048
1747977683592865000,12.741864990234374,3.7495529651641846,-9.780064582824707,4.025924205780029
1747977683611131000,12.760130859375,4.055236339569092,-9.163313865661621,5.121238708496094
1747977683629397200,12.778397216796876,3.835096597671509,-9.790233612060547,4.034897327423096
1747977683647657700,12.79665771484375,2.89890456199646,-8.883952140808105,2.345564365386963
1747977683675053800,12.8240537109375,0.6221339106559753,-7.162914752960205,1.8598214387893677
1747977683693318100,12.842318115234375,-0.3206382393836975,-6.297909259796143,3.3266217708587646
1747977683711577300,12.860577392578126,-0.16689938306808472,-5.635097503662109,0.6394818425178528
1747977683729833000,12.8788330078125,-1.9046868085861206,-4.794020175933838,3.088535785675049
1747977683748100400,12.897100341796875,-1.5756736993789673,-3.212364435195923,6.0747785568237305
1747977683766376700,12.915376708984375,3.0520453453063965,-4.213760852813721,4.52781867980957
1747977683784638700,12.933638671875,7.94297456741333,-5.087738990783691,3.181257724761963
1747977683802902800,12.95190283203125,9.426525115966797,-5.2043890953063965,2.9341988563537598
1747977683821166600,12.97016650390625,9.17707347869873,-3.648456335067749,5.60099983215332
1747977683839426300,12.98842626953125,6.709474563598633,-1.7874385118484497,8.487939834594727
1747977683857694700,13.00669482421875,4.391427993774414,-0.40797626972198486,9.116654396057129
1747977683875958500,13.02495849609375,4.563112735748291,-0.9936196208000183,8.130212783813477
1747977683894221600,13.0432216796875,7.652246952056885,-2.258824586868286,6.342774391174316
1747977683912488000,13.061488037109376,9.915258407592773,-2.7355945110321045,5.408975601196289
1747977683930750700,13.079750732421875,9.631111145019531,-3.403790235519409,5.389832973480225
1747977683949015000,13.09801513671875,8.667402267456055,-3.6460635662078857,6.089733600616455
1747977683967274200,13.116274169921875,8.496315002441406,-3.882354736328125,6.787839412689209
1747977683985542000,13.1345419921875,8.745168685913086,-3.9116668701171875,7.007380962371826
1747977684003808000,13.15280810546875,8.901898384094238,-3.7369906902313232,6.467201232910156
1747977684022071300,13.1710712890625,7.8693952560424805,-5.085944652557373,6.21356201171875
1747977684040335400,13.18933544921875,7.916653633117676,-6.986443996429443,7.062416076660156
1747977684058595000,13.207594970703125,8.825926780700684,-7.622336387634277,6.930212497711182
1747977684076862200,13.2258623046875,9.355338096618652,-7.867002487182617,7.253841876983643
1747977684095128600,13.244128662109375,8.548358917236328,-7.920242786407471,7.226922512054443
1747977684113394200,13.262394287109375,6.905087947845459,-7.5080790519714355,7.991429328918457
1747977684131655400,13.280655517578126,4.983651161193848,-7.555337429046631,9.095717430114746
1747977684149919500,13.29891943359375,3.9146578311920166,-8.481958389282227,8.680562019348145
1747977684168183600,13.31718359375,4.109673023223877,-9.034101486206055,7.4362945556640625
1747977684186443500,13.335443603515625,5.2731828689575195,-8.907281875610352,6.845267295837402
1747977684204697300,13.353697265625,6.9720869064331055,-7.5463643074035645,8.067999839782715
1747977684222974200,13.37197412109375,2.96111798286438,-8.671588897705078,9.67238712310791
1747977684241238500,13.390238525390625,4.60857629776001,-7.050451755523682,9.087940216064453
1747977684259505000,13.4085048828125,6.8033928871154785,-4.756931304931641,8.880363464355469
1747977684277768000,13.426767822265624,7.828119277954102,-5.422136306762695,9.154939651489258
1747977684296031200,13.44503125,5.663212776184082,-3.893122434616089,5.9575300216674805
1747977684314296000,13.463296142578125,4.332803726196289,-3.383451223373413,5.731408596038818
1747977684332556000,13.48155615234375,1.8634105920791626,-2.9347970485687256,4.6372904777526855
1747977684350824700,13.49982470703125,1.201795220375061,-2.2815563678741455,4.195216178894043
1747977684369087200,13.518087158203125,2.648256540298462,-1.5134602785110474,4.886143684387207
1747977684387351800,13.536351806640624,2.9030921459198,-1.4195420742034912,5.589035511016846
1747977684405615900,13.554615966796876,1.825723648071289,-0.6017948985099792,6.654439926147461
1747977684423879200,13.572879150390625,2.0279171466827393,-0.6825526356697083,7.442874908447266
1747977684442145500,13.5911455078125,-0.24526432156562805,-0.857228696346283,7.409375190734863
1747977684460404000,13.609404052734375,-1.2293126583099365,-0.1543370634317398,7.847859859466553
1747977684478667800,13.627667724609376,0.5288137793540955,0.32662028074264526,7.791628837585449
1747977684496935200,13.64593505859375,2.544766902923584,0.7920243144035339,7.530212879180908
1747977684515201300,13.664201171875,2.9485557079315186,1.046859860420227,8.266005516052246
1747977684533464300,13.68246435546875,2.9479575157165527,0.41575294733047485,8.82951545715332
1747977684551728400,13.700728271484374,1.9669002294540405,0.5724828243255615,9.640084266662598
1747977684569992400,13.718992431640626,1.0037890672683716,0.7674978375434875,9.809974670410156
1747977684588256300,13.73725634765625,1.7383856773376465,0.6789634227752686,11.639885902404785
1747977684606520600,13.7555205078125,2.5148565769195557,0.989432156085968,12.28415298461914
1747977684624784600,13.77378466796875,2.956930637359619,0.4695914387702942,12.244073867797852
1747977684643049000,13.792049072265625,2.736790895462036,0.40378883481025696,12.148959159851074
1747977684661312800,13.810312744140624,2.7906293869018555,0.3415754437446594,11.101500511169434
1747977684679577000,13.8285771484375,2.048854351043701,0.5587241053581238,11.791830062866211
1747977684697839900,13.84683984375,4.126422882080078,-0.4103690981864929,11.776276588439941
1747977684716106000,13.86510595703125,4.536791801452637,1.1700903177261353,12.935599327087402
1747977684734368800,13.88336865234375,4.202992916107178,1.470389485359192,12.692728042602539
1747977684752631600,13.901631591796875,3.4947173595428467,0.6281159520149231,11.483156204223633
1747977684770898200,13.919898193359375,3.008974552154541,-0.5060819983482361,9.913464546203613
1747977684798294800,13.947294677734375,2.042872428894043,-0.19322042167186737,8.715856552124023
1747977684816557300,13.965557373046876,2.2438695430755615,0.4091726839542389,8.099106788635254
1747977684834823400,13.983823486328125,2.8582265377044678,1.089930772781372,8.170292854309082
1747977684853084700,14.002084716796874,2.692523717880249,1.3758729696273804,8.305487632751465
1747977684871349200,14.020349365234376,1.7635103464126587,2.258824586868286,7.840083599090576
1747977684889613000,14.038613037109375,2.775076150894165,2.885744094848633,6.595217227935791
1747977684907876400,14.05687646484375,3.93679141998291,2.101496458053589,8.327621459960938
1747977684926142500,14.075142578125,4.737788677215576,3.9122650623321533,7.180262565612793
1747977684944398000,14.093398193359375,4.917848587036133,3.6544384956359863,6.9930243492126465
1747977684962672000,14.111672119140625,4.334000110626221,2.259422779083252,4.801796913146973
1747977684980933400,14.129933349609376,5.711667537689209,2.7942185401916504,3.2691938877105713
1747977684999197700,14.14819775390625,8.099106788635254,2.902493953704834,5.120042324066162
1747977685017461800,14.166461669921874,8.172685623168945,2.6979074478149414,6.257829189300537
1747977685035720200,14.18472021484375,8.737391471862793,3.5018959045410156,3.7609190940856934
1747977685053971700,14.2029716796875,8.511868476867676,3.040679454803467,0.32662028074264526
1747977685072254700,14.221254638671875,7.851449489593506,1.4141582250595093,0.14895321428775787
1747977685090517800,14.239517822265626,8.46760082244873,1.0887342691421509,0.97926265001297
1747977685108777500,14.257777587890626,9.567103385925293,1.6959130764007568,0.5330012440681458
1747977685127046100,14.276046142578124,10.162318229675293,1.9974087476730347,1.2113664150238037
1747977685145310000,14.29431005859375,11.2247314453125,2.6907291412353516,1.1048858165740967
1747977685163573800,14.31257373046875,11.12483024597168,3.032902717590332,0.851844847202301
1747977685181836300,14.330836181640626,10.935199737548828,2.1930220127105713,0.8943174481391907
1747977685200103700,14.349103759765624,12.067004203796387,1.5224334001541138,0.06340979784727097
1747977685218365700,14.36736572265625,12.016157150268555,1.5361921787261963,-1.1365907192230225
1747977685236629800,14.385629638671874,10.546963691711426,2.0991036891937256,-1.4003994464874268
1747977685254894000,14.40389404296875,9.996016502380371,2.5010979175567627,-0.9302098155021667
1747977685273142800,14.422142822265625,10.529017448425293,2.6554348468780518,-0.15613168478012085
1747977685291420400,14.44042041015625,11.633305549621582,2.2510478496551514,-0.6759724020957947
1747977685309685000,14.45868505859375,12.256635665893555,1.7922241687774658,-0.7734799385070801
1747977685327950600,14.47695068359375,11.173883438110352,1.9824535846710205,-0.8141579031944275
1747977685346214700,14.495214599609374,9.959526062011719,1.8693926334381104,-1.1988041400909424
1747977685364478200,14.513478271484376,9.281160354614258,1.9100706577301025,-1.4793626070022583
1747977685382742300,14.5317421875,8.346165657043457,2.042872428894043,-1.357926845550537
1747977685401006000,14.550006103515624,7.529614448547363,2.018345832824707,-1.5708880424499512
1747977685419270700,14.568270751953126,7.095317363739014,1.963310956954956,-1.3262219429016113
1747977685437534000,14.586533935546875,7.1024956703186035,2.0967109203338623,-0.6472585201263428
1747977685455789800,14.604789794921874,7.564908981323242,1.8903298377990723,-0.5383850932121277
1747977685474060800,14.623060791015625,7.643871784210205,2.0757737159729004,0.15553347766399384
1747977685492328000,14.641327880859375,7.372884750366211,2.2809581756591797,0.1944168359041214
1747977685510590500,14.659590576171874,7.168298244476318,2.609971284866333,0.004187439568340778
1747977685528853500,14.677853515625,6.811169624328613,2.89172625541687,-0.15254244208335876
1747977685547119600,14.69611962890625,6.558128833770752,2.9976086616516113,-0.2667997181415558
1747977685565382400,14.71438232421875,6.39601469039917,3.202194929122925,-0.49591249227523804
1747977685583647500,14.7326474609375,6.549753665924072,3.387040376663208,-0.42412781715393066
1747977685601911000,14.7509111328125,6.665207386016846,3.5336008071899414,-0.3188436031341553
1747977685620174000,14.769174072265624,7.261618614196777,3.5162527561187744,-0.38225340843200684
1747977685638434600,14.7874345703125,8.273782730102539,3.5401811599731445,-0.42771705985069275
1747977685656702500,14.805702392578125,9.196215629577637,3.721437454223633,-0.10408778488636017
1747977685674966500,14.823966552734374,9.3457670211792,3.8536407947540283,0.08733802288770676
1747977685693213700,14.842213623046876,9.312267303466797,3.96789813041687,0.0011964113218709826
1747977685711492000,14.8604921875,9.737591743469238,4.0558342933654785,-0.01375873014330864
1747977685729762000,14.878761962890625,10.39621639251709,4.019343852996826,0.08015955984592438
1747977685748023000,14.89702294921875,11.082956314086914,3.7220356464385986,0.15493527054786682
1747977685766286800,14.915286865234375,11.59262752532959,3.1686954498291016,0.5258227586746216
1747977685784551000,14.933551025390624,11.273185729980469,3.407379388809204,0.48394837975502014
1747977685802810600,14.951810546875,10.343574523925781,3.858426570892334,0.1663011759519577
1747977685821077500,14.970077392578125,10.312467575073242,3.8117663860321045,1.1371889114379883
1747977685839341300,14.98834130859375,10.822736740112305,3.6430723667144775,1.3507484197616577
1747977685857610000,15.00660986328125,11.451451301574707,3.188436269760132,1.3680963516235352
1747977685875869700,15.02486962890625,11.769098281860352,2.641077995300293,1.280758261680603
1747977685894131000,15.043130859375,11.576476097106934,2.3473589420318604,1.0941181182861328
1747977685912398800,15.06139892578125,10.921441078186035,2.132004976272583,1.2149556875228882
1747977685930663700,15.07966357421875,10.258628845214844,2.049452543258667,1.4841482639312744
1747977685948927200,15.09792724609375,9.7064847946167,2.32761812210083,1.8059829473495483
1747977685967191300,15.11619140625,9.09093189239502,2.472982168197632,1.597209095954895
1747977685985461800,15.134461669921874,8.693124771118164,2.3084757328033447,1.1910275220870972
1747977686003719400,15.152719482421874,8.476573944091797,2.1858434677124023,0.8805587291717529
1747977686021983000,15.17098291015625,8.133204460144043,2.2444677352905273,0.9050851464271545
1747977686040247300,15.189247314453125,7.493722438812256,2.3712873458862305,0.6867401003837585
1747977686058499300,15.207499267578125,6.786643028259277,2.5262224674224854,0.2392822653055191
1747977686076775200,15.225775146484375,6.495915412902832,2.8079774379730225,0.005982056725770235
1747977686095039500,15.24403955078125,6.540780544281006,3.0975089073181152,0.21655045449733734
1747977686113303300,15.26230322265625,6.516852378845215,3.197409152984619,0.21655045449733734
1747977686131567000,15.280567138671875,6.6693949699401855,3.267399311065674,-0.04187439754605293
1747977686149826300,15.298826416015626,6.793821811676025,3.4857444763183594,-0.26201409101486206
1747977686168094200,15.31709423828125,6.961319446563721,3.603590965270996,-0.30508488416671753
1747977686186360800,15.33536083984375,7.186244487762451,3.7399818897247314,-0.2907279431819916
1747977686204623400,15.353623291015625,7.639684677124023,3.7567315101623535,-0.4019941985607147
1747977686222889500,15.371889404296875,8.361719131469727,3.7872400283813477,0.06520441919565201
1747977686241149700,15.390149658203125,9.798608779907227,3.5048868656158447,0.38225340843200684
1747977686259410700,15.40841064453125,10.117452621459961,3.583850145339966,0.04666004329919815
1747977686277667000,15.4266669921875,10.166504859924316,3.707080364227295,0.19980068504810333
1747977686295945000,15.444945068359376,10.451848983764648,3.5635111331939697,0.1944168359041214
1747977686314208800,15.463208740234375,10.566704750061035,3.6053855419158936,0.06041877344250679
1747977686332469000,15.481468994140625,10.796415328979492,3.6472599506378174,0.2799602448940277
1747977686350736600,15.499736572265626,11.207383155822754,3.745365619659424,0.2835494875907898
1747977686369000000,15.518,10.982458114624023,4.0833516120910645,-0.45643091201782227
1747977686387264000,15.536263916015624,10.770692825317383,4.050450325012207,-0.9774680733680725
1747977686405523200,15.554523193359374,10.945368766784668,3.5982069969177246,-1.0217353105545044
1747977686423790600,15.57279052734375,11.751152038574219,3.0628130435943604,-0.7178468108177185
1747977686442057200,15.59105712890625,12.743575096130371,2.659024238586426,-0.2709871530532837
1747977686460320000,15.609320068359375,12.952348709106445,2.2779672145843506,-0.23389841616153717
1747977686478587600,15.627587646484375,12.519845962524414,1.7958134412765503,-0.6544370055198669
1747977686496844800,15.6458447265625,11.629117965698242,1.5906288623809814,-1.389631748199463
1747977686515115000,15.664114990234374,10.339386940002441,1.6630117893218994,-1.6683956384658813
1747977686533376300,15.682376220703125,8.903693199157715,1.9645073413848877,-1.612762451171875
1747977686551639600,15.7006396484375,7.778468132019043,2.121835470199585,-1.332203984260559
1747977686569903900,15.71890380859375,7.297510623931885,2.1003000736236572,-0.7525427341461182
1747977686588168700,15.737168701171875,7.347161769866943,2.029113531112671,-0.08793623000383377
1747977686606425000,15.755425048828124,7.5565338134765625,2.004587173461914,-0.18424734473228455
1747977686624699400,15.773699462890624,7.438089370727539,2.1714866161346436,-0.2554338276386261
1747977686642960100,15.791960205078125,7.276573657989502,2.3192434310913086,-0.1543370634317398
1747977686661219600,15.810219482421875,7.109076023101807,2.36291241645813,-0.38344982266426086
1747977686679487000,15.828487060546875,6.903293132781982,2.544168710708618,-0.7896314859390259
1747977686697753000,15.846753173828125,6.91765022277832,2.705684185028076,-0.9134600162506104
1747977686716013000,15.865012939453125,7.2430739402771,2.7421748638153076,-0.7704889178276062
1747977686734280400,15.883280517578125,8.033304214477539,3.0520453453063965,-0.23629122972488403
1747977686752547300,15.90154736328125,8.574081420898438,3.3296127319335938,-0.07956135272979736
1747977686770808600,15.91980859375,8.426324844360352,3.321237802505493,-0.02153540402650833
1747977686789072100,15.938072021484375,8.449654579162598,3.2925238609313965,-0.2225325107574463
1747977686807336400,15.95633642578125,8.877969741821289,3.2709884643554688,-0.8309076428413391
1747977686825600800,15.974600830078124,8.787641525268555,3.4139597415924072,-0.8111668825149536
1747977686843863000,15.992863037109375,9.79681396484375,3.528217077255249,-0.2679961323738098
1747977686862129400,16.01112939453125,10.160523414611816,3.507878065109253,0.14715859293937683
1747977686880396300,16.029396240234377,10.787442207336426,3.566502094268799,0.6143572330474854
1747977686898650600,16.047650634765624,11.189436912536621,3.2614171504974365,1.4213366508483887
1747977686916920600,16.065920654296875,11.49512004852295,3.06999135017395,1.7599210739135742
1747977686935182800,16.084182861328124,11.0775728225708,3.4229328632354736,0.32183465361595154
1747977686953445600,16.102445556640625,10.29452133178711,3.6873397827148438,-0.11126625537872314
1747977686971712800,16.120712646484375,10.29153060913086,3.5647075176239014,0.7734799385070801
1747977686989974000,16.13897412109375,12.296117782592773,2.857030153274536,1.6959130764007568
1747977687008243200,16.1572431640625,14.103296279907227,2.1882362365722656,2.025524377822876
1747977687026505200,16.175505126953126,13.8849515914917,1.4626128673553467,1.6187444925308228
1747977687044769000,16.19376904296875,12.010174751281738,1.1479566097259521,0.9954141974449158
1747977687063032800,16.21203271484375,10.338788032531738,1.1934202909469604,0.6119644045829773
1747977687081296600,16.230296630859375,8.688339233398438,1.4530415534973145,0.6687939167022705
1747977687099560400,16.248560546875,7.859824180603027,1.92741858959198,0.8434699773788452
1747977687117826300,16.266826416015626,7.827520847320557,2.0991036891937256,0.9583254456520081
1747977687136087800,16.285087890625,7.974679470062256,1.9555343389511108,0.924227774143219
1747977687154351400,16.303351318359375,8.684749603271484,1.856830358505249,0.5736792087554932
1747977687172613600,16.321613525390624,8.237292289733887,2.0398812294006348,0.7232306599617004
1747977687190879500,16.33987939453125,7.674978733062744,2.3084757328033447,0.7100701332092285
1747977687209146000,16.35814599609375,6.605386734008789,2.4562325477600098,0.49292147159576416
1747977687227404800,16.37640478515625,5.994618892669678,2.644068956375122,0.28893333673477173
1747977687245673700,16.394673828125,6.109474182128906,2.8049862384796143,0.08793623000383377
1747977687263932700,16.4129326171875,6.510870456695557,2.9928228855133057,0.0011964113218709826
1747977687282201300,16.431201416015625,7.193423271179199,3.0891339778900146,-0.22013968229293823
1747977687300465000,16.44946484375,7.895716667175293,3.314059257507324,-0.24526432156562805
1747977687318724900,16.467724853515627,8.35573673248291,3.558725595474243,-0.07836493849754333
1747977687336993500,16.48599365234375,8.547760963439941,3.8051862716674805,0.07417750358581543
1747977687355257000,16.504257080078126,9.097511291503906,3.8835511207580566,0.19262222945690155
1747977687373521200,16.522521240234376,9.684351921081543,3.775874137878418,0.11006984114646912
1747977687391786000,16.540785888671873,9.759725570678711,3.652045488357544,0.07657032459974289
1747977687410049300,16.55904931640625,9.430113792419434,3.7058839797973633,-0.20997019112110138
1747977687428313900,16.57731396484375,9.562915802001953,3.738187074661255,-0.5258227586746216
1747977687446577700,16.59557763671875,10.48953628540039,3.7812578678131104,-0.5132604837417603
1747977687464841000,16.613841064453126,11.801401138305664,3.5377883911132812,-0.4211367964744568
1747977687483106800,16.63210693359375,12.649657249450684,3.087339401245117,-0.2512463629245758
1747977687501357600,16.650357666015626,12.142976760864258,3.032304525375366,-0.5515456199645996
1747977687519629000,16.668629150390625,10.338190078735352,3.449253797531128,-1.1210373640060425
1747977687537896400,16.686896484375,8.916254997253418,3.741178274154663,-1.3423734903335571
1747977687556162800,16.705162841796874,8.989834785461426,3.8596229553222656,-0.8398807644844055
1747977687574421200,16.723421142578125,10.50927734375,3.7196428775787354,-0.10707881301641464
1747977687592689700,16.741689697265624,11.642876625061035,3.291327476501465,-0.4163511395454407
1747977687610954500,16.75995458984375,11.839686393737793,2.8103702068328857,-1.0151549577713013
1747977687629218000,16.778218017578126,11.815757751464844,2.6967110633850098,-1.0007981061935425
1747977687647482400,16.796482421875,10.953743934631348,2.9718856811523438,-0.5874379873275757
1747977687665746200,16.81474609375,9.428318977355957,3.235694408416748,-0.2105683982372284
1747977687684006400,16.83300634765625,7.953144073486328,3.332603693008423,-0.2883351147174835
1747977687702278100,16.851278076171877,7.452445983886719,3.311666488647461,-0.08195417374372482
1747977687720537900,16.869537841796873,6.5527448654174805,3.2452657222747803,1.0151549577713013
1747977687738791400,16.88779150390625,8.447860717773438,3.34995174407959,0.9541380405426025
1747977687757066200,16.906066162109376,8.311469078063965,3.3367912769317627,1.6474584341049194
1747977687775325700,16.92432568359375,7.433303356170654,3.5024940967559814,1.5493526458740234
1747977687793593300,16.94259326171875,5.962316036224365,3.627519130706787,0.9834501147270203
1747977687811858200,16.960858154296876,5.058426856994629,3.7363924980163574,0.35473597049713135
1747977687830121200,16.979121337890625,5.203192710876465,4.091726779937744,0.37866419553756714
1747977687848390100,16.99739013671875,5.820540904998779,4.3788652420043945,0.5210371017456055
1747977687866650600,17.015650634765624,6.63769006729126,4.579264163970947,0.45284169912338257
1747977687884911600,17.03391162109375,7.2335028648376465,4.637888431549072,0.0975075215101242
1747977687903181600,17.052181640625,8.048258781433105,4.467400074005127,-0.20099709928035736
1747977687921438200,17.070438232421875,8.82532787322998,4.159922122955322,-0.35114672780036926
1747977687939707000,17.088706787109373,9.569496154785156,4.161118507385254,-0.49651068449020386
1747977687957970200,17.10697021484375,9.913464546203613,4.211368083953857,-0.5306084156036377
1747977687976234800,17.12523486328125,10.062417030334473,4.462614059448242,-0.5353940725326538
1747977687994489300,17.1434892578125,10.211370468139648,4.5475592613220215,-0.2727817893028259
1747977688012750600,17.16175048828125,9.986445426940918,4.254438877105713,-0.09092725813388824
1747977688031023900,17.18002392578125,9.678967475891113,3.8045880794525146,-0.11006984114646912
1747977688049290200,17.198290283203125,10.091131210327148,3.1375887393951416,-0.34576287865638733
1747977688067556400,17.216556396484375,11.133803367614746,2.462812662124634,-0.22013968229293823
1747977688085819600,17.234819580078124,11.443076133728027,2.651845693588257,0.8458628058433533
1747977688104082000,17.25308203125,10.655837059020996,3.525225877761841,1.4991034269332886
1747977688122349000,17.27134912109375,10.327422142028809,4.020540237426758,1.1754741668701172
1747977688140611600,17.289611572265624,10.660623550415039,3.800400495529175,1.236491084098816
1747977688158869800,17.307869873046876,10.85444164276123,3.1345977783203125,1.3453645706176758
1747977688177140500,17.326140380859375,10.241280555725098,2.833101987838745,1.1216355562210083
1747977688195399400,17.3443994140625,9.577272415161133,2.6560330390930176,1.0941181182861328
1747977688213667800,17.362667724609373,10.135398864746094,2.4161527156829834,1.4225330352783203
1747977688231932000,17.380931884765626,11.119446754455566,2.4017956256866455,1.7072789669036865
1747977688250195700,17.39919580078125,11.443674087524414,2.0344974994659424,2.0883359909057617
1747977688268456200,17.417456298828125,10.530214309692383,1.7491533756256104,1.7694923877716064
1747977688286719200,17.43571923828125,8.70927619934082,1.932802438735962,0.7363911867141724
1747977688304986600,17.453986572265624,7.4811601638793945,2.066800594329834,0.12203395366668701
1747977688323252700,17.472252685546874,7.223931789398193,2.334198474884033,-0.16390834748744965
1747977688341516300,17.490516357421875,7.64447021484375,2.554936408996582,-0.34636107087135315
1747977688359780400,17.5087802734375,7.7832536697387695,2.6350958347320557,-0.16929219663143158
1747977688378044200,17.527044189453125,7.316653251647949,2.813361167907715,-0.048454657196998596
1747977688396307700,17.5453076171875,6.802196502685547,3.2482566833496094,-0.2476571500301361
1747977688414572800,17.56357275390625,6.468996047973633,3.50129771232605,-0.29431718587875366
1747977688432835000,17.5818349609375,6.606583118438721,3.3672995567321777,-0.4145565330982208
1747977688451101400,17.600101318359375,6.897909641265869,3.2709884643554688,-0.22911277413368225
1747977688469364200,17.6183642578125,7.590631484985352,3.3918261528015137,-0.17288143932819366
1747977688487629000,17.636629150390625,8.4502534866333,3.449253797531128,-0.11724831163883209
1747977688505893000,17.65489306640625,9.553942680358887,3.50129771232605,0.062213387340307236
1747977688524155400,17.6731552734375,10.469795227050781,3.3445677757263184,0.06939185410737991
1747977688542417200,17.691417236328125,10.553544044494629,2.978466033935547,-0.15613168478012085
1747977688560684300,17.709684326171875,10.175477981567383,2.9940192699432373,-0.6430711150169373
1747977688578950100,17.7279501953125,9.750154495239258,3.1387851238250732,-1.0480563640594482
1747977688597212700,17.746212646484373,9.559326171875,3.177668571472168,-1.1389836072921753
1747977688615477000,17.76447705078125,10.013962745666504,3.1663026809692383,-0.5659025311470032
1747977688633736700,17.78273681640625,11.075180053710938,2.9521448612213135,0.2111666053533554
1747977688652005000,17.801005126953125,12.096915245056152,2.995215654373169,0.20398813486099243
1747977688670269200,17.819269287109375,11.852249145507812,3.294916868209839,-0.6125625967979431
1747977688688533200,17.837533203125,10.60977554321289,3.3481571674346924,-1.150349497795105
1747977688706797600,17.855797607421874,9.717252731323242,3.4091739654541016,-1.2011969089508057
1747977688725061600,17.8740615234375,9.632308006286621,3.538386583328247,-0.9804590940475464
1747977688743325700,17.89232568359375,9.847661972045898,3.466003656387329,-0.727418065071106
1747977688761589500,17.910589599609374,9.92841911315918,3.2757742404937744,-0.5126622319221497
1747977688779852800,17.928852783203126,9.651450157165527,3.1441688537597656,-0.48873403668403625
1747977688798119000,17.947118896484376,9.092127799987793,3.032902717590332,-0.6215356588363647
1747977688816382500,17.965382568359374,8.398209571838379,2.6799614429473877,-0.5964110493659973
1747977688834647800,17.983647705078123,8.263014793395996,2.290529489517212,-0.625723123550415
1747977688852910300,18.001910400390624,8.882756233215332,2.0027925968170166,-0.5748756527900696
1747977688871174400,18.02017431640625,9.54197883605957,1.8909281492233276,-0.20817556977272034
1747977688889433900,18.038433837890626,9.896714210510254,1.984248161315918,0.2267199456691742
1747977688907701800,18.05670166015625,9.148957252502441,2.2683959007263184,0.50129634141922
1747977688925966800,18.074966796875,7.53140926361084,2.536990165710449,0.3810569941997528
1747977688944230000,18.09322998046875,6.280561447143555,2.932404041290283,-0.18005990982055664
1747977688962495700,18.111495849609376,6.080760478973389,3.2937204837799072,-0.633499801158905
1747977688980758300,18.12975830078125,6.620342254638672,3.3577284812927246,-0.6107679605484009
1747977688999023000,18.148023193359375,7.112665176391602,3.417548894882202,-0.47796630859375
1747977689017286700,18.16628662109375,7.442276477813721,3.6957144737243652,-0.722034215927124
1747977689035550500,18.184550537109374,7.600203037261963,3.8422749042510986,-0.841675341129303
1747977689053814800,18.202814697265627,8.044670104980469,3.8596229553222656,-0.7567301392555237
1747977689072078000,18.221078125,9.013164520263672,3.7884364128112793,-0.7974081635475159
1747977689090344400,18.239344482421874,9.733404159545898,3.6705899238586426,-0.841675341129303
1747977689108603000,18.257602783203126,9.905089378356934,3.565305709838867,-0.8374879360198975
1747977689126870000,18.2758701171875,9.728618621826172,3.652045488357544,-0.7938188910484314
1747977689145132000,18.294132080078125,9.92542839050293,3.826721668243408,-0.7561319470405579
1747977689163397400,18.3123974609375,10.445268630981445,3.6155550479888916,-0.5276173949241638
1747977689181664500,18.33066455078125,11.118250846862793,3.2273194789886475,-0.1902294009923935
1747977689199927300,18.34892724609375,11.746964454650879,2.806781053543091,0.017946170642971992
1747977689218192100,18.367192138671875,12.361321449279785,2.5232315063476562,-0.17946170270442963
1747977689236461800,18.3854619140625,12.116655349731445,2.7379872798919678,-0.8578268885612488
1747977689254720000,18.403719970703126,11.10628604888916,3.0993034839630127,-0.8506484627723694
1747977689272983800,18.42198388671875,10.712068557739258,3.1250264644622803,-0.026919255033135414
1747977689291248600,18.44024853515625,11.300703048706055,2.837887763977051,1.028315544128418
1747977689309512000,18.458511962890626,12.56112289428711,2.4047868251800537,1.7330018281936646
1747977689327776500,18.476776611328123,13.706686019897461,1.9956140518188477,2.3084757328033447
1747977689346040300,18.495040283203124,13.907085418701172,1.662413477897644,2.551347255706787
1747977689364304000,18.513303955078126,12.760324478149414,1.5343974828720093,2.3670997619628906
1747977689382569700,18.53156982421875,10.683355331420898,1.786242127418518,1.9992033243179321
1747977689400827400,18.549827392578123,8.790034294128418,2.18045973777771,1.9896320104599
1747977689419096300,18.568096435546874,7.511070251464844,2.45204496383667,1.8203397989273071
1747977689437362200,18.586362060546875,6.961319446563721,2.6015963554382324,1.262213945388794
1747977689455625200,18.604625244140625,6.840481758117676,2.568695068359375,0.7268198728561401
1747977689473888300,18.62288818359375,6.667600154876709,2.5124638080596924,0.6221339106559753
1747977689492154000,18.641154052734375,6.348756790161133,2.7182464599609375,0.5940182209014893
1747977689510413000,18.6594130859375,5.924628734588623,3.019742250442505,0.44745782017707825
1747977689528676900,18.6776767578125,5.629713535308838,3.348755359649658,0.381655216217041
1747977689546945800,18.69594580078125,5.539384365081787,3.4444682598114014,0.3577269911766052
1747977689565209600,18.714209716796876,5.940182209014893,3.5084762573242188,0.11306086927652359
1747977689583474200,18.73247412109375,6.622735023498535,3.5910286903381348,-0.07956135272979736
1747977689601737700,18.75073779296875,7.654041290283203,3.5479576587677,-0.03888336941599846
1747977689620002000,18.769001953125,8.374878883361816,3.5018959045410156,0.01196411345154047
1747977689638265900,18.787265869140626,8.560322761535645,3.448655605316162,-0.1698904037475586
1747977689656525800,18.80552587890625,8.569893836975098,3.5814573764801025,-0.3086741268634796
1747977689674792700,18.823792724609376,9.038289070129395,3.845266103744507,-0.5006981492042542
1747977689693059800,18.842059814453126,9.391230583190918,3.73459792137146,-0.4773681163787842
1747977689711322400,18.860322265625,9.682557106018066,3.8087754249572754,-0.4301098585128784
1747977689729587000,18.8785869140625,10.255638122558594,4.057629108428955,-0.7896314859390259
1747977689747849700,18.896849609375,11.105090141296387,4.00618314743042,-0.7968099117279053
1747977689766116000,18.9151162109375,11.678171157836914,3.666402578353882,-0.30568310618400574
1747977689784379600,18.933379638671877,11.855239868164062,3.418745279312134,0.2913261651992798
1747977689802643700,18.951643798828126,11.655439376831055,3.7525441646575928,0.024526432156562805
1747977689820907300,18.9699072265625,10.505687713623047,4.446462631225586,-0.760917603969574
1747977689839171600,18.988171630859377,9.374481201171875,4.7030930519104,-1.0115658044815063
1747977689857431300,19.006431396484373,9.349356651306152,4.470390796661377,-1.0360921621322632
1747977689875699700,19.02469970703125,10.545767784118652,3.961317777633667,-0.9391828775405884
1747977689893960700,19.042960693359376,11.422139167785645,3.510869026184082,-1.1330015659332275
1747977689912231000,19.06123095703125,11.261819839477539,2.83669114112854,-1.1479566097259521
1747977689930490600,19.07949072265625,10.28734302520752,2.485544443130493,-0.8925228714942932
1747977689948753400,19.09775341796875,9.108877182006836,2.5669004917144775,-0.6843472719192505
1747977689967020300,19.116020263671874,8.102097511291504,2.6195425987243652,-0.6293123364448547
1747977689985284600,19.13428466796875,7.867002487182617,2.454437732696533,-0.6867401003837585
1747977690003543600,19.15254345703125,8.549555778503418,2.2845473289489746,-0.6263213157653809
1747977690021812700,19.170812744140626,9.260822296142578,2.1056840419769287,-0.3361915946006775
1747977690040076500,19.18907666015625,8.927620887756348,2.0315065383911133,0.07597211748361588
1747977690058340900,19.2073408203125,7.834699630737305,2.169692039489746,0.15972091257572174
1747977690076604200,19.225604248046874,6.813562393188477,2.383251428604126,-0.12023933976888657
1747977690094868500,19.243868408203124,6.249454498291016,2.4951157569885254,-0.5204389095306396
1747977690113134300,19.26213427734375,6.282954216003418,2.5663022994995117,-0.7022934556007385
1747977690131400000,19.28039990234375,6.57966423034668,2.717050075531006,-0.592223584651947
1747977690149661200,19.2986611328125,6.823731899261475,2.9150562286376953,-0.5784648656845093
1747977690167926000,19.316926025390625,7.5463643074035645,3.239283561706543,-0.5030909776687622
1747977690186188500,19.3351884765625,8.369495391845703,3.4307093620300293,-0.040677983313798904
1747977690204463000,19.353463134765626,8.557929992675781,3.534797191619873,0.6861419081687927
1747977690222718000,19.371718017578125,8.820542335510254,3.637688636779785,0.6951149702072144
1747977690240982500,19.389982421875,9.745368003845215,3.623929977416992,0.10468599200248718
1747977690259246000,19.40824609375,10.354341506958008,3.435495138168335,-0.4372883439064026
1747977690277510100,19.42651025390625,10.04267692565918,3.3367912769317627,-0.7615157961845398
1747977690295774200,19.444774169921875,9.751948356628418,3.4378879070281982,-0.6221339106559753
1747977690314037800,19.463037841796876,9.92542839050293,3.5706896781921387,-0.30209386348724365
1747977690332304100,19.48130419921875,10.208977699279785,3.6598222255706787,0.18065811693668365
1747977690350567000,19.49956689453125,10.958529472351074,3.314059257507324,0.7621139883995056
1747977690368831200,19.517831298828124,12.164511680603027,2.843271493911743,0.8015955686569214
1747977690387095300,19.53609521484375,12.134003639221191,2.8809585571289062,0.10348957777023315
1747977690405359400,19.554359375,10.99442195892334,3.332603693008423,0.0011964113218709826
1747977690423623700,19.572623779296876,10.080962181091309,3.6604204177856445,0.6209374666213989
1747977690441886200,19.59088623046875,10.01156997680664,3.4474592208862305,1.8831514120101929
1747977690460152800,19.60915283203125,11.104491233825684,2.8582265377044678,2.583052158355713
1747977690478411300,19.627411376953123,12.17527961730957,2.1403799057006836,2.3503501415252686
1747977690496680000,19.645679931640625,12.644272804260254,1.7150555849075317,1.5978072881698608
1747977690514939000,19.66393896484375,11.91625690460205,1.547558069229126,0.9200403094291687
1747977690533207300,19.682207275390624,9.921838760375977,1.7850457429885864,0.9625129103660583
1747977690551473700,19.7004736328125,8.091329574584961,2.3539392948150635,1.1491531133651733
1747977690569736700,19.71873681640625,7.258029460906982,2.709871530532837,1.4291132688522339
1747977690588000500,19.73700048828125,7.601997375488281,2.7080769538879395,1.5906288623809814
1747977690606265000,19.75526513671875,8.068597793579102,2.558525562286377,1.4081761837005615
1747977690624529200,19.773529052734375,8.00100040435791,2.596810817718506,0.9104689955711365
1747977690642793000,19.79179296875,7.317251682281494,2.68534517288208,0.36251261830329895
1747977690661056800,19.810056884765626,6.461817741394043,2.727219581604004,0.06281159073114395
1747977690679321600,19.828321533203123,6.008975982666016,2.943171739578247,-0.09810572862625122
1747977690697585400,19.84658544921875,6.142375946044922,3.0418758392333984,-0.2512463629245758
1747977690715848000,19.864847900390625,6.710072994232178,2.982055187225342,-0.4486542344093323
1747977690734111700,19.88311181640625,7.454240798950195,3.040679454803467,-0.7280163168907166
1747977690752382000,19.9013818359375,8.161917686462402,3.245863914489746,-0.6717849373817444
1747977690770637300,19.91963720703125,8.091927528381348,3.555136203765869,-0.3122633695602417
1747977690788905000,19.937905029296875,7.969893932342529,3.8219358921051025,0.07058826833963394
1747977690807171000,19.956171142578125,8.530412673950195,4.024129390716553,0.380458801984787
1747977690825430300,19.97443017578125,9.45763111114502,4.238286972045898,0.4695914387702942
1747977690843699000,19.992698974609375,10.193424224853516,4.41057014465332,0.49710890650749207
1747977690861962800,20.010962646484376,10.284950256347656,4.66660213470459,0.4307080805301666
1747977690880226800,20.029226806640626,9.955936431884766,4.83888578414917,0.2590230405330658
1747977690898477600,20.0474775390625,9.764511108398438,4.825725078582764,0.19262222945690155
1747977690916755000,20.0657548828125,10.216754913330078,4.405186653137207,0.372682124376297
1747977690935019500,20.08401953125,11.178668975830078,3.8021950721740723,0.3409772217273712
1747977690953283300,20.102283447265624,12.140583992004395,3.6167514324188232,-0.24466611444950104
1747977690971548400,20.12054833984375,12.014960289001465,3.6221351623535156,-0.8566305041313171
1747977690989812500,20.1388125,10.99322509765625,3.7740795612335205,-1.1365907192230225
1747977691008075800,20.15707568359375,10.24487018585205,4.048057556152344,-1.2011969089508057
1747977691026335500,20.17533544921875,10.401599884033203,3.7812578678131104,-1.1395817995071411
1747977691044603600,20.193603759765626,10.481760025024414,3.524627685546875,-1.1497513055801392
1747977691062868500,20.211868408203124,10.418350219726562,3.273381471633911,-1.217348575592041
1747977691081133800,20.2301337890625,10.016355514526367,2.8426733016967773,-1.0205388069152832
1747977691099400000,20.24839990234375,9.751948356628418,2.454437732696533,-0.9966106414794922
1747977691117661000,20.266660888671876,9.903294563293457,2.14516544342041,-1.179063320159912
1747977691135925200,20.28492529296875,10.274182319641113,1.734796404838562,-1.1234302520751953
1747977691154191400,20.30319140625,10.569097518920898,1.415354609489441,-0.8805587291717529
1747977691172447500,20.321447509765626,10.15872859954834,1.3076776266098022,-0.7651050686836243
1747977691190704000,20.3397041015625,8.937192916870117,1.5038890838623047,-0.8769695162773132
1747977691208983800,20.35798388671875,7.302894592285156,2.1858434677124023,-0.5850451588630676
1747977691227246000,20.37624609375,6.102894306182861,2.6811578273773193,-0.251844584941864
1747977691245510100,20.39451025390625,5.5034918785095215,3.2063822746276855,-0.2309073805809021
1747977691263774700,20.412774658203126,5.894718647003174,3.328416347503662,-0.6143572330474854
1747977691282034000,20.431033935546875,6.99122953414917,3.2279176712036133,-0.8225327730178833
1747977691300301300,20.44930126953125,7.1473612785339355,3.060420274734497,-1.277169108390808
1747977691318568400,20.467568359375,6.74237585067749,3.5371899604797363,-1.5481562614440918
1747977691336831200,20.485831298828124,6.7208404541015625,3.865604877471924,-1.31365966796875
1747977691355095300,20.50409521484375,7.581658363342285,3.838087558746338,-0.6358926296234131
1747977691373359600,20.522359619140627,8.422736167907715,3.757927894592285,-0.20757736265659332
1747977691391623200,20.540623046875,8.913862228393555,3.8458642959594727,-0.45284169912338257
1747977691409889800,20.558889892578126,9.472586631774902,4.109074592590332,-0.778863787651062
1747977691428150800,20.57715087890625,9.473783493041992,4.1282172203063965,-0.4055834412574768
1747977691446411500,20.59541162109375,9.09691333770752,4.06839656829834,-0.13698910176753998
1747977691464680000,20.613679931640625,9.269196510314941,4.134199142456055,-0.1417747437953949
1747977691482945000,20.631945068359375,9.875777244567871,3.965505361557007,0.2913261651992798
1747977691501208600,20.65020849609375,10.978270530700684,3.5946178436279297,0.6951149702072144
1747977691519473000,20.668472900390626,12.003594398498535,3.4277184009552,0.4773681163787842
1747977691537732000,20.686732177734374,11.301899909973145,3.583251953125,0.43130627274513245
1747977691556000000,20.705,10.043274879455566,3.7130625247955322,0.745364248752594
1747977691574263800,20.723263916015625,10.063015937805176,3.4995031356811523,1.3573286533355713
1747977691592532500,20.741532470703124,11.842079162597656,2.7355945110321045,1.9070796966552734
1747977691610793700,20.759793701171876,13.228121757507324,2.050050735473633,1.8502501249313354
1747977691629058300,20.778058349609374,13.191631317138672,1.4895321130752563,1.3663017749786377
1747977691647322400,20.796322265625,12.293126106262207,1.4033905267715454,1.1102696657180786
1747977691665586400,20.81458642578125,10.938788414001465,1.6707884073257446,1.2664014101028442
1747977691683849200,20.83284912109375,9.442676544189453,2.200798511505127,1.6767704486846924
1747977691702115800,20.85111572265625,8.174480438232422,2.4394826889038086,1.828116536140442
1747977691720379400,20.86937939453125,7.629515171051025,2.2851455211639404,1.7575281858444214
1747977691738632700,20.8876328125,7.751548767089844,2.103889226913452,1.412961721420288
1747977691756906500,20.905906494140623,7.923233985900879,2.255235433578491,0.9822536706924438
1747977691775171600,20.924171630859377,7.709076404571533,2.593221426010132,0.7968099117279053
1747977691793431000,20.94243115234375,6.876374244689941,3.0203404426574707,1.1479566097259521
1747977691811698700,20.96069873046875,6.34217643737793,3.193819999694824,1.168893814086914
1747977691829961700,20.978961669921876,6.383452415466309,2.9796624183654785,0.6807580590248108
1747977691848231700,20.997231689453123,7.025925636291504,2.8528428077697754,0.06640082597732544
1747977691866492700,21.01549267578125,7.884350776672363,2.819941520690918,-0.13639089465141296
1747977691884752000,21.033751953125,8.534002304077148,3.0305099487304688,-0.2805584669113159
1747977691903019300,21.052019287109374,8.195417404174805,3.208176851272583,-0.494716078042984
1747977691921286400,21.070286376953124,7.6666035652160645,2.7828526496887207,-1.211964726448059
1747977691939549000,21.088548828125,7.868797302246094,3.180659532546997,-1.1736794710159302
1747977691957813000,21.10681298828125,8.581260681152344,2.9306094646453857,-0.28115665912628174
1747977691976077300,21.125077392578124,9.531808853149414,3.3535408973693848,-0.6652047038078308
1747977691994342000,21.143341796875,9.601799011230469,3.9804604053497314,-0.5258227586746216
1747977692012606000,21.16160595703125,10.195219039916992,4.191627025604248,-0.21595224738121033
1747977692030869000,21.179868896484376,10.643275260925293,3.9565322399139404,-0.15493527054786682
1747977692049134800,21.198134765625,10.317253112792969,3.696911096572876,-0.3601198196411133
1747977692067399400,21.2163994140625,10.463813781738281,3.510869026184082,-0.6143572330474854
1747977692085662500,21.234662353515624,11.041680335998535,3.4510483741760254,-0.39541393518447876
1747977692103926800,21.2529267578125,11.099705696105957,3.806980848312378,-0.6340979933738708
1747977692122190800,21.27119091796875,10.511670112609863,3.8805601596832275,-1.077966570854187
1747977692140450600,21.289450439453127,10.285548210144043,3.34995174407959,-1.0205388069152832
1747977692158716000,21.3077158203125,11.266605377197266,2.561516523361206,-0.7465606927871704
1747977692176983800,21.32598388671875,12.347562789916992,1.9010975360870361,-0.6634100675582886
1747977692195247000,21.3442470703125,12.354741096496582,1.5541383028030396,-1.0133603811264038
1747977692213512400,21.362512451171874,10.950753211975098,1.5128620862960815,-1.2305090427398682
1747977692231776300,21.3807763671875,9.55633544921875,1.690529227256775,-1.5619150400161743
1747977692250040300,21.399040283203124,8.901898384094238,1.835893154144287,-1.9764715433120728
1747977692268304400,21.417304443359374,8.767900466918945,1.7982062101364136,-2.0572292804718018
1747977692286569000,21.43556884765625,9.202198028564453,1.6205391883850098,-1.7527425289154053
1747977692304832300,21.453832275390624,9.690333366394043,1.4189438819885254,-1.1653046607971191
1747977692323098000,21.47209814453125,9.54377269744873,1.49611234664917,-0.7250252366065979
1747977692341361000,21.49036083984375,8.977272033691406,1.9262222051620483,-0.6083751320838928
1747977692359626000,21.5086259765625,8.525627136230469,2.2468605041503906,-0.5497509837150574
1747977692377890800,21.526890869140626,7.919046401977539,2.03629207611084,-0.26141586899757385
1747977692396147700,21.545147705078126,7.40399169921875,2.1475582122802734,-0.24107688665390015
1747977692414411800,21.563411865234375,7.350750923156738,2.3712873458862305,-0.7621139883995056
1747977692432684000,21.58168408203125,7.354938507080078,2.352144718170166,-1.1306086778640747
1747977692450946600,21.599946533203124,7.872984886169434,2.8247270584106445,-0.7244270443916321
1747977692469211100,21.618211181640625,7.963313579559326,3.4277184009552,0.07477571070194244
1747977692487474700,21.636474609375,7.627720355987549,3.7387852668762207,0.7363911867141724
1747977692505739500,21.654739501953124,7.860422611236572,3.4241292476654053,0.6921239495277405
1747977692524003600,21.673003662109377,8.060821533203125,2.724228620529175,-0.05563312768936157
1747977692542267400,21.691267333984374,8.805587768554688,2.183450698852539,-0.9188438653945923
1747977692560531700,21.70953173828125,10.473384857177734,1.8335003852844238,-1.5876377820968628
1747977692578793500,21.72779345703125,11.203195571899414,1.6301103830337524,-1.6564314365386963
1747977692597059800,21.746059814453126,10.403992652893066,2.076371908187866,-1.0564311742782593
1747977692615324400,21.764324462890624,9.515657424926758,2.5746772289276123,-0.3122633695602417
1747977692633588500,21.78258837890625,9.668798446655273,2.3748764991760254,0.20338992774486542
1747977692651847200,21.80084716796875,11.073983192443848,1.688734531402588,-0.02512463741004467
1747977692670118000,21.819117919921876,12.446267127990723,1.3824533224105835,-0.5353940725326538
1747977692688382200,21.83738232421875,12.30389404296875,1.5493526458740234,-0.534795880317688
1747977692706645000,21.85564501953125,11.315059661865234,2.3096721172332764,0.08015955984592438
1747977692724910300,21.873910400390624,10.100104331970215,2.6769702434539795,0.31824541091918945
1747977692743174000,21.892173828125,9.92542839050293,2.6117658615112305,1.1647064685821533
1747977692761433900,21.910433837890626,10.944770812988281,1.8897316455841064,1.4003994464874268
1747977692779701800,21.92870166015625,12.05085277557373,1.698904037475586,1.2305090427398682
1747977692797966300,21.94696630859375,12.189637184143066,1.5607185363769531,1.430907964706421
1747977692816230700,21.965230712890627,11.793624877929688,1.5912270545959473,1.5990036725997925
1747977692834489300,21.9834892578125,11.158928871154785,1.5846468210220337,1.643869161605835
1747977692852759000,22.001759033203125,9.711869239807129,1.7336000204086304,1.3603196144104004
1747977692871023400,22.0200234375,8.233702659606934,2.1918256282806396,1.3112667798995972
1747977692889287700,22.03828759765625,7.136593341827393,2.287538528442383,1.423729419708252
1747977692907547000,22.056546875,7.091728210449219,2.0027925968170166,1.0504491329193115
1747977692925814500,22.074814453125,7.778468132019043,2.2510478496551514,0.5569294691085815
1747977692944080600,22.09308056640625,8.003393173217773,2.458625316619873,0.2554338276386261
1747977692962345500,22.111345458984374,7.4500532150268555,2.528017044067383,0.30927231907844543
1747977692980608300,22.129608154296875,6.553941249847412,2.850450038909912,0.43130627274513245
1747977692998871600,22.14787158203125,6.001199245452881,3.2709884643554688,0.2847459018230438
1747977693017138400,22.166138427734374,6.244668960571289,3.492922782897949,-0.035892341285943985
1747977693035397400,22.1843974609375,6.854838848114014,3.31884503364563,-0.1094716340303421
1747977693053665300,22.202665283203125,7.073781967163086,3.108874797821045,-0.12921242415905
1747977693071929300,22.220929443359374,7.11146879196167,3.184846878051758,-0.5066801905632019
1747977693090194200,22.239194091796875,7.517650604248047,3.3918261528015137,-0.6747759580612183
1747977693108454000,22.257453857421876,8.368298530578613,3.463610887527466,-0.3326023519039154
1747977693126722300,22.275722412109374,8.924032211303711,3.527618885040283,0.22612173855304718
1747977693144986400,22.293986328125,9.263813018798828,3.5264222621917725,0.6460621356964111
1747977693163251000,22.3122509765625,9.297910690307617,3.384049415588379,0.99481600522995
1747977693181513200,22.33051318359375,9.859625816345215,3.4570305347442627,0.4055834412574768
1747977693199780400,22.3487802734375,11.10628604888916,3.754936933517456,0.01615155301988125
1747977693218043000,22.36704296875,10.762317657470703,3.5336008071899414,0.4660021960735321
1747977693236307500,22.385307373046874,11.047661781311035,2.8390841484069824,0.9332008361816406
1747977693254567000,22.40356689453125,12.836297035217285,2.393420934677124,1.0815558433532715
1747977693272835000,22.4218349609375,13.537394523620605,2.6841487884521484,0.4540380835533142
1747977693291101000,22.440100830078126,11.958130836486816,3.3373894691467285,-0.24466611444950104
1747977693309364200,22.4583642578125,10.484152793884277,3.7052857875823975,-0.45164528489112854
1747977693327628800,22.47662890625,10.268199920654297,3.19860577583313,0.05024927482008934
1747977693345893000,22.49489306640625,10.834700584411621,2.668595552444458,0.14416755735874176
1747977693364155600,22.51315576171875,11.104491233825684,2.4388844966888428,-0.30149564146995544
1747977693382418000,22.53141796875,10.534401893615723,2.0470597743988037,-0.5401797294616699
1747977693400685600,22.549685546875,9.927223205566406,1.9597218036651611,-0.7872386574745178
1747977693418944800,22.56794482421875,9.516255378723145,2.018944025039673,-0.9493523836135864
1747977693437212000,22.5862119140625,9.014959335327148,1.9022940397262573,-0.7615157961845398
1747977693455479600,22.6044794921875,8.590232849121094,1.690529227256775,-0.4504488706588745
1747977693473742300,22.622742431640624,9.071788787841797,1.4081761837005615,-0.3128615617752075
1747977693492007000,22.6410068359375,9.911669731140137,1.2951152324676514,-0.243469700217247
1747977693510270500,22.6592705078125,10.174880027770996,1.3603196144104004,-0.09511470049619675
1747977693528535600,22.67753564453125,9.130413055419922,1.5032907724380493,0.07956135272979736
1747977693546799400,22.69579931640625,7.741977691650391,1.794616937637329,0.06819544732570648
1747977693565063400,22.7140634765625,6.735795974731445,2.05603289604187,0.052043892443180084
1747977693583327500,22.732327392578124,6.689135551452637,2.2845473289489746,0.023330021649599075
1747977693601589200,22.75058935546875,7.324429988861084,2.5184457302093506,-0.18783657252788544
1747977693619857700,22.768857666015624,7.467999458312988,2.688934564590454,-0.27397820353507996
1747977693638121500,22.78712158203125,7.2867431640625,2.7565317153930664,-0.27337998151779175
1747977693656384800,22.805384765625,7.286144733428955,2.609373092651367,-0.22133609652519226
1747977693674648300,22.8236484375,7.270591735839844,2.4047868251800537,-0.37926238775253296
1747977693692913000,22.841912841796876,7.722835063934326,2.48315167427063,-1.0019944906234741
1747977693711177200,22.86017724609375,8.27258586883545,2.5944180488586426,-1.098903775215149
1747977693729437200,22.878437255859374,8.794221878051758,2.820539712905884,-0.7884350419044495
1747977693747705900,22.896705810546877,8.862417221069336,2.9527430534362793,-0.6305087804794312
1747977693765965300,22.91496533203125,8.971888542175293,2.943171739578247,-0.5784648656845093
1747977693784233000,22.93323291015625,9.18425178527832,2.334198474884033,-0.6610172390937805
1747977693802499300,22.951499267578125,9.245268821716309,2.1296122074127197,-0.6520441770553589
1747977693820762600,22.9697626953125,10.16590690612793,1.8921245336532593,-0.6305087804794312
1747977693839026700,22.988026611328124,11.890533447265625,2.1403799057006836,-0.5330012440681458
1747977693857291000,23.006291015625,13.347763061523438,2.176870346069336,-0.17288143932819366
1747977693875554600,23.024554443359374,13.00259780883789,1.7126628160476685,0.06640082597732544
1747977693893820000,23.04281982421875,11.303693771362305,1.6689938306808472,0.29012975096702576
1747977693912083200,23.061083251953125,10.423135757446289,1.8963119983673096,0.8901300430297852
1747977693930347800,23.07934765625,11.055438995361328,2.131406784057617,1.415354609489441
1747977693948607500,23.097607421875,12.058629989624023,2.0889341831207275,1.7904295921325684
1747977693966875400,23.11587548828125,12.516257286071777,1.7635103464126587,1.975873351097107
1747977693985129700,23.134129638671876,12.129218101501465,1.7132610082626343,1.8616160154342651
1747977694003403300,23.1524033203125,10.778470039367676,1.9615163803100586,1.7216359376907349
1747977694021663700,23.170663818359376,8.947361946105957,2.307877540588379,1.8693926334381104
1747977694039932400,23.188932373046875,7.7252278327941895,2.427518606185913,1.6809579133987427
1747977694058198500,23.207198486328124,7.399205684661865,2.286342144012451,1.5236297845840454
1747977694076461600,23.225461669921874,7.974679470062256,1.8939191102981567,1.2586246728897095
1747977694094725600,23.2437255859375,8.469993591308594,1.649253010749817,1.109073281288147
1747977694112990500,23.261990478515624,8.493922233581543,1.7156537771224976,0.9415757060050964
