time,seconds_elapsed,z,y,x
1747993414951759600,0.132759521484375,9.197580337524414,3.0541720390319824,-1.4989804029464722
1747993414967568000,0.14856787109375,9.273699760437012,2.8606128692626953,-1.4091758728027344
1747993414983345400,0.164345458984375,9.344208717346191,2.697192907333374,-1.2574974298477173
1747993414999092500,0.180092529296875,9.378702163696289,2.6397948265075684,-1.114375114440918
1747993415014961700,0.195961669921875,9.387060165405273,2.6421892642974854,-1.0355337858200073
1747993415030739200,0.2117392578125,9.296011924743652,2.9957399368286133,-0.8832291960716248
1747993415046547200,0.227547119140625,9.142373085021973,3.4124467372894287,-0.97088223695755
1747993415062324700,0.24332470703125,8.975749015808105,3.8064615726470947,-1.056960105895996
1747993415078163500,0.25916357421875,8.896302223205566,3.995987892150879,-1.0287234783172607
1747993415093971500,0.274971435546875,8.9462251663208,3.91770339012146,-0.8871560096740723
1747993415109810200,0.29081005859375,9.056732177734375,3.6930959224700928,-0.7120663523674011
1747993415125618200,0.3066181640625,9.163398742675781,3.4501633644104004,-0.5467063784599304
1747993415141457000,0.322456787109375,9.233183860778809,3.2760987281799316,-0.4311431050300598
1747993415157234400,0.338234375,9.275678634643555,3.1642298698425293,-0.3461521565914154
1747993415173073200,0.3540732421875,9.281286239624023,3.153118371963501,-0.29316866397857666
1747993415188881200,0.369881103515625,9.242008209228516,3.2620363235473633,-0.3388168513774872
1747993415204658700,0.38565869140625,9.1934814453125,3.373706579208374,-0.5180663466453552
1747993415220436500,0.4014365234375,9.155069351196289,3.436427116394043,-0.7389675378799438
1747993415236244500,0.417244384765625,9.133493423461914,3.4613449573516846,-0.876796305179596
1747993415252052500,0.433052490234375,9.093558311462402,3.5739474296569824,-0.8393359184265137
1747993415267830300,0.448830322265625,9.056673049926758,3.6838390827178955,-0.7592060565948486
1747993415283638300,0.46463818359375,9.026399612426758,3.772739887237549,-0.6789173483848572
1747993415299415800,0.480415771484375,8.994507789611816,3.8571321964263916,-0.6258901357650757
1747993415315224000,0.49622412109375,8.96026611328125,3.9415299892425537,-0.5902221202850342
1747993415331001600,0.512001708984375,8.918960571289062,4.037264823913574,-0.568356454372406
1747993415346779100,0.527779052734375,8.870063781738281,4.146605491638184,-0.5459150075912476
1747993415362556700,0.543556640625,8.819186210632324,4.258267879486084,-0.509404718875885
1747993415378334500,0.55933447265625,8.7748384475708,4.3537492752075195,-0.46632224321365356
1747993415394142500,0.575142578125,8.75643253326416,4.395464897155762,-0.4185238182544708
1747993415409950500,0.590950439453125,8.760110855102539,4.392079830169678,-0.3748047649860382
1747993415425758700,0.6067587890625,8.777658462524414,4.359489440917969,-0.3434450030326843
1747993415441566700,0.622566650390625,8.799771308898926,4.315714359283447,-0.3302047550678253
1747993415457405400,0.638405517578125,8.820693969726562,4.271655559539795,-0.34453776478767395
1747993415473213400,0.65421337890625,8.834745407104492,4.239373207092285,-0.3812888264656067
1747993415488991000,0.669990966796875,8.841333389282227,4.220969200134277,-0.4296846389770508
1747993415504738000,0.685738037109375,8.842620849609375,4.212007522583008,-0.4872684180736542
1747993415520546300,0.70154638671875,8.838339805603027,4.2146687507629395,-0.5391681790351868
1747993415536384800,0.717384765625,8.825884819030762,4.235185146331787,-0.5808296799659729
1747993415552193000,0.733193115234375,8.802796363830566,4.277708530426025,-0.618362545967102
1747993415568001000,0.7490009765625,8.77228832244873,4.337555885314941,-0.634785532951355
1747993415583809300,0.764809326171875,8.737062454223633,4.406991481781006,-0.6423007249832153
1747993415599586800,0.7805869140625,8.6918363571167,4.49055290222168,-0.6762428879737854
1747993415615425500,0.796425537109375,8.636237144470215,4.58635139465332,-0.7424151301383972
1747993415631264000,0.812263916015625,8.578391075134277,4.6782941818237305,-0.8337624073028564
1747993415647041500,0.82804150390625,8.52308464050293,4.756490230560303,-0.9503834843635559
1747993415662849800,0.843849853515625,8.475935935974121,4.8102264404296875,-1.0911567211151123
1747993415678657800,0.85965771484375,8.441702842712402,4.832157135009766,-1.2483206987380981
1747993415694466000,0.875466064453125,8.422446250915527,4.827179908752441,-1.3896526098251343
1747993415710243600,0.89124365234375,8.41275691986084,4.814841270446777,-1.4876902103424072
1747993415726082000,0.90708203125,8.411866188049316,4.800314903259277,-1.5387897491455078
1747993415741920800,0.922920654296875,8.415916442871094,4.794711112976074,-1.5341051816940308
1747993415757790000,0.9387900390625,8.427077293395996,4.788722991943359,-1.4909353256225586
1747993415773567500,0.9545673828125,8.436737060546875,4.784724235534668,-1.4485405683517456
1747993415789436700,0.970436767578125,8.434494972229004,4.79411506652832,-1.4304345846176147
1747993415805214200,0.986214111328125,8.419454574584961,4.815805435180664,-1.4460961818695068
1747993415821053000,1.002052978515625,8.406309127807617,4.8291497230529785,-1.4777277708053589
1747993415836830500,1.01783056640625,8.410489082336426,4.816544055938721,-1.4949846267700195
1747993415852608000,1.03360791015625,8.429858207702637,4.781368732452393,-1.4988006353378296
1747993415868416300,1.049416259765625,8.459033012390137,4.736744403839111,-1.4759429693222046
1747993415884254700,1.065254638671875,8.491337776184082,4.69496488571167,-1.4229837656021118
1747993415900032300,1.0810322265625,8.52206039428711,4.661651611328125,-1.3467999696731567
1747993415923744500,1.10474462890625,8.556145668029785,4.628185749053955,-1.2420368194580078
1747993415939613700,1.12061376953125,8.573460578918457,4.607787132263184,-1.1976845264434814
1747993415955483000,1.13648291015625,8.585089683532715,4.5912346839904785,-1.1777852773666382
1747993415971260400,1.152260498046875,8.594902038574219,4.574653625488281,-1.1707183122634888
1747993415987068400,1.168068359375,8.606841087341309,4.553727626800537,-1.164583683013916
1747993416002907100,1.1839072265625,8.61816120147705,4.535698413848877,-1.151139497756958
1747993416018745600,1.19974560546875,8.624444961547852,4.522481918334961,-1.156066656112671
1747993416034523400,1.2155234375,8.623528480529785,4.5207133293151855,-1.1697373390197754
1747993416050361900,1.23136181640625,8.624128341674805,4.5146355628967285,-1.1886390447616577
1747993416066200600,1.24720068359375,8.638819694519043,4.477749347686768,-1.2210397720336914
1747993416082008600,1.263008544921875,8.660958290100098,4.426247596740723,-1.2516039609909058
1747993416097847300,1.278847412109375,8.678885459899902,4.376110553741455,-1.3026821613311768
1747993416113686000,1.29468603515625,8.684329986572266,4.333737850189209,-1.404107928276062
1747993416129494000,1.310493896484375,8.682299613952637,4.29280424118042,-1.5361965894699097
1747993416145302000,1.326302001953125,8.684375762939453,4.249540328979492,-1.6411614418029785
1747993416161140700,1.342140625,8.696016311645508,4.204355239868164,-1.6950150728225708
1747993416176918300,1.357918212890625,8.713885307312012,4.1546173095703125,-1.725616455078125
1747993416192757000,1.373757080078125,8.734938621520996,4.090398788452148,-1.7719688415527344
1747993416208595500,1.389595458984375,8.758334159851074,4.012501239776611,-1.833524227142334
1747993416224403700,1.40540380859375,8.780795097351074,3.9454100131988525,-1.8712983131408691
1747993416240181200,1.42118115234375,8.79800796508789,3.908356189727783,-1.8682059049606323
1747993416255989200,1.4369892578125,8.80609130859375,3.8987720012664795,-1.8500595092773438
1747993416271797500,1.452797607421875,8.834542274475098,3.874905586242676,-1.7624857425689697
1747993416287575000,1.468574951171875,8.857994079589844,3.8469386100769043,-1.7051059007644653
1747993416303413800,1.484413818359375,8.876954078674316,3.8178467750549316,-1.6715630292892456
1747993416319191300,1.50019140625,8.894601821899414,3.7861757278442383,-1.6496427059173584
1747993416335060500,1.516060546875,8.91274642944336,3.7492055892944336,-1.6360931396484375
1747993416350807600,1.5318076171875,8.921158790588379,3.728553533554077,-1.6374388933181763
1747993416366615600,1.547615478515625,8.914762496948242,3.7412798404693604,-1.6432346105575562
1747993416382423800,1.563423828125,8.896241188049316,3.7808139324188232,-1.653096318244934
1747993416398201300,1.579201416015625,8.871716499328613,3.832202196121216,-1.6665120124816895
1747993416414039800,1.595039794921875,8.863666534423828,3.843667507171631,-1.6828651428222656
1747993416429878500,1.61087841796875,8.874768257141113,3.806985378265381,-1.7075520753860474
1747993416445686500,1.6266865234375,8.892363548278809,3.7565574645996094,-1.727579951286316
1747993416469398800,1.650398681640625,8.903569221496582,3.7144381999969482,-1.7606227397918701
1747993416485145900,1.666145751953125,8.895788192749023,3.7314372062683105,-1.7640066146850586
1747993416500923400,1.68192333984375,8.884321212768555,3.7682371139526367,-1.7434535026550293
1747993416516731600,1.697731689453125,8.877415657043457,3.8053665161132812,-1.6973718404769897
1747993416548439300,1.729439208984375,8.881330490112305,3.842782497406006,-1.5891449451446533
1747993416580025000,1.761025146484375,8.891590118408203,3.843322992324829,-1.5293443202972412
1747993416595802600,1.776802734375,8.895309448242188,3.8403618335723877,-1.5150883197784424
1747993416611610600,1.792610595703125,8.899004936218262,3.8353099822998047,-1.5061488151550293
1747993416627419000,1.8084189453125,8.900543212890625,3.8337466716766357,-1.5010318756103516
1747993416643257300,1.82425732421875,8.901510238647461,3.834296464920044,-1.4938781261444092
1747993416659065600,1.840065673828125,8.874738693237305,3.9046237468719482,-1.4708200693130493
1747993416674904000,1.855904052734375,8.848613739013672,3.983614683151245,-1.415361762046814
1747993416690651100,1.871651123046875,8.826563835144043,4.057437896728516,-1.3414041996002197
1747993416706520300,1.887520263671875,8.808195114135742,4.121301651000977,-1.265293836593628
1747993416722328600,1.90332861328125,8.790753364562988,4.179129123687744,-1.1949559450149536
1747993416738136600,1.919136474609375,8.784212112426758,4.204861164093018,-1.1520187854766846
1747993416753944600,1.934944580078125,8.776976585388184,4.21877908706665,-1.1562788486480713
1747993416769752800,1.9507529296875,8.746783256530762,4.272722244262695,-1.186596393585205
1747993416785591600,1.966591552734375,8.693154335021973,4.3688483238220215,-1.2298831939697266
1747993416801369000,1.982369140625,8.629779815673828,4.479598522186279,-1.2769057750701904
1747993416817177000,1.998177001953125,8.573884963989258,4.57417631149292,-1.3174962997436523
1747993416832985300,2.0139853515625,8.532868385314941,4.644552707672119,-1.3374112844467163
1747993416848732400,2.029732421875,8.501448631286621,4.707942008972168,-1.3156949281692505
1747993416872505600,2.053505615234375,8.463944435119629,4.790306091308594,-1.2589634656906128
1747993416888283100,2.069283203125,8.43946647644043,4.843337059020996,-1.2197846174240112
1747993416904091100,2.085091064453125,8.417120933532715,4.896468639373779,-1.1606296300888062
1747993416919929900,2.100929931640625,8.403891563415527,4.94153356552124,-1.0612409114837646
1747993416935737900,2.11673779296875,8.40049934387207,4.972289085388184,-0.937195897102356
1747993416951576600,2.13257666015625,8.400222778320312,4.9948883056640625,-0.8110149502754211
1747993416967323600,2.14832373046875,8.39493179321289,5.020176887512207,-0.7023761868476868
1747993416983131600,2.164131591796875,8.385103225708008,5.0498785972595215,-0.5993079543113708
1747993416998909200,2.1799091796875,8.37767505645752,5.073864459991455,-0.49076810479164124
1747993417014687000,2.19568701171875,8.382530212402344,5.077215671539307,-0.3542000949382782
1747993417030525400,2.211525390625,8.400762557983398,5.055613994598389,-0.1957872211933136
1747993417046272500,2.2272724609375,8.428372383117676,5.013172149658203,-0.03222586214542389
1747993417062141700,2.2431416015625,8.464757919311523,4.950053691864014,0.12342128902673721
1747993417077919200,2.258919189453125,8.51613712310791,4.856034278869629,0.25441592931747437
1747993417093758000,2.274758056640625,8.564230918884277,4.765038967132568,0.3445948660373688
1747993417109566000,2.29056591796875,8.585986137390137,4.720056533813477,0.41509267687797546
1747993417125374200,2.306374267578125,8.580009460449219,4.7257304191589355,0.47043707966804504
1747993417141182200,2.32218212890625,8.56544303894043,4.750048637390137,0.49051761627197266
1747993417157021000,2.33802099609375,8.560789108276367,4.759710788726807,0.47794488072395325
1747993417172859400,2.353859375,8.57504940032959,4.737306594848633,0.44368135929107666
1747993417188667600,2.369667724609375,8.608490943908691,4.680954456329346,0.3910900056362152
1747993417204506000,2.385506103515625,8.650107383728027,4.6090874671936035,0.31990018486976624
1747993417220253200,2.401253173828125,8.685598373413086,4.547285556793213,0.23012952506542206
1747993417236031000,2.417031005859375,8.707501411437988,4.509627819061279,0.11428506672382355
1747993417251839000,2.4328388671875,8.717824935913086,4.4910688400268555,-0.014753040857613087
1747993417267647000,2.44864697265625,8.725359916687012,4.474358081817627,-0.1364285796880722
1747993417283485700,2.464485595703125,8.741555213928223,4.438321590423584,-0.2385333776473999
1747993417299263200,2.48026318359375,8.769850730895996,4.377678871154785,-0.309906929731369
1747993417315132400,2.49613232421875,8.8058443069458,4.302064418792725,-0.3460320830345154
1747993417330940700,2.511940673828125,8.843226432800293,4.223760604858398,-0.35717085003852844
1747993417346748700,2.527748779296875,8.874820709228516,4.156210422515869,-0.3658751845359802
1747993417362587400,2.54358740234375,8.894340515136719,4.11130952835083,-0.39778679609298706
1747993417378425900,2.55942578125,8.904845237731934,4.083388805389404,-0.44728463888168335
1747993417394173000,2.5751728515625,8.916409492492676,4.0542144775390625,-0.4810192883014679
1747993417409981200,2.590981201171875,8.925268173217773,4.029021263122559,-0.5262764692306519
1747993417425789200,2.6067890625,8.929425239562988,4.011826515197754,-0.5839556455612183
1747993417441628000,2.6226279296875,8.934606552124023,3.9928789138793945,-0.632541298866272
1747993417457436000,2.638435791015625,8.942276954650879,3.970963954925537,-0.6614466905593872
1747993417473213400,2.65421337890625,8.952486038208008,3.945204257965088,-0.6773080229759216
1747993417489021700,2.670021728515625,8.96254825592041,3.921311855316162,-0.682952880859375
1747993417504829700,2.68582958984375,8.968281745910645,3.9086263179779053,-0.6804034113883972
1747993417520576800,2.70157666015625,8.967798233032227,3.9121603965759277,-0.666318953037262
1747993417536415500,2.71741552734375,8.96215534210205,3.9283440113067627,-0.6467447876930237
1747993417552193000,2.733193115234375,8.953582763671875,3.95105242729187,-0.6268407702445984
1747993417568001000,2.7490009765625,8.942559242248535,3.9776978492736816,-0.6155775189399719
1747993417583809300,2.764809326171875,8.926746368408203,4.011555194854736,-0.625316321849823
1747993417599647700,2.780647705078125,8.90445327758789,4.054580211639404,-0.6644405722618103
1747993417615425500,2.796425537109375,8.878156661987305,4.101721286773682,-0.7242947220802307
1747993417631172600,2.812172607421875,8.850369453430176,4.149764537811279,-0.7879067063331604
1747993417646980600,2.827980712890625,8.820830345153809,4.201971054077148,-0.8406978845596313
1747993417670692900,2.85169287109375,8.765494346618652,4.313940048217773,-0.8523109555244446
1747993417686500900,2.8675009765625,8.727059364318848,4.388310432434082,-0.8669270277023315
1747993417702308900,2.883308837890625,8.696138381958008,4.440548419952393,-0.9105491638183594
1747993417718056000,2.899055908203125,8.680062294006348,4.4623003005981445,-0.9564439654350281
1747993417733925000,2.914925048828125,8.682825088500977,4.444063186645508,-1.014520287513733
1747993417749733400,2.9307333984375,8.706036567687988,4.379955768585205,-1.091467022895813
1747993417773415000,2.954414794921875,8.751969337463379,4.259049892425537,-1.1974631547927856
1747993417789253600,2.970253662109375,8.772212028503418,4.20479154586792,-1.2403289079666138
1747993417805031200,2.98603125,8.776188850402832,4.195937156677246,-1.2421791553497314
1747993417820869600,3.00186962890625,8.766399383544922,4.229825019836426,-1.1954928636550903
1747993417836708400,3.017708251953125,8.75958251953125,4.264791965484619,-1.1187735795974731
1747993417852516400,3.033516357421875,8.771294593811035,4.254688262939453,-1.064155101776123
1747993417868355000,3.04935498046875,8.800154685974121,4.194099426269531,-1.066389560699463
1747993417884163300,3.065163330078125,8.82568359375,4.1274566650390625,-1.1143633127212524
1747993417899971300,3.080971435546875,8.830780982971191,4.097266674041748,-1.18325936794281
1747993417915810000,3.09681005859375,8.821481704711914,4.102205276489258,-1.2344082593917847
1747993417931648500,3.1126484375,8.812478065490723,4.11884880065918,-1.2432661056518555
1747993417947426000,3.128426025390625,8.813241004943848,4.121960639953613,-1.2274419069290161
1747993417963203800,3.144203857421875,8.823702812194824,4.105116367340088,-1.2085846662521362
1747993417979042300,3.160042236328125,8.84089183807373,4.073174953460693,-1.1909124851226807
1747993417994881000,3.175881103515625,8.85245132446289,4.0568389892578125,-1.1604101657867432
1747993418010658600,3.191658447265625,8.852205276489258,4.0709991455078125,-1.1116735935211182
1747993418026436000,3.20743603515625,8.845501899719238,4.099891185760498,-1.0575323104858398
1747993418042213600,3.223213623046875,8.841291427612305,4.121244430541992,-1.0086052417755127
1747993418058022000,3.23902197265625,8.837294578552246,4.13715124130249,-0.9780601859092712
1747993418073860400,3.2548603515625,8.836162567138672,4.14320707321167,-0.9625250697135925
1747993418089668600,3.270668701171875,8.837044715881348,4.144054889678955,-0.9507051706314087
1747993418105446100,3.286446044921875,8.837936401367188,4.145868301391602,-0.9343698024749756
1747993418121223700,3.3022236328125,8.840876579284668,4.149709224700928,-0.8883671760559082
1747993418136970800,3.317970703125,8.851255416870117,4.143306732177734,-0.8115873336791992
1747993418152748300,3.333748291015625,8.864960670471191,4.129830360412598,-0.7262014150619507
1747993418168587000,3.3495869140625,8.867391586303711,4.133633613586426,-0.6729252934455872
1747993418184364500,3.365364501953125,8.865580558776855,4.141794681549072,-0.6460704207420349
1747993418200172800,3.3811728515625,8.866565704345703,4.143664360046387,-0.620040237903595
1747993418216011300,3.39701123046875,8.86877155303955,4.143131732940674,-0.5913882851600647
1747993418231850000,3.41285009765625,8.870606422424316,4.141086101531982,-0.5780490636825562
1747993418247688700,3.428688720703125,8.880181312561035,4.122798442840576,-0.561517596244812
1747993418263435800,3.444435791015625,8.907927513122559,4.065025806427002,-0.5429270267486572
1747993418279213300,3.46021337890625,8.916038513183594,4.045200347900391,-0.5576752424240112
1747993418295051800,3.4760517578125,8.895614624023438,4.08452033996582,-0.595918595790863
1747993418310829600,3.49182958984375,8.869712829589844,4.138640880584717,-0.6084767580032349
1747993418326637600,3.507637451171875,8.844719886779785,4.192203521728516,-0.6055951118469238
1747993418342445600,3.523445556640625,8.82809829711914,4.222663402557373,-0.6357510089874268
1747993418358223400,3.539223388671875,8.82381820678711,4.222099781036377,-0.6960541009902954
1747993418374092300,3.55509228515625,8.831954002380371,4.197046279907227,-0.7428233027458191
1747993418389870000,3.5708701171875,8.845718383789062,4.163331985473633,-0.7683179378509521
1747993418405708500,3.58670849609375,8.858430862426758,4.133389949798584,-0.7833728790283203
1747993418421516800,3.602516845703125,8.867073059082031,4.111483573913574,-0.8006818890571594
1747993418437294300,3.61829443359375,8.870855331420898,4.099038124084473,-0.8223210573196411
1747993418453072000,3.63407177734375,8.904396057128906,4.021851539611816,-0.8407363891601562
1747993418468910600,3.64991064453125,8.896777153015137,4.034465312957764,-0.8607079386711121
1747993418484749000,3.6657490234375,8.892358779907227,4.043137073516846,-0.865675151348114
1747993418500526800,3.68152685546875,8.896261215209961,4.0394415855407715,-0.8425149321556091
1747993418516334800,3.6973349609375,8.901734352111816,4.035462856292725,-0.8028431534767151
1747993418532142800,3.713142822265625,8.900115966796875,4.0449371337890625,-0.7725380659103394
1747993418547981600,3.728981689453125,8.887138366699219,4.0714240074157715,-0.7827290892601013
1747993418563759000,3.744759033203125,8.867326736450195,4.105327129364014,-0.828977644443512
1747993418579567400,3.7605673828125,8.849512100219727,4.1303582191467285,-0.8925618529319763
1747993418595375400,3.776375244140625,8.841110229492188,4.1341352462768555,-0.9560711979866028
1747993418611183400,3.792183349609375,8.852258682250977,4.097592830657959,-1.0087772607803345
1747993418627022000,3.80802197265625,8.884462356567383,4.015514373779297,-1.054689884185791
1747993418642830000,3.823830078125,8.92949104309082,3.904714345932007,-1.0898576974868774
1747993418658668800,3.839668701171875,8.96776008605957,3.8120696544647217,-1.1035336256027222
1747993418674476800,3.855476806640625,8.990870475769043,3.7619941234588623,-1.0872141122817993
1747993418690254600,3.871254638671875,9.003235816955566,3.745612859725952,-1.040436029434204
1747993418706001700,3.887001708984375,9.016581535339355,3.731233596801758,-0.97444748878479
1747993418721840000,3.902840087890625,9.040437698364258,3.69185209274292,-0.9006078243255615
1747993418737618000,3.918617919921875,9.073148727416992,3.6269547939300537,-0.8327995538711548
1747993418753426000,3.934426025390625,9.108125686645508,3.549520969390869,-0.7831655144691467
1747993418769234000,3.95023388671875,9.138548851013184,3.4785189628601074,-0.7464728355407715
1747993418785072600,3.96607275390625,9.157139778137207,3.4325757026672363,-0.7311679124832153
1747993418800880600,3.981880615234375,9.165472030639648,3.411210536956787,-0.7267464995384216
1747993418816627700,3.997627685546875,9.166109085083008,3.4083144664764404,-0.7322728037834167
1747993418832497000,4.013496826171875,9.164826393127441,3.409355878829956,-0.7433962821960449
1747993418848305200,4.02930517578125,9.163841247558594,3.4063496589660645,-0.7688872814178467
1747993418864021500,4.045021484375,9.163544654846191,3.405595064163208,-0.7757338881492615
1747993418879860200,4.060860107421875,9.162901878356934,3.4042418003082275,-0.7891450524330139
1747993418903572500,4.084572509765625,9.16339111328125,3.344604969024658,-1.0080983638763428
1747993418919441400,4.10044140625,9.16037368774414,3.3116211891174316,-1.136265516281128
1747993418935219200,4.11621923828125,9.154945373535156,3.27912974357605,-1.2667518854141235
1747993418958992400,4.139992431640625,9.1514892578125,3.261075735092163,-1.3364213705062866
1747993418974800400,4.15580029296875,9.152796745300293,3.2596590518951416,-1.3309119939804077
1747993418990669600,4.171669677734375,9.151399612426758,3.2569165229797363,-1.3471320867538452
1747993419014381800,4.1953818359375,9.155313491821289,3.231860399246216,-1.3804700374603271
1747993419030189800,4.21118994140625,9.159327507019043,3.2184219360351562,-1.3852331638336182
1747993419045937000,4.22693701171875,9.162899017333984,3.2064855098724365,-1.3892916440963745
1747993419061775600,4.242775634765625,9.162686347961426,3.1897003650665283,-1.428765892982483
1747993419077583600,4.25858349609375,9.167094230651855,3.14033842086792,-1.5076661109924316
1747993419093391600,4.2743916015625,9.181517601013184,3.0543196201324463,-1.594135046005249
1747993419109200000,4.290199951171875,9.20485782623291,2.9551968574523926,-1.6455376148223877
1747993419125008000,4.3060078125,9.231143951416016,2.861154317855835,-1.6643785238265991
1747993419140877000,4.321876953125,9.25350284576416,2.79280424118042,-1.6562950611114502
1747993419156685000,4.33768505859375,9.26799201965332,2.7560014724731445,-1.6368176937103271
1747993419172554200,4.35355419921875,9.270793914794922,2.7594521045684814,-1.6149864196777344
1747993419188332000,4.36933203125,9.264777183532715,2.7910048961639404,-1.595177173614502
1747993419204140000,4.38514013671875,9.253416061401367,2.8357672691345215,-1.5821222066879272
1747993419219978800,4.400978759765625,9.240694046020508,2.8723981380462646,-1.5903748273849487
1747993419235786800,4.416786865234375,9.226785659790039,2.8978195190429688,-1.6246395111083984
1747993419251656000,4.432656005859375,9.2096529006958,2.9244627952575684,-1.6733797788619995
1747993419267433500,4.44843359375,9.1929931640625,2.949601173400879,-1.7202085256576538
1747993419283272200,4.464272216796875,9.183615684509277,2.9560394287109375,-1.7588173151016235
1747993419299110700,4.480110595703125,9.18734359741211,2.9346981048583984,-1.7750062942504883
1747993419314888200,4.49588818359375,9.201119422912598,2.9029698371887207,-1.7557182312011719
1747993419330666000,4.511666015625,9.216704368591309,2.8826212882995605,-1.7068229913711548
1747993419346443500,4.527443603515625,9.229957580566406,2.886711597442627,-1.6263976097106934
1747993419362282000,4.543281982421875,9.239148139953613,2.909008502960205,-1.5317314863204956
1747993419378090200,4.55909033203125,9.242846488952637,2.944798469543457,-1.43817138671875
1747993419393867800,4.57486767578125,9.2439546585083,2.981936454772949,-1.3519437313079834
1747993419409675800,4.59067578125,9.24503231048584,3.0124411582946777,-1.274739384651184
1747993419425484000,4.606484130859375,9.247727394104004,3.027567148208618,-1.2181007862091064
1747993419441292000,4.6222919921875,9.248689651489258,3.0398292541503906,-1.1796494722366333
1747993419457100300,4.638100341796875,9.246281623840332,3.056994676589966,-1.1538885831832886
1747993419472908300,4.653908203125,9.243416786193848,3.072005033493042,-1.136843204498291
1747993419488716500,4.669716552734375,9.245222091674805,3.071279764175415,-1.1240527629852295
1747993419504524500,4.685524658203125,9.249505043029785,3.0637669563293457,-1.109224557876587
1747993419520332500,4.70133251953125,9.2481107711792,3.0679755210876465,-1.1092158555984497
1747993419544014300,4.725014404296875,9.229219436645508,3.1039586067199707,-1.1650532484054565
1747993419559852800,4.740852783203125,9.212101936340332,3.1372897624969482,-1.2103646993637085
1747993419575630600,4.756630615234375,9.199239730834961,3.1661155223846436,-1.2329208850860596
1747993419591408000,4.772408203125,9.192644119262695,3.189218759536743,-1.2225255966186523
1747993419607246600,4.78824658203125,9.188580513000488,3.2121992111206055,-1.1925427913665771
1747993419623024400,4.8040244140625,9.182031631469727,3.241401195526123,-1.1636154651641846
1747993419638862800,4.81986279296875,9.172916412353516,3.275160312652588,-1.1407535076141357
1747993419654671000,4.835671142578125,9.16250228881836,3.310823917388916,-1.121328353881836
1747993419670509600,4.851509521484375,9.147659301757812,3.3617820739746094,-1.0904743671417236
1747993419686317800,4.86731787109375,9.12675952911377,3.429093837738037,-1.0554454326629639
1747993419702125800,4.883125732421875,9.100632667541504,3.504821538925171,-1.0320366621017456
1747993419717934000,4.89893408203125,9.075901985168457,3.570608139038086,-1.0242811441421509
1747993419733742000,4.9147421875,9.058160781860352,3.6159439086914062,-1.0222790241241455
1747993419749580800,4.930580810546875,9.048992156982422,3.639023780822754,-1.0215909481048584
1747993419765358300,4.9463583984375,9.045927047729492,3.6410675048828125,-1.0412567853927612
1747993419781166300,4.962166259765625,9.0453462600708,3.6305336952209473,-1.0822707414627075
1747993419796944000,4.97794384765625,9.04101276397705,3.625490665435791,-1.1341500282287598
1747993419812721700,4.9937216796875,9.032776832580566,3.6325247287750244,-1.1764799356460571
1747993419828529700,5.00952978515625,9.028226852416992,3.637448310852051,-1.1960232257843018
1747993419844368400,5.025368408203125,9.035862922668457,3.6222996711730957,-1.1842763423919678
1747993419860206800,5.041206787109375,9.056488990783691,3.5819647312164307,-1.1488847732543945
1747993419876015000,5.05701513671875,9.076796531677246,3.5404882431030273,-1.1167391538619995
1747993419891823000,5.072822998046875,9.080348014831543,3.5298385620117188,-1.1215656995773315
1747993419907692300,5.0886923828125,9.0628662109375,3.557645797729492,-1.1738837957382202
1747993419923469800,5.1044697265625,9.036714553833008,3.599278450012207,-1.2463421821594238
1747993419939308500,5.12030859375,9.009490013122559,3.6412060260772705,-1.319506287574768
1747993419955147000,5.13614697265625,8.986418724060059,3.675063371658325,-1.3815128803253174
1747993419970955300,5.151955322265625,8.972001075744629,3.686511993408203,-1.4433348178863525
1747993419986702300,5.167702392578125,8.966821670532227,3.6717281341552734,-1.5115933418273926
1747993420010445000,5.191445068359375,8.965868949890137,3.635389804840088,-1.6023504734039307
1747993420026222600,5.20722265625,8.96185302734375,3.632835865020752,-1.6303619146347046
1747993420042030600,5.223030517578125,8.956061363220215,3.6500232219696045,-1.6237843036651611
1747993420057838800,5.2388388671875,8.950705528259277,3.6756234169006348,-1.5953220129013062
1747993420073646800,5.254646728515625,8.94888687133789,3.6921186447143555,-1.5671871900558472
1747993420089394000,5.270393798828125,8.95107364654541,3.688717842102051,-1.562701940536499
1747993420105232600,5.286232666015625,8.952465057373047,3.6826019287109375,-1.569138526916504
1747993420121040600,5.30204052734375,8.949210166931152,3.6888742446899414,-1.5729683637619019
1747993420136818200,5.317818115234375,8.942008018493652,3.711393117904663,-1.5609108209609985
1747993420152626400,5.33362646484375,8.934531211853027,3.7436320781707764,-1.5263562202453613
1747993420168465000,5.34946484375,8.934369087219238,3.7647705078125,-1.4744304418563843
1747993420184303600,5.3653037109375,8.94482135772705,3.7623400688171387,-1.4161101579666138
1747993420207954700,5.38895458984375,8.970708847045898,3.7344186305999756,-1.3232172727584839
1747993420223824000,5.404823974609375,8.979347229003906,3.727433681488037,-1.2837225198745728
1747993420239601400,5.420601318359375,8.971922874450684,3.7442901134490967,-1.2865744829177856
1747993420255409700,5.43640966796875,8.947897911071777,3.7852063179016113,-1.3333163261413574
1747993420271217700,5.4522177734375,8.911358833312988,3.847001314163208,-1.3995212316513062
1747993420286995200,5.4679951171875,8.869588851928711,3.91565203666687,-1.4725720882415771
1747993420302834000,5.483833984375,8.830488204956055,3.9769787788391113,-1.5415939092636108
1747993420318672400,5.49967236328125,8.805754661560059,4.007161617279053,-1.603661298751831
1747993420334511000,5.515510986328125,8.79824161529541,4.0032958984375,-1.6537725925445557
1747993420350288600,5.53128857421875,8.80685806274414,3.977207660675049,-1.6707674264907837
1747993420366127400,5.54712744140625,8.820487022399902,3.9564881324768066,-1.6479084491729736
1747993420381965800,5.5629658203125,8.830000877380371,3.94555401802063,-1.6229852437973022
1747993420397743600,5.57874365234375,8.832280158996582,3.936906337738037,-1.6315608024597168
1747993420413582000,5.59458203125,8.829930305480957,3.922222375869751,-1.6789569854736328
1747993420429390300,5.610390380859375,8.828812599182129,3.8971285820007324,-1.7420806884765625
1747993420445137400,5.626137451171875,8.83017635345459,3.865145683288574,-1.805280089378357
1747993420461006600,5.642006591796875,8.830117225646973,3.8376963138580322,-1.8631993532180786
1747993420476814600,5.657814697265625,8.823395729064941,3.828925371170044,-1.912432312965393
1747993420492653300,5.6736533203125,8.800782203674316,3.8596837520599365,-1.9543430805206299
1747993420508461300,5.68946142578125,8.766408920288086,3.924077272415161,-1.9804219007492065
1747993420524238800,5.70523876953125,8.746594429016113,3.9706060886383057,-1.975289225578308
1747993420540108000,5.72110791015625,8.756566047668457,3.9712274074554443,-1.9293259382247925
1747993420555885600,5.736885498046875,8.787479400634766,3.9330344200134277,-1.8659707307815552
1747993420571663000,5.7526630859375,8.817049026489258,3.890899896621704,-1.8140897750854492
1747993420587501800,5.768501708984375,8.8305025100708,3.8772995471954346,-1.7774033546447754
1747993420603340500,5.784340576171875,8.833927154541016,3.8848187923431396,-1.7436484098434448
1747993420619118000,5.8001181640625,8.835332870483398,3.892277240753174,-1.7197285890579224
1747993420634987300,5.8159873046875,8.846435546875,3.876912832260132,-1.6972068548202515
1747993420650795300,5.831795166015625,8.87156867980957,3.83038592338562,-1.6714699268341064
1747993420666603300,5.847603271484375,8.913032531738281,3.7502760887145996,-1.632074236869812
1747993420682381000,5.863381103515625,8.965554237365723,3.6440627574920654,-1.5843088626861572
1747993420698219500,5.879219482421875,9.01842975616455,3.5339972972869873,-1.5327047109603882
1747993420713966600,5.894966552734375,9.06273365020752,3.4426443576812744,-1.4783283472061157
1747993420729805300,5.910805419921875,9.098594665527344,3.378748655319214,-1.4035773277282715
1747993420745613300,5.92661328125,9.133009910583496,3.329690456390381,-1.292933464050293
1747993420761452000,5.9424521484375,9.168034553527832,3.280287504196167,-1.1650110483169556
1747993420777290800,5.958290771484375,9.20517635345459,3.2194647789001465,-1.03449285030365
1747993420793129200,5.974129150390625,9.244075775146484,3.1407856941223145,-0.9235334992408752
1747993420808906800,5.98990673828125,9.281353950500488,3.051431655883789,-0.8459481596946716
1747993420824715000,6.005715087890625,9.309224128723145,2.9787800312042236,-0.7972530126571655
1747993420840523000,6.02152294921875,9.322859764099121,2.9485509395599365,-0.7488111853599548
1747993420856392200,6.03739208984375,9.322797775268555,2.9575133323669434,-0.713397741317749
1747993420872169700,6.053169677734375,9.313835144042969,2.984283685684204,-0.7189717888832092
1747993420888008400,6.069008544921875,9.299153327941895,3.0171844959259033,-0.7698958516120911
1747993420903816400,6.08481640625,9.279935836791992,3.05808687210083,-0.8374209403991699
1747993420927528700,6.10852880859375,9.24468994140625,3.151914596557617,-0.8783693313598633
1747993420943336700,6.124336669921875,9.222085952758789,3.2092812061309814,-0.9077633023262024
1747993420959114500,6.140114501953125,9.200896263122559,3.2576990127563477,-0.9493606090545654
1747993420974922500,6.155922607421875,9.184133529663086,3.2941272258758545,-0.9852942824363708
1747993420990730500,6.17173046875,9.170435905456543,3.3308801651000977,-0.9893072843551636
1747993421006538800,6.187538818359375,9.154574394226074,3.3825628757476807,-0.9604284167289734
1747993421022377200,6.203377197265625,9.127890586853027,3.466250419616699,-0.9149367213249207
1747993421038216000,6.2192158203125,9.094444274902344,3.5532925128936768,-0.914108157157898
1747993421053993500,6.234993408203125,9.057438850402832,3.6239027976989746,-1.000253438949585
1747993421069801700,6.2508017578125,9.01065444946289,3.6972856521606445,-1.1439297199249268
1747993421085640200,6.26664013671875,8.952435493469238,3.7864716053009033,-1.2988128662109375
1747993421101417700,6.282417724609375,8.8870267868042,3.891976833343506,-1.429565191268921
1747993421117195500,6.298195556640625,8.820476531982422,4.003760814666748,-1.5295345783233643
1747993421133034000,6.314033935546875,8.76503849029541,4.0973124504089355,-1.5989110469818115
1747993421148842200,6.32984228515625,8.731569290161133,4.152349948883057,-1.639540433883667
1747993421164650200,6.345650146484375,8.718610763549805,4.165610313415527,-1.6744883060455322
1747993421180427800,6.361427734375,8.708087921142578,4.1735076904296875,-1.709216594696045
1747993421196236000,6.377236083984375,8.698481559753418,4.184343338012695,-1.7314950227737427
1747993421212013600,6.393013671875,8.695940017700195,4.189579010009766,-1.7316049337387085
1747993421227821600,6.408821533203125,8.71413803100586,4.167227268218994,-1.6936336755752563
1747993421243599400,6.424599365234375,8.761852264404297,4.098721504211426,-1.6127043962478638
1747993421259407400,6.440407470703125,8.842103958129883,3.9741592407226562,-1.481099247932434
1747993421283089000,6.4640888671875,9.012664794921875,3.621483087539673,-1.3517102003097534
1747993421298897200,6.479897216796875,9.057687759399414,3.364443778991699,-1.6760674715042114
1747993421314644200,6.495644287109375,9.044049263000488,3.213770627975464,-2.0117712020874023
1747993421330513400,6.511513427734375,8.989763259887695,3.1586410999298096,-2.3189520835876465
1747993421346291000,6.527291015625,8.899914741516113,3.1801421642303467,-2.6169819831848145
1747993421362068500,6.543068359375,8.772236824035645,3.264617443084717,-2.9258384704589844
1747993421377876500,6.55887646484375,8.623692512512207,3.35689115524292,-3.2455484867095947
1747993421393684700,6.574684814453125,8.480276107788086,3.3971316814422607,-3.5657825469970703
1747993421409554000,6.590553955078125,8.360514640808105,3.3842380046844482,-3.8495612144470215
1747993421425331500,6.60633154296875,8.263276100158691,3.3691341876983643,-4.066643714904785
1747993421441170000,6.622169921875,8.21159553527832,3.3790743350982666,-4.161964416503906
1747993421456978200,6.637978271484375,8.220306396484375,3.385390281677246,-4.139576435089111
1747993421472755700,6.653755615234375,8.276869773864746,3.342050313949585,-4.061343193054199
1747993421488594400,6.669594482421875,8.35738468170166,3.2521746158599854,-3.9683594703674316
1747993421504372000,6.6853720703125,8.44943618774414,3.1201422214508057,-3.8784191608428955
1747993421520180000,6.701179931640625,8.524918556213379,2.977283239364624,-3.825169801712036
1747993421535927000,6.716927001953125,8.574682235717773,2.8502848148345947,-3.810654401779175
1747993421551765800,6.732765869140625,8.608899116516113,2.754319906234741,-3.8040735721588135
1747993421567604500,6.7486044921875,8.640584945678711,2.6720149517059326,-3.790912628173828
1747993421583382000,6.764382080078125,8.679040908813477,2.582690715789795,-3.764883041381836
1747993421599190000,6.78018994140625,8.721187591552734,2.490967035293579,-3.7291245460510254
1747993421614998300,6.795998291015625,8.754858016967773,2.4145233631134033,-3.700395345687866
1747993421630806300,6.81180615234375,8.756624221801758,2.3842217922210693,-3.7158327102661133
1747993421646675500,6.827675537109375,8.714387893676758,2.417496681213379,-3.792827844619751
1747993421662453000,6.843452880859375,8.634296417236328,2.4964985847473145,-3.9226021766662598
1747993421678291700,6.859291748046875,8.51150131225586,2.6063919067382812,-4.114786148071289
1747993421694099700,6.875099609375,8.355621337890625,2.732550621032715,-4.3459343910217285
1747993421709907700,6.89090771484375,8.177267074584961,2.8531157970428467,-4.600264549255371
1747993421725746400,6.906746337890625,8.011462211608887,2.947983980178833,-4.826618671417236
1747993421741585200,6.922585205078125,7.881932735443115,3.0057361125946045,-5.001107215881348
1747993421757393200,6.93839306640625,7.793430328369141,3.0334465503692627,-5.121623992919922
1747993421773201400,6.954201416015625,7.735304832458496,3.0395586490631104,-5.205432891845703
1747993421789009400,6.970009521484375,7.6888861656188965,3.045454263687134,-5.270353317260742
1747993421804848000,6.98584814453125,7.643673419952393,3.0765833854675293,-5.317825794219971
1747993421820625700,7.001625732421875,7.610607147216797,3.1388370990753174,-5.328860759735107
1747993421836433700,7.01743359375,7.579761981964111,3.2233080863952637,-5.322394371032715
1747993421852180700,7.0331806640625,7.5306925773620605,3.3221659660339355,-5.331254959106445
1747993421867927800,7.048927734375,7.4520392417907715,3.4121320247650146,-5.3846869468688965
1747993421883797000,7.064796875,7.350656986236572,3.4731578826904297,-5.484105587005615
1747993421899635700,7.0806357421875,7.2250847816467285,3.504145622253418,-5.629342079162598
1747993421915443700,7.096443603515625,7.0578179359436035,3.538139581680298,-5.817144870758057
1747993421931221200,7.11222119140625,6.86013126373291,3.600389242172241,-6.012170314788818
1747993421947029500,7.128029541015625,6.666692733764648,3.673963785171509,-6.1828460693359375
1747993421962868000,7.143867919921875,6.497077941894531,3.7101387977600098,-6.339813232421875
1747993421978676200,7.15967626953125,6.371944427490234,3.650742530822754,-6.499291896820068
1747993421994514700,7.1755146484375,6.29741096496582,3.4936978816986084,-6.656356334686279
1747993422018196500,7.199196533203125,6.249589443206787,3.190152406692505,-6.85098123550415
1747993422033974000,7.21497412109375,6.276118755340576,3.0372543334960938,-6.8960723876953125
1747993422049812700,7.230812744140625,6.399068832397461,2.9230031967163086,-6.832155704498291
1747993422065620700,7.246620849609375,6.6308913230896,2.8377554416656494,-6.644457817077637
1747993422081490000,7.262489990234375,6.860910415649414,2.7775325775146484,-6.433008193969727
1747993422097267500,7.278267333984375,7.0264410972595215,2.7396092414855957,-6.268496513366699
1747993422128914200,7.3099140625,7.143623352050781,2.6762442588806152,-6.162527084350586
1747993422144661200,7.3256611328125,7.159968852996826,2.6307435035705566,-6.163149356842041
1747993422160500000,7.3415,7.192864418029785,2.5868148803710938,-6.143409252166748
1747993422176308000,7.357307861328125,7.254426956176758,2.557145357131958,-6.083148002624512
1747993422192116000,7.373115966796875,7.303308486938477,2.543185234069824,-6.030280590057373
1747993422207924200,7.38892431640625,7.322422504425049,2.566481828689575,-5.997139930725098
1747993422223732200,7.404732177734375,7.308480262756348,2.6208863258361816,-5.99061393737793
1747993422239479300,7.420479248046875,7.287881374359131,2.6839022636413574,-5.987806797027588
1747993422255318000,7.436318115234375,7.297743797302246,2.7322120666503906,-5.953851699829102
1747993422271126000,7.4521259765625,7.365455150604248,2.7449140548706055,-5.863949775695801
1747993422286873000,7.467873046875,7.474428653717041,2.731374740600586,-5.730873107910156
1747993422302651000,7.48365087890625,7.577840328216553,2.7046749591827393,-5.606377601623535
1747993422318519800,7.499519775390625,7.644880294799805,2.7164576053619385,-5.508814811706543
1747993422334328000,7.515328125,7.654304504394531,2.780038833618164,-5.463826656341553
1747993422350105600,7.531105712890625,7.6183929443359375,2.88958740234375,-5.457175254821777
1747993422365913600,7.54691357421875,7.553821563720703,3.030679941177368,-5.470388889312744
1747993422381691400,7.56269140625,7.491535663604736,3.1820123195648193,-5.470107555389404
1747993422397529900,7.57852978515625,7.462194919586182,3.331678867340088,-5.420881271362305
1747993422413307400,7.594307373046875,7.485790252685547,3.472379207611084,-5.298671245574951
1747993422429115600,7.61011572265625,7.55319881439209,3.5984139442443848,-5.11575984954834
1747993422444923600,7.625923583984375,7.645182132720947,3.7125437259674072,-4.892708778381348
1747993422460762400,7.641762451171875,7.738521099090576,3.822972536087036,-4.65516471862793
1747993422476662000,7.657662109375,7.818367958068848,3.9376330375671387,-4.4202446937561035
1747993422492470000,7.673469970703125,7.875402450561523,4.065615653991699,-4.1975226402282715
1747993422508278300,7.6892783203125,7.903995037078857,4.206112861633301,-4.000733852386475
1747993422524116700,7.70511669921875,7.918145179748535,4.335723876953125,-3.830777645111084
1747993422539955500,7.72095556640625,7.931363582611084,4.430330753326416,-3.6926989555358887
1747993422555733000,7.73673291015625,7.942642688751221,4.489658355712891,-3.5955233573913574
1747993422571602200,7.752602294921875,7.951818943023682,4.526080131530762,-3.5289604663848877
1747993422587379700,7.768379638671875,7.964478969573975,4.5445380210876465,-3.476297378540039
1747993422603188000,7.78418798828125,7.991772651672363,4.541761875152588,-3.4167754650115967
1747993422618996000,7.799995849609375,8.033315658569336,4.522278308868408,-3.344432830810547
1747993422634804000,7.815803955078125,8.084174156188965,4.49114990234375,-3.2628350257873535
1747993422650581800,7.831581787109375,8.132673263549805,4.463649272918701,-3.1789703369140625
1747993422666389800,7.8473896484375,8.174285888671875,4.439157485961914,-3.10569167137146
1747993422682197800,7.86319775390625,8.208860397338867,4.420770645141602,-3.040030002593994
1747993422697975600,7.8789755859375,8.463415145874023,3.2934412956237793,-3.7005720138549805
1747993422713814000,7.89481396484375,8.527400016784668,2.884716749191284,-3.8900184631347656
1747993422729683200,7.91068310546875,8.57491683959961,2.901674509048462,-3.7711374759674072
1747993422745522000,7.92652197265625,8.615511894226074,2.9283788204193115,-3.6562187671661377
1747993422761330000,7.942329833984375,8.635795593261719,2.938190460205078,-3.6000635623931885
1747993422777168600,7.958168701171875,8.646293640136719,2.9963693618774414,-3.526153564453125
1747993422793007000,7.974007080078125,8.64062786102295,3.0727319717407227,-3.473940372467041
1747993422808815400,7.9898154296875,8.622570991516113,3.1630666255950928,-3.4375386238098145
1747993422824593000,8.005593017578125,8.597992897033691,3.2547225952148438,-3.413456678390503
1747993422840401000,8.02140087890625,8.57287311553955,3.3397672176361084,-3.394435167312622
1747993422856148000,8.03714794921875,8.552220344543457,3.4143362045288086,-3.372272491455078
1747993422872017200,8.05301708984375,8.536690711975098,3.476572036743164,-3.347947120666504
1747993422887794700,8.068794677734376,8.524402618408203,3.528641700744629,-3.3247017860412598
1747993422903572500,8.084572509765625,8.511408805847168,3.5753378868103027,-3.308060884475708
1747993422919380500,8.10038037109375,8.49797534942627,3.6168129444122314,-3.297492265701294
1747993422935188500,8.1161884765625,8.492136001586914,3.6485369205474854,-3.2775285243988037
1747993422950996700,8.131996826171875,8.505265235900879,3.668147325515747,-3.2211105823516846
1747993422966774300,8.147774169921876,8.531806945800781,3.6617605686187744,-3.1575570106506348
1747993422982613000,8.163613037109375,8.561076164245605,3.6295483112335205,-3.115243911743164
1747993422998421000,8.1794208984375,8.580180168151855,3.596567153930664,-3.1009044647216797
1747993423014259700,8.195259765625,8.585733413696289,3.5791664123535156,-3.1056621074676514
1747993423030098200,8.21109814453125,8.584168434143066,3.5612640380859375,-3.1304678916931152
1747993423045937000,8.22693701171875,8.590354919433594,3.509875774383545,-3.171271562576294
1747993423061775600,8.242775634765625,8.609945297241211,3.4051218032836914,-3.2317757606506348
1747993423077583600,8.25858349609375,8.640878677368164,3.2533926963806152,-3.304699659347534
1747993423093361200,8.274361083984376,8.680429458618164,3.101470470428467,-3.3468527793884277
1747993423109200000,8.290199951171875,8.717206954956055,2.988435745239258,-3.354093551635742
1747993423124977400,8.305977294921876,8.750329971313477,2.9130468368530273,-3.334106206893921
1747993423140785400,8.321785400390626,8.78493881225586,2.8525326251983643,-3.2951912879943848
1747993423156593700,8.33759375,8.81906795501709,2.8004579544067383,-3.2483620643615723
1747993423172401700,8.353401611328126,8.842665672302246,2.760159492492676,-3.2185654640197754
1747993423188179200,8.36917919921875,8.846970558166504,2.7344810962677,-3.228637933731079
1747993423203926300,8.38492626953125,8.829626083374023,2.7254140377044678,-3.2833218574523926
1747993423219734500,8.400734619140625,8.793842315673828,2.731501579284668,-3.3730738162994385
1747993423235512000,8.416511962890626,8.748161315917969,2.7565553188323975,-3.470083236694336
1747993423251350800,8.432350830078125,8.709389686584473,2.77585768699646,-3.551272392272949
1747993423267158800,8.44815869140625,8.695638656616211,2.7612252235412598,-3.596092939376831
1747993423282905900,8.46390576171875,8.711926460266113,2.7110979557037354,-3.5948116779327393
1747993423298714000,8.479714111328125,8.756013870239258,2.6416432857513428,-3.538973569869995
1747993423314522000,8.495522216796875,8.81778335571289,2.568215847015381,-3.4382200241088867
1747993423330360800,8.51136083984375,8.882601737976074,2.5053582191467285,-3.3155622482299805
1747993423346168800,8.5271689453125,8.941313743591309,2.4579241275787354,-3.1909117698669434
1747993423361946400,8.5429462890625,8.989870071411133,2.4270246028900146,-3.0760645866394043
1747993423377785000,8.55878515625,9.027791976928711,2.4133682250976562,-2.9740569591522217
1747993423393593000,8.574593017578126,9.05320930480957,2.414160966873169,-2.8951027393341064
1747993423409340200,8.590340087890626,9.068744659423828,2.426095962524414,-2.83589768409729
1747993423425179000,8.606178955078125,9.079346656799316,2.4379043579101562,-2.7915000915527344
1747993423441048000,8.622048095703125,9.090643882751465,2.4390439987182617,-2.753479480743408
1747993423456825600,8.63782568359375,9.103121757507324,2.4337892532348633,-2.7166569232940674
1747993423472603100,8.65360302734375,9.116143226623535,2.428499698638916,-2.6774463653564453
1747993423488380700,8.669380615234376,9.079156875610352,3.338575839996338,-1.6103458404541016
1747993423504219400,8.685219482421875,8.984498023986816,3.819026470184326,-0.9296334981918335
1747993423519997000,8.700996826171876,8.998527526855469,3.7932419776916504,-0.8990044593811035
1747993423535805000,8.716804931640626,9.006779670715332,3.7784032821655273,-0.8786184191703796
1747993423551643600,8.7326435546875,9.006082534790039,3.7813901901245117,-0.8728957772254944
1747993423567452000,8.748451904296875,8.993834495544434,3.808123826980591,-0.882906436920166
1747993423583320800,8.76432080078125,8.97179889678955,3.8563411235809326,-0.8976841568946838
1747993423599098600,8.7800986328125,8.942021369934082,3.9205801486968994,-0.9163482785224915
1747993423614876200,8.795876220703125,8.912835121154785,3.9799392223358154,-0.9443710446357727
1747993423630684200,8.81168408203125,8.892046928405762,4.018639087677002,-0.9759213328361511
1747993423646553300,8.82755322265625,8.881453514099121,4.040972709655762,-0.9801604151725769
1747993423662422500,8.843422607421875,8.882129669189453,4.048869609832764,-0.9406421780586243
1747993423678230500,8.85923046875,8.891119003295898,4.046258926391602,-0.8638176321983337
1747993423694038800,8.875038818359375,8.899551391601562,4.0456342697143555,-0.7753746509552002
1747993423709846800,8.8908466796875,8.898201942443848,4.063041687011719,-0.6957564949989319
1747993423725654800,8.90665478515625,8.882054328918457,4.109264373779297,-0.6272467374801636
1747993423741463000,8.922463134765625,8.84877872467041,4.189095973968506,-0.566557765007019
1747993423757332200,8.938332275390625,8.802895545959473,4.291172027587891,-0.51502925157547
1747993423773109800,8.95410986328125,8.752235412597656,4.397947311401367,-0.4762519896030426
1747993423788917800,8.969917724609376,8.700846672058105,4.5008134841918945,-0.4564440846443176
1747993423804726000,8.98572607421875,8.643376350402832,4.610828399658203,-0.4502187967300415
1747993423820534000,9.001533935546876,8.583412170410156,4.720803737640381,-0.4576464593410492
1747993423836311600,9.0173115234375,8.52993392944336,4.814631938934326,-0.47951340675354004
1747993423852119800,9.033119873046875,8.494656562805176,4.874448299407959,-0.5009565949440002
1747993423867927800,9.048927734375,8.483057975769043,4.893042087554932,-0.5159995555877686
1747993423883766500,9.0647666015625,8.48770809173584,4.883360385894775,-0.5310245752334595
1747993423899635700,9.0806357421875,8.49728775024414,4.864439010620117,-0.5511060953140259
1747993423915443700,9.096443603515626,8.508843421936035,4.83998966217041,-0.5869099497795105
1747993423931251700,9.112251708984376,8.516339302062988,4.823058605194092,-0.6168103218078613
1747993423947029500,9.128029541015625,8.515437126159668,4.824906826019287,-0.6148114800453186
1747993423962837500,9.14383740234375,8.512914657592773,4.831881523132324,-0.5946308970451355
1747993423978676200,9.15967626953125,8.51038646697998,4.839939117431641,-0.5645313858985901
1747993423994453800,9.175453857421875,8.505165100097656,4.852375507354736,-0.5357437133789062
1747993424010261800,9.19126171875,8.496322631835938,4.8698601722717285,-0.5170607566833496
1747993424026039600,9.20703955078125,8.615677833557129,4.591188907623291,-0.9281513690948486
1747993424041878000,9.2228779296875,8.663581848144531,4.428462028503418,-1.225341558456421
1747993424057655600,9.238655517578126,8.666259765625,4.418493747711182,-1.24226975440979
1747993424073402600,9.254402587890626,8.680107116699219,4.403337478637695,-1.1986455917358398
1747993424089271800,9.270271728515626,8.700347900390625,4.377110004425049,-1.1468384265899658
1747993424105080000,9.286080078125,8.718587875366211,4.355286598205566,-1.0900022983551025
1747993424120857600,9.301857666015625,8.729799270629883,4.345637798309326,-1.037506341934204
1747993424136696000,9.317696044921876,8.717388153076172,4.383513450622559,-0.9809861779212952
1747993424152473900,9.333473876953125,8.700170516967773,4.422403812408447,-0.9590486884117126
1747993424168281900,9.34928173828125,8.68480396270752,4.449188232421875,-0.9743214845657349
1747993424184089900,9.36508984375,8.67261791229248,4.470544338226318,-0.985045313835144
1747993424199898000,9.380898193359375,8.66861629486084,4.478527069091797,-0.9840169548988342
1747993424215736600,9.396736572265626,8.673830032348633,4.470861911773682,-0.9728673696517944
1747993424231575300,9.4125751953125,8.680877685546875,4.460219383239746,-0.9587500691413879
1747993424247352800,9.428352783203126,8.686269760131836,4.453739643096924,-0.9398362040519714
1747993424271034600,9.45203466796875,8.79155445098877,4.274908065795898,-0.7772495746612549
1747993424286812200,9.467812255859375,8.849895477294922,4.170490741729736,-0.6758264303207397
1747993424302589700,9.483589599609376,8.87171745300293,4.123193740844727,-0.6799243688583374
1747993424318397700,9.499397705078126,8.873404502868652,4.114941120147705,-0.7073498368263245
1747993424334236400,9.515236328125,8.879008293151855,4.103073596954346,-0.7059683203697205
1747993424357979100,9.538979248046875,8.904794692993164,4.052133560180664,-0.6747144460678101
1747993424373756700,9.554756591796876,8.929381370544434,3.9971184730529785,-0.677931547164917
1747993424389534200,9.5705341796875,8.954235076904297,3.933863401412964,-0.7188741564750671
1747993424405312000,9.58631201171875,8.974059104919434,3.874781847000122,-0.7891186475753784
1747993424421120000,9.6021201171875,8.989950180053711,3.8218560218811035,-0.8629118800163269
1747993424436867000,9.6178671875,9.00732135772705,3.7688987255096436,-0.9132177829742432
1747993424452675000,9.633675048828126,9.03012752532959,3.714296817779541,-0.911693811416626
1747993424468483300,9.6494833984375,9.053509712219238,3.666144847869873,-0.873917281627655
1747993424484321800,9.66532177734375,9.071428298950195,3.6318020820617676,-0.8304123878479004
1747993424500130000,9.681130126953125,9.080873489379883,3.612852096557617,-0.809582531452179
1747993424515907600,9.696907470703126,9.077371597290039,3.617180109024048,-0.8292843103408813
1747993424531746300,9.712746337890625,9.063878059387207,3.638735055923462,-0.8809732794761658
1747993424547523800,9.72852392578125,9.044941902160645,3.666163682937622,-0.958464503288269
1747993424563331800,9.744331787109376,9.028565406799316,3.684281587600708,-1.0399342775344849
1747993424579140000,9.76014013671875,9.022679328918457,3.6807992458343506,-1.101533055305481
1747993424594978600,9.775978515625,9.031832695007324,3.654003620147705,-1.1156412363052368
1747993424610756000,9.791756103515626,9.05299186706543,3.6138293743133545,-1.0742294788360596
1747993424626534000,9.807533935546875,9.077767372131348,3.5724570751190186,-1.0010349750518799
1747993424642311400,9.8233115234375,9.097756385803223,3.540726900100708,-0.9297754764556885
1747993424658119400,9.839119384765626,9.10758113861084,3.5260009765625,-0.8886346817016602
1747993424673958100,9.854958251953125,9.10884952545166,3.5242655277252197,-0.8824975490570068
1747993424689766100,9.87076611328125,9.106160163879395,3.525460720062256,-0.9051859974861145
1747993424705604900,9.88660498046875,9.102758407592773,3.5266125202178955,-0.9344432353973389
1747993424721412900,9.902412841796876,9.10222339630127,3.5237691402435303,-0.9502483606338501
1747993424737221000,9.91822119140625,9.106888771057129,3.5127596855163574,-0.9462990164756775
1747993424752998700,9.93399853515625,9.115761756896973,3.4953603744506836,-0.9250532984733582
1747993424768867800,9.949867919921875,9.125255584716797,3.4779117107391357,-0.896783709526062
1747993424784645400,9.965645263671876,9.133848190307617,3.462333917617798,-0.8691649436950684
1747993424800484000,9.981484130859375,9.140398979187012,3.451695442199707,-0.8421921730041504
1747993424816292000,9.9972919921875,9.005777359008789,3.83160400390625,-0.6206302046775818
1747993424832130800,10.013130859375,8.945563316345215,3.993086576461792,-0.45004430413246155
1747993424847908400,10.028908447265625,8.921832084655762,4.057220458984375,-0.3320655822753906
1747993424863716400,10.04471630859375,8.912310600280762,4.082827091217041,-0.26762670278549194
1747993424879494000,10.060493896484376,8.910004615783691,4.088998794555664,-0.2495885193347931
1747993424895302100,10.07630224609375,8.905623435974121,4.098842144012451,-0.24446561932563782
1747993424911140900,10.092140869140625,8.896566390991211,4.118578910827637,-0.24251842498779297
1747993424926979300,10.107979248046876,8.881871223449707,4.149848461151123,-0.24800913035869598
1747993424942756900,10.1237568359375,8.863758087158203,4.1877760887146,-0.25826412439346313
1747993424958534700,10.13953466796875,8.847700119018555,4.220791339874268,-0.271123468875885
1747993424974281700,10.15528173828125,8.840841293334961,4.2342095375061035,-0.28528013825416565
1747993424990059300,10.171059326171875,8.845884323120117,4.223122596740723,-0.2931675314903259
1747993425005897700,10.186897705078126,8.858966827392578,4.195816516876221,-0.2902070879936218
1747993425021644800,10.202644775390626,8.875269889831543,4.161927700042725,-0.2799004912376404
1747993425037453000,10.218453125,8.88748550415039,4.135348796844482,-0.28613486886024475
1747993425053291500,10.23429150390625,8.888885498046875,4.128995418548584,-0.33092430233955383
1747993425069069300,10.2500693359375,8.871353149414062,4.159337997436523,-0.4115612804889679
1747993425084907800,10.26590771484375,8.83558464050293,4.223896503448486,-0.5113968849182129
1747993425100746500,10.28174658203125,8.788400650024414,4.309535503387451,-0.6019159555435181
1747993425116554500,10.297554443359376,8.741915702819824,4.394189834594727,-0.6636182069778442
1747993425132362800,10.31336279296875,8.708842277526855,4.4549431800842285,-0.6927730441093445
1747993425148170800,10.329170654296876,8.686600685119629,4.496373176574707,-0.7042520046234131
1747993425164009500,10.345009521484375,8.66901969909668,4.52997350692749,-0.7055635452270508
1747993425179787000,10.360787109375,8.649084091186523,4.568448543548584,-0.7021550536155701
1747993425195564500,10.376564453125,8.62729263305664,4.61052131652832,-0.6951960325241089
1747993425211372800,10.392372802734375,8.608068466186523,4.647084712982178,-0.6900324821472168
1747993425227150300,10.408150390625,8.595945358276367,4.66977596282959,-0.6879634261131287
1747993425242988800,10.42398876953125,8.592756271362305,4.675610065460205,-0.6881795525550842
1747993425258766600,10.4397666015625,8.596957206726074,4.669619083404541,-0.6762917041778564
1747993425274574600,10.45557470703125,8.606847763061523,4.654865741729736,-0.6517588496208191
1747993425290413300,10.471413330078125,8.617314338684082,4.6401872634887695,-0.6172145009040833
1747993425306251800,10.487251708984376,8.623245239257812,4.63474702835083,-0.5737205147743225
1747993425322090500,10.503090576171875,8.738934516906738,4.386478900909424,-0.7484732866287231
1747993425337929000,10.518928955078126,8.748820304870605,4.367985248565674,-0.7411015033721924
1747993425361610800,10.54261083984375,8.718940734863281,4.432594299316406,-0.7089211940765381
1747993425377449200,10.55844921875,8.69105339050293,4.488725662231445,-0.6980888247489929
1747993425393227000,10.57422705078125,8.658596992492676,4.5528950691223145,-0.6857469081878662
1747993425409065500,10.5900654296875,8.624853134155273,4.61924409866333,-0.6670019030570984
1747993425424812500,10.6058125,8.59449291229248,4.678973197937012,-0.6421012282371521
1747993425448585700,10.629585693359376,8.55345630645752,4.758068084716797,-0.6079241037368774
1747993425464394000,10.64539404296875,8.528083801269531,4.8057074546813965,-0.5893685817718506
1747993425480202000,10.661201904296876,8.506591796875,4.8451433181762695,-0.576943576335907
1747993425496010200,10.67701025390625,8.491185188293457,4.873174667358398,-0.5677477121353149
1747993425511787800,10.692787841796875,8.479874610900879,4.894063472747803,-0.5570119619369507
1747993425527595800,10.708595703125,8.467859268188477,4.915889739990234,-0.5475066304206848
1747993425543434500,10.7244345703125,8.456060409545898,4.937024116516113,-0.5396528244018555
1747993425559212000,10.7402119140625,8.447216987609863,4.952499866485596,-0.5363385677337646
1747993425575050800,10.75605078125,8.438844680786133,4.967222690582275,-0.5319748520851135
1747993425590828300,10.771828369140625,8.428123474121094,4.9869065284729,-0.517584502696991
1747993425606605800,10.787605712890626,8.415977478027344,5.010290622711182,-0.4885593354701996
1747993425622413800,10.803413818359376,8.403923988342285,5.0344343185424805,-0.44600117206573486
1747993425646156500,10.827156494140626,8.383100509643555,5.074468612670898,-0.3792049288749695
1747993425661964800,10.84296484375,8.367003440856934,5.103092670440674,-0.34943434596061707
1747993425677803300,10.85880322265625,8.35077953338623,5.130279541015625,-0.3392617702484131
1747993425693642000,10.87464208984375,8.332161903381348,5.160745620727539,-0.3349113166332245
1747993425709419500,10.89041943359375,8.3117094039917,5.1949262619018555,-0.3140218257904053
1747993425733101300,10.914101318359375,8.302157402038574,5.212318420410156,-0.27624431252479553
1747993425748878800,10.92987890625,8.288987159729004,5.234071731567383,-0.2599513530731201
1747993425764686800,10.945686767578126,8.282763481140137,5.24437952041626,-0.25039443373680115
1747993425780464400,10.96146435546875,8.279047966003418,5.251355171203613,-0.22588717937469482
1747993425796333600,10.97733349609375,8.279829978942871,5.251720428466797,-0.18502134084701538
1747993425812111000,10.993111083984376,8.30781364440918,5.209265232086182,-0.1190926805138588
1747993425827919400,11.00891943359375,8.315452575683594,5.197338581085205,-0.1063099205493927
1747993425843727400,11.024727294921876,8.328088760375977,5.176151752471924,-0.1441771537065506
1747993425859535600,11.04053564453125,8.344679832458496,5.147474765777588,-0.20051877200603485
1747993425875374000,11.0563740234375,8.372532844543457,5.099995136260986,-0.24724194407463074
1747993425891243300,11.0722431640625,8.411749839782715,5.034356117248535,-0.26099443435668945
1747993425907020800,11.088020751953126,8.456818580627441,4.959792137145996,-0.23035554587841034
1747993425922798300,11.10379833984375,8.500195503234863,4.887645244598389,-0.16730156540870667
1747993425938576100,11.119576171875,8.537935256958008,4.823441505432129,-0.09205679595470428
1747993425962349300,11.143349365234375,8.58410930633545,4.741670608520508,0.0041186874732375145
1747993425978157300,11.1591572265625,8.608054161071777,4.6978840827941895,0.04085033759474754
1747993425993996000,11.17499609375,8.624017715454102,4.668468952178955,0.045834992080926895
1747993426009865200,11.190865234375,8.63241958618164,4.653036594390869,0.031242111697793007
1747993426025703700,11.20670361328125,8.637948036193848,4.6428632736206055,0.0086461016908288
1747993426041512000,11.222511962890625,8.6476411819458,4.624757766723633,-0.01736307702958584
1747993426057289500,11.23828955078125,8.665669441223145,4.590719223022461,-0.04316635802388191
1747993426073097500,11.254097412109376,8.684162139892578,4.541325092315674,-0.3634393513202667
1747993426088936200,11.269936279296875,8.71567153930664,4.482504844665527,-0.33854368329048157
1747993426104744200,11.285744140625,8.745978355407715,4.427247047424316,-0.2788236737251282
1747993426120552400,11.301552490234375,8.77275276184082,4.378109455108643,-0.20337124168872833
1747993426136360400,11.3173603515625,8.793315887451172,4.3394856452941895,-0.12980155646800995
1747993426152199200,11.33319921875,8.808342933654785,4.310185432434082,-0.07607611268758774
1747993426167946200,11.3489462890625,8.819336891174316,4.288026332855225,-0.05010097846388817
1747993426183754200,11.364754150390626,8.829967498779297,4.266190528869629,-0.04086977243423462
1747993426199531800,11.38053173828125,8.841175079345703,4.242934703826904,-0.03904459998011589
1747993426215309600,11.3963095703125,8.85166072845459,4.2210283279418945,-0.03736512362957001
1747993426231148000,11.41214794921875,8.86231803894043,4.198605537414551,-0.03778510168194771
1747993426246925600,11.427925537109376,8.79263687133789,4.341982841491699,0.0843370109796524
1747993426262733800,11.44373388671875,8.708540916442871,4.505050182342529,0.19031740725040436
1747993426278541800,11.459541748046876,8.60732650756836,4.692202568054199,0.2599136531352997
1747993426294350000,11.47535009765625,8.51427936553955,4.8589606285095215,0.260635107755661
1747993426310158000,11.491157958984376,8.48109245300293,4.918461322784424,0.22405894100666046
1747993426325935600,11.506935546875,8.466127395629883,4.945471286773682,0.1933738738298416
1747993426341743900,11.522743896484375,8.47736644744873,4.92570686340332,0.20509368181228638
1747993426357582300,11.538582275390626,8.493800163269043,4.896427154541016,0.2252534031867981
1747993426373390600,11.554390625,8.512150764465332,4.863510608673096,0.24485242366790771
1747993426389229000,11.57022900390625,8.52175521850586,4.846916675567627,0.23975466191768646
1747993426405006600,11.586006591796876,8.532458305358887,4.827856063842773,0.24360549449920654
1747993426420814800,11.60181494140625,8.5371675491333,4.81908655166626,0.25211891531944275
1747993426436622800,11.617622802734376,8.537545204162598,4.8175554275512695,0.26808029413223267
1747993426452400400,11.633400390625,8.538683891296387,4.815065860748291,0.27640214562416077
1747993426468178200,11.64917822265625,8.540921211242676,4.811699867248535,0.2656993865966797
1747993426483955700,11.664955810546875,8.539203643798828,4.8159050941467285,0.2438260018825531
1747993426499794400,11.68079443359375,8.531227111816406,4.830872058868408,0.22634968161582947
1747993426515602400,11.6966025390625,8.521218299865723,4.849081039428711,0.21360811591148376
1747993426531441200,11.712441162109375,8.511141777038574,4.8670172691345215,0.2073660045862198
1747993426547218700,11.72821875,8.499837875366211,4.886528968811035,0.21207915246486664
1747993426562996200,11.743996337890625,8.485934257507324,4.909953594207764,0.2273285984992981
1747993426578835000,11.7598349609375,8.467479705810547,4.9404616355896,0.25300532579421997
1747993426594643000,11.775642822265626,8.44908618927002,4.969976425170898,0.28752192854881287
1747993426610420500,11.79142041015625,8.437581062316895,4.9867329597473145,0.3318414092063904
1747993426626259200,11.80725927734375,8.428863525390625,4.99846887588501,0.3741305470466614
1747993426642067200,11.823067138671876,8.481025695800781,4.8997039794921875,0.48528966307640076
1747993426657875500,11.83887548828125,8.508975982666016,4.843945503234863,0.551274299621582
1747993426673714000,11.8547138671875,8.505417823791504,4.855457305908203,0.5027880668640137
1747993426689522200,11.870522216796875,8.50718879699707,4.860237121582031,0.4197865426540375
1747993426705330200,11.886330078125,8.517958641052246,4.849055290222168,0.3184787929058075
1747993426721107700,11.902107666015626,8.53390884399414,4.825798034667969,0.23336422443389893
1747993426736916000,11.917916015625,8.550264358520508,4.798464298248291,0.19517478346824646
1747993426752754400,11.93375439453125,8.566770553588867,4.768280506134033,0.21056057512760162
1747993426768562700,11.949562744140625,8.587368965148926,4.728417873382568,0.2637251615524292
1747993426784401200,11.965401123046876,8.616263389587402,4.671392917633057,0.3293725252151489
1747993426800239900,11.981239990234375,8.64856243133545,4.606263637542725,0.3938239812850952
1747993426816078600,11.99707861328125,8.680764198303223,4.53961181640625,0.45459407567977905
1747993426831886600,12.012886474609376,8.710747718811035,4.4747490882873535,0.5195024609565735
1747993426847664000,12.0286640625,8.832571983337402,4.240341663360596,0.4190066456794739
1747993426863472400,12.044472412109375,8.858559608459473,4.177350044250488,0.49604010581970215
1747993426879310800,12.060310791015626,8.88088607788086,4.120772838592529,0.5652320384979248
1747993426895119000,12.076119140625,8.916413307189941,4.043374538421631,0.5648833513259888
1747993426910957600,12.09195751953125,8.926658630371094,4.014969348907471,0.6042971014976501
1747993426926735000,12.107735107421876,8.930523872375488,4.0021514892578125,0.6315933465957642
1747993426942573800,12.12357373046875,8.929628372192383,4.000894069671631,0.6518992781639099
1747993426958351400,12.139351318359376,8.924553871154785,4.009598255157471,0.6677156686782837
1747993426974129200,12.155129150390625,8.917537689208984,4.023234844207764,0.6793369650840759
1747993426989876000,12.1708759765625,8.91310977935791,4.031993865966797,0.6854876279830933
1747993427005745200,12.1867451171875,8.962578773498535,3.9354498386383057,0.5956683158874512
1747993427021492200,12.2024921875,9.023542404174805,3.812206268310547,0.46169257164001465
1747993427037239300,12.2182392578125,9.041154861450195,3.769021987915039,0.47155967354774475
1747993427053078000,12.234078125,9.063580513000488,3.7104485034942627,0.504442036151886
1747993427068855600,12.24985546875,9.0895357131958,3.6413424015045166,0.5397685170173645
1747993427084663800,12.265663818359375,9.123220443725586,3.5547029972076416,0.5489417314529419
1747993427100441300,12.28144140625,9.160189628601074,3.460616111755371,0.5342833995819092
1747993427116279800,12.29727978515625,9.192283630371094,3.3760509490966797,0.5240107774734497
1747993427132118500,12.313118408203126,9.22015380859375,3.299196243286133,0.5238840579986572
1747993427147957200,12.328957275390625,9.24831771850586,3.222128391265869,0.5068539977073669
1747993427163704300,12.344704345703125,9.281116485595703,3.1359992027282715,0.44359973073005676
1747993427179512300,12.36051220703125,9.315271377563477,3.0460922718048096,0.34267523884773254
1747993427195320300,12.3763203125,9.348058700561523,2.9548187255859375,0.23072774708271027
1747993427211159000,12.392158935546876,9.37936782836914,2.8596534729003906,0.14224953949451447
1747993427226997800,12.407997802734375,9.409875869750977,2.75954270362854,0.09764233976602554
1747993427242775300,12.423775390625,9.435790061950684,2.6696455478668213,0.096137635409832
1747993427258583300,12.439583251953126,9.452486038208008,2.6091928482055664,0.11406002193689346
1747993427274391600,12.4553916015625,9.461897850036621,2.574244499206543,0.1270187348127365
1747993427290230000,12.47122998046875,9.466350555419922,2.558634042739868,0.10950915515422821
1747993427306068700,12.48706884765625,9.47010326385498,2.546330213546753,0.061048783361911774
1747993427321815800,12.50281591796875,9.474628448486328,2.530151844024658,-0.012105594389140606
1747993427337623800,12.518623779296876,9.48011302947998,2.508129596710205,-0.08445384353399277
1747993427353523500,12.5345234375,9.487625122070312,2.4769723415374756,-0.14130166172981262
1747993427369301200,12.55030126953125,9.497225761413574,2.437591314315796,-0.17676065862178802
1747993427385139700,12.5661396484375,9.511224746704102,2.3822031021118164,-0.17916451394557953
1747993427400917200,12.581917236328126,9.530269622802734,2.307229995727539,-0.14500834047794342
1747993427416756000,12.597755859375,9.550995826721191,2.223050117492676,-0.08320004492998123
1747993427432594700,12.6135947265625,9.568475723266602,2.148160696029663,-0.008452406153082848
1747993427448433200,12.62943310546875,9.581060409545898,2.0902023315429688,0.06866510212421417
1747993427464210700,12.645210693359376,9.590514183044434,2.042664051055908,0.14126287400722504
1747993427479988500,12.660988525390625,9.599204063415527,1.9958486557006836,0.20552761852741241
1747993427495827000,12.676826904296876,9.55361270904541,2.203648328781128,0.2069195806980133
1747993427511604700,12.692604736328125,9.53277587890625,2.29309344291687,0.19568097591400146
1747993427527351800,12.708351806640625,9.555888175964355,2.1890125274658203,0.252205491065979
1747993427543159800,12.724159912109375,9.57931900024414,2.0742383003234863,0.32337287068367004
1747993427559029000,12.740029052734375,9.599384307861328,1.963202714920044,0.4099491834640503
1747993427574898200,12.755898193359375,9.61015796661377,1.8898496627807617,0.4936806857585907
1747993427590645200,12.771645263671875,9.613459587097168,1.8538767099380493,0.5611876845359802
1747993427606453200,12.787453369140625,9.609885215759277,1.8601248264312744,0.600346565246582
1747993427622292000,12.8032919921875,9.600604057312012,1.9022542238235474,0.616608202457428
1747993427638069500,12.819069580078125,9.586687088012695,1.971073865890503,0.6170041561126709
1747993427653908000,12.834907958984376,9.57099723815918,2.0485332012176514,0.6082085371017456
1747993427669685800,12.850685791015625,9.556524276733398,2.114635467529297,0.6095573902130127
1747993427685554700,12.8665546875,9.544588088989258,2.1634938716888428,0.6249169707298279
1747993427701363000,12.882363037109375,9.532129287719727,2.2135531902313232,0.6396055817604065
1747993427717201400,12.898201416015626,9.516565322875977,2.281860113143921,0.6312555074691772
1747993427733009700,12.914009765625,9.500523567199707,2.368104934692383,0.5500205159187317
1747993427748787200,12.929787109375,9.485788345336914,2.4565858840942383,0.3941971957683563
1747993427764564700,12.945564697265626,9.470108032226562,2.540273904800415,0.18562756478786469
1747993427780373000,12.961373046875,9.444801330566406,2.6392385959625244,-0.023228170350193977
1747993427796150500,12.977150634765625,9.402645111083984,2.7788431644439697,-0.1966654658317566
1747993427811989200,12.9929892578125,9.343276977539062,2.958038568496704,-0.35152679681777954
1747993427827797200,13.00879736328125,9.274388313293457,3.144812822341919,-0.5159966349601746
1747993427843605200,13.024605224609376,9.21481704711914,3.2831292152404785,-0.6918113231658936
1747993427859413500,13.04041357421875,9.169512748718262,3.368609666824341,-0.861906886100769
1747993427875221500,13.056221435546876,9.127459526062012,3.441615343093872,-1.0075544118881226
1747993427890968600,13.071968505859376,9.07839584350586,3.534893751144409,-1.1214478015899658
1747993427906746000,13.08774609375,9.01896858215332,3.6515798568725586,-1.2225170135498047
1747993427922524000,13.10352392578125,8.953357696533203,3.780447483062744,-1.3099584579467773
1747993427938362400,13.1193623046875,8.883705139160156,3.915069341659546,-1.3865094184875488
1747993427954140000,13.135139892578126,8.816743850708008,4.037605285644531,-1.460532307624817
1747993427970009000,13.151009033203126,8.76262378692627,4.128327369689941,-1.5309239625930786
1747993427985817300,13.1668173828125,8.720183372497559,4.19058895111084,-1.6024210453033447
1747993428001625300,13.182625244140626,8.694356918334961,4.216280460357666,-1.6737743616104126
1747993428017433300,13.198433349609376,8.676863670349121,4.219472408294678,-1.7545582056045532
1747993428033150000,13.21414990234375,8.66708755493164,4.199466705322266,-1.8483655452728271
1747993428048988700,13.22998876953125,8.666946411132812,4.1579437255859375,-1.9406030178070068
1747993428064796700,13.245796630859376,8.671577453613281,4.111615180969238,-2.0171172618865967
1747993428080574500,13.261574462890625,8.682217597961426,4.065666675567627,-2.0639376640319824
1747993428096352000,13.27735205078125,8.685769081115723,4.048529624938965,-2.0825998783111572
1747993428112160000,13.293159912109376,8.68421745300293,4.049951076507568,-2.0862996578216553
1747993428127968300,13.30896826171875,8.679333686828613,4.062037944793701,-2.083122968673706
1747993428143745800,13.324745849609375,8.67281723022461,4.079321384429932,-2.0764777660369873
1747993428159553800,13.3405537109375,8.666932106018066,4.095893383026123,-2.0684115886688232
1747993428175362000,13.356362060546875,8.762016296386719,3.821977376937866,-2.188593864440918
1747993428191139600,13.3721396484375,8.757048606872559,3.840920925140381,-2.175274610519409
1747993428207008800,13.3880087890625,8.753640174865723,3.8597934246063232,-2.15549635887146
1747993428222847200,13.40384716796875,8.752633094787598,3.8780927658081055,-2.1265456676483154
1747993428238624800,13.419624755859376,8.751221656799316,3.896177291870117,-2.099123239517212
1747993428254402600,13.435402587890625,8.745689392089844,3.916226625442505,-2.0848207473754883
1747993428270210600,13.45121044921875,8.731430053710938,3.944002389907837,-2.092214345932007
1747993428286049300,13.46704931640625,8.710193634033203,3.9794788360595703,-2.113448143005371
1747993428301796400,13.48279638671875,8.68545150756836,4.0185136795043945,-2.141228199005127
1747993428317634800,13.498634765625,8.662900924682617,4.05401086807251,-2.165531873703003
1747993428333443000,13.514443115234375,8.64950180053711,4.076869487762451,-2.1761531829833984
1747993428349312300,13.530312255859375,8.689911842346191,3.9158079624176025,-2.307004928588867
1747993428372963300,13.55396337890625,8.699254989624023,3.9131052494049072,-2.276169538497925
1747993428388740900,13.569740966796875,8.710417747497559,3.914947748184204,-2.2298412322998047
1747993428404548900,13.585548828125,8.718401908874512,3.9172489643096924,-2.1943156719207764
1747993428420387600,13.6013876953125,8.719124794006348,3.9183709621429443,-2.1894338130950928
1747993428436195600,13.617195556640626,8.710515022277832,3.927241563796997,-2.2077324390411377
1747993428452034300,13.633034423828125,8.701207160949707,3.9359848499298096,-2.228769063949585
1747993428467842300,13.64884228515625,8.701852798461914,3.9223997592926025,-2.2500946521759033
1747993428483681000,13.664680908203126,8.709305763244629,3.882366180419922,-2.290330171585083
1747993428499458600,13.68045849609375,8.712223052978516,3.8372161388397217,-2.354429006576538
1747993428515236000,13.696236083984376,8.710384368896484,3.8036491870880127,-2.414923667907715
1747993428531044400,13.71204443359375,8.707027435302734,3.7905216217041016,-2.447451114654541
1747993428546852400,13.727852294921876,8.704980850219727,3.7932817935943604,-2.4504525661468506
1747993428562660600,13.74366064453125,8.704195976257324,3.810335874557495,-2.4266648292541504
1747993428578438100,13.759438232421875,8.702787399291992,3.838777780532837,-2.386559009552002
1747993428594246100,13.77524609375,8.699108123779297,3.880141496658325,-2.332465648651123
1747993428610023700,13.791023681640626,8.68895435333252,3.9326095581054688,-2.2818946838378906
1747993428625801500,13.806801513671875,8.66481876373291,3.997724771499634,-2.2604193687438965
1747993428641640000,13.822639892578126,8.632271766662598,4.064041614532471,-2.2666826248168945
1747993428657417500,13.83841748046875,8.597184181213379,4.123006343841553,-2.2933874130249023
1747993428673225700,13.854225830078125,8.567790031433105,4.163235664367676,-2.3304128646850586
1747993428689003300,13.870003173828126,8.552316665649414,4.172317981719971,-2.370659828186035
1747993428704842000,13.885842041015625,8.56136703491211,4.137383460998535,-2.399048328399658
1747993428720650000,13.90164990234375,8.596406936645508,4.062611103057861,-2.4015321731567383
1747993428736458200,13.917458251953125,8.649964332580566,3.971421718597412,-2.3614230155944824
1747993428752235800,13.93323583984375,8.707873344421387,3.888685703277588,-2.2850515842437744
1747993428768043800,13.949043701171876,8.758316993713379,3.8254013061523438,-2.197403907775879
1747993428783882500,13.964882568359375,8.787917137145996,3.7929885387420654,-2.1345131397247314
1747993428799721000,13.980720947265626,8.792901039123535,3.7917819023132324,-2.116050958633423
1747993428815529200,13.996529296875,8.791929244995117,3.7933852672576904,-2.1172149181365967
1747993428831337200,14.012337158203126,8.787456512451172,3.7924652099609375,-2.1373353004455566
1747993428847084300,14.028084228515626,8.779726028442383,3.7893829345703125,-2.174255847930908
1747993428862861800,14.04386181640625,8.774468421936035,3.7789759635925293,-2.2132411003112793
1747993428878639600,14.0596396484375,8.775607109069824,3.7577459812164307,-2.244649648666382
1747993428894447600,14.075447509765626,8.784195899963379,3.7246930599212646,-2.2660439014434814
1747993428910316800,14.09131689453125,8.796948432922363,3.6860995292663574,-2.279639720916748
1747993428926124800,14.107124755859376,8.81060791015625,3.646787166595459,-2.2900924682617188
1747993428941933000,14.12293310546875,8.824291229248047,3.607017993927002,-2.300370931625366
1747993428957741000,14.138740966796876,8.839065551757812,3.5651097297668457,-2.30895733833313
1747993428973518600,14.1545185546875,8.855757713317871,3.5210471153259277,-2.312610149383545
1747993428989296400,14.17029638671875,8.871591567993164,3.477071762084961,-2.3184525966644287
1747993429005134800,14.186134765625,8.87996768951416,3.4408276081085205,-2.3403539657592773
1747993429020882000,14.2018818359375,8.877726554870605,3.420184850692749,-2.3787999153137207
1747993429036720600,14.217720703125,8.864660263061523,3.4218337535858154,-2.4247145652770996
1747993429052467700,14.2334677734375,8.844346046447754,3.4417881965637207,-2.4702272415161133
1747993429068275700,14.249275634765626,8.820124626159668,3.467618942260742,-2.5201995372772217
1747993429084053200,14.26505322265625,8.79471492767334,3.495675563812256,-2.569753885269165
1747993429099861500,14.280861572265625,8.774897575378418,3.5232696533203125,-2.5996415615081787
1747993429115669500,14.29666943359375,8.767462730407715,3.538559675216675,-2.603952646255493
1747993429131416600,14.31241650390625,8.77035903930664,3.5396993160247803,-2.592628002166748
1747993429147285800,14.32828564453125,8.77324390411377,3.5385961532592773,-2.5843586921691895
1747993429163093800,14.34409375,8.768342018127441,3.542942762374878,-2.5950186252593994
1747993429178932500,14.359932373046876,8.753030776977539,3.552572011947632,-2.6332623958587646
1747993429194771200,14.375771240234375,8.728240966796875,3.5654046535491943,-2.6974217891693115
1747993429210548700,14.391548828125,8.699652671813965,3.581395149230957,-2.7676782608032227
1747993429226326300,14.407326171875,8.6778564453125,3.5954535007476807,-2.817429780960083
1747993429242134300,14.42313427734375,8.674281120300293,3.5980851650238037,-2.82507061958313
1747993429257973000,14.438972900390626,8.687837600708008,3.589925527572632,-2.793618679046631
1747993429273781200,14.45478125,8.713850975036621,3.573868989944458,-2.7325143814086914
1747993429289528300,14.4705283203125,8.740269660949707,3.5622401237487793,-2.6624274253845215
1747993429305305900,14.486305908203125,8.760408401489258,3.564162015914917,-2.5927562713623047
1747993429321113900,14.50211376953125,8.771227836608887,3.579782009124756,-2.5339927673339844
1747993429336952600,14.51795263671875,8.768401145935059,3.611537218093872,-2.4984657764434814
1747993429352760600,14.533760498046876,8.753658294677734,3.6516149044036865,-2.491900682449341
1747993429368507600,14.549507568359376,8.729796409606934,3.6932382583618164,-2.5141685009002686
1747993429384316000,14.56531591796875,8.698687553405762,3.7346911430358887,-2.5603342056274414
1747993429408028000,14.58902783203125,8.627657890319824,3.816366195678711,-2.677546739578247
1747993429423836200,14.604836181640625,8.57819652557373,3.863586902618408,-2.767242431640625
1747993429439644200,14.62064404296875,8.540121078491211,3.8933746814727783,-2.8422443866729736
1747993429455391200,14.63639111328125,8.520637512207031,3.90641450881958,-2.8825430870056152
1747993429471199200,14.65219921875,8.516829490661621,3.9090328216552734,-2.890235662460327
1747993429487038000,14.668037841796876,8.526166915893555,3.9073519706726074,-2.8648674488067627
1747993429502815500,14.6838154296875,8.542920112609863,3.9033141136169434,-2.820115089416504
1747993429518623700,14.699623779296875,8.565475463867188,3.8945701122283936,-2.7632110118865967
1747993429534401300,14.7154013671875,8.59078598022461,3.880589485168457,-2.703665018081665
1747993429550209300,14.731209228515626,8.61560344696045,3.8662075996398926,-2.6446564197540283
1747993429565986800,14.74698681640625,8.63727855682373,3.85697865486145,-2.5867984294891357
1747993429581764600,14.7627646484375,8.6580810546875,3.84891414642334,-2.5286126136779785
1747993429597542100,14.778542236328125,8.678614616394043,3.8385188579559326,-2.4734208583831787
1747993429613350100,14.79435009765625,8.698004722595215,3.8243067264556885,-2.4268863201141357
1747993429629188900,14.81018896484375,8.713747024536133,3.808593511581421,-2.3949151039123535
1747993429645058000,14.82605810546875,8.72504711151123,3.7952492237091064,-2.3748748302459717
1747993429660896500,14.841896484375,8.730042457580566,3.7915701866149902,-2.362358808517456
1747993429676704800,14.857704833984375,8.728358268737793,3.7996389865875244,-2.355607271194458
1747993429692543200,14.873543212890626,8.720564842224121,3.8170902729034424,-2.3562588691711426
1747993429708321000,14.889321044921875,8.710339546203613,3.8383069038391113,-2.359611988067627
1747993429724068000,14.905068115234375,8.703322410583496,3.8572092056274414,-2.3546783924102783
1747993429739876000,14.9208759765625,8.702179908752441,3.856032609939575,-2.3608176708221436
1747993429755623200,14.936623046875,8.71186351776123,3.821507453918457,-2.3811559677124023
1747993429771462000,14.9524619140625,8.737527847290039,3.748518228530884,-2.4030392169952393
1747993429787239400,14.968239501953125,8.772656440734863,3.6584103107452393,-2.4138994216918945
1747993429803078000,14.984077880859376,8.824174880981445,3.5557029247283936,-2.37934947013855
1747993429818855700,14.999855712890625,8.893291473388672,3.4433646202087402,-2.285386800765991
1747993429834633200,15.01563330078125,8.970574378967285,3.3276171684265137,-2.1508491039276123
1747993429850471700,15.0314716796875,9.043850898742676,3.2216386795043945,-2.0000503063201904
1747993429866310400,15.047310302734376,9.097831726074219,3.1544206142425537,-1.857279658317566
1747993429882057500,15.063057373046876,9.131625175476074,3.125657558441162,-1.736108660697937
1747993429897926700,15.0789267578125,9.146622657775879,3.137126922607422,-1.6334365606307983
1747993429913765400,15.094765380859375,9.150938987731934,3.1734578609466553,-1.5361859798431396
1747993429929543000,15.11054296875,9.1436185836792,3.231854200363159,-1.4559333324432373
1747993429945381400,15.12638134765625,9.12747859954834,3.3020401000976562,-1.398591160774231
1747993429961189600,15.142189697265625,9.102295875549316,3.378113269805908,-1.3809255361557007
1747993429976997600,15.15799755859375,9.067765235900879,3.4603826999664307,-1.404200792312622
1747993429992806000,15.173805908203125,9.026546478271484,3.54399037361145,-1.460129737854004
1747993430008553000,15.189552978515625,8.985819816589355,3.6089491844177246,-1.5494898557662964
1747993430024391400,15.205391357421876,8.951265335083008,3.638742446899414,-1.6747514009475708
1747993430040169000,15.2211689453125,8.924192428588867,3.6362764835357666,-1.818421721458435
1747993430055977200,15.236977294921875,8.907872200012207,3.6172187328338623,-1.9328548908233643
1747993430071785200,15.25278515625,8.907764434814453,3.600097894668579,-1.9650490283966064
1747993430087624000,15.2686240234375,8.9233980178833,3.58345890045166,-1.9241063594818115
1747993430103371000,15.28437109375,8.95063591003418,3.5622811317443848,-1.834844946861267
1747993430119148500,15.3001484375,8.976850509643555,3.544933319091797,-1.7378119230270386
1747993430134956500,15.31595654296875,8.990228652954102,3.546191453933716,-1.6645445823669434
1747993430150764800,15.331764892578125,8.988250732421875,3.567432403564453,-1.6294656991958618
1747993430166572800,15.34757275390625,8.97461223602295,3.5969362258911133,-1.6397440433502197
1747993430182381000,15.363381103515625,8.956341743469238,3.6259195804595947,-1.6754173040390015
1747993430198189000,15.37918896484375,8.938987731933594,3.6500282287597656,-1.715279459953308
1747993430214058200,15.395058349609375,8.93231201171875,3.655083179473877,-1.7391265630722046
1747993430229835800,15.410835693359376,8.940680503845215,3.633759021759033,-1.7408121824264526
1747993430245613300,15.42661328125,8.95759105682373,3.5989341735839844,-1.7261625528335571
1747993430261421600,15.442421630859375,8.974263191223145,3.5635979175567627,-1.7128223180770874
1747993430277229600,15.4582294921875,8.985077857971191,3.5389199256896973,-1.7072789669036865
1747993430293007000,15.474007080078126,8.988889694213867,3.528671979904175,-1.708426833152771
1747993430308815400,15.4898154296875,8.988656044006348,3.5305867195129395,-1.7057018280029297
1747993430324623400,15.505623291015626,8.989456176757812,3.5331037044525146,-1.6962432861328125
1747993430340431600,15.521431640625,8.995579719543457,3.529484987258911,-1.6711317300796509
1747993430356209200,15.537209228515625,9.009389877319336,3.515115737915039,-1.6264203786849976
1747993430372017200,15.55301708984375,9.034674644470215,3.4809420108795166,-1.5582325458526611
1747993430387825400,15.568825439453125,9.070985794067383,3.4232425689697266,-1.4727600812911987
1747993430403633400,15.58463330078125,9.11553955078125,3.346835136413574,-1.36968195438385
1747993430419411000,15.600410888671876,9.161028861999512,3.2655861377716064,-1.257727861404419
1747993430435219200,15.61621923828125,9.203027725219727,3.188434600830078,-1.1439175605773926
1747993430451027200,15.632027099609376,9.239350318908691,3.1188876628875732,-1.0379505157470703
1747993430466866000,15.647865966796875,9.268087387084961,3.060358762741089,-0.9524434208869934
1747993430482674000,15.663673828125,9.288644790649414,3.015648365020752,-0.8929358124732971
1747993430498451500,15.679451416015626,9.302600860595703,2.9856557846069336,-0.8472665548324585
1747993430514290200,15.695290283203125,9.310567855834961,2.9730966091156006,-0.8027560114860535
1747993430530067700,15.711067626953126,9.314255714416504,2.9767367839813232,-0.7443623542785645
1747993430545845200,15.72684521484375,9.316776275634766,2.9880988597869873,-0.6628272533416748
1747993430561623000,15.742623046875,9.318172454833984,3.004570484161377,-0.560897946357727
1747993430577400600,15.758400634765625,9.316271781921387,3.0298614501953125,-0.44430840015411377
1747993430593239000,15.774239013671876,9.310023307800293,3.063538074493408,-0.32951486110687256
1747993430609047300,15.79004736328125,9.301669120788574,3.0971920490264893,-0.23820216953754425
1747993430624885800,15.8058857421875,9.294095039367676,3.1238908767700195,-0.17745916545391083
1747993430640663600,15.82166357421875,9.295029640197754,3.122610092163086,-0.14876864850521088
1747993430656471600,15.837471435546876,9.306093215942383,3.089803695678711,-0.1418997049331665
1747993430672310300,15.853310302734375,9.32825756072998,3.021399736404419,-0.15856961905956268
1747993430688087800,15.869087890625,9.36327838897705,2.9091508388519287,-0.1904144436120987
1747993430703865300,15.884865234375,9.410518646240234,2.749674081802368,-0.22766068577766418
1747993430719673300,15.90067333984375,9.461725234985352,2.565401554107666,-0.2546509802341461
1747993430735420400,15.91642041015625,9.502589225769043,2.408606767654419,-0.26418453454971313
1747993430751198200,15.9321982421875,9.526129722595215,2.314758539199829,-0.2552051842212677
1747993430767006200,15.948006103515626,9.533842086791992,2.2839460372924805,-0.24460962414741516
1747993430782814200,15.963814208984376,9.530660629272461,2.2970829010009766,-0.2455858588218689
1747993430798653000,15.97965283203125,9.521354675292969,2.3339321613311768,-0.25873300433158875
1747993430814430500,15.995430419921876,9.51214599609375,2.369097948074341,-0.27719950675964355
1747993430830177500,16.011177490234374,9.510626792907715,2.3742873668670654,-0.2848036289215088
1747993430845985800,16.02698583984375,9.516948699951172,2.349877119064331,-0.2759617865085602
1747993430861824300,16.04282421875,9.528632164001465,2.3039674758911133,-0.2594013810157776
1747993430877602000,16.05860205078125,9.547209739685059,2.228048086166382,-0.23866373300552368
1747993430893440500,16.0744404296875,9.56862735748291,2.136220932006836,-0.21980741620063782
1747993430909218000,16.090218017578124,9.590542793273926,2.03686785697937,-0.20745836198329926
1747993430924995800,16.105995849609375,9.611005783081055,1.9388254880905151,-0.1997917741537094
1747993430940773400,16.1217734375,9.62944221496582,1.8460444211959839,-0.19062471389770508
1747993430956581400,16.137581298828124,9.637055397033691,1.8084677457809448,-0.16426168382167816
1747993430972389600,16.1533896484375,9.64507007598877,1.7652751207351685,-0.1637706160545349
1747993430988136700,16.16913671875,9.653932571411133,1.7159528732299805,-0.16579605638980865
1747993431003975200,16.18497509765625,9.659073829650879,1.6872776746749878,-0.1605236679315567
1747993431019752700,16.200752685546874,9.659019470214844,1.6884022951126099,-0.15175379812717438
1747993431035561000,16.21656103515625,9.654067993164062,1.7173148393630981,-0.14205321669578552
1747993431051399400,16.2323994140625,9.647706985473633,1.7500091791152954,-0.17207390069961548
1747993431067177200,16.24817724609375,9.639532089233398,1.7851901054382324,-0.250810444355011
1747993431082985200,16.263985107421874,9.627762794494629,1.8300936222076416,-0.35684776306152344
1747993431098793200,16.279793212890624,9.613935470581055,1.880308747291565,-0.45505037903785706
1747993431114571000,16.295571044921875,9.601977348327637,1.9230417013168335,-0.5237702131271362
1747993431130379000,16.31137890625,9.59319019317627,1.9528385400772095,-0.5722975730895996
1747993431146217700,16.3272177734375,9.588154792785645,1.9680927991867065,-0.6035641431808472
1747993431162025700,16.343025634765624,9.585657119750977,1.9739707708358765,-0.6237065196037292
1747993431177803300,16.35880322265625,9.58497428894043,1.9725852012634277,-0.638399064540863
1747993431193550300,16.37455029296875,9.5836763381958,1.9717975854873657,-0.6599663496017456
1747993431209389000,16.39038916015625,9.518499374389648,2.087902545928955,-1.0996471643447876
1747993431225166600,16.40616650390625,9.449304580688477,2.1652114391326904,-1.480840802192688
1747993431240944000,16.421944091796874,9.432474136352539,2.1885759830474854,-1.5520840883255005
1747993431256722000,16.437721923828125,9.409987449645996,2.2195355892181396,-1.6420027017593384
1747993431272560400,16.453560302734374,9.389241218566895,2.236372232437134,-1.7352726459503174
1747993431288368600,16.46936865234375,9.378458976745605,2.22491192817688,-1.806834101676941
1747993431304176600,16.4851767578125,9.378801345825195,2.1903839111328125,-1.846802830696106
1747993431320015400,16.501015380859375,9.386093139648438,2.146324396133423,-1.8614333868026733
1747993431335823400,16.5168232421875,9.391972541809082,2.1059858798980713,-1.8777791261672974
1747993431351601000,16.532600830078124,9.391705513000488,2.0801520347595215,-1.9076734781265259
1747993431367409200,16.5484091796875,9.387161254882812,2.06752610206604,-1.9434300661087036
1747993431383247600,16.56424755859375,9.382979393005371,2.056824207305908,-1.9747315645217896
1747993431399086300,16.58008642578125,9.381447792053223,2.0458450317382812,-1.9933241605758667
1747993431414894300,16.595894287109374,9.385129928588867,2.0308244228363037,-1.9913514852523804
1747993431430733000,16.611733154296875,9.395431518554688,2.008349895477295,-1.9653937816619873
1747993431446510600,16.627510498046874,9.410860061645508,1.9816341400146484,-1.918130874633789
1747993431462379800,16.6433798828125,9.428646087646484,1.9527626037597656,-1.8594982624053955
1747993431478157300,16.6591572265625,9.44442367553711,1.927308201789856,-1.8051958084106445
1747993431493996000,16.67499609375,9.456451416015625,1.908464789390564,-1.761728286743164
1747993431509743000,16.6907431640625,9.433732986450195,2.093069553375244,-1.6715666055679321
1747993431525551000,16.706551025390624,9.417539596557617,2.229616165161133,-1.5840277671813965
1747993431541328600,16.72232861328125,9.42020034790039,2.2252306938171387,-1.5743448734283447
1747993431557137000,16.738136962890625,9.420714378356934,2.226099729537964,-1.5700362920761108
1747993431572945000,16.75394482421875,9.404651641845703,2.357534885406494,-1.471376895904541
1747993431588753200,16.769753173828125,9.366589546203613,2.6042580604553223,-1.286556363105774
1747993431604561200,16.78556103515625,9.331064224243164,2.800032615661621,-1.1231389045715332
1747993431620399900,16.80139990234375,9.317757606506348,2.890566825866699,-0.9971964955329895
1747993431636177400,16.817177490234375,9.324128150939941,2.9042043685913086,-0.8925417065620422
1747993431652015900,16.833015869140624,9.339366912841797,2.87943696975708,-0.809603750705719
1747993431667885000,16.848885009765624,9.350968360900879,2.8537991046905518,-0.7652505040168762
1747993431683693300,16.864693359375,9.35533618927002,2.847608804702759,-0.7342967987060547
1747993431699440400,16.8804404296875,9.357247352600098,2.8485865592956543,-0.7056005001068115
1747993431715248400,16.896248291015624,9.354318618774414,2.8632664680480957,-0.6847033500671387
1747993431731026000,16.91202587890625,9.347163200378418,2.891002655029297,-0.6656016707420349
1747993431746834200,16.927834228515625,9.337574005126953,2.9269635677337646,-0.6426352858543396
1747993431762672600,16.943672607421874,9.327615737915039,2.9653735160827637,-0.6103527545928955
1747993431778481000,16.95948095703125,9.317602157592773,3.0053775310516357,-0.5660204887390137
1747993431794289000,16.975288818359374,9.306694984436035,3.0449318885803223,-0.533119797706604
1747993431810097200,16.99109716796875,9.291773796081543,3.091611623764038,-0.5246611833572388
1747993431825874700,17.006874755859375,9.271504402160645,3.1498820781707764,-0.536501944065094
1747993431841682700,17.0226826171875,9.251570701599121,3.20473313331604,-0.5554432272911072
1747993431857460200,17.038460205078124,9.23524284362793,3.2456114292144775,-0.5887997150421143
1747993431873268500,17.0542685546875,9.220580101013184,3.2788197994232178,-0.632956862449646
1747993431889076500,17.070076416015624,9.20377254486084,3.318563938140869,-0.6693962216377258
1747993431904915200,17.085915283203125,9.180624961853027,3.379930019378662,-0.6801382899284363
1747993431920753700,17.101753662109374,9.149158477783203,3.4649314880371094,-0.6764106154441833
1747993431936562000,17.11756201171875,9.107732772827148,3.5730273723602295,-0.6730929017066956
1747993431952339500,17.13333935546875,9.05538272857666,3.7020928859710693,-0.68187415599823
1747993431968147500,17.1491474609375,8.994246482849121,3.8443403244018555,-0.7035365700721741
1747993431983955700,17.164955810546875,8.93289852142334,3.9807817935943604,-0.7260155081748962
1747993431999794400,17.18079443359375,8.876504898071289,4.104146480560303,-0.7307711839675903
1747993432015572000,17.196572021484375,8.828987121582031,4.2068071365356445,-0.7225940227508545
1747993432031349500,17.212349609375,8.793078422546387,4.281920433044434,-0.7192437052726746
1747993432047096600,17.2280966796875,8.759869575500488,4.346569061279297,-0.7364816665649414
1747993432062874000,17.2438740234375,8.722665786743164,4.41105842590332,-0.7924968600273132
1747993432078682400,17.259682373046875,8.683189392089844,4.474158763885498,-0.8686257004737854
1747993432094460000,17.2754599609375,8.657973289489746,4.510602951049805,-0.9296972751617432
1747993432110268000,17.291267822265624,8.661885261535645,4.500178337097168,-0.9436777234077454
1747993432126076200,17.307076171875,8.68094539642334,4.469994068145752,-0.9114461541175842
1747993432141884200,17.32288427734375,8.705636978149414,4.433964252471924,-0.8498406410217285
1747993432157661700,17.33866162109375,8.725835800170898,4.406221866607666,-0.7844671010971069
1747993432173439200,17.354439208984374,8.73476505279541,4.397294044494629,-0.7335384488105774
1747993432189278000,17.37027783203125,8.729662895202637,4.412411212921143,-0.7028504610061646
1747993432205116700,17.38611669921875,8.712984085083008,4.448742389678955,-0.6804265975952148
1747993432220863700,17.40186376953125,8.693273544311523,4.490432262420654,-0.6583366394042969
1747993432236732700,17.417732666015624,8.671875953674316,4.535991191864014,-0.6274839639663696
1747993432252510500,17.433510498046875,8.670376777648926,4.5447211265563965,-0.583489179611206
1747993432268349000,17.449348876953124,8.671223640441895,4.549970626831055,-0.5272917747497559
1747993432284126500,17.46512646484375,8.679840087890625,4.540452480316162,-0.4637316167354584
1747993432299934700,17.480934814453125,8.695683479309082,4.516333103179932,-0.3977518081665039
1747993432315773200,17.496773193359374,8.715348243713379,4.483517169952393,-0.33343306183815
1747993432331581400,17.51258154296875,8.740793228149414,4.4379425048828125,-0.2712804079055786
1747993432347389400,17.528389404296874,8.767409324645996,4.387983798980713,-0.22025808691978455
1747993432363228200,17.544228271484375,8.78994083404541,4.34407377243042,-0.1906384527683258
1747993432379005700,17.560005615234374,8.805213928222656,4.312939643859863,-0.19273923337459564
1747993432394844400,17.575844482421875,8.811203956604004,4.299271583557129,-0.22212810814380646
1747993432410744000,17.591744140625,8.811422348022461,4.296267986297607,-0.2670440971851349
1747993432426521600,17.607521484375,8.808061599731445,4.300088882446289,-0.3125413656234741
1747993432442329600,17.62332958984375,8.800079345703125,4.31417989730835,-0.34184566140174866
1747993432458107400,17.639107421875,8.78831672668457,4.337875843048096,-0.3445379436016083
1747993432473915400,17.654915283203124,8.7776517868042,4.359528541564941,-0.3431089520454407
1747993432489754000,17.670754150390625,8.770258903503418,4.373373985290527,-0.3557480573654175
1747993432505592600,17.686592529296874,8.76647663116455,4.37884521484375,-0.38078752160072327
1747993432521400800,17.70240087890625,8.770397186279297,4.369354248046875,-0.39908304810523987
1747993432537178400,17.718178466796875,8.789396286010742,4.329035758972168,-0.4199391007423401
1747993432552986400,17.733986328125,8.813568115234375,4.275780200958252,-0.45729631185531616
1747993432568764200,17.74976416015625,8.830906867980957,4.233002185821533,-0.5168873071670532
1747993432584572200,17.765572265625,8.835502624511719,4.2147979736328125,-0.5828890204429626
1747993432600380200,17.781380126953124,8.828887939453125,4.219239234924316,-0.6474142670631409
1747993432616158000,17.797157958984375,8.817872047424316,4.232038974761963,-0.7108847498893738
1747993432631935500,17.812935546875,8.809879302978516,4.23746395111084,-0.7747973799705505
1747993432647774000,17.82877392578125,8.810511589050293,4.226452350616455,-0.826050877571106
1747993432663551700,17.8445517578125,8.81329345703125,4.216476917266846,-0.8470903038978577
1747993432679359700,17.86035986328125,8.812202453613281,4.2180304527282715,-0.8507009148597717
1747993432695167700,17.876167724609374,8.801419258117676,4.237009048461914,-0.86784827709198
1747993432710976000,17.89197607421875,8.773650169372559,4.282511234283447,-0.9238839149475098
1747993432726784000,17.907783935546874,8.729227066040039,4.352084159851074,-1.0150638818740845
1747993432742592300,17.92359228515625,8.670653343200684,4.437838554382324,-1.1383113861083984
1747993432758430700,17.9394306640625,8.60970401763916,4.519923210144043,-1.2703073024749756
1747993432774269400,17.95526953125,8.560720443725586,4.575607776641846,-1.3958070278167725
1747993432790047000,17.971046875,8.534761428833008,4.5919294357299805,-1.4974702596664429
1747993432805794000,17.9867939453125,8.530179977416992,4.585890293121338,-1.5414378643035889
1747993432821602000,18.00260205078125,8.557056427001953,4.548755168914795,-1.5019994974136353
1747993432837410300,18.018410400390625,8.610442161560059,4.485715389251709,-1.3816763162612915
1747993432853157400,18.034157470703125,8.673470497131348,4.411077976226807,-1.2180677652359009
1747993432868996000,18.04999609375,8.73238468170166,4.340586185455322,-1.0368963479995728
1747993432884804000,18.06580419921875,8.777740478515625,4.28716516494751,-0.8613213896751404
1747993432900581600,18.08158154296875,8.807632446289062,4.253319263458252,-0.7108348608016968
1747993432916420400,18.09742041015625,8.831382751464844,4.222099781036377,-0.5924116373062134
1747993432932289500,18.11328955078125,8.85636043548584,4.181787014007568,-0.4979192912578583
1747993432955940600,18.136940673828125,8.901517868041992,4.0961785316467285,-0.39329731464385986
1747993432971718100,18.15271826171875,8.934294700622559,4.029271602630615,-0.3372485339641571
1747993432987556900,18.168556884765625,8.96569538116455,3.9626336097717285,-0.2902216911315918
1747993433003364900,18.18436474609375,8.995223045349121,3.8970818519592285,-0.2628779113292694
1747993433019172900,18.2001728515625,9.022523880004883,3.8332536220550537,-0.2657356262207031
1747993433035011600,18.216011474609374,9.043564796447754,3.7808260917663574,-0.29944780468940735
1747993433050819600,18.231819580078124,9.058282852172852,3.741109848022461,-0.3492793142795563
1747993433066658300,18.247658203125,9.068075180053711,3.7117581367492676,-0.4040507674217224
1747993433082435800,18.263435791015624,9.076263427734375,3.6864399909973145,-0.44942909479141235
1747993433098244000,18.279244140625,9.082139015197754,3.668992042541504,-0.47290146350860596
1747993433114052000,18.295052001953124,9.083824157714844,3.6631078720092773,-0.4859660863876343
1747993433129890800,18.310890869140625,9.077655792236328,3.6753365993499756,-0.5083866715431213
1747993433145698800,18.32669873046875,9.063593864440918,3.7041168212890625,-0.5487982034683228
1747993433161446000,18.34244580078125,9.041768074035645,3.7481167316436768,-0.6069933772087097
1747993433177254100,18.358254150390625,9.012484550476074,3.807493209838867,-0.6697074174880981
1747993433193062100,18.374062255859375,8.979724884033203,3.875190019607544,-0.7196114659309387
1747993433208870100,18.3898701171875,8.950390815734863,3.938642740249634,-0.7402600646018982
1747993433224678400,18.405678466796875,8.928927421569824,3.9850709438323975,-0.7508969306945801
1747993433240456000,18.4214560546875,8.91644287109375,4.009749412536621,-0.7676938772201538
1747993433256294700,18.437294677734375,8.91318130493164,4.009732723236084,-0.8047497868537903
1747993433272072200,18.453072265625,8.91790771484375,3.986907482147217,-0.8636407256126404
1747993433287849700,18.468849609375,8.92581558227539,3.9571993350982666,-0.9169352054595947
1747993433303688400,18.4846884765625,8.933326721191406,3.937492847442627,-0.9285606145858765
1747993433319496400,18.500496337890624,8.941493034362793,3.92753005027771,-0.891408383846283
1747993433335274000,18.51627392578125,8.9508056640625,3.9239306449890137,-0.810089111328125
1747993433351082200,18.532082275390625,8.958867073059082,3.9230144023895264,-0.7204520106315613
1747993433366859800,18.54785986328125,8.966009140014648,3.9187960624694824,-0.651241660118103
1747993433382698200,18.5636982421875,8.956975936889648,3.9428200721740723,-0.6301855444908142
1747993433398476000,18.57947607421875,8.932188034057617,3.99604868888855,-0.6465219855308533
1747993433414284000,18.595283935546874,8.892223358154297,4.0816755294799805,-0.6623253226280212
1747993433430092000,18.611092041015624,8.849976539611816,4.173099040985107,-0.6584420204162598
1747993433445900300,18.626900390625,8.79651927947998,4.286993980407715,-0.6429029107093811
1747993433461708300,18.642708251953124,8.731734275817871,4.419238567352295,-0.6305070519447327
1747993433477516500,18.6585166015625,8.662558555603027,4.554422378540039,-0.6226621270179749
1747993433493294000,18.674294189453125,8.600168228149414,4.673552989959717,-0.6044836640357971
1747993433509102000,18.69010205078125,8.555649757385254,4.760333061218262,-0.5572087168693542
1747993433524971300,18.70597119140625,8.531512260437012,4.811837196350098,-0.4794842004776001
1747993433540748800,18.721748779296874,8.529376029968262,4.824307918548584,-0.38234928250312805
1747993433556587500,18.73758740234375,8.536916732788086,4.8182878494262695,-0.27484357357025146
1747993433572365000,18.753364990234374,8.544184684753418,4.8107404708862305,-0.15512101352214813
1747993433588203800,18.769203857421875,8.546147346496582,4.809673309326172,-0.028132162988185883
1747993433603981300,18.784981201171874,8.543158531188965,4.814174652099609,0.092438705265522
1747993433619789300,18.800789306640624,8.766377449035645,4.394801616668701,-0.08204071968793869
1747993433635628000,18.8166279296875,9.137243270874023,3.5187227725982666,-0.547504186630249
1747993433651405600,18.832405517578124,9.300390243530273,3.0134212970733643,-0.7696917057037354
1747993433667213800,18.8482138671875,9.327115058898926,2.937960386276245,-0.7373569011688232
1747993433683052300,18.86405224609375,9.324430465698242,2.9653472900390625,-0.6573324799537659
1747993433698829800,18.879829833984374,9.312723159790039,3.011859655380249,-0.6101471781730652
1747993433714607600,18.895607666015625,9.291044235229492,3.0792627334594727,-0.6041833758354187
1747993433730385200,18.91138525390625,9.264849662780762,3.1539742946624756,-0.6208005547523499
1747993433746193200,18.927193115234374,9.237786293029785,3.2278549671173096,-0.6439304351806641
1747993433762001400,18.94300146484375,9.209028244018555,3.3038501739501953,-0.6698957085609436
1747993433777809400,18.958809326171874,9.177681922912598,3.3820440769195557,-0.7087415456771851
1747993433793617700,18.97461767578125,9.145544052124023,3.4538376331329346,-0.7748664021492004
1747993433809456000,18.9904560546875,9.112234115600586,3.5149104595184326,-0.8848634958267212
1747993433825264400,19.006264404296875,9.078303337097168,3.559774398803711,-1.04057776927948
1747993433841072400,19.022072265625,9.046764373779297,3.5812203884124756,-1.2252775430679321
1747993433856819500,19.0378193359375,9.02627944946289,3.573469638824463,-1.3881551027297974
1747993433872627500,19.05362744140625,9.024676322937012,3.537334442138672,-1.48756742477417
1747993433888405200,19.0694052734375,9.044541358947754,3.475337505340576,-1.512839436531067
1747993433904213200,19.085213134765624,9.076234817504883,3.3970084190368652,-1.5008959770202637
1747993433919990800,19.10099072265625,9.103373527526855,3.3281946182250977,-1.490671992301941
1747993433935768300,19.116768310546874,9.113168716430664,3.290686845779419,-1.5139108896255493
1747993433951546000,19.132546142578125,9.104605674743652,3.284348964691162,-1.57784903049469
1747993433967354000,19.14835400390625,9.08536148071289,3.294701337814331,-1.6647955179214478
1747993433983162000,19.164162109375,9.068779945373535,3.2988805770874023,-1.7449926137924194
1747993433998970400,19.179970458984375,9.058587074279785,3.294311761856079,-1.8055222034454346
1747993434014839600,19.195839599609375,9.055122375488281,3.282651424407959,-1.84372878074646
1747993434030617000,19.2116171875,9.05666446685791,3.264796495437622,-1.8677055835723877
1747993434046425000,19.227425048828124,9.06246566772461,3.240699291229248,-1.8814821243286133
1747993434062203000,19.243202880859375,9.069718360900879,3.2130959033966064,-1.8938363790512085
1747993434077980400,19.25898046875,9.187871932983398,3.09586238861084,-1.472761869430542
1747993434093819000,19.27481884765625,9.325774192810059,2.9050955772399902,-0.8722050189971924
1747993434109596700,19.2905966796875,9.396576881408691,2.7525715827941895,-0.5459718704223633
1747993434125404700,19.30640478515625,9.44001579284668,2.6284639835357666,-0.3842853605747223
1747993434141212700,19.322212646484374,9.472247123718262,2.516909122467041,-0.3348013460636139
1747993434157021000,19.33802099609375,9.49515151977539,2.4245171546936035,-0.3663445711135864
1747993434172859400,19.353859375,9.512699127197266,2.3494906425476074,-0.39854031801223755
1747993434188698000,19.369697998046874,9.527029037475586,2.287230968475342,-0.4179532527923584
1747993434212379600,19.393379638671874,9.542298316955566,2.21976375579834,-0.4330989420413971
1747993434228279300,19.409279296875,9.546055793762207,2.20027756690979,-0.4494261145591736
1747993434244057000,19.42505712890625,9.54203987121582,2.20965576171875,-0.48710453510284424
1747993434259895600,19.4408955078125,9.52747631072998,2.2550811767578125,-0.5587344169616699
1747993434275703800,19.456703857421875,9.502459526062012,2.330174684524536,-0.6662813425064087
1747993434307350500,19.4883505859375,9.434260368347168,2.509399175643921,-0.9316904544830322
1747993434323142700,19.504142578125,9.403525352478027,2.5741329193115234,-1.0573241710662842
1747993434338950700,19.51995068359375,9.384681701660156,2.5975868701934814,-1.1621918678283691
1747993434354728200,19.535728271484373,9.377833366394043,2.5858395099639893,-1.2409895658493042
1747993434370567000,19.55156689453125,9.37943172454834,2.5498242378234863,-1.3019402027130127
1747993434386375000,19.567375,9.38290786743164,2.5079476833343506,-1.3570644855499268
1747993434402183200,19.58318310546875,9.384071350097656,2.47259783744812,-1.4127423763275146
1747993434417960700,19.598960693359373,9.381290435791016,2.449237108230591,-1.4707164764404297
1747993434433830000,19.614829833984373,9.376520156860352,2.434962511062622,-1.5238839387893677
1747993434449638000,19.630637939453123,9.27170467376709,2.7797582149505615,-1.574427843093872
1747993434465415400,19.64641552734375,9.256707191467285,2.8389673233032227,-1.5569275617599487
1747993434481223700,19.6622236328125,9.258415222167969,2.835629940032959,-1.5528498888015747
1747993434497031700,19.67803173828125,9.265066146850586,2.817091941833496,-1.5469132661819458
1747993434512809200,19.693809326171873,9.279753684997559,2.78007435798645,-1.525691032409668
1747993434528648000,19.70964794921875,9.29065227508545,2.7575557231903076,-1.5000181198120117
1747993434544456000,19.7254560546875,9.295276641845703,2.7579004764556885,-1.4704385995864868
1747993434560233700,19.741233642578123,9.30039119720459,2.7600879669189453,-1.4335358142852783
1747993434576041700,19.757041748046873,9.303674697875977,2.769557476043701,-1.3934038877487183
1747993434591911000,19.772910888671873,9.304635047912598,2.7849528789520264,-1.355798602104187
1747993434607688400,19.7886884765625,9.336343765258789,2.693516969680786,-1.3221319913864136
1747993434623557600,19.8045576171875,9.39396858215332,2.4914891719818115,-1.3100483417510986
1747993434639396400,19.820396240234373,9.420347213745117,2.3882925510406494,-1.3128257989883423
1747993434655174000,19.836173828125,9.426584243774414,2.3618686199188232,-1.3158549070358276
1747993434671012400,19.852012451171873,9.426316261291504,2.352998971939087,-1.3335516452789307
1747993434686820600,19.867820556640623,9.416664123535156,2.3429386615753174,-1.4168469905853271
1747993434702598100,19.88359814453125,9.407384872436523,2.3376336097717285,-1.4855867624282837
1747993434718406100,19.89940625,9.404735565185547,2.342221736907959,-1.495104432106018
1747993434734214400,19.91521435546875,9.40542984008789,2.341142177581787,-1.4924203157424927
1747993434750022400,19.9310224609375,9.40791130065918,2.3384697437286377,-1.480933666229248
1747993434765800000,19.946800048828123,9.40848159790039,2.3556623458862305,-1.4497276544570923
1747993434781669000,19.962669189453123,9.403992652893066,2.39035701751709,-1.4217993021011353
1747993434797477400,19.978477294921873,9.391200065612793,2.391633987426758,-1.5019447803497314
1747993434813285400,19.994285400390623,9.381300926208496,2.4410953521728516,-1.4841269254684448
1747993434829063000,20.01006298828125,9.36937427520752,2.493891954421997,-1.471639633178711
1747993434844871200,20.02587109375,9.3265380859375,2.5321693420410156,-1.6655910015106201
1747993434860740000,20.041739990234376,9.263967514038086,2.577153444290161,-1.9255077838897705
1747993434876518000,20.057517822265623,9.231487274169922,2.639188766479492,-1.9961730241775513
1747993434892326000,20.073325927734373,9.208856582641602,2.7101898193359375,-2.005545139312744
1747993434908103400,20.089103515625,9.182655334472656,2.792933940887451,-2.012150764465332
1747993434923942100,20.104942138671873,9.147832870483398,2.8958685398101807,-2.025211811065674
1747993434939750100,20.120750244140623,9.11131477355957,2.9835400581359863,-2.062239408493042
1747993434955528000,20.13652783203125,9.075940132141113,3.02455997467041,-2.156322956085205
1747993434971305500,20.152305419921873,9.037731170654297,3.0423758029937744,-2.287740468978882
1747993434987022000,20.16802197265625,8.997252464294434,3.04480242729187,-2.439060688018799
1747993435002830000,20.183830078125,8.956010818481445,3.0554330348968506,-2.5738279819488525
1747993435018638000,20.19963818359375,8.921788215637207,3.081207275390625,-2.660496950149536
1747993435034446300,20.2154462890625,8.900879859924316,3.107347011566162,-2.6998348236083984
1747993435050254300,20.23125439453125,8.896531105041504,3.1192591190338135,-2.700432538986206
1747993435066031900,20.247031982421873,8.90255069732666,3.1143832206726074,-2.6861844062805176
1747993435081870600,20.26287060546875,8.909392356872559,3.1048202514648438,-2.674546241760254
1747993435097678600,20.2786787109375,8.904057502746582,3.1116487979888916,-2.684360980987549
1747993435113486800,20.29448681640625,8.882119178771973,3.1402852535247803,-2.7234084606170654
1747993435129294800,20.310294921875,8.853133201599121,3.1696770191192627,-2.783086061477661
1747993435145042000,20.3260419921875,8.825775146484375,3.1800222396850586,-2.857191324234009
1747993435160850200,20.34185009765625,8.8048677444458,3.1638808250427246,-2.938462257385254
1747993435176627700,20.357627685546873,8.789173126220703,3.1346042156219482,-3.015803337097168
1747993435192466200,20.373466064453126,8.777335166931152,3.112001895904541,-3.073143720626831
1747993435208244000,20.389243896484373,8.770096778869629,3.1122026443481445,-3.093540668487549
1747993435224021500,20.405021484375,8.768549919128418,3.1343679428100586,-3.075491428375244
1747993435239829500,20.42082958984375,8.772568702697754,3.1600277423858643,-3.037543535232544
1747993435255668200,20.436668212890623,8.783052444458008,3.1777822971343994,-2.988323211669922
1747993435271476200,20.452476318359373,8.801682472229004,3.1825926303863525,-2.9277777671813965
1747993435287284500,20.468284423828123,8.82274055480957,3.180717706680298,-2.865777015686035
1747993435303062000,20.48406201171875,8.979812622070312,3.0683250427246094,-2.4736106395721436
1747993435318870000,20.4998701171875,9.061203956604004,3.002493143081665,-2.247224807739258
1747993435334739200,20.5157392578125,9.058852195739746,3.004182815551758,-2.2544353008270264
1747993435350516700,20.531516845703123,9.051945686340332,3.0105040073394775,-2.2736599445343018
1747993435366355500,20.54735546875,9.047809600830078,3.0079832077026367,-2.2933762073516846
1747993435382133000,20.563133056640623,9.051769256591797,2.9878718852996826,-2.30401611328125
1747993435397971700,20.5789716796875,9.064270973205566,2.950920581817627,-2.3024861812591553
1747993435413779700,20.59477978515625,9.083471298217773,2.9022364616394043,-2.288658618927002
1747993435429588000,20.610587890625,9.104659080505371,2.8496599197387695,-2.270465612411499
1747993435445426400,20.626426513671873,9.12525463104248,2.7965292930603027,-2.2537851333618164
1747993435461234700,20.642234619140623,9.225048065185547,2.686655044555664,-1.9623348712921143
1747993435477042700,20.658042724609373,9.301220893859863,2.571375608444214,-1.7451947927474976
1747993435492820200,20.6738203125,9.327595710754395,2.5123982429504395,-1.6894409656524658
