time,seconds_elapsed,z,y,x
1747543406274120000,0.056119873046875,-9.293000221252441,-3.1019999980926514,-0.4259999990463257
1747543406293026600,0.075026611328125,-9.204000473022461,-3.380000114440918,0.16099999845027924
1747543406302621700,0.08462158203125,-9.211999893188477,-3.3499999046325684,0.27799999713897705
1747543406312216300,0.09421630859375,-9.217000007629395,-3.322000026702881,0.40799999237060547
1747543406321811200,0.103811279296875,-9.23900032043457,-3.252000093460083,0.47600001096725464
1747543406331407400,0.113407470703125,-9.253999710083008,-3.2109999656677246,0.4569999873638153
1747543406341002500,0.12300244140625,-9.255999565124512,-3.2170000076293945,0.37599998712539673
1747543406350596900,0.132596923828125,-9.234000205993652,-3.2880001068115234,0.27799999713897705
1747543406360192000,0.14219189453125,-9.1850004196167,-3.431999921798706,0.15199999511241913
1747543406369788000,0.151787841796875,-9.13599967956543,-3.561000108718872,-0.03999999910593033
1747543406379383000,0.161383056640625,-9.128999710083008,-3.5789999961853027,-0.06300000101327896
1747543406388977700,0.170977783203125,-9.128999710083008,-3.5799999237060547,-0.06400000303983688
1747543406398572500,0.180572509765625,-9.131999969482422,-3.572999954223633,-0.06199999898672104
1747543406408168400,0.19016845703125,-9.13700008392334,-3.559000015258789,-0.0560000017285347
1747543406417763800,0.199763916015625,-9.145999908447266,-3.5369999408721924,-0.05000000074505806
1747543406427358200,0.209358154296875,-9.156000137329102,-3.509999990463257,-0.0430000014603138
1747543406436953300,0.218953369140625,-9.168000221252441,-3.4800000190734863,-0.028999999165534973
1747543406446549200,0.22854931640625,-9.178999900817871,-3.450000047683716,-0.004000000189989805
1747543406456144600,0.23814453125,-9.189000129699707,-3.4240000247955322,0.02800000086426735
1747543406465738800,0.24773876953125,-9.194999694824219,-3.4059998989105225,0.06300000101327896
1747543406475334100,0.257334228515625,-9.199000358581543,-3.3940000534057617,0.09200000017881393
1747543406484929800,0.2669296875,-9.201000213623047,-3.3889999389648438,0.11999999731779099
1747543406494525200,0.276525146484375,-9.201000213623047,-3.38700008392334,0.1550000011920929
1747543406504119600,0.28611962890625,-9.201000213623047,-3.384999990463257,0.1979999989271164
1747543406513714700,0.295714599609375,-9.201000213623047,-3.381999969482422,0.25099998712539673
1747543406523310600,0.305310546875,-9.201000213623047,-3.378000020980835,0.31200000643730164
1747543406532905700,0.31490576171875,-9.199999809265137,-3.371999979019165,0.3799999952316284
1747543406542500000,0.3245,-9.199999809265137,-3.365000009536743,0.44999998807907104
1747543406552095200,0.33409521484375,-9.199000358581543,-3.3550000190734863,0.5239999890327454
1747543406561691100,0.343691162109375,-9.197999954223633,-3.3459999561309814,0.5950000286102295
1747543406571286300,0.353286376953125,-9.196999549865723,-3.3380000591278076,0.656000018119812
1747543406580880600,0.362880615234375,-9.196000099182129,-3.3320000171661377,0.6980000138282776
1747543406590475800,0.372475830078125,-9.194999694824219,-3.3320000171661377,0.7139999866485596
1747543406600072000,0.382072021484375,-9.194000244140625,-3.3359999656677246,0.7049999833106995
1747543406609667000,0.3916669921875,-9.192999839782715,-3.3459999561309814,0.6700000166893005
1747543406619261400,0.401261474609375,-9.190999984741211,-3.36299991607666,0.6110000014305115
1747543406628856300,0.410856201171875,-9.185999870300293,-3.390000104904175,0.527999997138977
1747543406638452500,0.420452392578125,-9.178000450134277,-3.427999973297119,0.41999998688697815
1747543406648047600,0.430047607421875,-9.163999557495117,-3.4769999980926514,0.2919999957084656
1747543406657642000,0.43964208984375,-9.145999908447266,-3.5339999198913574,0.1459999978542328
1747543406667237000,0.449237060546875,-9.121000289916992,-3.5999999046325684,-0.008999999612569809
1747543406676833300,0.458833251953125,-9.09000015258789,-3.674999952316284,-0.16899999976158142
1747543406686428400,0.468428466796875,-9.052000045776367,-3.757999897003174,-0.3149999976158142
1747543406696022800,0.478022705078125,-9.010000228881836,-3.8469998836517334,-0.4309999942779541
1747543406705618000,0.487617919921875,-8.961999893188477,-3.944999933242798,-0.5210000276565552
1747543406715213800,0.4972138671875,-8.90999984741211,-4.052000045776367,-0.597000002861023
1747543406734403300,0.5164033203125,-8.786999702453613,-4.293000221252441,-0.7149999737739563
1747543406743998500,0.52599853515625,-8.720000267028809,-4.423999786376953,-0.7440000176429749
1747543406753594400,0.535594482421875,-8.645000457763672,-4.565000057220459,-0.7570000290870667
1747543406763189500,0.545189453125,-8.567999839782715,-4.709000110626221,-0.7599999904632568
1747543406772784000,0.5547841796875,-8.48900032043457,-4.849999904632568,-0.7540000081062317
1747543406791975000,0.573974853515625,-8.33899974822998,-5.105000019073486,-0.7509999871253967
1747543406801570000,0.583570068359375,-8.27299976348877,-5.205999851226807,-0.781000018119812
1747543406811164700,0.59316455078125,-8.217000007629395,-5.285999774932861,-0.8320000171661377
1747543406820759800,0.602759765625,-8.170999526977539,-5.3460001945495605,-0.8960000276565552
1747543406830355700,0.612355712890625,-8.137999534606934,-5.383999824523926,-0.9660000205039978
1747543406839950800,0.621950927734375,-8.119999885559082,-5.39900016784668,-1.0360000133514404
1747543406849545200,0.631545166015625,-8.114999771118164,-5.394999980926514,-1.090999960899353
1747543406859140400,0.641140380859375,-8.128000259399414,-5.373000144958496,-1.1069999933242798
1747543406868736500,0.650736572265625,-8.152999877929688,-5.3379998207092285,-1.0859999656677246
1747543406878331400,0.660331298828125,-8.182999610900879,-5.298999786376953,-1.0549999475479126
1747543406887926000,0.669926025390625,-8.208999633789062,-5.265999794006348,-1.0180000066757202
1747543406897521200,0.679521240234375,-8.22700023651123,-5.245999813079834,-0.9769999980926514
1747543406907117000,0.689116943359375,-8.232999801635742,-5.24399995803833,-0.9359999895095825
1747543406916712200,0.698712158203125,-8.22599983215332,-5.261000156402588,-0.8989999890327454
1747543406926306600,0.708306640625,-8.208000183105469,-5.294000148773193,-0.8700000047683716
1747543406935901700,0.717901611328125,-8.184000015258789,-5.334000110626221,-0.8489999771118164
1747543406955093000,0.737093017578125,-8.140000343322754,-5.4039998054504395,-0.8320000171661377
1747543406964687400,0.746687255859375,-8.125,-5.427000045776367,-0.8339999914169312
1747543406974282500,0.756282470703125,-8.11299991607666,-5.442999839782715,-0.8420000076293945
1747543406983878400,0.76587841796875,-8.102999687194824,-5.455999851226807,-0.8569999933242798
1747543406993473500,0.7754736328125,-8.092000007629395,-5.468999862670898,-0.8730000257492065
1747543407003068000,0.78506787109375,-8.083000183105469,-5.486000061035156,-0.8550000190734863
1747543407012663000,0.7946630859375,-8.076000213623047,-5.504000186920166,-0.8069999814033508
1747543407022259000,0.804259033203125,-8.074999809265137,-5.513999938964844,-0.7440000176429749
1747543407031854300,0.813854248046875,-8.083000183105469,-5.511000156402588,-0.6779999732971191
1747543407041448700,0.82344873046875,-8.097999572753906,-5.49399995803833,-0.628000020980835
1747543407051043600,0.833043701171875,-8.119999885559082,-5.465000152587891,-0.5989999771118164
1747543407060639700,0.8426396484375,-8.14900016784668,-5.421999931335449,-0.5929999947547913
1747543407070235100,0.852235107421875,-8.182000160217285,-5.369999885559082,-0.6100000143051147
1747543407079829500,0.86182958984375,-8.215999603271484,-5.314000129699707,-0.6439999938011169
1747543407089424600,0.871424560546875,-8.246000289916992,-5.261000156402588,-0.6930000185966492
1747543407099020500,0.8810205078125,-8.27299976348877,-5.210999965667725,-0.75
1747543407108615700,0.89061572265625,-8.295999526977539,-5.164000034332275,-0.8109999895095825
1747543407118210000,0.9002099609375,-8.317000389099121,-5.120999813079834,-0.8700000047683716
1747543407127805200,0.90980517578125,-8.338000297546387,-5.078000068664551,-0.9200000166893005
1747543407137401300,0.9194013671875,-8.361000061035156,-5.0329999923706055,-0.9620000123977661
1747543407146996500,0.92899658203125,-8.381999969482422,-4.986999988555908,-1.0099999904632568
1747543407156590800,0.9385908203125,-8.404000282287598,-4.940000057220459,-1.062000036239624
1747543407166186000,0.94818603515625,-8.428999900817871,-4.885000228881836,-1.1150000095367432
1747543407175782000,0.957781982421875,-8.463000297546387,-4.817999839782715,-1.1519999504089355
1747543407185377000,0.967376953125,-8.505000114440918,-4.738999843597412,-1.1649999618530273
1747543407194971400,0.976971435546875,-8.553000450134277,-4.65500020980835,-1.1519999504089355
1747543407204566500,0.98656640625,-8.60200023651123,-4.572999954223633,-1.1150000095367432
1747543407214162400,0.996162353515625,-8.64900016784668,-4.499000072479248,-1.055999994277954
1747543407223757600,1.005757568359375,-8.6899995803833,-4.436999797821045,-0.9760000109672546
1747543407233352000,1.01535205078125,-8.722000122070312,-4.39300012588501,-0.8790000081062317
1747543407242947300,1.024947265625,-8.74899959564209,-4.36299991607666,-0.7639999985694885
1747543407252543500,1.03454345703125,-8.770000457763672,-4.341000080108643,-0.6359999775886536
1747543407262138400,1.044138427734375,-8.789999961853027,-4.318999767303467,-0.48100000619888306
1747543407271732700,1.053732666015625,-8.812999725341797,-4.289000034332275,-0.3070000112056732
1747543407281327900,1.063327880859375,-8.836000442504883,-4.250999927520752,-0.12300000339746475
1747543407290924000,1.072924072265625,-8.857000350952148,-4.209000110626221,0.052000001072883606
1747543407300519200,1.082519287109375,-8.87399959564209,-4.168000221252441,0.2029999941587448
1747543407310113500,1.092113525390625,-8.883999824523926,-4.138000011444092,0.3319999873638153
1747543407319708700,1.101708740234375,-8.880999565124512,-4.132999897003174,0.44600000977516174
1747543407329304600,1.1113046875,-8.871000289916992,-4.144000053405762,0.5299999713897705
1747543407338899700,1.120899658203125,-8.859999656677246,-4.160999774932861,0.5839999914169312
1747543407348479700,1.130479736328125,-8.855999946594238,-4.164999961853027,0.621999979019165
1747543407358089200,1.140089111328125,-8.873000144958496,-4.125,0.6460000276565552
1747543407367685400,1.149685302734375,-8.906000137329102,-4.051000118255615,0.6620000004768372
1747543407377280500,1.159280517578125,-8.942000389099121,-3.9679999351501465,0.6759999990463257
1747543407386875000,1.168875,-8.975000381469727,-3.88700008392334,0.7020000219345093
1747543407396470000,1.178469970703125,-9.00100040435791,-3.818000078201294,0.7509999871253967
1747543407406066000,1.18806591796875,-9.015000343322754,-3.7739999294281006,0.7979999780654907
1747543407415661000,1.1976611328125,-9.012999534606934,-3.7709999084472656,0.8410000205039978
1747543407425255400,1.20725537109375,-8.991999626159668,-3.808000087738037,0.8939999938011169
1747543407434850800,1.216850830078125,-8.956999778747559,-3.875,0.9580000042915344
1747543407444446500,1.226446533203125,-8.913000106811523,-3.9570000171661377,1.0260000228881836
1747543407454041900,1.236041748046875,-8.871000289916992,-4.0370001792907715,1.0770000219345093
1747543407463636200,1.24563623046875,-8.831000328063965,-4.11899995803833,1.0989999771118164
1747543407473231400,1.2552314453125,-8.793999671936035,-4.197999954223633,1.0950000286102295
1747543407482827300,1.2648271484375,-8.76099967956543,-4.26800012588501,1.090000033378601
1747543407492422400,1.27442236328125,-8.730999946594238,-4.324999809265137,1.1059999465942383
1747543407502016800,1.284016845703125,-8.706999778747559,-4.361999988555908,1.1490000486373901
1747543407511612000,1.29361181640625,-8.689000129699707,-4.379000186920166,1.215000033378601
1747543407521208000,1.3032080078125,-8.678000450134277,-4.375999927520752,1.2999999523162842
1747543407530803200,1.31280322265625,-8.678000450134277,-4.3420000076293945,1.409999966621399
1747543407540397600,1.3223974609375,-8.696000099182129,-4.267000198364258,1.524999976158142
1747543407549992700,1.33199267578125,-8.72700023651123,-4.171000003814697,1.6109999418258667
1747543407559588600,1.341588623046875,-8.763999938964844,-4.072999954223633,1.6610000133514404
1747543407569183700,1.351183837890625,-8.798999786376953,-3.98799991607666,1.6790000200271606
1747543407578778000,1.360778076171875,-8.829000473022461,-3.9230000972747803,1.6759999990463257
1747543407588373200,1.370373291015625,-8.85200023651123,-3.880000114440918,1.6579999923706055
1747543407597969400,1.379969482421875,-8.866999626159668,-3.8559999465942383,1.6319999694824219
1747543407607564500,1.389564453125,-8.878000259399414,-3.8429999351501465,1.6039999723434448
1747543407617159000,1.399158935546875,-8.88700008392334,-3.8320000171661377,1.5789999961853027
1747543407626754000,1.408754150390625,-8.892000198364258,-3.825000047683716,1.5670000314712524
1747543407636350000,1.418349853515625,-8.892000198364258,-3.822000026702881,1.5720000267028809
1747543407645945300,1.4279453125,-8.88700008392334,-3.8259999752044678,1.590999960899353
1747543407655539500,1.43753955078125,-8.880999565124512,-3.8340001106262207,1.6080000400543213
1747543407665134800,1.447134765625,-8.881999969482422,-3.8380000591278076,1.590999960899353
1747543407674730500,1.45673046875,-8.892999649047852,-3.8340001106262207,1.5390000343322754
1747543407684326000,1.466325927734375,-8.916999816894531,-3.812999963760376,1.4529999494552612
1747543407693920300,1.475920166015625,-8.949999809265137,-3.7669999599456787,1.3680000305175781
1747543407703515400,1.485515380859375,-8.989999771118164,-3.696000099182129,1.2979999780654907
1747543407732300800,1.51430078125,-9.119999885559082,-3.4149999618530273,1.1469999551773071
1747543407741896000,1.52389599609375,-9.161999702453613,-3.313999891281128,1.1069999933242798
1747543407751491800,1.533491943359375,-9.201000213623047,-3.2190001010894775,1.065999984741211
1747543407761087000,1.5430869140625,-9.234000205993652,-3.134000062942505,1.034999966621399
1747543407770681300,1.552681396484375,-9.258000373840332,-3.066999912261963,1.0219999551773071
1747543407780276500,1.5622763671875,-9.272000312805176,-3.0230000019073486,1.0240000486373901
1747543407789872400,1.571872314453125,-9.276000022888184,-3.006999969482422,1.0290000438690186
1747543407799467800,1.5814677734375,-9.272000312805176,-3.0190000534057617,1.034000039100647
1747543407809062100,1.591062255859375,-9.26099967956543,-3.0510001182556152,1.034999966621399
1747543407818657300,1.6006572265625,-9.246999740600586,-3.0950000286102295,1.034999966621399
1747543407828253200,1.610253173828125,-9.230999946594238,-3.140000104904175,1.0369999408721924
1747543407837848300,1.619848388671875,-9.217000007629395,-3.180000066757202,1.0429999828338623
1747543407847442700,1.629442626953125,-9.206000328063965,-3.2100000381469727,1.0509999990463257
1747543407857037800,1.639037841796875,-9.197999954223633,-3.2300000190734863,1.059000015258789
1747543407866633700,1.6486337890625,-9.192000389099121,-3.243000030517578,1.0670000314712524
1747543407876229000,1.65822900390625,-9.189000129699707,-3.252000093460083,1.0700000524520874
1747543407885823500,1.667823486328125,-9.187000274658203,-3.259000062942505,1.0700000524520874
1747543407895418400,1.67741845703125,-9.182999610900879,-3.2690000534057617,1.065000057220459
1747543407905014500,1.6870146484375,-9.178999900817871,-3.2850000858306885,1.0549999475479126
1747543407914609700,1.696609619140625,-9.17300033569336,-3.306999921798706,1.0420000553131104
1747543407924204300,1.706204345703125,-9.164999961853027,-3.3310000896453857,1.027999997138977
1747543407933799200,1.715799072265625,-9.157999992370605,-3.3550000190734863,1.0169999599456787
1747543407952990500,1.734990478515625,-9.145999908447266,-3.3919999599456787,0.9980000257492065
1747543407962584800,1.744584716796875,-9.145000457763672,-3.3980000019073486,0.9879999756813049
1747543407972180000,1.754179931640625,-9.147000312805176,-3.3959999084472656,0.9760000109672546
1747543407981776000,1.76377587890625,-9.152000427246094,-3.388000011444092,0.9610000252723694
1747543407991371000,1.77337109375,-9.156999588012695,-3.378000020980835,0.9459999799728394
1747543408000965600,1.782965576171875,-9.15999984741211,-3.372999906539917,0.9319999814033508
1747543408010560800,1.792560791015625,-9.15999984741211,-3.377000093460083,0.9169999957084656
1747543408020156700,1.80215673828125,-9.156999588012695,-3.390000104904175,0.9020000100135803
1747543408029751800,1.811751708984375,-9.151000022888184,-3.4110000133514404,0.8859999775886536
1747543408039346200,1.82134619140625,-9.142000198364258,-3.437999963760376,0.8679999709129333
1747543408048941300,1.83094140625,-9.133000373840332,-3.4670000076293945,0.8489999771118164
1747543408058537200,1.840537109375,-9.12399959564209,-3.496999979019165,0.8270000219345093
1747543408068132400,1.85013232421875,-9.116000175476074,-3.5239999294281006,0.8009999990463257
1747543408077727000,1.85972705078125,-9.107999801635742,-3.5490000247955322,0.7739999890327454
1747543408087321900,1.86932177734375,-9.10200023651123,-3.569999933242798,0.7459999918937683
1747543408096918000,1.87891796875,-9.097999572753906,-3.5869998931884766,0.7179999947547913
1747543408106513200,1.88851318359375,-9.095000267028809,-3.5999999046325684,0.6890000104904175
1747543408116107500,1.898107421875,-9.093000411987305,-3.6110000610351562,0.6589999794960022
1747543408125703000,1.907702880859375,-9.09000015258789,-3.622999906539917,0.6309999823570251
1747543408135298600,1.917298583984375,-9.086000442504883,-3.638000011444092,0.6069999933242798
1747543408144894000,1.92689404296875,-9.079000473022461,-3.6570000648498535,0.5870000123977661
1747543408154488300,1.93648828125,-9.071000099182129,-3.680999994277954,0.5740000009536743
1747543408164083500,1.94608349609375,-9.060999870300293,-3.7060000896453857,0.5659999847412109
1747543408173679400,1.955679443359375,-9.050000190734863,-3.7330000400543213,0.5619999766349792
1747543408183274500,1.9652744140625,-9.039999961853027,-3.756999969482422,0.5640000104904175
1747543408192868900,1.974868896484375,-9.029999732971191,-3.7799999713897705,0.5699999928474426
1747543408202464000,1.984464111328125,-9.022000312805176,-3.7990000247955322,0.5789999961853027
1747543408212060000,1.994059814453125,-9.015000343322754,-3.812999963760376,0.5889999866485596
1747543408221655000,2.003655029296875,-9.010000228881836,-3.822000026702881,0.6019999980926514
1747543408231249400,2.01324951171875,-9.008000373840332,-3.825000047683716,0.6179999709129333
1747543408240844500,2.022844482421875,-9.041999816894531,-3.743000030517578,0.6159999966621399
1747543408250440700,2.032440673828125,-9.277000427246094,-3.1419999599456787,0.4690000116825104
1747543408260035600,2.04203564453125,-9.279000282287598,-3.134000062942505,0.49000000953674316
1747543408269630200,2.051630126953125,-9.277999877929688,-3.132999897003174,0.5120000243186951
1747543408279225000,2.06122509765625,-9.277999877929688,-3.130000114440918,0.5329999923706055
1747543408288821200,2.0708212890625,-9.279000282287598,-3.124000072479248,0.5540000200271606
1747543408298416400,2.08041650390625,-9.279999732971191,-3.115000009536743,0.574999988079071
1747543408308010800,2.0900107421875,-9.282999992370605,-3.1040000915527344,0.5929999947547913
1747543408317606000,2.09960595703125,-9.28600025177002,-3.0920000076293945,0.6100000143051147
1747543408327201800,2.109201904296875,-9.288999557495117,-3.0789999961853027,0.6230000257492065
1747543408336797200,2.118797119140625,-9.293000221252441,-3.065999984741211,0.6349999904632568
1747543408346391300,2.128391357421875,-9.295999526977539,-3.055000066757202,0.6430000066757202
1747543408355986700,2.137986572265625,-9.298999786376953,-3.0450000762939453,0.6470000147819519
1747543408365582300,2.147582275390625,-9.302000045776367,-3.0369999408721924,0.6430000066757202
1747543408375177700,2.157177734375,-9.305999755859375,-3.0260000228881836,0.6299999952316284
1747543408384771800,2.166771728515625,-9.312000274658203,-3.010999917984009,0.6100000143051147
1747543408394367200,2.1763671875,-9.319999694824219,-2.990999937057495,0.5879999995231628
1747543408403963000,2.185962890625,-9.329000473022461,-2.9670000076293945,0.5690000057220459
1747543408413558300,2.195558349609375,-9.338000297546387,-2.940000057220459,0.5559999942779541
1747543408423152600,2.205152587890625,-9.347000122070312,-2.9140000343322754,0.550000011920929
1747543408432747800,2.214747802734375,-9.354000091552734,-2.8919999599456787,0.5519999861717224
1747543408442344000,2.224343994140625,-9.357999801635742,-2.874000072479248,0.5630000233650208
1747543408451939000,2.23393896484375,-9.362000465393066,-2.859999895095825,0.5799999833106995
1747543408461533400,2.243533447265625,-9.36299991607666,-2.8510000705718994,0.6019999980926514
1747543408471128600,2.253128662109375,-9.36299991607666,-2.8450000286102295,0.628000020980835
1747543408480724500,2.262724365234375,-9.36299991607666,-2.8399999141693115,0.6549999713897705
1747543408490319600,2.272319580078125,-9.361000061035156,-2.8369998931884766,0.6850000023841858
1747543408499914000,2.2819140625,-9.359999656677246,-2.8359999656677246,0.7170000076293945
1747543408509509400,2.29150927734375,-9.357000350952148,-2.8340001106262207,0.7519999742507935
1747543408519105300,2.301105224609375,-9.354999542236328,-2.8320000171661377,0.7860000133514404
1747543408528700400,2.310700439453125,-9.354000091552734,-2.8269999027252197,0.8180000185966492
1747543408538294800,2.320294677734375,-9.354000091552734,-2.819999933242798,0.8460000157356262
1747543408547890000,2.329889892578125,-9.324000358581543,-2.9040000438690186,0.8849999904632568
1747543408557485800,2.33948583984375,-9.324000358581543,-2.9010000228881836,0.8989999890327454
1747543408567081000,2.3490810546875,-9.329000473022461,-2.884000062942505,0.9039999842643738
1747543408576675300,2.35867529296875,-9.335000038146973,-2.864000082015991,0.906000018119812
1747543408586270700,2.368270751953125,-9.340999603271484,-2.8429999351501465,0.9070000052452087
1747543408595866600,2.37786669921875,-9.347000122070312,-2.822999954223633,0.906000018119812
1747543408605462000,2.3874619140625,-9.35200023651123,-2.805000066757202,0.906000018119812
1747543408615056100,2.39705615234375,-9.355999946594238,-2.7909998893737793,0.9100000262260437
1747543408624651500,2.406651611328125,-9.357999801635742,-2.7809998989105225,0.921999990940094
1747543408634247400,2.416247314453125,-9.357000350952148,-2.7760000228881836,0.9440000057220459
1747543408643842600,2.425842529296875,-9.354999542236328,-2.7750000953674316,0.9700000286102295
1747543408653436700,2.435436767578125,-9.35099983215332,-2.7780001163482666,0.996999979019165
1747543408663032000,2.445031982421875,-9.347000122070312,-2.7839999198913574,1.0180000066757202
1747543408672628000,2.4546279296875,-9.343000411987305,-2.7920000553131104,1.0299999713897705
1747543408682223000,2.46422314453125,-9.34000015258789,-2.802999973297119,1.0329999923706055
1747543408691817500,2.4738173828125,-9.336999893188477,-2.815000057220459,1.027999997138977
1747543408701412600,2.48341259765625,-9.333999633789062,-2.8269999027252197,1.0180000066757202
1747543408711008500,2.493008544921875,-9.331999778747559,-2.8389999866485596,1.00600004196167
1747543408720604000,2.50260400390625,-9.331000328063965,-2.8480000495910645,0.9919999837875366
1747543408730198300,2.5121982421875,-9.329999923706055,-2.8550000190734863,0.9769999980926514
1747543408739793400,2.52179345703125,-9.331000328063965,-2.8570001125335693,0.9620000123977661
1747543408749389300,2.531389404296875,-9.333000183105469,-2.8550000190734863,0.9480000138282776
1747543408758984400,2.540984375,-9.336000442504883,-2.8499999046325684,0.9369999766349792
1747543408768578800,2.550578857421875,-9.33899974822998,-2.8429999351501465,0.9290000200271606
1747543408778174000,2.560174072265625,-9.340999603271484,-2.8369998931884766,0.925000011920929
1747543408787769900,2.569769775390625,-9.342000007629395,-2.8320000171661377,0.9259999990463257
1747543408797365000,2.579364990234375,-9.343000411987305,-2.828000068664551,0.9279999732971191
1747543408806959400,2.58895947265625,-9.343999862670898,-2.825000047683716,0.9300000071525574
1747543408816554800,2.5985546875,-9.345000267028809,-2.822999954223633,0.9319999814033508
1747543408826150400,2.608150390625,-9.345999717712402,-2.818000078201294,0.9330000281333923
1747543408835745800,2.617745849609375,-9.347999572753906,-2.809999942779541,0.9359999895095825
1747543408845340000,2.62733984375,-9.35099983215332,-2.796999931335449,0.9430000185966492
1747543408854935300,2.636935302734375,-9.355999946594238,-2.7790000438690186,0.9520000219345093
1747543408864531200,2.64653125,-9.359999656677246,-2.759999990463257,0.9629999995231628
1747543408874126300,2.656126220703125,-9.364999771118164,-2.740999937057495,0.972000002861023
1747543408883720400,2.665720458984375,-9.369999885559082,-2.7230000495910645,0.9769999980926514
1747543408893315800,2.67531591796875,-9.37399959564209,-2.7070000171661377,0.9769999980926514
1747543408902912000,2.684912109375,-9.378999710083008,-2.691999912261963,0.9729999899864197
1747543408912507000,2.6945068359375,-9.383999824523926,-2.677999973297119,0.9660000205039978
1747543408922101500,2.7041015625,-9.387999534606934,-2.6659998893737793,0.9539999961853027
1747543408931696600,2.713696533203125,-9.392999649047852,-2.6570000648498535,0.9369999766349792
1747543408950887700,2.7328876953125,-9.378999710083008,-2.7039999961853027,0.9409999847412109
1747543408960482000,2.74248193359375,-9.380999565124512,-2.7019999027252197,0.9279999732971191
1747543408970077200,2.7520771484375,-9.383999824523926,-2.694000005722046,0.9160000085830688
1747543408979673000,2.761673095703125,-9.38700008392334,-2.687000036239624,0.9089999794960022
1747543408989268200,2.771268310546875,-9.387999534606934,-2.684000015258789,0.9079999923706055
1747543408998862600,2.780862548828125,-9.38700008392334,-2.686000108718872,0.9110000133514404
1747543409008457700,2.790457763671875,-9.383999824523926,-2.693000078201294,0.9160000085830688
1747543409018054000,2.800053955078125,-9.380999565124512,-2.7019999027252197,0.9229999780654907
1747543409027649000,2.80964892578125,-9.378000259399414,-2.7100000381469727,0.9300000071525574
1747543409037243400,2.819243408203125,-9.37600040435791,-2.7149999141693115,0.9359999895095825
1747543409046838500,2.828838623046875,-9.375,-2.7149999141693115,0.9409999847412109
1747543409056434400,2.838434326171875,-9.37600040435791,-2.7119998931884766,0.9430000185966492
1747543409066029800,2.84802978515625,-9.357000350952148,-2.755000114440918,1.0110000371932983
1747543409075624000,2.8576240234375,-9.357000350952148,-2.752000093460083,1.0149999856948853
1747543409085219000,2.867218994140625,-9.348999977111816,-2.763000011444092,1.055999994277954
1747543409094815000,2.87681494140625,-9.35099983215332,-2.757999897003174,1.0529999732971191
1747543409104410400,2.886410400390625,-9.342000007629395,-2.7739999294281006,1.090000033378601
1747543409114004700,2.896004638671875,-9.343000411987305,-2.7730000019073486,1.0889999866485596
1747543409123600000,2.905599853515625,-9.329000473022461,-2.8010001182556152,1.1349999904632568
1747543409133195500,2.915195556640625,-9.326000213623047,-2.808000087738037,1.1410000324249268
1747543409142791000,2.924791015625,-9.307999610900879,-2.8510000705718994,1.1759999990463257
1747543409152385500,2.934385498046875,-9.303000450134277,-2.865000009536743,1.180999994277954
1747543409161980400,2.94398046875,-9.286999702453613,-2.9140000343322754,1.187999963760376
1747543409171576600,2.95357666015625,-9.284000396728516,-2.927000045776367,1.184999942779541
1747543409181171500,2.96317138671875,-9.267000198364258,-2.9749999046325684,1.1920000314712524
1747543409190766000,2.97276611328125,-9.265000343322754,-2.986999988555908,1.184000015258789
1747543409200361000,2.98236083984375,-9.263999938964844,-2.99399995803833,1.1710000038146973
1747543409209957000,2.99195703125,-9.262999534606934,-3.003000020980835,1.1579999923706055
1747543409219552300,3.00155224609375,-9.26099967956543,-3.01200008392334,1.1480000019073486
1747543409229146600,3.011146728515625,-9.258999824523926,-3.0190000534057617,1.1419999599456787
1747543409238741800,3.02074169921875,-9.258000373840332,-3.0239999294281006,1.1390000581741333
1747543409248337700,3.030337646484375,-9.258000373840332,-3.0250000953674316,1.1399999856948853
1747543409257932800,3.039932861328125,-9.258000373840332,-3.0220000743865967,1.1430000066757202
1747543409267527200,3.049527099609375,-9.258999824523926,-3.0169999599456787,1.1480000019073486
1747543409277122300,3.059122314453125,-9.260000228881836,-3.0139999389648438,1.1549999713897705
1747543409286718200,3.06871826171875,-9.258999824523926,-3.013000011444092,1.159999966621399
1747543409296313300,3.078313232421875,-9.258999824523926,-3.0139999389648438,1.1629999876022339
1747543409305908000,3.087907958984375,-9.258000373840332,-3.0160000324249268,1.1640000343322754
1747543409315502800,3.0975029296875,-9.22599983215332,-3.114000082015991,1.1549999713897705
1747543409325099000,3.10709912109375,-9.223999977111816,-3.125,1.1480000019073486
1747543409334694100,3.116694091796875,-9.185999870300293,-3.2279999256134033,1.1640000343322754
1747543409344288500,3.12628857421875,-9.1850004196167,-3.2330000400543213,1.1549999713897705
1747543409353884000,3.1358837890625,-9.1899995803833,-3.2239999771118164,1.1399999856948853
1747543409363479600,3.1454794921875,-9.196000099182129,-3.2160000801086426,1.121999979019165
1747543409373075000,3.155074951171875,-9.199999809265137,-3.2090001106262207,1.1030000448226929
1747543409382669000,3.1646689453125,-9.20300006866455,-3.2060000896453857,1.0829999446868896
1747543409392264400,3.174264404296875,-9.206000328063965,-3.2070000171661377,1.0640000104904175
1747543409401860400,3.1838603515625,-9.206000328063965,-3.2109999656677246,1.0460000038146973
1747543409411455500,3.19345556640625,-9.180000305175781,-3.305000066757202,0.9769999980926514
1747543409421049900,3.2030498046875,-9.175999641418457,-3.322999954223633,0.9580000042915344
1747543409430645000,3.21264501953125,-9.173999786376953,-3.3320000171661377,0.9440000057220459
1747543409440241200,3.2222412109375,-9.17300033569336,-3.3380000591278076,0.9300000071525574
1747543409449836000,3.2318359375,-9.17300033569336,-3.3429999351501465,0.9150000214576721
1747543409459430700,3.2414306640625,-9.173999786376953,-3.3459999561309814,0.8970000147819519
1747543409469025800,3.25102587890625,-9.175000190734863,-3.3469998836517334,0.8759999871253967
1747543409478621700,3.26062158203125,-9.178000450134277,-3.3459999561309814,0.8500000238418579
1747543409488216800,3.270216796875,-9.182000160217285,-3.3420000076293945,0.8220000267028809
1747543409497811200,3.279811279296875,-9.187999725341797,-3.3329999446868896,0.7919999957084656
1747543409507406300,3.28940625,-9.194999694824219,-3.319999933242798,0.7609999775886536
1747543409517002200,3.299002197265625,-9.204000473022461,-3.303999900817871,0.7289999723434448
1747543409526597400,3.308597412109375,-9.213000297546387,-3.2850000858306885,0.6949999928474426
1747543409536192000,3.31819189453125,-9.220999717712402,-3.2690000534057617,0.6600000262260437
1747543409545787100,3.327787109375,-9.227999687194824,-3.257999897003174,0.6230000257492065
1747543409555383000,3.337383056640625,-9.232000350952148,-3.253999948501587,0.5820000171661377
1747543409564978400,3.346978515625,-9.232999801635742,-3.257999897003174,0.5360000133514404
1747543409574572500,3.356572509765625,-9.232000350952148,-3.2699999809265137,0.4860000014305115
1747543409584167700,3.366167724609375,-9.229000091552734,-3.2860000133514404,0.43700000643730164
1747543409593763600,3.375763671875,-9.222000122070312,-3.309999942779541,0.3889999985694885
1747543409603359000,3.38535888671875,-9.213000297546387,-3.3399999141693115,0.3440000116825104
1747543409612953300,3.394953369140625,-9.201000213623047,-3.378000020980835,0.30000001192092896
1747543409622548500,3.404548583984375,-9.185999870300293,-3.4230000972747803,0.257999986410141
1747543409632144400,3.414144287109375,-9.166999816894531,-3.4760000705718994,0.2160000056028366
1747543409641739500,3.423739501953125,-9.145000457763672,-3.5350000858306885,0.17599999904632568
1747543409651334000,3.433333984375,-9.121000289916992,-3.5980000495910645,0.13699999451637268
1747543409660929000,3.442928955078125,-9.093999862670898,-3.6679999828338623,0.09799999743700027
1747543409670525000,3.45252490234375,-9.062999725341797,-3.743000030517578,0.05900000035762787
1747543409680120300,3.462120361328125,-9.029000282287598,-3.8239998817443848,0.019999999552965164
1747543409689714400,3.47171435546875,-8.993000030517578,-3.9089999198913574,-0.017000000923871994
1747543409699309800,3.481309814453125,-8.954999923706055,-3.996000051498413,-0.054999999701976776
1747543409708905700,3.49090576171875,-8.914999961853027,-4.084000110626221,-0.09099999815225601
1747543409718500900,3.5005009765625,-8.87399959564209,-4.171000003814697,-0.12399999797344208
1747543409728095200,3.51009521484375,-8.833000183105469,-4.25600004196167,-0.15299999713897705
1747543409737690400,3.5196904296875,-8.793000221252441,-4.336999893188477,-0.17599999904632568
1747543409747286300,3.529286376953125,-8.755000114440918,-4.4120001792907715,-0.19499999284744263
1747543409756881400,3.53888134765625,-8.720000267028809,-4.480000019073486,-0.210999995470047
1747543409766475800,3.548475830078125,-8.687999725341797,-4.541999816894531,-0.22499999403953552
1747543409776071200,3.5580712890625,-8.654999732971191,-4.603000164031982,-0.23999999463558197
1747543409785667000,3.5676669921875,-8.619999885559082,-4.666999816894531,-0.257999986410141
1747543409795262200,3.57726220703125,-8.581999778747559,-4.735000133514404,-0.28299999237060547
1747543409804856600,3.586856689453125,-8.538999557495117,-4.810999870300293,-0.31700000166893005
1747543409814451700,3.59645166015625,-8.489999771118164,-4.89300012588501,-0.3610000014305115
1747543409824047600,3.606047607421875,-8.437000274658203,-4.980000019073486,-0.4169999957084656
1747543409833642800,3.615642822265625,-8.380000114440918,-5.070000171661377,-0.48500001430511475
1747543409843237000,3.625237060546875,-8.321999549865723,-5.156000137329102,-0.5600000023841858
1747543409852832300,3.634832275390625,-8.267999649047852,-5.232999801635742,-0.6349999904632568
1747543409862428200,3.64442822265625,-8.218999862670898,-5.302000045776367,-0.7020000219345093
1747543409872023300,3.654023193359375,-8.178999900817871,-5.35699987411499,-0.7490000128746033
1747543409881618000,3.663617919921875,-8.149999618530273,-5.400000095367432,-0.7649999856948853
1747543409891212800,3.673212890625,-8.133999824523926,-5.426000118255615,-0.7419999837875366
1747543409900809000,3.68280908203125,-8.131999969482422,-5.438000202178955,-0.6800000071525574
1747543409910404000,3.692404052734375,-8.13700008392334,-5.440000057220459,-0.593999981880188
1747543409919998500,3.70199853515625,-8.145000457763672,-5.438000202178955,-0.49900001287460327
1747543409929593600,3.711593505859375,-8.152999877929688,-5.433000087738037,-0.4009999930858612
1747543409948784600,3.73078466796875,-8.175999641418457,-5.410999774932861,-0.1850000023841858
1747543409958379000,3.74037890625,-8.190999984741211,-5.390999794006348,-0.07000000029802322
1747543409967974400,3.749974365234375,-8.208999633789062,-5.363999843597412,0.0430000014603138
1747543409977570300,3.7595703125,-8.229000091552734,-5.329999923706055,0.15299999713897705
1747543409987165400,3.76916552734375,-8.255000114440918,-5.2870001792907715,0.2590000033378601
1747543409996759600,3.778759521484375,-8.28600025177002,-5.23199987411499,0.3610000014305115
1747543410006355000,3.78835498046875,-8.321000099182129,-5.166999816894531,0.46399998664855957
1747543410015950800,3.797950927734375,-8.357000350952148,-5.0980000495910645,0.5680000185966492
1747543410025546000,3.8075458984375,-8.394000053405762,-5.025000095367432,0.6660000085830688
1747543410035140600,3.817140625,-8.432999610900879,-4.947000026702881,0.7490000128746033
1747543410044735500,3.826735595703125,-8.47700023651123,-4.861000061035156,0.8130000233650208
1747543410054331600,3.83633154296875,-8.526000022888184,-4.767000198364258,0.8600000143051147
1747543410063926800,3.8459267578125,-8.57699966430664,-4.669000148773193,0.8920000195503235
1747543410073521200,3.855521240234375,-8.628999710083008,-4.567999839782715,0.9139999747276306
1747543410083116300,3.8651162109375,-8.677000045776367,-4.4710001945495605,0.9309999942779541
1747543410092712200,3.874712158203125,-8.722000122070312,-4.380000114440918,0.9490000009536743
1747543410102307300,3.884307373046875,-8.76200008392334,-4.293000221252441,0.9779999852180481
1747543410111901700,3.893901611328125,-8.79699993133545,-4.210999965667725,1.0180000066757202
1747543410121496800,3.903496826171875,-8.829000473022461,-4.130000114440918,1.0679999589920044
1747543410131093000,3.913093017578125,-8.857999801635742,-4.052000045776367,1.125
1747543410140688000,3.92268798828125,-8.883999824523926,-3.9790000915527344,1.1859999895095825
1747543410150282200,3.9322822265625,-8.904000282287598,-3.9140000343322754,1.24399995803833
1747543410159877600,3.941877685546875,-8.920000076293945,-3.861999988555908,1.2940000295639038
1747543410169473500,3.9514736328125,-8.930999755859375,-3.822999954223633,1.3359999656677246
1747543410179068700,3.961068603515625,-8.935999870300293,-3.796999931335449,1.3730000257492065
1747543410188663000,3.9706630859375,-8.937999725341797,-3.7809998989105225,1.4079999923706055
1747543410198258200,3.980258056640625,-8.9350004196167,-3.7730000019073486,1.4450000524520874
1747543410207854000,3.98985400390625,-8.930000305175781,-3.7709999084472656,1.4830000400543213
1747543410217449500,3.999449462890625,-8.92199993133545,-3.7720000743865967,1.5240000486373901
1747543410227043800,4.0090439453125,-8.913999557495117,-3.7739999294281006,1.5679999589920044
1747543410236639000,4.018638916015625,-8.906000137329102,-3.7730000019073486,1.6160000562667847
1747543410246235000,4.02823486328125,-8.89900016784668,-3.7660000324249268,1.6699999570846558
1747543410255830000,4.037830078125,-8.892000198364258,-3.753999948501587,1.7300000190734863
1747543410265424400,4.04742431640625,-8.88599967956543,-3.740000009536743,1.7929999828338623
1747543410275019500,4.05701953125,-8.878000259399414,-3.7269999980926514,1.8569999933242798
1747543410284615400,4.066615478515625,-8.869000434875488,-3.7170000076293945,1.9179999828338623
1747543410294210600,4.07621044921875,-8.859999656677246,-3.7109999656677246,1.9700000286102295
1747543410303805000,4.085804931640625,-8.852999687194824,-3.7049999237060547,2.01200008392334
1747543410313400000,4.095400146484375,-8.850000381469727,-3.696000099182129,2.0429999828338623
1747543410322996200,4.104996337890625,-8.85200023651123,-3.680999994277954,2.062000036239624
1747543410332591400,4.11459130859375,-8.859999656677246,-3.6579999923706055,2.066999912261963
1747543410342185700,4.124185791015625,-8.873000144958496,-3.630000114440918,2.061000108718872
1747543410351780900,4.13378076171875,-8.890000343322754,-3.5980000495910645,2.0460000038146973
1747543410361376800,4.143376708984375,-8.906000137329102,-3.565999984741211,2.0280001163482666
1747543410370972000,4.152971923828125,-8.92300033569336,-3.5350000858306885,2.01200008392334
1747543410380566300,4.162566162109375,-8.935999870300293,-3.506999969482422,2.000999927520752
1747543410390161400,4.172161376953125,-8.946000099182129,-3.4839999675750732,1.9980000257492065
1747543410399757300,4.18175732421875,-8.949999809265137,-3.4690001010894775,2.003999948501587
1747543410409352700,4.191352783203125,-8.949000358581543,-3.4630000591278076,2.0190000534057617
1747543410418947000,4.200947021484375,-8.944999694824219,-3.4639999866485596,2.0360000133514404
1747543410428542200,4.210542236328125,-8.9399995803833,-3.4709999561309814,2.0450000762939453
1747543410438138000,4.22013818359375,-8.937000274658203,-3.4800000190734863,2.0439999103546143
1747543410447733200,4.229733154296875,-8.9350004196167,-3.490000009536743,2.0360000133514404
1747543410457327600,4.23932763671875,-8.935999870300293,-3.496000051498413,2.0199999809265137
1747543410466922800,4.2489228515625,-8.9399995803833,-3.496999979019165,2
1747543410476518700,4.2585185546875,-8.947999954223633,-3.492000102996826,1.975000023841858
1747543410486114000,4.268114013671875,-8.958000183105469,-3.4790000915527344,1.9490000009536743
1747543410495708400,4.27770849609375,-8.970000267028809,-3.4619998931884766,1.9240000247955322
1747543410505303300,4.28730322265625,-8.980999946594238,-3.446000099182129,1.9019999504089355
1747543410514899500,4.2968994140625,-8.98900032043457,-3.434999942779541,1.8869999647140503
1747543410524494600,4.30649462890625,-8.991000175476074,-3.430000066757202,1.8830000162124634
1747543410534089000,4.3160888671875,-8.98900032043457,-3.431999921798706,1.8910000324249268
1747543410543684000,4.32568408203125,-8.982000350952148,-3.438999891281128,1.9110000133514404
1747543410553280000,4.335280029296875,-8.972000122070312,-3.4489998817443848,1.9420000314712524
1747543410562875400,4.34487548828125,-8.958000183105469,-3.4609999656677246,1.9839999675750732
1747543410572469500,4.354469482421875,-8.942999839782715,-3.4709999561309814,2.0339999198913574
1747543410582065000,4.36406494140625,-8.925999641418457,-3.4779999256134033,2.0940001010894775
1747543410591660800,4.373660888671875,-8.909000396728516,-3.4769999980926514,2.1670000553131104
1747543410601256000,4.383255859375,-8.892999649047852,-3.4690001010894775,2.24399995803833
1747543410610850000,4.39285009765625,-8.875,-3.4639999866485596,2.321000099182129
1747543410620445400,4.402445556640625,-8.854000091552734,-3.4609999656677246,2.4030001163482666
1747543410630041300,4.412041259765625,-8.833000183105469,-3.4590001106262207,2.4839999675750732
1747543410639636500,4.421636474609375,-8.812000274658203,-3.4560000896453857,2.559999942779541
1747543410649230800,4.43123095703125,-8.791000366210938,-3.453000068664551,2.634999990463257
1747543410658826000,4.440825927734375,-8.770000457763672,-3.450000047683716,2.7090001106262207
1747543410668422100,4.450422119140625,-8.74899959564209,-3.447999954223633,2.7790000438690186
1747543410678017000,4.46001708984375,-8.727999687194824,-3.446000099182129,2.8480000495910645
1747543410687611600,4.469611572265625,-8.706000328063965,-3.446000099182129,2.9140000343322754
1747543410697206800,4.479206787109375,-8.684000015258789,-3.447000026702881,2.9779999256134033
1747543410706802700,4.488802734375,-8.65999984741211,-3.450000047683716,3.0420000553131104
1747543410716397800,4.498397705078125,-8.635000228881836,-3.4560000896453857,3.1070001125335693
1747543410725992200,4.5079921875,-8.605999946594238,-3.4649999141693115,3.174999952316284
1747543410735587300,4.51758740234375,-8.574000358581543,-3.4779999256134033,3.246999979019165
1747543410745183200,4.527183349609375,-8.538999557495117,-3.493000030517578,3.322999954223633
1747543410754778400,4.5367783203125,-8.5,-3.510999917984009,3.4010000228881836
1747543410764373000,4.546373046875,-8.458999633789062,-3.5320000648498535,3.4820001125335693
1747543410773968000,4.5559677734375,-8.414999961853027,-3.555000066757202,3.563999891281128
1747543410783564000,4.56556396484375,-8.369000434875488,-3.5810000896453857,3.6459999084472656
1747543410793159200,4.5751591796875,-8.321999549865723,-3.6080000400543213,3.7249999046325684
1747543410802753500,4.58475341796875,-8.277000427246094,-3.63100004196167,3.802999973297119
1747543410812348700,4.5943486328125,-8.232999801635742,-3.6510000228881836,3.878999948501587
1747543410821944600,4.603944580078125,-8.190999984741211,-3.6649999618530273,3.953000068664551
1747543410831539700,4.613539794921875,-8.152000427246094,-3.6760001182556152,4.021999835968018
1747543410841134000,4.623134033203125,-8.11400032043457,-3.686000108718872,4.091000080108643
1747543410850729500,4.6327294921875,-8.074999809265137,-3.693000078201294,4.1620001792907715
1747543410860325000,4.6423251953125,-8.034000396728516,-3.696000099182129,4.236999988555908
1747543410869920300,4.651920166015625,-7.992000102996826,-3.694999933242798,4.315999984741211
1747543410879515000,4.661514892578125,-7.947999954223633,-3.694000005722046,4.3979997634887695
1747543410889109800,4.67110986328125,-7.896999835968018,-3.697000026702881,4.486000061035156
1747543410898706000,4.680705810546875,-7.834000110626221,-3.7090001106262207,4.585000038146973
1747543410908301000,4.690301025390625,-7.756999969482422,-3.7290000915527344,4.698999881744385
1747543410917895700,4.699895751953125,-7.663000106811523,-3.755000114440918,4.829999923706055
1747543410927490800,4.70949072265625,-7.553999900817871,-3.7790000438690186,4.980999946594238
1747543410937086500,4.71908642578125,-7.434999942779541,-3.7880001068115234,5.151000022888184
1747543410946681900,4.728681884765625,-7.320000171661377,-3.7690000534057617,5.326000213623047
1747543410956276200,4.738276123046875,-7.2210001945495605,-3.7219998836517334,5.492000102996826
1747543410965871400,4.747871337890625,-7.140999794006348,-3.6530001163482666,5.640999794006348
1747543410975467300,4.75746728515625,-7.079999923706055,-3.569999933242798,5.769000053405762
1747543410985062400,4.7670625,-7.039000034332275,-3.4800000190734863,5.874000072479248
1747543410994656800,4.77665673828125,-7.013000011444092,-3.3949999809265137,5.953999996185303
1747543411004252000,4.786251953125,-6.995999813079834,-3.319999933242798,6.014999866485596
1747543411013848000,4.79584814453125,-6.984000205993652,-3.256999969482422,6.064000129699707
1747543411023443000,4.80544287109375,-6.979000091552734,-3.196000099182129,6.1020002365112305
1747543411033037600,4.81503759765625,-6.986999988555908,-3.13100004196167,6.126999855041504
1747543411042632400,4.824632568359375,-7.01200008392334,-3.059000015258789,6.133999824523926
1747543411052228600,4.834228515625,-7.053999900817871,-2.9760000705718994,6.126999855041504
1747543411061823700,4.84382373046875,-7.107999801635742,-2.88700008392334,6.10699987411499
1747543411071418000,4.853418212890625,-7.170000076293945,-2.7939999103546143,6.078000068664551
1747543411081013200,4.86301318359375,-7.235000133514404,-2.703000068664551,6.041999816894531
1747543411090609200,4.872609130859375,-7.298999786376953,-2.618000030517578,6.001999855041504
1747543411100204300,4.882204345703125,-7.357999801635742,-2.5429999828338623,5.9629998207092285
1747543411109798700,4.891798583984375,-7.4079999923706055,-2.4779999256134033,5.927999973297119
1747543411119393800,4.901393798828125,-7.448999881744385,-2.4230000972747803,5.89900016784668
1747543411128990000,4.910989990234375,-7.480999946594238,-2.378000020980835,5.876999855041504
1747543411138584800,4.920584716796875,-7.504000186920166,-2.3420000076293945,5.861999988555908
1747543411148179500,4.930179443359375,-7.519000053405762,-2.315000057220459,5.853000164031982
1747543411157774600,4.939774658203125,-7.5279998779296875,-2.2960000038146973,5.8480000495910645
1747543411167370500,4.94937060546875,-7.534999847412109,-2.2839999198913574,5.843999862670898
1747543411176966000,4.9589658203125,-7.541999816894531,-2.2760000228881836,5.839000225067139
1747543411186560000,4.96856005859375,-7.551000118255615,-2.2709999084472656,5.828999996185303
1747543411196155100,4.978155029296875,-7.565999984741211,-2.2660000324249268,5.810999870300293
1747543411205751000,4.9877509765625,-7.5879998207092285,-2.260999917984009,5.784999847412109
1747543411215346200,4.99734619140625,-7.61899995803833,-2.25,5.748000144958496
1747543411224940500,5.0069404296875,-7.658999919891357,-2.2309999465942383,5.703000068664551
1747543411234536000,5.016535888671875,-7.706999778747559,-2.2019999027252197,5.64900016784668
1747543411244131600,5.026131591796875,-7.761000156402588,-2.1640000343322754,5.590000152587891
1747543411253726700,5.035726806640625,-7.815999984741211,-2.11899995803833,5.5289998054504395
1747543411263321000,5.045321044921875,-7.867000102996826,-2.072000026702881,5.473999977111816
1747543411272916500,5.05491650390625,-7.909999847412109,-2.0309998989105225,5.427999973297119
1747543411282512400,5.064512451171875,-7.941999912261963,-2,5.39300012588501
1747543411292107500,5.074107421875,-7.964000225067139,-1.9800000190734863,5.367000102996826
1747543411301702000,5.083701904296875,-7.978000164031982,-1.972000002861023,5.348999977111816
1747543411311297000,5.093297119140625,-7.98799991607666,-1.972000002861023,5.334000110626221
1747543411320893000,5.102892822265625,-7.998000144958496,-1.975000023841858,5.317999839782715
1747543411330488000,5.112488037109375,-8.01099967956543,-1.9780000448226929,5.296999931335449
1747543411340082700,5.122082763671875,-8.027999877929688,-1.9789999723434448,5.270999908447266
1747543411359273500,5.1412734375,-8.071000099182129,-1.9769999980926514,5.205999851226807
1747543411368868900,5.150868896484375,-8.095999717712402,-1.9759999513626099,5.168000221252441
1747543411378463200,5.160463134765625,-8.119999885559082,-1.9759999513626099,5.130000114440918
1747543411388058400,5.170058349609375,-8.144000053405762,-1.9780000448226929,5.0920000076293945
1747543411397654300,5.179654296875,-8.164999961853027,-1.9809999465942383,5.056000232696533
1747543411407249400,5.18924951171875,-8.184000015258789,-1.9880000352859497,5.0229997634887695
1747543411416843800,5.19884375,-8.197999954223633,-1.996999979019165,4.995999813079834
1747543411426439000,5.20843896484375,-8.208000183105469,-2.009999990463257,4.973999977111816
1747543411436034800,5.218034912109375,-8.21399974822998,-2.0260000228881836,4.958000183105469
1747543411445630000,5.2276298828125,-8.21500015258789,-2.0409998893737793,4.948999881744385
1747543411455224300,5.237224365234375,-8.21500015258789,-2.055999994277954,4.945000171661377
1747543411464819500,5.2468193359375,-8.213000297546387,-2.066999912261963,4.942999839782715
1747543411474415600,5.25641552734375,-8.211000442504883,-2.075000047683716,4.942999839782715
1747543411484010800,5.2660107421875,-8.210000038146973,-2.0789999961853027,4.941999912261963
1747543411493605000,5.275605224609375,-8.211999893188477,-2.078000068664551,4.940000057220459
1747543411503200300,5.2852001953125,-8.215999603271484,-2.069000005722046,4.936999797821045
1747543411512796200,5.294796142578125,-8.222999572753906,-2.052000045776367,4.933000087738037
1747543411522391300,5.304391357421875,-8.232999801635742,-2.0250000953674316,4.927000045776367
1747543411531985700,5.313985595703125,-8.246000289916992,-1.9889999628067017,4.920000076293945
1747543411541580800,5.323580810546875,-8.26200008392334,-1.9450000524520874,4.910999774932861
1747543411551177000,5.333177001953125,-8.281000137329102,-1.8949999809265137,4.89900016784668
1747543411560772000,5.342772216796875,-8.303000450134277,-1.840000033378601,4.881999969482422
1747543411570366500,5.352366455078125,-8.32800006866455,-1.7790000438690186,4.861000061035156
1747543411579961300,5.36196142578125,-8.357999801635742,-1.7130000591278076,4.834000110626221
1747543411589557500,5.3715576171875,-8.390000343322754,-1.6419999599456787,4.802000045776367
1747543411599153000,5.38115283203125,-8.425000190734863,-1.5679999589920044,4.767000198364258
1747543411608747000,5.3907470703125,-8.458999633789062,-1.4930000305175781,4.729000091552734
1747543411618342400,5.40034228515625,-8.493000030517578,-1.4170000553131104,4.691999912261963
1747543411627938000,5.40993798828125,-8.52400016784668,-1.3420000076293945,4.6579999923706055
1747543411637533200,5.419533203125,-8.550999641418457,-1.2669999599456787,4.629000186920166
1747543411647127600,5.42912744140625,-8.572999954223633,-1.1970000267028809,4.60699987411499
1747543411656723000,5.438722900390625,-8.59000015258789,-1.1330000162124634,4.5920000076293945
1747543411666318600,5.448318603515625,-8.600000381469727,-1.0800000429153442,4.585999965667725
1747543411675914000,5.4579140625,-8.602999687194824,-1.0390000343322754,4.589000225067139
1747543411685508400,5.46750830078125,-8.602999687194824,-1.0119999647140503,4.5960001945495605
1747543411695103500,5.477103515625,-8.60099983215332,-0.9940000176429749,4.603000164031982
1747543411704699400,5.486699462890625,-8.598999977111816,-0.9760000109672546,4.611999988555908
1747543411714294500,5.49629443359375,-8.593999862670898,-0.9549999833106995,4.624000072479248
1747543411723889200,5.50588916015625,-8.586000442504883,-0.9309999942779541,4.644000053405762
1747543411733484000,5.515484130859375,-8.574000358581543,-0.902999997138977,4.671999931335449
1747543411743080200,5.525080078125,-8.557999610900879,-0.8769999742507935,4.705999851226807
1747543411752675000,5.534675048828125,-8.541999816894531,-0.8560000061988831,4.73799991607666
1747543411762269400,5.54426953125,-8.529000282287598,-0.843999981880188,4.763999938964844
1747543411771864800,5.55386474609375,-8.52299976348877,-0.8410000205039978,4.776000022888184
1747543411781460700,5.563460693359375,-8.52299976348877,-0.8489999771118164,4.7729997634887695
1747543411791056000,5.573055908203125,-8.532999992370605,-0.8659999966621399,4.754000186920166
1747543411800650200,5.582650146484375,-8.548999786376953,-0.8920000195503235,4.718999862670898
1747543411810245400,5.592245361328125,-8.571999549865723,-0.9229999780654907,4.671999931335449
1747543411819841300,5.60184130859375,-8.598999977111816,-0.9570000171661377,4.616000175476074
1747543411829436400,5.6114365234375,-8.626999855041504,-0.9929999709129333,4.554999828338623
1747543411839030800,5.62103076171875,-8.654000282287598,-1.031000018119812,4.49399995803833
1747543411848626000,5.6306259765625,-8.677000045776367,-1.0729999542236328,4.440000057220459
1747543411858221800,5.640221923828125,-8.692999839782715,-1.121999979019165,4.395999908447266
1747543411867817000,5.64981689453125,-8.704000473022461,-1.180999994277954,4.360000133514404
1747543411877411300,5.659411376953125,-8.708000183105469,-1.25,4.330999851226807
1747543411887006500,5.66900634765625,-8.706999778747559,-1.3320000171661377,4.308000087738037
1747543411896602400,5.678602294921875,-8.70199966430664,-1.4249999523162842,4.289999961853027
1747543411906197800,5.68819775390625,-8.690999984741211,-1.5230000019073486,4.2789998054504395
1747543411915792100,5.697792236328125,-8.675999641418457,-1.6230000257492065,4.271999835968018
1747543411925387300,5.70738720703125,-8.657999992370605,-1.722000002861023,4.269000053405762
1747543411934983200,5.716983154296875,-8.637999534606934,-1.8170000314712524,4.269999980926514
1747543411954172700,5.736172607421875,-8.590999603271484,-1.9919999837875366,4.2870001792907715
1747543411963767800,5.745767822265625,-8.562999725341797,-2.0759999752044678,4.302999973297119
1747543411973364000,5.755364013671875,-8.531000137329102,-2.1570000648498535,4.327000141143799
1747543411982959000,5.764958984375,-8.496999740600586,-2.2330000400543213,4.355999946594238
1747543411992553500,5.774553466796875,-8.46399974822998,-2.303999900817871,4.381999969482422
1747543412002148600,5.784148681640625,-8.435999870300293,-2.371999979019165,4.400000095367432
1747543412011744500,5.79374462890625,-8.414999961853027,-2.436000108718872,4.406000137329102
1747543412021339600,5.803339599609375,-8.39799976348877,-2.49399995803833,4.406000137329102
1747543412030934000,5.81293408203125,-8.380999565124512,-2.5490000247955322,4.4070000648498535
1747543412040529200,5.822529052734375,-8.361000061035156,-2.6010000705718994,4.414000034332275
1747543412050125000,5.832125,-8.336999893188477,-2.6500000953674316,4.431000232696533
1747543412059720400,5.841720458984375,-8.3149995803833,-2.693000078201294,4.446000099182129
1747543412069314600,5.851314453125,-8.302000045776367,-2.7260000705718994,4.449999809265137
1747543412078909700,5.86090966796875,-8.302000045776367,-2.75,4.434000015258789
1747543412088505900,5.870505859375,-8.312000274658203,-2.7679998874664307,4.4039998054504395
1747543412098101000,5.88010107421875,-8.324999809265137,-2.7860000133514404,4.36899995803833
1747543412107695400,5.8896953125,-8.335000038146973,-2.809000015258789,4.335000038146973
1747543412117290500,5.89929052734375,-8.34000015258789,-2.8420000076293945,4.302999973297119
1747543412126886700,5.90888671875,-8.340999603271484,-2.884999990463257,4.2729997634887695
1747543412136481800,5.918481689453125,-8.338000297546387,-2.934000015258789,4.245999813079834
1747543412146076000,5.928075927734375,-8.331999778747559,-2.9860000610351562,4.21999979019165
1747543412155671300,5.93767138671875,-8.326000213623047,-3.0399999618530273,4.192999839782715
1747543412165267200,5.94726708984375,-8.321999549865723,-3.0929999351501465,4.163000106811523
1747543412174862300,5.9568623046875,-8.319000244140625,-3.1449999809265137,4.13100004196167
1747543412184456400,5.96645654296875,-8.3149995803833,-3.1989998817443848,4.0970001220703125
1747543412194051800,5.9760517578125,-8.307000160217285,-3.259999990463257,4.065000057220459
1747543412203647500,5.9856474609375,-8.293999671936035,-3.328000068664551,4.035999774932861
1747543412213243000,5.995242919921875,-8.277000427246094,-3.4010000228881836,4.011000156402588
1747543412222837200,6.004837158203125,-8.256999969482422,-3.4760000705718994,3.986999988555908
1747543412232432400,6.014432373046875,-8.234000205993652,-3.5490000247955322,3.9690001010894775
1747543412242028300,6.0240283203125,-8.208000183105469,-3.615000009536743,3.9639999866485596
1747543412251623700,6.033623779296875,-8.178000450134277,-3.6700000762939453,3.9749999046325684
1747543412261218000,6.043218017578125,-8.145999908447266,-3.7090001106262207,4.005000114440918
1747543412270813000,6.05281298828125,-8.114999771118164,-3.7320001125335693,4.046999931335449
1747543412280409000,6.0624091796875,-8.086999893188477,-3.73799991607666,4.0960001945495605
1747543412290004200,6.072004150390625,-8.067999839782715,-3.7219998836517334,4.14900016784668
1747543412299598600,6.0815986328125,-8.059000015258789,-3.683000087738037,4.201000213623047
1747543412309193700,6.09119384765625,-8.0600004196167,-3.622999906539917,4.25
1747543412318789600,6.10078955078125,-8.069999694824219,-3.5460000038146973,4.296000003814697
1747543412328384800,6.110384765625,-8.083000183105469,-3.4570000171661377,4.343999862670898
1747543412337979100,6.119979248046875,-8.097000122070312,-3.3589999675750732,4.394000053405762
1747543412347574300,6.12957421875,-8.109999656677246,-3.255000114440918,4.447999954223633
1747543412357170200,6.139170166015625,-8.116000175476074,-3.1489999294281006,4.513000011444092
1747543412366765600,6.148765625,-8.111000061035156,-3.0439999103546143,4.593999862670898
1747543412376360000,6.15835986328125,-8.08899974822998,-2.944000005722046,4.697000026702881
1747543412385955000,6.167955078125,-8.043999671936035,-2.8559999465942383,4.824999809265137
1747543412395551000,6.177551025390625,-7.973999977111816,-2.7829999923706055,4.98199987411499
1747543412405146000,6.18714599609375,-7.873000144958496,-2.7249999046325684,5.171000003814697
1747543412414740500,6.196740478515625,-7.738999843597412,-2.680000066757202,5.392000198364258
1747543412424335600,6.206335693359375,-7.572999954223633,-2.6419999599456787,5.640999794006348
1747543412433931800,6.215931884765625,-7.377999782562256,-2.6050000190734863,5.910999774932861
1747543412443526700,6.225526611328125,-7.150000095367432,-2.556999921798706,6.203999996185303
1747543412453121300,6.235121337890625,-6.89900016784668,-2.490999937057495,6.507999897003174
1747543412462716400,6.24471630859375,-6.625,-2.3989999294281006,6.820000171661377
1747543412472312300,6.254312255859375,-6.323999881744385,-2.2750000953674316,7.139999866485596
1747543412481907700,6.26390771484375,-6.01200008392334,-2.121000051498413,7.451000213623047
1747543412491501800,6.273501708984375,-5.695000171661377,-1.9290000200271606,7.745999813079834
1747543412501097000,6.283096923828125,-5.379000186920166,-1.6920000314712524,8.022000312805176
1747543412510693000,6.292693115234375,-5.065000057220459,-1.406000018119812,8.277999877929688
1747543412520288000,6.3022880859375,-4.76200008392334,-1.0750000476837158,8.503999710083008
1747543412529882600,6.311882568359375,-4.460000038146973,-0.6880000233650208,8.706000328063965
1747543412539477800,6.321477783203125,-4.158999919891357,-0.23600000143051147,8.876999855041504
1747543412549073700,6.33107373046875,-3.8559999465942383,0.2770000100135803,9.01200008392334
1747543412558668800,6.340668701171875,-3.5480000972747803,0.8479999899864197,9.10200023651123
1747543412568263200,6.35026318359375,-3.234999895095825,1.4639999866485596,9.140999794006348
1747543412577858600,6.359858642578125,-2.9119999408721924,2.1029999256134033,9.12399959564209
1747543412587454200,6.3694541015625,-2.5829999446868896,2.75,9.050999641418457
1747543412597049600,6.379049560546875,-2.253999948501587,3.38700008392334,8.92199993133545
1747543412606643700,6.388643798828125,-1.934000015258789,4.000999927520752,8.741000175476074
1747543412616239000,6.398239013671875,-1.6330000162124634,4.578999996185303,8.515999794006348
1747543412625834800,6.407834716796875,-1.3609999418258667,5.110000133514404,8.258000373840332
1747543412635430100,6.41743017578125,-1.13100004196167,5.5879998207092285,7.978000164031982
1747543412645024300,6.427024169921875,-0.9549999833106995,6.013999938964844,7.685999870300293
1747543412654619600,6.43661962890625,-0.8410000205039978,6.39300012588501,7.388000011444092
1747543412664215800,6.4462158203125,-0.7910000085830688,6.730999946594238,7.086999893188477
1747543412673810700,6.455810791015625,-0.8009999990463257,7.031000137329102,6.788000106811523
1747543412693000200,6.475000244140625,-0.9629999995231628,7.546999931335449,6.185999870300293
1747543412702596400,6.484596435546875,-1.0959999561309814,7.760000228881836,5.894000053405762
1747543412721785900,6.503785888671875,-1.4329999685287476,8.109999656677246,5.322999954223633
1747543412740977000,6.522976806640625,-1.7999999523162842,8.359000205993652,4.800000190734863
1747543412769761500,6.551761474609375,-2.253000020980835,8.597000122070312,4.144000053405762
1747543412779357700,6.561357666015625,-2.3519999980926514,8.654999732971191,3.9649999141693115
1747543412798547200,6.580547119140625,-2.4600000381469727,8.75,3.680000066757202
1747543412808142000,6.59014208984375,-2.4839999675750732,8.781999588012695,3.5859999656677246
1747543412817738200,6.59973828125,-2.503999948501587,8.795999526977539,3.5380001068115234
1747543412836927700,6.618927734375,-2.553999900817871,8.753000259399414,3.6080000400543213
1747543412856118800,6.638118896484375,-2.6029999256134033,8.621999740600586,3.878999948501587
1747543412865714000,6.6477138671875,-2.618000030517578,8.529999732971191,4.065999984741211
1747543412875308300,6.657308349609375,-2.627000093460083,8.425000190734863,4.276000022888184
1747543412884903400,6.6669033203125,-2.640000104904175,8.310999870300293,4.485000133514404
1747543412894499600,6.67649951171875,-2.6630001068115234,8.194999694824219,4.678999900817871
1747543412904094700,6.6860947265625,-2.703000068664551,8.07800006866455,4.857999801635742
1747543412923284200,6.7052841796875,-2.818000078201294,7.829999923706055,5.185999870300293
1747543412932880100,6.714880126953125,-2.878000020980835,7.703000068664551,5.3420000076293945
1747543412961664800,6.743664794921875,-3.0980000495910645,7.296000003814697,5.771999835968018
1747543412980855800,6.762855712890625,-3.246000051498413,7.021999835968018,6.026000022888184
1747543412990450400,6.772450439453125,-3.319999933242798,6.900000095367432,6.125999927520752
1747543413000045300,6.78204541015625,-3.3949999809265137,6.790999889373779,6.205999851226807
1747543413009641500,6.791641357421875,-3.4679999351501465,6.698999881744385,6.265999794006348
1747543413019236600,6.801236572265625,-3.5350000858306885,6.627999782562256,6.302999973297119
1747543413028831000,6.8108310546875,-3.5950000286102295,6.585000038146973,6.314000129699707
1747543413038426000,6.820426025390625,-3.6480000019073486,6.572000026702881,6.296999931335449
1747543413048022000,6.83002197265625,-3.691999912261963,6.585999965667725,6.25600004196167
1747543413057617200,6.8396171875,-3.7260000705718994,6.619999885559082,6.201000213623047
1747543413067211500,6.84921142578125,-3.753999948501587,6.660999774932861,6.138999938964844
1747543413076807000,6.858806884765625,-3.7839999198913574,6.699999809265137,6.078000068664551
1747543413086402600,6.868402587890625,-3.819999933242798,6.729000091552734,6.02400016784668
1747543413095998000,6.877998046875,-3.868000030517578,6.742000102996826,5.978000164031982
1747543413105592000,6.887592041015625,-3.927000045776367,6.739999771118164,5.941999912261963
1747543413115187200,6.897187255859375,-3.99399995803833,6.723999977111816,5.914999961853027
1747543413124783000,6.906783203125,-4.060999870300293,6.697999954223633,5.89900016784668
1747543413134378500,6.91637841796875,-4.110000133514404,6.675000190734863,5.890999794006348
1747543413143972900,6.925972900390625,-4.131999969482422,6.664999961853027,5.88700008392334
1747543413153568000,6.935568115234375,-4.125999927520752,6.665999889373779,5.889999866485596
1747543413163164000,6.945163818359375,-4.0920000076293945,6.671999931335449,5.9079999923706055
1747543413172759000,6.954759033203125,-4.039999961853027,6.676000118255615,5.938000202178955
1747543413182353400,6.964353515625,-3.9860000610351562,6.677000045776367,5.9730000495910645
1747543413191948800,6.97394873046875,-3.946000099182129,6.668000221252441,6.010000228881836
1747543413201544700,6.983544677734375,-3.9260001182556152,6.645999908447266,6.046999931335449
1747543413211139800,6.993139892578125,-3.9210000038146973,6.611000061035156,6.089000225067139
1747543413220734000,7.00273388671875,-3.928999900817871,6.564000129699707,6.135000228881836
1747543413230329300,7.012329345703125,-3.946000099182129,6.508999824523926,6.182000160217285
1747543413239925000,7.021925048828125,-3.9639999866485596,6.453000068664551,6.229000091552734
1747543413249520400,7.031520263671875,-3.9769999980926514,6.39900016784668,6.276000022888184
1747543413259115000,7.041114990234375,-3.9779999256134033,6.35099983215332,6.323999881744385
1747543413268710000,7.0507099609375,-3.9649999141693115,6.309000015258789,6.374000072479248
1747543413278305800,7.060305908203125,-3.946000099182129,6.270999908447266,6.422999858856201
1747543413287901000,7.06990087890625,-3.928999900817871,6.232999801635742,6.46999979019165
1747543413297495300,7.079495361328125,-3.9189999103546143,6.193999767303467,6.513999938964844
1747543413307090400,7.08909033203125,-3.9170000553131104,6.1539998054504395,6.552999973297119
1747543413316686600,7.0986865234375,-3.927000045776367,6.114999771118164,6.583000183105469
1747543413326281700,7.10828173828125,-3.947000026702881,6.078999996185303,6.605000019073486
1747543413335876000,7.1178759765625,-3.9830000400543213,6.041999816894531,6.617000102996826
1747543413345471200,7.12747119140625,-4.040999889373779,6.001999855041504,6.618000030517578
1747543413355067100,7.137067138671875,-4.109000205993652,5.960999965667725,6.61299991607666
1747543413364662300,7.146662353515625,-4.177999973297119,5.922999858856201,6.604000091552734
1747543413374256600,7.156256591796875,-4.242000102996826,5.890999794006348,6.5920000076293945
1747543413383851800,7.165851806640625,-4.293000221252441,5.867000102996826,6.579999923706055
1747543413393447700,7.17544775390625,-4.333000183105469,5.854000091552734,6.565999984741211
1747543413403042800,7.185042724609375,-4.368000030517578,5.849999904632568,6.546000003814697
1747543413412637200,7.19463720703125,-4.409999847412109,5.849999904632568,6.51800012588501
1747543413422232300,7.204232421875,-4.458000183105469,5.849999904632568,6.485000133514404
1747543413431828500,7.213828369140625,-4.510000228881836,5.84499979019165,6.453000068664551
1747543413441423600,7.223423583984375,-4.572000026702881,5.834000110626221,6.419000148773193
1747543413451018000,7.23301806640625,-4.639999866485596,5.818999767303467,6.383999824523926
1747543413460613000,7.242613037109375,-4.709000110626221,5.803999900817871,6.3480000495910645
1747543413470209000,7.252208984375,-4.75,5.795000076293945,6.324999809265137
1747543413479804200,7.26180419921875,-4.784999847412109,5.7789998054504395,6.313000202178955
1747543413489398500,7.2713984375,-4.86899995803833,5.743000030517578,6.2820000648498535
1747543413498993700,7.28099365234375,-4.974999904632568,5.704999923706055,6.234000205993652
1747543413508589600,7.290589599609375,-5.067999839782715,5.666999816894531,6.192999839782715
1747543413518184700,7.300184814453125,-5.142000198364258,5.620999813079834,6.173999786376953
1747543413527779000,7.309779052734375,-5.196000099182129,5.559000015258789,6.185999870300293
1747543413537374200,7.319374267578125,-5.2170000076293945,5.484000205993652,6.232999801635742
1747543413546970000,7.32897021484375,-5.197000026702881,5.4079999923706055,6.316999912261963
1747543413556565200,7.338565185546875,-5.124000072479248,5.335000038146973,6.436999797821045
1747543413566159600,7.34815966796875,-5.000999927520752,5.258999824523926,6.59499979019165
1747543413575754800,7.357754638671875,-4.828000068664551,5.181000232696533,6.7820000648498535
1747543413585351000,7.367350830078125,-4.59499979019165,5.105999946594238,6.998000144958496
1747543413594945800,7.37694580078125,-4.328000068664551,5.017000198364258,7.228000164031982
1747543413604540400,7.38654052734375,-4.064000129699707,4.89900016784668,7.459000110626221
1747543413614135300,7.39613525390625,-3.819999933242798,4.757999897003174,7.676000118255615
1747543413623731500,7.4057314453125,-3.5980000495910645,4.610000133514404,7.870999813079834
1747543413633326300,7.415326416015625,-3.4149999618530273,4.460999965667725,8.036999702453613
1747543413642921000,7.4249208984375,-3.260999917984009,4.302000045776367,8.185999870300293
1747543413652515800,7.434515869140625,-3.128999948501587,4.129000186920166,8.326000213623047
1747543413662112000,7.444112060546875,-3.009000062942505,3.934000015258789,8.463000297546387
1747543413671707000,7.453706787109375,-2.9079999923706055,3.7149999141693115,8.595999717712402
1747543413681301500,7.463301513671875,-2.8289999961853027,3.4790000915527344,8.720000267028809
1747543413690896600,7.472896728515625,-2.7769999504089355,3.253000020980835,8.824000358581543
1747543413700492500,7.482492431640625,-2.753000020980835,3.059000015258789,8.901000022888184
1747543413710087700,7.492087646484375,-2.756999969482422,2.8959999084472656,8.954000473022461
1747543413719682000,7.50168212890625,-2.7809998989105225,2.75600004196167,8.989999771118164
1747543413729277200,7.511277099609375,-2.799999952316284,2.634000062942505,9.020999908447266
1747543413738873000,7.520873046875,-2.799999952316284,2.5209999084472656,9.053000450134277
1747543413748468200,7.53046826171875,-2.7790000438690186,2.4170000553131104,9.088000297546387
1747543413758062600,7.5400625,-2.7360000610351562,2.3299999237060547,9.12399959564209
1747543413767658000,7.549657958984375,-2.678999900817871,2.2730000019073486,9.154999732971191
1747543413777253600,7.559253662109375,-2.628999948501587,2.259000062942505,9.17300033569336
1747543413786849000,7.56884912109375,-2.6019999980926514,2.2939999103546143,9.17199993133545
1747543413796443400,7.578443359375,-2.6080000400543213,2.377000093460083,9.14900016784668
1747543413806038300,7.588038330078125,-2.6489999294281006,2.503999948501587,9.102999687194824
1747543413815634400,7.597634521484375,-2.7130000591278076,2.6689999103546143,9.036999702453613
1747543413825229600,7.6072294921875,-2.7720000743865967,2.865000009536743,8.958999633789062
1747543413834824000,7.616823974609375,-2.811000108718872,3.075000047683716,8.876999855041504
1747543413844419300,7.62641943359375,-2.8239998817443848,3.2880001068115234,8.795999526977539
1747543413854015000,7.636014892578125,-2.806999921798706,3.5,8.718999862670898
1747543413863610400,7.6456103515625,-2.759999990463257,3.7139999866485596,8.645000457763672
1747543413873204500,7.65520458984375,-2.674999952316284,3.9240000247955322,8.579000473022461
1747543413882799900,7.6647998046875,-2.555000066757202,4.130000114440918,8.519000053405762
1747543413892395500,7.6743955078125,-2.4260001182556152,4.326000213623047,8.458999633789062
1747543413901991000,7.683990966796875,-2.2990000247955322,4.519000053405762,8.392999649047852
1747543413911585500,7.69358544921875,-2.187999963760376,4.699999809265137,8.322999954223633
1747543413921180400,7.703180419921875,-2.1029999256134033,4.864999771118164,8.25
1747543413930776600,7.712776611328125,-2.0450000762939453,5.007999897003174,8.178999900817871
1747543413949965800,7.7319658203125,-2.013000011444092,5.208000183105469,8.060999870300293
1747543413959561200,7.741561279296875,-2.0309998989105225,5.249000072479248,8.029999732971191
1747543413969076200,7.751076171875,-2.058000087738037,5.258999824523926,8.015999794006348
1747543413978752300,7.760752197265625,-2.118000030517578,5.250999927520752,8.005999565124512
1747543413988346400,7.770346435546875,-2.2090001106262207,5.239999771118164,7.988999843597412
1747543413997941800,7.779941650390625,-2.302999973297119,5.239999771118164,7.961999893188477
1747543414007537700,7.78953759765625,-2.375,5.243000030517578,7.939000129699707
1747543414017132800,7.7991328125,-2.421999931335449,5.238999843597412,7.927999973297119
1747543414026727400,7.8087275390625,-2.4560000896453857,5.2220001220703125,7.927999973297119
1747543414036322300,7.818322265625,-2.486999988555908,5.195000171661377,7.935999870300293
1747543414045918500,7.82791845703125,-2.51200008392334,5.1529998779296875,7.955999851226807
1747543414055513300,7.837513427734375,-2.5269999504089355,5.078999996185303,7.998000144958496
1747543414065108000,7.84710791015625,-2.5429999828338623,4.959000110626221,8.069000244140625
1747543414074702800,7.856702880859375,-2.5799999237060547,4.7789998054504395,8.164999961853027
1747543414084299000,7.866299072265625,-2.6459999084472656,4.5370001792907715,8.281000137329102
1747543414093894100,7.87589404296875,-2.684000015258789,4.27400016784668,8.406999588012695
1747543414103488300,7.88548828125,-2.671999931335449,4.021999835968018,8.53499984741211
1747543414113083600,7.895083740234375,-2.621000051498413,3.8010001182556152,8.651000022888184
1747543414122679600,7.904679443359375,-2.5460000038146973,3.611999988555908,8.753000259399414
1747543414132274700,7.914274658203125,-2.437999963760376,3.4489998817443848,8.850000381469727
1747543414141869000,7.923869140625,-2.2869999408721924,3.309999942779541,8.942999839782715
1747543414151464200,7.933464111328125,-2.0929999351501465,3.187999963760376,9.034000396728516
1747543414161060000,7.94306005859375,-1.8730000257492065,3.0880000591278076,9.116999626159668
1747543414170655200,7.9526552734375,-1.6449999809265137,3.0160000324249268,9.184000015258789
1747543414180249600,7.96224951171875,-1.4259999990463257,2.9779999256134033,9.232999801635742
1747543414189844700,7.9718447265625,-1.2200000286102295,2.9739999771118164,9.263999938964844
1747543414199440600,7.981440673828125,-1.0240000486373901,3.00600004196167,9.277999877929688
1747543414209035800,7.991035888671875,-0.8379999995231628,3.072000026702881,9.27400016784668
1747543414218630100,8.000630126953125,-0.6759999990463257,3.1670000553131104,9.255999565124512
1747543414228225300,8.010225341796875,-0.546999990940094,3.2869999408721924,9.222000122070312
1747543414237821200,8.0198212890625,-0.44600000977516174,3.438999891281128,9.17199993133545
1747543414247416300,8.029416259765625,-0.375,3.625999927520752,9.102999687194824
1747543414257011000,8.039010986328124,-0.33399999141693115,3.8410000801086426,9.015999794006348
1747543414266606000,8.048606201171875,-0.3160000145435333,4.073999881744385,8.913999557495117
1747543414276202000,8.058201904296874,-0.2919999957084656,4.318999767303467,8.798999786376953
1747543414285797000,8.067797119140625,-0.2280000001192093,4.567999839782715,8.673999786376953
1747543414295391500,8.0773916015625,-0.0729999989271164,4.797999858856201,8.552000045776367
1747543414304986400,8.086986328125,0.19900000095367432,4.98199987411499,8.444000244140625
1747543414314582500,8.09658251953125,0.5659999847412109,5.109000205993652,8.35099983215332
1747543414324177700,8.106177734375,0.9660000205039978,5.178999900817871,8.270000457763672
1747543414333772000,8.11577197265625,1.3220000267028809,5.203999996185303,8.206000328063965
1747543414343367200,8.1253671875,1.5140000581741333,5.186999797821045,8.182999610900879
1747543414352963000,8.134963134765625,1.5379999876022339,5.133999824523926,8.211000442504883
1747543414362558200,8.14455810546875,1.4950000047683716,5.058000087738037,8.267000198364258
1747543414372152800,8.15415283203125,1.4539999961853027,4.980000019073486,8.321000099182129
1747543414381748000,8.163748046875,1.4299999475479126,4.910999774932861,8.366000175476074
1747543414391343900,8.17334375,1.440000057220459,4.8520002365112305,8.39900016784668
1747543414400939000,8.18293896484375,1.4930000305175781,4.803999900817871,8.416999816894531
1747543414410533400,8.192533447265625,1.5880000591278076,4.765999794006348,8.420999526977539
1747543414420128500,8.20212841796875,1.7020000219345093,4.736000061035156,8.416000366210938
1747543414429724400,8.211724365234375,1.8079999685287476,4.7170000076293945,8.404999732971191
1747543414439319600,8.221319580078125,1.8839999437332153,4.7129998207092285,8.390000343322754
1747543414448914000,8.230913818359374,1.9190000295639038,4.72599983215332,8.375
1747543414458509000,8.240509033203125,1.9240000247955322,4.750999927520752,8.359000205993652
1747543414468105200,8.250105224609374,1.9170000553131104,4.789000034332275,8.34000015258789
1747543414477700400,8.259700439453125,1.909999966621399,4.840000152587891,8.310999870300293
1747543414487294700,8.269294677734376,1.9049999713897705,4.9029998779296875,8.276000022888184
1747543414496889900,8.278889892578125,1.8980000019073486,4.968999862670898,8.23799991607666
1747543414506485800,8.28848583984375,1.8869999647140503,5.031000137329102,8.20300006866455
1747543414516081000,8.298080810546875,1.8669999837875366,5.086999893188477,8.17300033569336
1747543414525675300,8.30767529296875,1.843000054359436,5.133999824523926,8.14799976348877
1747543414535270400,8.3172705078125,1.819000005722046,5.170000076293945,8.130999565124512
1747543414544866600,8.326866455078125,1.7940000295639038,5.193999767303467,8.121999740600586
1747543414554461700,8.336461669921874,1.7649999856948853,5.209000110626221,8.118000030517578
1747543414564056000,8.34605615234375,1.7280000448226929,5.2210001945495605,8.119000434875488
1747543414573651200,8.355651123046876,1.690000057220459,5.234000205993652,8.118000030517578
1747543414583247000,8.3652470703125,1.6579999923706055,5.249000072479248,8.114999771118164
1747543414592842200,8.37484228515625,1.6410000324249268,5.26200008392334,8.109999656677246
1747543414602436900,8.384436767578125,1.6399999856948853,5.265999794006348,8.107999801635742
1747543414612031700,8.39403173828125,1.6490000486373901,5.261000156402588,8.109000205993652
1747543414621628000,8.4036279296875,1.6619999408721924,5.251999855041504,8.11299991607666
1747543414631222800,8.413222900390625,1.6660000085830688,5.245999813079834,8.114999771118164
1747543414640817400,8.4228173828125,1.656999945640564,5.243000030517578,8.119000434875488
1747543414650412300,8.432412353515625,1.6260000467300415,5.24399995803833,8.125
1747543414660008400,8.442008544921874,1.5700000524520874,5.248000144958496,8.133000373840332
1747543414669603600,8.451603515625,1.4910000562667847,5.257999897003174,8.142000198364258
1747543414679198000,8.461197998046876,1.3969999551773071,5.276000022888184,8.147000312805176
1747543414688793000,8.47079296875,1.3240000009536743,5.306000232696533,8.138999938964844
1747543414698389000,8.480388916015626,1.3040000200271606,5.3420000076293945,8.119000434875488
1747543414707984100,8.489984130859375,1.315999984741211,5.382999897003174,8.09000015258789
1747543414717578500,8.49957861328125,1.3669999837875366,5.426000118255615,8.053000450134277
1747543414727173600,8.509173583984374,1.4839999675750732,5.456999778747559,8.01099967956543
1747543414736769800,8.518769775390625,1.5829999446868896,5.474999904632568,7.979000091552734
1747543414746365000,8.528364990234374,1.5570000410079956,5.493000030517578,7.9720001220703125
1747543414755959300,8.537959228515625,1.4190000295639038,5.52400016784668,7.97599983215332
1747543414765554400,8.547554443359376,1.2480000257492065,5.578999996185303,7.9670000076293945
1747543414775150300,8.557150390625,1.1030000448226929,5.6519999504089355,7.936999797821045
1747543414784745500,8.566745361328126,0.996999979019165,5.7230000495910645,7.900000095367432
1747543414794339800,8.57633984375,0.9229999780654907,5.7820000648498535,7.866000175476074
1747543414803935000,8.58593505859375,0.8790000081062317,5.821000099182129,7.8420000076293945
1747543414813531000,8.59553076171875,0.8610000014305115,5.828999996185303,7.8379998207092285
1747543414823126000,8.6051259765625,0.8700000047683716,5.809999942779541,7.85099983215332
1747543414832720400,8.614720458984374,0.8970000147819519,5.795000076293945,7.860000133514404
1747543414842315500,8.6243154296875,0.9399999976158142,5.796000003814697,7.854000091552734
1747543414851911400,8.633911376953124,0.9850000143051147,5.813000202178955,7.835999965667725
1747543414861506600,8.643506591796875,1.0210000276565552,5.8520002365112305,7.802000045776367
1747543414871101000,8.653100830078126,1.0390000343322754,5.920000076293945,7.748000144958496
1747543414880696300,8.6626962890625,1.031000018119812,6.019000053405762,7.671999931335449
1747543414890292000,8.6722919921875,0.9929999709129333,6.142000198364258,7.579999923706055
1747543414899887400,8.681887451171875,0.9300000071525574,6.2789998054504395,7.473999977111816
1747543414909481500,8.6914814453125,0.8510000109672546,6.421999931335449,7.361000061035156
1747543414919076600,8.70107666015625,0.7620000243186951,6.570000171661377,7.238999843597412
1747543414928609800,8.71060986328125,0.6639999747276306,6.723999977111816,7.10699987411499
1747543414947862000,8.729862060546875,0.4129999876022339,7.061999797821045,6.789999961853027
1747543414957457400,8.73945751953125,0.2639999985694885,7.236000061035156,6.61299991607666
1747543414967053300,8.74905322265625,0.10400000214576721,7.4070000648498535,6.425000190734863
1747543414976648400,8.7586484375,-0.057999998331069946,7.573999881744385,6.228000164031982
1747543414986242800,8.768242919921875,-0.21199999749660492,7.734000205993652,6.025000095367432
1747543414995838000,8.777837890625,-0.3529999852180481,7.883999824523926,5.820000171661377
1747543415005433600,8.78743359375,-0.4740000069141388,8.02299976348877,5.618000030517578
1747543415015029000,8.797029052734375,-0.5720000267028809,8.14799976348877,5.426000118255615
1747543415024623000,8.806623046875,-0.6460000276565552,8.251999855041504,5.257999897003174
1747543415034218500,8.816218505859375,-0.6980000138282776,8.329000473022461,5.127999782562256
1747543415043814400,8.825814453125,-0.7329999804496765,8.37399959564209,5.048999786376953
1747543415053409500,8.835409423828125,-0.7630000114440918,8.38700008392334,5.02400016784668
1747543415063004000,8.84500390625,-0.8040000200271606,8.366000175476074,5.051000118255615
1747543415072599000,8.85459912109375,-0.8650000095367432,8.324000358581543,5.111000061035156
1747543415082195000,8.86419482421875,-0.949999988079071,8.269000053405762,5.184999942779541
1747543415091790300,8.873790283203125,-1.0540000200271606,8.208999633789062,5.257999897003174
1747543415101384400,8.883384521484375,-1.1679999828338623,8.152000427246094,5.322999954223633
1747543415110979800,8.892979736328124,-1.284000039100647,8.100000381469727,5.375
1747543415120575500,8.902575439453125,-1.3940000534057617,8.057999610900879,5.410999774932861
1747543415130171000,8.9121708984375,-1.4930000305175781,8.027999877929688,5.428999900817871
1747543415139765000,8.921764892578125,-1.5839999914169312,8.01200008392334,5.427000045776367
1747543415149360400,8.9313603515625,-1.6729999780654907,8.020000457763672,5.388999938964844
1747543415158956300,8.940956298828125,-1.7610000371932983,8.052000045776367,5.311999797821045
1747543415168551400,8.950551513671876,-1.843999981880188,8.102999687194824,5.205999851226807
1747543415178145800,8.960145751953124,-1.9259999990463257,8.163999557495117,5.079999923706055
1747543415187741000,8.969740966796875,-2.00600004196167,8.22599983215332,4.946000099182129
1747543415197336800,8.9793369140625,-2.078000068664551,8.284000396728516,4.817999839782715
1747543415206932200,8.98893212890625,-2.131999969482422,8.335000038146973,4.704999923706055
1747543415216526600,8.998526611328124,-2.1600000858306885,8.378000259399414,4.616000175476074
1747543415226121700,9.008121826171875,-2.1640000343322754,8.411999702453613,4.551000118255615
1747543415235717400,9.01771728515625,-2.1500000953674316,8.4399995803833,4.504000186920166
1747543415245312800,9.027312744140625,-2.125999927520752,8.463000297546387,4.473999977111816
1747543415254907000,9.036906982421876,-2.0920000076293945,8.480999946594238,4.455999851226807
1747543415264502300,9.046502197265625,-2.0510001182556152,8.494999885559082,4.447000026702881
1747543415274098400,9.056098388671876,-1.996999979019165,8.508999824523926,4.446000099182129
1747543415283693300,9.065693359375,-1.930999994277954,8.52400016784668,4.447000026702881
1747543415293288000,9.075287841796875,-1.8519999980926514,8.545000076293945,4.439000129699707
1747543415302882800,9.0848828125,-1.7660000324249268,8.57800006866455,4.409999847412109
1747543415312479000,9.09447900390625,-1.6779999732971191,8.62399959564209,4.355999946594238
1747543415322074000,9.10407421875,-1.5889999866485596,8.682000160217285,4.2729997634887695
1747543415331668500,9.11366845703125,-1.503000020980835,8.74899959564209,4.164999961853027
1747543415341263600,9.123263671875,-1.4199999570846558,8.824999809265137,4.0329999923706055
1747543415350859500,9.132859619140625,-1.3389999866485596,8.906000137329102,3.878999948501587
1747543415360454700,9.14245458984375,-1.2610000371932983,8.991000175476074,3.7049999237060547
1747543415370049300,9.15204931640625,-1.187000036239624,9.076000213623047,3.5169999599456787
1747543415379644200,9.16164404296875,-1.1200000047683716,9.157999992370605,3.322999954223633
1747543415389240300,9.171240234375,-1.0579999685287476,9.234000205993652,3.125999927520752
1747543415398835200,9.180835205078125,-0.9940000176429749,9.303999900817871,2.934000015258789
1747543415408429800,9.190429931640624,-0.9210000038146973,9.366999626159668,2.750999927520752
1747543415418024700,9.200024658203125,-0.8209999799728394,9.423999786376953,2.5829999446868896
1747543415427620900,9.209620849609376,-0.6759999990463257,9.475000381469727,2.434999942779541
1747543415437216000,9.219216064453125,-0.4300000071525574,9.522000312805176,2.302999973297119
1747543415446810400,9.228810302734376,-0.04600000008940697,9.564000129699707,2.1640000343322754
1747543415456405500,9.238405517578125,0.42399999499320984,9.593000411987305,1.9900000095367432
1747543415466001400,9.24800146484375,0.9259999990463257,9.60099983215332,1.7669999599456787
1747543415475596500,9.257596435546875,1.4229999780654907,9.586000442504883,1.496999979019165
1747543415485191000,9.26719091796875,1.8919999599456787,9.54800033569336,1.190000057220459
1747543415494786000,9.2767861328125,2.309999942779541,9.491000175476074,0.8659999966621399
1747543415504382000,9.2863818359375,2.6540000438690186,9.423999786376953,0.5450000166893005
1747543415513977300,9.295977294921874,2.9070000648498535,9.362000465393066,0.25600001215934753
1747543415523571700,9.30557177734375,3.0759999752044678,9.310999870300293,0.028999999165534973
1747543415533166600,9.31516650390625,3.2090001106262207,9.265999794006348,-0.0860000029206276
1747543415542762800,9.3247626953125,3.3589999675750732,9.211999893188477,-0.10000000149011612
1747543415552358000,9.33435791015625,3.5369999408721924,9.145999908447266,-0.04399999976158142
1747543415561952300,9.3439521484375,3.7339999675750732,9.067000389099121,0.05900000035762787
1747543415571547400,9.35354736328125,3.953000068664551,8.970999717712402,0.20900000631809235
1747543415581143300,9.363143310546874,4.195000171661377,8.854000091552734,0.4020000100135803
1747543415590738400,9.372738525390625,4.458000183105469,8.711000442504883,0.6330000162124634
1747543415600332800,9.382332763671876,4.734000205993652,8.541000366210938,0.8930000066757202
1747543415609928000,9.391927978515625,5.011000156402588,8.347000122070312,1.1729999780654907
1747543415619523800,9.40152392578125,5.2729997634887695,8.140000343322754,1.4470000267028809
1747543415629119000,9.411118896484375,5.510000228881836,7.936999797821045,1.6729999780654907
1747543415638713300,9.42071337890625,5.718999862670898,7.755000114440918,1.819000005722046
1747543415648308500,9.43030859375,5.906000137329102,7.599999904632568,1.8739999532699585
1747543415657904400,9.439904296875,6.076000213623047,7.4710001945495605,1.850000023841858
1747543415667499500,9.44949951171875,6.23199987411499,7.361000061035156,1.7710000276565552
1747543415677094000,9.459093994140625,6.375,7.26200008392334,1.6640000343322754
1747543415686689300,9.468689208984374,6.505000114440918,7.171000003814697,1.5549999475479126
1747543415696285200,9.47828515625,6.625,7.079999923706055,1.4620000123977661
1747543415705880300,9.48788037109375,6.736999988555908,6.988999843597412,1.3880000114440918
1747543415715474700,9.497474609375,6.84499979019165,6.894999980926514,1.3320000171661377
1747543415725069800,9.50706982421875,6.947999954223633,6.798999786376953,1.2860000133514404
1747543415734665700,9.516665771484375,7.046999931335449,6.703000068664551,1.2489999532699585
1747543415744260900,9.5262607421875,7.13700008392334,6.61299991607666,1.2200000286102295
1747543415753855200,9.535855224609374,7.2129998207092285,6.5329999923706055,1.2009999752044678
1747543415763450400,9.545450439453125,7.2769999504089355,6.4629998207092285,1.1959999799728394
1747543415773046300,9.55504638671875,7.322999954223633,6.408999919891357,1.2039999961853027
1747543415782641400,9.564641357421875,7.353000164031982,6.370999813079834,1.2230000495910645
1747543415792235800,9.57423583984375,7.368000030517578,6.348999977111816,1.2489999532699585
1747543415801831000,9.583830810546875,7.368000030517578,6.3429999351501465,1.274999976158142
1747543415811426800,9.5934267578125,7.35699987411499,6.3520002365112305,1.2979999780654907
1747543415821022200,9.603022216796875,7.336999893188477,6.370999813079834,1.315999984741211
1747543415830616600,9.612616455078125,7.309999942779541,6.3979997634887695,1.3329999446868896
1747543415840211700,9.622211669921874,7.28000020980835,6.428999900817871,1.3489999771118164
1747543415849807600,9.6318076171875,7.248000144958496,6.461999893188477,1.3650000095367432
1747543415859402800,9.64140283203125,7.214000225067139,6.497000217437744,1.3769999742507935
1747543415868997000,9.6509970703125,7.178999900817871,6.533999919891357,1.3869999647140503
1747543415878592300,9.66059228515625,7.139999866485596,6.573999881744385,1.3969999551773071
1747543415888188200,9.670188232421875,7.0970001220703125,6.617000102996826,1.4140000343322754
1747543415897783300,9.679783203125,7.048999786376953,6.660999774932861,1.4459999799728394
1747543415907377700,9.689377685546875,6.994999885559082,6.706999778747559,1.49399995803833
1747543415916972800,9.698972900390626,6.934000015258789,6.75600004196167,1.5579999685287476
1747543415926569000,9.70856884765625,6.867000102996826,6.806000232696533,1.6349999904632568
1747543415936163800,9.718163818359375,6.795000076293945,6.857999801635742,1.718999981880188
1747543415945758500,9.727758544921874,6.71999979019165,6.909999847412109,1.8009999990463257
1747543415955353300,9.737353271484375,6.645999908447266,6.960999965667725,1.8760000467300415
1747543415964949500,9.746949462890624,6.580999851226807,7.007999897003174,1.934999942779541
1747543415974544600,9.756544677734375,6.540999889373779,7.038000106811523,1.9600000381469727
1747543415984139000,9.766138916015626,6.552999973297119,7.0329999923706055,1.937000036239624
1747543415993734100,9.775734130859375,6.607999801635742,6.997000217437744,1.8819999694824219
1747543416003330000,9.785330078125,6.668000221252441,6.956999778747559,1.815999984741211
1747543416012925200,9.79492529296875,6.705999851226807,6.934999942779541,1.7589999437332153
1747543416022519600,9.80451953125,6.73199987411499,6.923999786376953,1.6990000009536743
1747543416032114700,9.81411474609375,6.745999813079834,6.922999858856201,1.6490000486373901
1747543416041710600,9.823710693359375,6.7220001220703125,6.942999839782715,1.6619999408721924
1747543416051305700,9.8333056640625,6.651000022888184,6.986999988555908,1.7619999647140503
1747543416060900400,9.842900390625,6.545000076293945,7.045000076293945,1.9170000553131104
1747543416070495200,9.8524951171875,6.436999797821045,7.10099983215332,2.072999954223633
1747543416080091400,9.86209130859375,6.355000019073486,7.138000011444092,2.194000005722046
1747543416089686500,9.8716865234375,6.301000118255615,7.158999919891357,2.2829999923706055
1747543416099281000,9.881281005859375,6.254000186920166,7.173999786376953,2.3610000610351562
1747543416108876000,9.8908759765625,6.199999809265137,7.195000171661377,2.440000057220459
1747543416118472000,9.900471923828125,6.135000228881836,7.224999904632568,2.5139999389648438
1747543416127981000,9.90998095703125,6.063000202178955,7.26800012588501,2.563999891281128
1747543416137661400,9.919661376953124,5.98199987411499,7.324999809265137,2.5910000801086426
1747543416147256600,9.929256591796875,5.885000228881836,7.396999835968018,2.6089999675750732
1747543416156852500,9.9388525390625,5.769999980926514,7.480000019073486,2.628000020980835
1747543416166447600,9.948447509765625,5.646999835968018,7.565000057220459,2.6519999504089355
1747543416176042000,9.9580419921875,5.525000095367432,7.645999908447266,2.677999973297119
1747543416185637000,9.96763720703125,5.410999774932861,7.718999862670898,2.700000047683716
1747543416195233300,9.9772333984375,5.306000232696533,7.785999774932861,2.7160000801086426
1747543416204828400,9.986828369140625,5.209000110626221,7.8480000495910645,2.7249999046325684
1747543416214422800,9.9964228515625,5.114999771118164,7.9079999923706055,2.7300000190734863
1747543416224018000,10.006017822265624,5.020999908447266,7.966000080108643,2.734999895095825
1747543416233613800,10.01561376953125,4.925000190734863,8.02400016784668,2.740999937057495
1747543416243209000,10.025208984375,4.828000068664551,8.081000328063965,2.744999885559082
1747543416252803300,10.03480322265625,4.73199987411499,8.13700008392334,2.747999906539917
1747543416262398700,10.044398681640626,4.63100004196167,8.194000244140625,2.75
1747543416271994400,10.053994384765625,4.5289998054504395,8.24899959564209,2.75600004196167
1747543416281589800,10.06358984375,4.422999858856201,8.300999641418457,2.7720000743865967
1747543416291183900,10.073183837890625,4.310999870300293,8.350000381469727,2.802999973297119
1747543416300779000,10.082779052734375,4.192999839782715,8.392999649047852,2.8510000705718994
1747543416310375000,10.092375,4.070000171661377,8.432000160217285,2.9130001068115234
1747543416319970300,10.10197021484375,3.941999912261963,8.467000007629395,2.986999988555908
1747543416329564400,10.111564453125,3.812000036239624,8.49899959564209,3.065999984741211
1747543416339159800,10.121159912109375,3.680999994277954,8.527000427246094,3.1459999084472656
1747543416348755700,10.130755615234374,3.552999973297119,8.553000450134277,3.2230000495910645
1747543416358350800,10.140350830078125,3.428999900817871,8.576000213623047,3.2929999828338623
1747543416367945200,10.1499453125,3.308000087738037,8.598999977111816,3.3559999465942383
1747543416377540400,10.159540283203125,3.190000057220459,8.621999740600586,3.4110000133514404
1747543416387136300,10.16913623046875,3.0759999752044678,8.645999908447266,3.4560000896453857
1747543416396731400,10.1787314453125,2.9660000801086426,8.670000076293945,3.492000102996826
1747543416406325800,10.18832568359375,2.8589999675750732,8.694000244140625,3.5199999809265137
1747543416415921200,10.197921142578124,2.755000114440918,8.720000267028809,3.5399999618530273
1747543416425516800,10.207516845703125,2.6530001163482666,8.746000289916992,3.552999973297119
1747543416435112200,10.2171123046875,2.552000045776367,8.772000312805176,3.562999963760376
1747543416444706300,10.226706298828125,2.4519999027252197,8.79800033569336,3.568000078201294
1747543416454301700,10.2363017578125,2.3540000915527344,8.822999954223633,3.572999954223633
1747543416463897300,10.2458974609375,2.257999897003174,8.847000122070312,3.5769999027252197
1747543416473492700,10.25549267578125,2.1619999408721924,8.869000434875488,3.5820000171661377
1747543416483087000,10.265087158203125,2.069000005722046,8.887999534606934,3.5889999866485596
1747543416492682200,10.27468212890625,1.9809999465942383,8.904000282287598,3.5980000495910645
1747543416502278100,10.284278076171875,1.8930000066757202,8.918999671936035,3.6089999675750732
1747543416511873300,10.293873291015625,1.809999942779541,8.930999755859375,3.621000051498413
1747543416521468000,10.303468017578124,1.7309999465942383,8.942000389099121,3.632999897003174
1747543416531062800,10.313062744140625,1.656000018119812,8.95199966430664,3.6449999809265137
1747543416540658700,10.32265869140625,1.5880000591278076,8.960000038146973,3.6540000438690186
1747543416550254000,10.332254150390625,1.527999997138977,8.968999862670898,3.6589999198913574
1747543416559848200,10.34184814453125,1.4739999771118164,8.977999687194824,3.6570000648498535
1747543416569443600,10.351443603515625,1.4240000247955322,8.98900032043457,3.6510000228881836
1747543416579039500,10.36103955078125,1.3760000467300415,8.99899959564209,3.6449999809265137
1747543416588634600,10.370634521484375,1.3289999961853027,9.008000373840332,3.6410000324249268
1747543416598229000,10.38022900390625,1.2829999923706055,9.015000343322754,3.640000104904175
1747543416607824100,10.38982421875,1.2369999885559082,9.020000457763672,3.6419999599456787
1747543416617420000,10.399419921875,1.1929999589920044,9.02400016784668,3.6470000743865967
1747543416627015200,10.40901513671875,1.1510000228881836,9.027999877929688,3.6519999504089355
1747543416636609500,10.418609619140625,1.1080000400543213,9.031000137329102,3.6549999713897705
1747543416646204700,10.42820458984375,1.062999963760376,9.03600025177002,3.6559998989105225
1747543416655800800,10.43780078125,1.0149999856948853,9.043999671936035,3.6519999504089355
1747543416665395700,10.447395751953126,0.9639999866485596,9.053000450134277,3.6429998874664307
1747543416674990000,10.456989990234375,0.9110000133514404,9.064000129699707,3.628999948501587
1747543416684585500,10.46658544921875,0.8569999933242798,9.076000213623047,3.6110000610351562
1747543416694181400,10.476181396484375,0.8040000200271606,9.08899974822998,3.5920000076293945
1747543416703776500,10.485776611328125,0.75,9.10200023651123,3.571000099182129
1747543416713371000,10.495370849609374,0.6970000267028809,9.114999771118164,3.5480000972747803
1747543416722966000,10.504966064453125,0.6439999938011169,9.128999710083008,3.5230000019073486
1747543416732562000,10.51456201171875,0.5899999737739563,9.142999649047852,3.494999885559082
1747543416742157000,10.524156982421875,0.531000018119812,9.157999992370605,3.4649999141693115
1747543416751751700,10.533751708984376,0.4699999988079071,9.17300033569336,3.434000015258789
1747543416761346600,10.5433466796875,0.40700000524520874,9.187000274658203,3.4040000438690186
1747543416770942700,10.552942626953126,0.34299999475479126,9.199999809265137,3.378000020980835
1747543416780537600,10.56253759765625,0.2800000011920929,9.210000038146973,3.3550000190734863
1747543416790132200,10.57213232421875,0.2199999988079071,9.218000411987305,3.3369998931884766
1747543416799727000,10.58172705078125,0.164000004529953,9.223999977111816,3.322999954223633
1747543416809323300,10.5913232421875,0.11500000208616257,9.229000091552734,3.312999963760376
1747543416818918400,10.60091845703125,0.07199999690055847,9.232000350952148,3.305999994277954
1747543416828512800,10.6105126953125,0.03700000047683716,9.234000205993652,3.2990000247955322
1747543416838108000,10.62010791015625,0.009999999776482582,9.236000061035156,3.2939999103546143
1747543416847703800,10.629703857421875,-0.00800000037997961,9.23799991607666,3.2880001068115234
1747543416857299000,10.639298828125,-0.019999999552965164,9.239999771118164,3.2829999923706055
1747543416866893300,10.648893310546875,-0.027000000700354576,9.241000175476074,3.2790000438690186
1747543416876488400,10.658488525390625,-0.035999998450279236,9.241999626159668,3.2760000228881836
1747543416886084400,10.66808447265625,-0.04699999839067459,9.241999626159668,3.2760000228881836
1747543416895679500,10.677679443359375,-0.06499999761581421,9.241000175476074,3.2799999713897705
1747543416905274000,10.687274169921874,-0.09099999815225601,9.23799991607666,3.2860000133514404
1747543416914869000,10.696868896484375,-0.12300000339746475,9.236000061035156,3.2920000553131104
1747543416924465200,10.706465087890624,-0.15199999511241913,9.234000205993652,3.2960000038146973
1747543416934060300,10.716060302734375,-0.164000004529953,9.234000205993652,3.296999931335449
1747543416943654700,10.725654541015626,-0.1459999978542328,9.232000350952148,3.302000045776367
1747543416953249500,10.73524951171875,-0.09300000220537186,9.227999687194824,3.316999912261963
1747543416962845700,10.744845703125,-0.008999999612569809,9.215999603271484,3.3489999771118164
1747543416972440800,10.75444091796875,0.09799999743700027,9.196000099182129,3.4019999504089355
1747543416982035200,10.76403515625,0.2160000056028366,9.166000366210938,3.4769999980926514
1747543416991630300,10.77363037109375,0.3400000035762787,9.12600040435791,3.572000026702881
1747543417001226200,10.783226318359375,0.46399998664855957,9.074999809265137,3.684999942779541
1747543417010821400,10.7928212890625,0.5860000252723694,9.015000343322754,3.813999891281128
1747543417020415700,10.802415771484375,0.7059999704360962,8.946000099182129,3.953000068664551
1747543417030011000,10.812010986328126,0.8220000267028809,8.871999740600586,4.0960001945495605
1747543417039606800,10.821606689453125,0.9380000233650208,8.795000076293945,4.234000205993652
1747543417049123600,10.83112353515625,1.059000015258789,8.722000122070312,4.355000019073486
1747543417058796500,10.840796630859375,1.2139999866485596,8.654999732971191,4.447000026702881
1747543417068391400,10.850391357421875,1.437000036239624,8.598999977111816,4.488999843597412
1747543417077987600,10.859987548828125,1.718000054359436,8.552000045776367,4.480000019073486
1747543417087582700,10.869582763671875,2.0169999599456787,8.508000373840332,4.440000057220459
1747543417097177000,10.879177001953124,2.303999900817871,8.461000442504883,4.388999938964844
1747543417106772200,10.888772216796875,2.565000057220459,8.40999984741211,4.3420000076293945
1747543417116368100,10.8983681640625,2.7980000972747803,8.352999687194824,4.308000087738037
1747543417125963300,10.90796337890625,3.007999897003174,8.291000366210938,4.285999774932861
1747543417135557600,10.9175576171875,3.2019999027252197,8.225000381469727,4.2729997634887695
1747543417145152800,10.92715283203125,3.378999948501587,8.157999992370605,4.264999866485596
1747543417154749000,10.9367490234375,3.5369999408721924,8.092000007629395,4.261000156402588
1747543417164344000,10.946343994140625,3.677000045776367,8.031000137329102,4.258999824523926
1747543417173938400,10.9559384765625,3.799999952316284,7.9770002365112305,4.252999782562256
1747543417183533600,10.965533447265624,3.9130001068115234,7.928999900817871,4.238999843597412
1747543417193129500,10.97512939453125,4.013000011444092,7.892000198364258,4.216000080108643
1747543417202724600,10.984724609375,4.10099983215332,7.866000175476074,4.179999828338623
1747543417212319000,10.994319091796875,4.178999900817871,7.849999904632568,4.13100004196167
1747543417221914000,11.0039140625,4.245999813079834,7.84499979019165,4.072000026702881
1747543417231510300,11.01351025390625,4.308000087738037,7.843999862670898,4.007999897003174
1747543417241105400,11.02310546875,4.367000102996826,7.84499979019165,3.941999912261963
1747543417250699800,11.03269970703125,4.422999858856201,7.843999862670898,3.88100004196167
1747543417260295000,11.042294921875,4.47599983215332,7.840000152587891,3.828000068664551
1747543417269890800,11.051890869140625,4.5229997634887695,7.833000183105469,3.7869999408721924
1747543417279486000,11.06148583984375,4.560999870300293,7.824999809265137,3.757999897003174
1747543417289080300,11.071080322265624,4.586999893188477,7.816999912261963,3.743000030517578
1747543417298675500,11.080675537109375,4.5980000495910645,7.810999870300293,3.740999937057495
1747543417308271400,11.090271240234374,4.59499979019165,7.809999942779541,3.747999906539917
1747543417317866500,11.099866455078125,4.580999851226807,7.811999797821045,3.760999917984009
1747543417327460900,11.1094609375,4.559000015258789,7.817999839782715,3.7750000953674316
1747543417337056000,11.119055908203125,4.533999919891357,7.828000068664551,3.7850000858306885
1747543417346652200,11.128652099609376,4.510000228881836,7.840000152587891,3.7869999408721924
1747543417356247000,11.1382470703125,4.488999843597412,7.855000019073486,3.7829999923706055
1747543417365841700,11.147841552734375,4.468999862670898,7.869999885559082,3.7750000953674316
1747543417375436800,11.157436767578124,4.451000213623047,7.882999897003174,3.7679998874664307
1747543417385032700,11.16703271484375,4.429999828338623,7.894999980926514,3.7690000534057617
1747543417394627800,11.1766279296875,4.406000137329102,7.9029998779296875,3.7799999713897705
1747543417404222200,11.18622216796875,4.374000072479248,7.908999919891357,3.803999900817871
1747543417413817300,11.1958173828125,4.331999778747559,7.913000106811523,3.8440001010894775
1747543417423413200,11.205413330078125,4.2779998779296875,7.914000034332275,3.9019999504089355
1747543417433008400,11.21500830078125,4.210000038146973,7.914000034332275,3.9739999771118164
1747543417442602800,11.224602783203125,4.129000186920166,7.914999961853027,4.057000160217285
1747543417452198100,11.2341982421875,4.034999847412109,7.915999889373779,4.1479997634887695
1747543417461794000,11.2437939453125,3.930000066757202,7.920000076293945,4.239999771118164
1747543417471389000,11.253388916015625,3.816999912261963,7.927000045776367,4.329999923706055
1747543417480983600,11.262983642578124,3.697999954223633,7.935999870300293,4.416999816894531
1747543417490578400,11.272578369140625,3.5739998817443848,7.946000099182129,4.499000072479248
1747543417500174600,11.282174560546874,3.447999954223633,7.959000110626221,4.573999881744385
1747543417519364000,11.301364013671876,3.2039999961853027,7.986000061035156,4.703000068664551
1747543417528959200,11.310959228515625,3.0920000076293945,8,4.751999855041504
1747543417538555100,11.32055517578125,2.990000009536743,8.015999794006348,4.790999889373779
1747543417548150300,11.330150390625,2.8949999809265137,8.034000396728516,4.818999767303467
1747543417557744600,11.33974462890625,2.806999921798706,8.055999755859375,4.835000038146973
1747543417567339800,11.34933984375,2.7239999771118164,8.081999778747559,4.839000225067139
1747543417576935700,11.358935791015625,2.6480000019073486,8.11299991607666,4.829999923706055
1747543417586530800,11.36853076171875,2.5769999027252197,8.14799976348877,4.809999942779541
1747543417596125200,11.378125244140625,2.510999917984009,8.1850004196167,4.78000020980835
1747543417605720600,11.387720458984376,2.4519999027252197,8.223999977111816,4.74399995803833
1747543417615316200,11.397316162109375,2.4040000438690186,8.26200008392334,4.702000141143799
1747543417624911600,11.40691162109375,2.375,8.29800033569336,4.6539998054504395
1747543417634506000,11.416506103515625,2.371000051498413,8.329000473022461,4.60099983215332
1747543417644100900,11.426100830078125,2.388000011444092,8.354999542236328,4.544000148773193
1747543417653697000,11.435697021484375,2.4170000553131104,8.376999855041504,4.486999988555908
1747543417663292200,11.445292236328125,2.443000078201294,8.395000457763672,4.439000129699707
1747543417672886500,11.454886474609374,2.4549999237060547,8.41100025177002,4.4039998054504395
1747543417682481700,11.464481689453125,2.444999933242798,8.42300033569336,4.385000228881836
1747543417692077600,11.47407763671875,2.4100000858306885,8.4350004196167,4.381999969482422
1747543417701672700,11.483672607421875,2.3550000190734863,8.444000244140625,4.394000053405762
1747543417711267000,11.49326708984375,2.2850000858306885,8.451000213623047,4.418000221252441
1747543417720862200,11.5028623046875,2.2100000381469727,8.456000328063965,4.447000026702881
1747543417730458000,11.5124580078125,2.135999917984009,8.460000038146973,4.474999904632568
1747543417740053500,11.522053466796875,2.071000099182129,8.463000297546387,4.499000072479248
1747543417749647600,11.531647705078125,2.0139999389648438,8.465999603271484,4.519000053405762
1747543417759243000,11.541242919921874,1.9639999866485596,8.470999717712402,4.5329999923706055
1747543417768839000,11.5508388671875,1.9190000295639038,8.475000381469727,4.543000221252441
1747543417778434000,11.56043408203125,1.8769999742507935,8.480999946594238,4.550000190734863
1747543417788028400,11.5700283203125,1.8370000123977661,8.487000465393066,4.554999828338623
1747543417797623600,11.57962353515625,1.7999999523162842,8.494000434875488,4.557000160217285
1747543417807219700,11.5892197265625,1.7680000066757202,8.503000259399414,4.553999900817871
1747543417816814600,11.598814697265626,1.7419999837875366,8.51200008392334,4.546000003814697
1747543417826409000,11.608408935546874,1.722000002861023,8.52400016784668,4.5320000648498535
1747543417836004000,11.618004150390625,1.7079999446868896,8.536999702453613,4.513000011444092
1747543417845600300,11.627600341796875,1.6970000267028809,8.550999641418457,4.488999843597412
1747543417855195100,11.637195068359375,1.6859999895095825,8.567000389099121,4.461999893188477
1747543417864789800,11.646789794921874,1.6729999780654907,8.585000038146973,4.433000087738037
1747543417874384600,11.656384521484375,1.656999945640564,8.604000091552734,4.4019999504089355
1747543417883980500,11.66598046875,1.6410000324249268,8.623000144958496,4.370999813079834
1747543417893576000,11.675575927734375,1.6260000467300415,8.642000198364258,4.340000152587891
1747543417903170300,11.68517041015625,1.6130000352859497,8.65999984741211,4.309000015258789
1747543417912765400,11.694765380859375,1.6039999723434448,8.675000190734863,4.281000137329102
1747543417922361300,11.704361328125,1.600000023841858,8.687000274658203,4.257999897003174
1747543417931956500,11.71395654296875,1.6009999513626099,8.692000389099121,4.248000144958496
1747543417951146000,11.73314599609375,1.5829999446868896,8.680999755859375,4.2769999504089355
1747543417960742000,11.742741943359375,1.5540000200271606,8.668000221252441,4.313000202178955
1747543417970337000,11.7523369140625,1.5240000486373901,8.651000022888184,4.35699987411499
1747543417979931100,11.76193115234375,1.503000020980835,8.628999710083008,4.408999919891357
1747543417989526500,11.771526611328126,1.4930000305175781,8.60099983215332,4.4670000076293945
1747543417999122200,11.7811220703125,1.4989999532699585,8.565999984741211,4.531000137329102
1747543418008717600,11.790717529296876,1.531999945640564,8.524999618530273,4.5970001220703125
1747543418018312000,11.80031201171875,1.6130000352859497,8.480999946594238,4.650000095367432
1747543418027907000,11.809906982421875,1.7239999771118164,8.444000244140625,4.677999973297119
1747543418037503200,11.819503173828124,1.8370000123977661,8.420000076293945,4.677999973297119
1747543418047098400,11.829098388671875,1.9329999685287476,8.41100025177002,4.656000137329102
1747543418056692700,11.838692626953126,2,8.416999816894531,4.617000102996826
1747543418066287900,11.848287841796875,2.0360000133514404,8.437999725341797,4.561999797821045
1747543418075883500,11.857883544921876,2.0480000972747803,8.470999717712402,4.494999885559082
1747543418085479000,11.86747900390625,2.052000045776367,8.503000259399414,4.432000160217285
1747543418095073300,11.8770732421875,2.059000015258789,8.52299976348877,4.388999938964844
1747543418104668400,11.88666845703125,2.066999912261963,8.531999588012695,4.369999885559082
1747543418114264300,11.896264404296875,2.069000005722046,8.532999992370605,4.367000102996826
1747543418123859500,11.905859375,2.061000108718872,8.529999732971191,4.375
1747543418133454000,11.9154541015625,2.0360000133514404,8.529999732971191,4.388000011444092
1747543418143049000,11.925049072265624,1.9869999885559082,8.534000396728516,4.4019999504089355
1747543418152645000,11.93464501953125,1.9129999876022339,8.54699993133545,4.409999847412109
1747543418162240300,11.944240234375,1.8109999895095825,8.571000099182129,4.406000137329102
1747543418171834600,11.953834716796875,1.6799999475479126,8.604999542236328,4.392000198364258
1747543418181429800,11.9634296875,1.527999997138977,8.642000198364258,4.375
1747543418191025700,11.973025634765625,1.371999979019165,8.673999786376953,4.363999843597412
1747543418200620800,11.982620849609376,1.2319999933242798,8.696999549865723,4.357999801635742
1747543418210215400,11.99221533203125,1.121999979019165,8.713000297546387,4.355999946594238
1747543418219810300,12.001810302734375,1.0470000505447388,8.725000381469727,4.3520002365112305
1747543418229406500,12.011406494140624,1.0019999742507935,8.734000205993652,4.34499979019165
1747543418239001600,12.021001708984375,0.9789999723434448,8.741000175476074,4.335000038146973
1747543418248596000,12.030595947265626,0.968999981880188,8.748000144958496,4.322000026702881
1747543418258191000,12.040191162109375,0.9610000252723694,8.756999969482422,4.306000232696533
1747543418267787000,12.049787109375,0.9480000138282776,8.769000053405762,4.284999847412109
1747543418277382100,12.059382080078125,0.9259999990463257,8.784000396728516,4.258999824523926
1747543418286976500,12.0689765625,0.8949999809265137,8.800999641418457,4.230000019073486
1747543418296571600,12.078571533203124,0.8550000190734863,8.819000244140625,4.201000213623047
1747543418306167600,12.08816748046875,0.8059999942779541,8.836000442504883,4.175000190734863
1747543418315763000,12.097762939453125,0.746999979019165,8.85099983215332,4.15500020980835
1747543418325357300,12.107357421875,0.675000011920929,8.861000061035156,4.144000053405762
1747543418334952400,12.116952392578124,0.5950000286102295,8.868000030517578,4.14300012588501
1747543418344548400,12.12654833984375,0.5149999856948853,8.871000289916992,4.1479997634887695
1747543418354143500,12.1361435546875,0.44600000977516174,8.869999885559082,4.1570000648498535
1747543418363737900,12.14573779296875,0.3970000147819519,8.866999626159668,4.169000148773193
1747543418373333000,12.1553330078125,0.37700000405311584,8.86299991607666,4.179999828338623
1747543418382929000,12.164928955078125,0.38100001215934753,8.859000205993652,4.188000202178955
1747543418392524000,12.17452392578125,0.4020000100135803,8.855999946594238,4.190999984741211
1747543418402118400,12.184118408203124,0.42899999022483826,8.854999542236328,4.190000057220459
1747543418411713500,12.193713623046875,0.45399999618530273,8.857000350952148,4.184000015258789
1747543418421309700,12.203309814453124,0.46700000762939453,8.861000061035156,4.173999786376953
1747543418430904800,12.21290478515625,0.4659999907016754,8.866999626159668,4.160999774932861
1747543418440499200,12.222499267578126,0.4490000009536743,8.87399959564209,4.1479997634887695
1747543418450094300,12.23209423828125,0.41999998688697815,8.880999565124512,4.135000228881836
1747543418459690200,12.241690185546876,0.38499999046325684,8.887999534606934,4.124000072479248
1747543418469285400,12.251285400390625,0.3499999940395355,8.894000053405762,4.114999771118164
1747543418478879700,12.260879638671875,0.32100000977516174,8.89799976348877,4.107999801635742
1747543418488475000,12.270474853515625,0.3019999861717224,8.901000022888184,4.103000164031982
1747543418498070800,12.28007080078125,0.29100000858306885,8.902999877929688,4.10099983215332
1747543418507666000,12.289666015625,0.28600001335144043,8.902999877929688,4.099999904632568
1747543418517260300,12.29926025390625,0.28200000524520874,8.904000282287598,4.098999977111816
1747543418526855400,12.30885546875,0.27399998903274536,8.904000282287598,4.098999977111816
1747543418536451600,12.31845166015625,0.2619999945163727,8.902999877929688,4.10099983215332
1747543418546046500,12.32804638671875,0.24699999392032623,8.902000427246094,4.105000019073486
1747543418555641000,12.33764111328125,0.23199999332427979,8.89900016784668,4.111999988555908
1747543418565236000,12.347236083984376,0.21899999678134918,8.895000457763672,4.120999813079834
1747543418574832000,12.35683203125,0.20900000631809235,8.890000343322754,4.132999897003174
1747543418584427300,12.36642724609375,0.20100000500679016,8.883999824523926,4.146999835968018
1747543418594021600,12.376021728515624,0.19099999964237213,8.876999855041504,4.1620001792907715
1747543418603616800,12.38561669921875,0.17900000512599945,8.871000289916992,4.176000118255615
1747543418613212700,12.395212646484374,0.16699999570846558,8.864999771118164,4.188000202178955
1747543418622807800,12.404807861328125,0.16500000655651093,8.861000061035156,4.196000099182129
1747543418632402200,12.414402099609376,0.1770000010728836,8.859000205993652,4.199999809265137
1747543418641997300,12.423997314453125,0.20600000023841858,8.857999801635742,4.199999809265137
1747543418651593200,12.43359326171875,0.25,8.857999801635742,4.198999881744385
1747543418661188400,12.443188232421875,0.30300000309944153,8.855999946594238,4.199999809265137
1747543418670782700,12.45278271484375,0.35899999737739563,8.85200023651123,4.203000068664551
1747543418680377900,12.4623779296875,0.41600000858306885,8.845999717712402,4.210000038146973
1747543418689973800,12.471973876953125,0.46799999475479126,8.83899974822998,4.2210001945495605
1747543418699569000,12.48156884765625,0.5130000114440918,8.829000473022461,4.235000133514404
1747543418709163300,12.491163330078125,0.5519999861717224,8.819000244140625,4.250999927520752
1747543418718758400,12.50075830078125,0.5830000042915344,8.809000015258789,4.26800012588501
1747543418728354300,12.510354248046875,0.6069999933242798,8.798999786376953,4.285999774932861
1747543418737949700,12.51994970703125,0.6269999742507935,8.788999557495117,4.303999900817871
1747543418747543800,12.529543701171875,0.6480000019073486,8.779000282287598,4.321000099182129
1747543418757139000,12.539138916015625,0.6800000071525574,8.769000053405762,4.335999965667725
1747543418766735000,12.548735107421875,0.7319999933242798,8.758000373840332,4.349999904632568
1747543418776330000,12.558330078125,0.8050000071525574,8.744999885559082,4.36299991607666
1747543418785924600,12.567924560546874,0.8899999856948853,8.729999542236328,4.375999927520752
1747543418795519500,12.57751953125,0.9750000238418579,8.715999603271484,4.386000156402588
1747543418805115600,12.58711572265625,1.0520000457763672,8.70300006866455,4.394000053405762
1747543418814710800,12.596710693359375,1.1169999837875366,8.692999839782715,4.396999835968018
1747543418824305200,12.60630517578125,1.1729999780654907,8.685999870300293,4.396999835968018
1747543418833900300,12.615900390625,1.225000023841858,8.680999755859375,4.39300012588501
1747543418843496200,12.62549609375,1.2799999713897705,8.675999641418457,4.386000156402588
1747543418853091300,12.63509130859375,1.343000054359436,8.67199993133545,4.375
1747543418862685700,12.644685791015625,1.4190000295639038,8.668000221252441,4.360000133514404
1747543418872281000,12.654281005859374,1.5099999904632568,8.66100025177002,4.343999862670898
1747543418881876700,12.663876708984375,1.6200000047683716,8.64799976348877,4.329999923706055
1747543418891472000,12.673471923828124,1.7480000257492065,8.62600040435791,4.322999954223633
