time,seconds_elapsed,z,y,x
1751214696613473300,0.147473388671875,-2.362969398498535,0.18796801567077637,0.006239529699087143
1751214696623293700,0.157293701171875,-2.3815202713012695,0.08504819869995117,-0.1884801834821701
1751214696633131800,0.1671318359375,-2.209160804748535,0.45150184631347656,-0.6078402996063232
1751214696642993200,0.1769931640625,-1.9563064575195312,0.6794168949127197,-0.7641546726226807
1751214696652882200,0.186882080078125,-1.546534538269043,0.5792310237884521,-0.4639343321323395
1751214696662802000,0.196802001953125,-1.1895875930786133,0.31725621223449707,-0.014104284346103668
1751214696672754200,0.206754150390625,-1.0217361450195312,0.027883529663085938,0.2326975166797638
1751214696682739200,0.2167392578125,-0.8989229202270508,-0.11008214950561523,0.2654127776622772
1751214696692756000,0.226755859375,-0.8673677444458008,-0.2627298831939697,0.14014911651611328
1751214696702802700,0.236802734375,-0.8040533065795898,-0.2744051218032837,-0.08596496284008026
1751214696712875500,0.24687548828125,-0.9598026275634766,-0.04408228397369385,-0.2058829963207245
1751214696722970600,0.256970703125,-0.9139957427978516,0.25717318058013916,-0.38846534490585327
1751214696733083000,0.267082763671875,-0.7522974014282227,0.2629828453063965,-0.4635372459888458
1751214696743207000,0.27720703125,-0.7202281951904297,-0.1718069314956665,-0.1586160957813263
1751214696753337000,0.287337158203125,-0.8340320587158203,-0.8740366697311401,0.2560538947582245
1751214696763467500,0.297467529296875,-0.991546630859375,-1.4820096492767334,0.33969739079475403
1751214696773472300,0.30747216796875,-1.296966552734375,-1.5753809213638306,-0.2858849763870239
1751214696783466200,0.31746630859375,-1.6336698532104492,-1.3219209909439087,-1.3702406883239746
1751214696793460200,0.327460205078125,-1.6761770248413086,-1.1659221649169922,-2.2218902111053467
1751214696803454000,0.337453857421875,-1.4271774291992188,-1.5753467082977295,-2.1185731887817383
1751214696813448000,0.347447998046875,-1.3726272583007812,-2.6480612754821777,-1.1824277639389038
1751214696823441700,0.357441650390625,-0.6812353134155273,-3.3854165077209473,-0.24494802951812744
1751214696833435600,0.367435546875,-0.6263418197631836,-3.5889785289764404,-0.3082129955291748
1751214696843429400,0.377429443359375,-0.8160057067871094,-3.965315103530884,-1.7671895027160645
1751214696853423400,0.38742333984375,-1.216515064239502,-4.350836753845215,-3.6712331771850586
1751214696863417000,0.3974169921875,-2.5326285362243652,-4.779743671417236,-5.713406562805176
1751214696873411000,0.4074111328125,-3.7920703887939453,-5.314752101898193,-7.37412166595459
1751214696883404800,0.41740478515625,-4.92425012588501,-6.2477288246154785,-7.74429988861084
1751214696893398800,0.427398681640625,-5.443015098571777,-7.056827068328857,-7.44803524017334
1751214696903392500,0.437392578125,-5.124322414398193,-7.46783447265625,-6.795967102050781
1751214696913386500,0.447386474609375,-5.131567478179932,-7.553114414215088,-5.497027397155762
1751214696923380200,0.457380126953125,-5.553035259246826,-7.567476272583008,-3.345848321914673
1751214696933374200,0.467374267578125,-5.649679183959961,-7.176058769226074,-1.1673307418823242
1751214696943368000,0.477367919921875,-5.676418304443359,-6.561497688293457,0.764378547668457
1751214696953362000,0.48736181640625,-5.297980308532715,-5.897345066070557,1.8553314208984375
1751214696963355600,0.497355712890625,-4.456857681274414,-5.218694686889648,2.128289222717285
1751214696973349600,0.507349609375,-3.6273388862609863,-4.682220458984375,2.3436789512634277
1751214696983343400,0.51734326171875,-3.190781831741333,-4.225319862365723,3.4488863945007324
1751214696993337300,0.52733740234375,-2.9910593032836914,-3.6060948371887207,4.5324931144714355
1751214697003331000,0.5373310546875,-3.1897637844085693,-3.0087037086486816,4.834990978240967
1751214697013324800,0.54732470703125,-3.414233684539795,-2.645927906036377,4.909597396850586
1751214697023318800,0.55731884765625,-2.7408323287963867,-2.56644344329834,5.448139190673828
1751214697033312500,0.5673125,-1.2956715822219849,-2.5651779174804688,6.285706996917725
1751214697043306500,0.577306396484375,0.19947874546051025,-2.4837818145751953,7.373325347900391
1751214697053300200,0.58730029296875,0.7317492961883545,-2.18363618850708,7.888281345367432
1751214697063294200,0.597294189453125,0.8028767108917236,-1.9123964309692383,7.908383369445801
1751214697073288000,0.607287841796875,0.39085352420806885,-1.5840988159179688,8.073051452636719
1751214697083282000,0.617281982421875,-1.9332386255264282,-1.0120816230773926,8.521000862121582
1751214697093275600,0.627275634765625,-11.011680603027344,0.4693593978881836,11.118451118469238
1751214697103269600,0.63726953125,-11.8230619430542,2.7105631828308105,10.074285507202148
1751214697113263600,0.647263671875,-4.072677135467529,0.7435736656188965,8.015278816223145
1751214697123257600,0.657257568359375,2.0866146087646484,-0.5402154922485352,6.527114391326904
1751214697133251300,0.667251220703125,5.1961750984191895,-1.147153377532959,6.863174915313721
1751214697143245300,0.677245361328125,5.903994560241699,-1.252309799194336,7.288324356079102
1751214697153239300,0.6872392578125,3.8263297080993652,-0.8791379928588867,7.068584442138672
1751214697163233000,0.69723291015625,-0.6579124927520752,-0.2861776351928711,6.903378963470459
1751214697173227000,0.70722705078125,-0.9221196174621582,0.15083789825439453,6.0502028465271
1751214697183221000,0.717220947265625,3.1760482788085938,-0.5215787887573242,7.858236789703369
1751214697193214700,0.727214599609375,-0.023805856704711914,0.0559234619140625,11.108804702758789
1751214697203208700,0.737208740234375,-2.2450273036956787,1.883716106414795,12.308422088623047
1751214697213202700,0.74720263671875,-1.3709194660186768,2.661581516265869,12.828878402709961
1751214697223196400,0.757196533203125,-3.822071075439453,3.2546186447143555,12.970439910888672
1751214697233190400,0.7671904296875,-5.589531898498535,3.799694538116455,12.839256286621094
1751214697243184400,0.777184326171875,-6.863483905792236,4.09541130065918,12.957099914550781
1751214697253178400,0.787178466796875,-8.04704761505127,4.919631004333496,12.538726806640625
1751214697263172000,0.797172119140625,-8.942543029785156,5.238898277282715,11.694896697998047
1751214697273166000,0.807166015625,-9.002754211425781,4.940188407897949,10.465959548950195
1751214697283160000,0.81716015625,-7.727353096008301,4.670642852783203,6.943491458892822
1751214697293153800,0.82715380859375,-6.783078193664551,3.4545669555664062,3.6962080001831055
1751214697303147800,0.837147705078125,-5.023617744445801,2.64739990234375,1.3939523696899414
1751214697313141800,0.847141845703125,-2.0091733932495117,2.4145774841308594,-1.175185203552246
1751214697323135500,0.857135498046875,0.23752307891845703,1.5791816711425781,-2.1664981842041016
1751214697333129500,0.86712939453125,2.010745048522949,1.6586003303527832,-3.5305428504943848
1751214697343123500,0.87712353515625,1.673860788345337,0.6424150466918945,-4.788055419921875
1751214697353117400,0.887117431640625,-0.15838849544525146,1.0257511138916016,-5.948101997375488
1751214697363111200,0.897111083984375,-0.46497005224227905,0.34541940689086914,-8.009620666503906
1751214697373105200,0.907105224609375,-4.411237716674805,0.6521744728088379,-5.5077290534973145
1751214697383099100,0.91709912109375,-3.600053548812866,2.8055319786071777,0.26401376724243164
1751214697393092900,0.9270927734375,2.3848183155059814,2.3542990684509277,7.766940593719482
1751214697403086800,0.9370869140625,3.7769055366516113,0.6517314910888672,5.1276421546936035
1751214697413080800,0.947080810546875,5.046148300170898,-0.6228103637695312,-0.45683908462524414
1751214697423074600,0.957074462890625,4.437794208526611,-1.7149991989135742,-5.14693546295166
1751214697433068500,0.967068603515625,4.412926197052002,-2.328874111175537,-8.029879570007324
1751214697443062500,0.9770625,5.405332088470459,-2.2010512351989746,-8.679078102111816
1751214697453056300,0.98705615234375,5.958817005157471,-1.8468756675720215,-8.516868591308594
1751214697463050200,0.99705029296875,5.499428749084473,-2.2744479179382324,-7.52522087097168
1751214697473044200,1.007044189453125,3.248140335083008,-2.2877984046936035,-6.238469123840332
1751214697483038200,1.0170380859375,-3.4130430221557617,-2.1373934745788574,-4.748254299163818
1751214697493032000,1.027031982421875,-5.558136463165283,-1.0327520370483398,-4.203069686889648
1751214697503026000,1.03702587890625,-4.788878917694092,-1.1377434730529785,-3.4028525352478027
1751214697513020000,1.04702001953125,-2.90230655670166,-1.6551942825317383,-2.9406957626342773
1751214697523013600,1.057013671875,-1.019737958908081,-1.801356315612793,-2.907724618911743
1751214697533007600,1.067007568359375,-0.76094651222229,-1.7065443992614746,-2.7659807205200195
1751214697543001600,1.077001708984375,-1.4249491691589355,-2.1060914993286133,-2.3439455032348633
1751214697552995300,1.086995361328125,-1.2714149951934814,-1.7710795402526855,-2.2752685546875
1751214697562989300,1.0969892578125,-1.4303640127182007,-0.9842739105224609,-2.291593551635742
1751214697572983300,1.1069833984375,-1.4074444770812988,-0.7216577529907227,-1.6692485809326172
1751214697582977300,1.116977294921875,-1.8497904539108276,-1.320366382598877,-1.6834311485290527
1751214697592971000,1.126970947265625,-2.368912696838379,-1.6456732749938965,-1.65948486328125
1751214697602965000,1.136965087890625,-2.3312716484069824,-1.5804738998413086,-1.286301612854004
1751214697612959000,1.146958984375,-1.9494346380233765,-1.2310056686401367,-0.712425708770752
1751214697622952700,1.15695263671875,-1.4352244138717651,-1.1494793891906738,0.046280860900878906
1751214697632946700,1.16694677734375,-0.4615335464477539,-0.7973804473876953,0.8241982460021973
1751214697642940700,1.176940673828125,0.8697565793991089,0.1458597183227539,1.1909136772155762
1751214697652934400,1.186934326171875,1.4350301027297974,0.8852696418762207,1.2958102226257324
1751214697662928400,1.196928466796875,2.364234447479248,0.9600887298583984,1.566789150238037
1751214697672922400,1.20692236328125,2.9172134399414062,0.41949033737182617,2.613182544708252
1751214697682916400,1.216916259765625,3.3106632232666016,-0.5999231338500977,3.8586835861206055
1751214697692910000,1.22691015625,3.0920584201812744,-2.3395795822143555,5.1567583084106445
1751214697702904000,1.236904052734375,3.354330539703369,-4.495428085327148,6.614249229431152
1751214697712898000,1.24689794921875,4.397388935089111,-5.7876996994018555,7.082117557525635
1751214697722891800,1.256891845703125,4.323696613311768,-5.5845537185668945,6.379934310913086
1751214697732885800,1.2668857421875,3.8017239570617676,-4.298496246337891,4.645784854888916
1751214697742879700,1.276879638671875,2.30659818649292,-2.2263755798339844,2.483370780944824
1751214697752873500,1.28687353515625,0.1688748598098755,-0.2683734893798828,0.671501636505127
1751214697762867500,1.296867431640625,-0.9094574451446533,0.9363021850585938,-0.7332205772399902
1751214697772861400,1.306861328125,-1.1441304683685303,1.752030849456787,-1.6843671798706055
1751214697782855200,1.316855224609375,-1.2840713262557983,2.06217098236084,-2.227912664413452
1751214697792849200,1.32684912109375,-1.154581904411316,2.482469081878662,-2.7235233783721924
1751214697802843100,1.336843017578125,-1.153700828552246,3.034634590148926,-3.2417714595794678
1751214697812837000,1.346837158203125,-0.9094674587249756,2.8391361236572266,-3.4025211334228516
1751214697822830800,1.356830810546875,-0.7379482984542847,2.107032299041748,-3.1852896213531494
1751214697832824800,1.366824951171875,-0.6536072492599487,0.8647174835205078,-2.9806063175201416
1751214697842818800,1.37681884765625,-0.6069691181182861,-0.5524911880493164,-2.4663517475128174
1751214697852812500,1.3868125,-0.1848941445350647,-1.7147283554077148,-1.5783891677856445
1751214697862806500,1.396806640625,0.320248007774353,-2.277528762817383,-0.3870077133178711
1751214697872800500,1.406800537109375,0.9388800859451294,-2.020772933959961,0.3766298294067383
1751214697882794200,1.416794189453125,1.0680309534072876,-1.391824722290039,0.4924154281616211
1751214697892788200,1.426788330078125,0.9906483888626099,-1.003662109375,0.40106678009033203
1751214697902782200,1.4367822265625,0.8022781610488892,-0.6813564300537109,0.2238149642944336
1751214697912776200,1.446776123046875,0.4700084924697876,-0.18061447143554688,-0.1425917148590088
1751214697922770000,1.45677001953125,0.31857335567474365,0.42249011993408203,-0.4953281879425049
1751214697932764000,1.466763916015625,0.22339415550231934,1.0668225288391113,-0.798823356628418
1751214697942758000,1.4767578125,0.2908613681793213,1.7636771202087402,-1.1101150512695312
1751214697952751600,1.486751708984375,0.4777863025665283,2.328202247619629,-1.3131284713745117
1751214697962745600,1.49674560546875,0.6477327346801758,2.8204989433288574,-1.546776533126831
1751214697972739600,1.506739501953125,0.5909985303878784,3.55226993560791,-1.91910719871521
1751214697982733300,1.5167333984375,0.1826465129852295,4.3304901123046875,-2.422722339630127
1751214697992727300,1.526727294921875,-0.2932544946670532,4.66569709777832,-2.5753896236419678
1751214698002721300,1.53672119140625,-0.5585660338401794,4.977183818817139,-2.537593126296997
1751214698012715000,1.546715087890625,-0.6532592177391052,5.256783962249756,-2.3734846115112305
1751214698022709000,1.556708984375,-0.8362953066825867,5.154101371765137,-2.04266619682312
1751214698032703000,1.566702880859375,-1.2292180061340332,3.319030284881592,-0.9687689542770386
1751214698042697000,1.576697021484375,-0.9387825131416321,-0.9632406234741211,0.945244312286377
1751214698052690700,1.586690673828125,-1.2253127098083496,-7.3751983642578125,2.9840738773345947
1751214698062684700,1.5966845703125,-1.463059663772583,-13.455368995666504,4.595625877380371
1751214698092666400,1.626666259765625,-2.3084053993225098,-12.412870407104492,4.027172088623047
1751214698102660400,1.636660400390625,-2.841745376586914,-6.387199401855469,1.592898964881897
1751214698112654000,1.646654052734375,-2.3249881267547607,-1.7906980514526367,-0.7654352188110352
1751214698122648000,1.65664794921875,-1.4026508331298828,1.2042970657348633,-2.7583603858947754
1751214698132642000,1.66664208984375,-0.2583681643009186,3.330179214477539,-3.8932623863220215
1751214698142636000,1.676635986328125,1.2301363945007324,4.055625915527344,-4.096567153930664
1751214698152629800,1.686629638671875,2.2566921710968018,3.2833003997802734,-3.4388206005096436
1751214698162623700,1.696623779296875,2.413384437561035,1.749457836151123,-2.46443510055542
1751214698172617700,1.70661767578125,1.8864085674285889,0.4306526184082031,-1.7810872793197632
1751214698182611500,1.716611572265625,0.948577880859375,-0.2958650588989258,-1.4773727655410767
1751214698192605400,1.72660546875,0.26781296730041504,-0.3417682647705078,-1.352463722229004
1751214698202599400,1.736599365234375,0.19690954685211182,-0.20288658142089844,-1.0100836753845215
1751214698212593200,1.74659326171875,0.2854073643684387,-0.24091720581054688,-0.46760690212249756
1751214698232581000,1.7665810546875,-0.8953155279159546,-0.1240377426147461,0.4057885408401489
1751214698242574800,1.776574951171875,-1.2397737503051758,-0.05961894989013672,0.5177114009857178
1751214698252568800,1.78656884765625,-1.602861762046814,-0.009973526000976562,0.5578217506408691
1751214698262562800,1.796562744140625,-1.7938568592071533,-0.06919193267822266,0.6042237281799316
1751214698272556800,1.806556884765625,-1.686281681060791,-0.1795949935913086,0.633613109588623
1751214698282550500,1.816550537109375,-1.3764854669570923,-0.4470090866088867,0.7230485677719116
1751214698292544500,1.82654443359375,-1.0032460689544678,-0.3283576965332031,0.4654510021209717
1751214698302538500,1.83653857421875,-0.5184212327003479,-0.1156930923461914,0.06562483310699463
1751214698312532200,1.8465322265625,-0.11738985776901245,-0.004672050476074219,-0.29930388927459717
1751214698322526200,1.856526123046875,0.3654075264930725,0.32999610900878906,-0.658501923084259
1751214698332520200,1.866520263671875,0.8887187242507935,0.349639892578125,-0.480007529258728
1751214698342514000,1.876513916015625,1.2824879884719849,0.03103351593017578,0.029934287071228027
1751214698352508000,1.8865078125,1.4653749465942383,-0.015045166015625,0.22289955615997314
1751214698362502000,1.896501953125,1.369304895401001,0.10513591766357422,0.23968303203582764
1751214698372496000,1.906495849609375,1.0545296669006348,0.15249156951904297,0.2584235668182373
1751214698382489600,1.916489501953125,0.5612908005714417,0.10375499725341797,0.23685181140899658
1751214698392483600,1.926483642578125,0.13596636056900024,0.07410335540771484,0.20501196384429932
1751214698402477600,1.9364775390625,-0.16459238529205322,0.03487968444824219,0.25358760356903076
1751214698412471300,1.94647119140625,-0.3141414225101471,0.08598136901855469,0.22934818267822266
1751214698422465300,1.95646533203125,-0.3286748230457306,0.1506814956665039,0.2043147087097168
1751214698432459000,1.966458984375,-0.3684055209159851,0.15279006958007812,0.14467430114746094
1751214698442453000,1.976452880859375,-0.4094403088092804,0.18826961517333984,0.050763487815856934
1751214698452446700,1.98644677734375,-0.43107348680496216,0.2047262191772461,-0.029277682304382324
1751214698462440700,1.996440673828125,-0.5031191110610962,0.14545917510986328,-0.01302945613861084
1751214698472434400,2.006434326171875,-0.5066018104553223,-0.09835529327392578,0.011050105094909668
1751214698482428400,2.016428466796875,-0.3418594002723694,-0.3452129364013672,0.1042180061340332
1751214698492422100,2.026422119140625,-0.0689813494682312,-0.2999696731567383,0.10355651378631592
1751214698502416100,2.036416015625,0.6949548721313477,0.026383399963378906,0.16097652912139893
1751214698512409900,2.046409912109375,1.008650541305542,0.2647819519042969,0.3419839143753052
1751214698522403800,2.05640380859375,0.7192102074623108,-0.014240264892578125,0.406213641166687
1751214698532397600,2.0663974609375,0.5318616628646851,0.02072906494140625,0.1432948112487793
1751214698542391600,2.0763916015625,0.34944039583206177,0.1497955322265625,-0.25209474563598633
1751214698552385300,2.08638525390625,0.15630638599395752,0.11604595184326172,-0.5344939231872559
1751214698562379300,2.096379150390625,-0.018287062644958496,0.0017604827880859375,-0.7329273819923401
1751214698572373000,2.106373046875,-0.1766805648803711,-0.030242919921875,-0.8422366976737976
1751214698582367000,2.116366943359375,-0.28468072414398193,0.010333061218261719,-0.8290662169456482
1751214698592360700,2.126360595703125,-0.3863193988800049,0.046875,-0.6606189608573914
1751214698602354700,2.136354736328125,-0.40686142444610596,0.05525398254394531,-0.46289777755737305
1751214698612348400,2.146348388671875,-0.37652093172073364,0.0829629898071289,-0.2706547975540161
1751214698622342400,2.15634228515625,-0.40652602910995483,0.10104656219482422,-0.12769830226898193
1751214698632336100,2.166336181640625,-0.5252484679222107,0.06659221649169922,-0.019962310791015625
1751214698642330000,2.176330078125,-0.6690634489059448,0.008600234985351562,0.09092926979064941
1751214698662317800,2.19631787109375,-0.8928087949752808,0.003757476806640625,0.22607839107513428
1751214698672311600,2.2063115234375,-0.8723344802856445,0.04235649108886719,0.23633956909179688
1751214698682305500,2.216305419921875,-0.7529528141021729,0.08100605010986328,0.197762131690979
1751214698692299300,2.22629931640625,-0.5794650316238403,0.10057449340820312,0.09691882133483887
1751214698702293200,2.236293212890625,-0.3816644549369812,0.12009906768798828,0.024583101272583008
1751214698712287000,2.246286865234375,-0.1785188913345337,0.12530517578125,-0.05268585681915283
1751214698722281000,2.256281005859375,-0.036901652812957764,0.10675239562988281,-0.11074674129486084
1751214698732275000,2.26627490234375,0.04791361093521118,0.14073657989501953,-0.17380356788635254
1751214698742268700,2.2762685546875,0.09417456388473511,0.1746082305908203,-0.23619389533996582
1751214698752262700,2.2862626953125,0.13455086946487427,0.17018413543701172,-0.2643085718154907
1751214698762256600,2.296256591796875,0.1635580062866211,0.16096210479736328,-0.2676534652709961
1751214698772250400,2.30625048828125,0.204215407371521,0.11355304718017578,-0.26038169860839844
1751214698782244400,2.316244384765625,0.2530791759490967,0.0654754638671875,-0.22981810569763184
1751214698792238300,2.32623828125,0.279549241065979,0.046362876892089844,-0.18443238735198975
1751214698802232000,2.336232177734375,0.26015281677246094,0.027374267578125,-0.0967329740524292
1751214698812226000,2.34622607421875,0.19084453582763672,0.013151168823242188,-0.014850139617919922
1751214698822220000,2.356219970703125,0.06331336498260498,0.012973785400390625,0.06547152996063232
1751214698832213800,2.3662138671875,-0.07385998964309692,-0.001605987548828125,0.07356417179107666
1751214698842207700,2.376207763671875,-0.17271572351455688,0.0074558258056640625,0.05817687511444092
1751214698852201700,2.38620166015625,-0.21969038248062134,0.0021152496337890625,0.005680084228515625
1751214698862195700,2.39619580078125,-0.22040319442749023,0.020318984985351562,-0.0735703706741333
1751214698872189400,2.406189453125,-0.21279561519622803,0.024125099182128906,-0.10326004028320312
1751214698882183400,2.416183349609375,-0.14022618532180786,0.013719558715820312,-0.08945322036743164
1751214698892177400,2.426177490234375,-0.10246562957763672,0.03170585632324219,-0.05659615993499756
1751214698902171100,2.436171142578125,-0.11290407180786133,0.01635265350341797,-0.005407094955444336
1751214698912165000,2.4461650390625,-0.17055612802505493,-0.012928962707519531,0.044977426528930664
1751214698922159000,2.4561591796875,-0.24603760242462158,-0.046448707580566406,0.07103967666625977
1751214698932152800,2.46615283203125,-0.30096256732940674,-0.06050682067871094,0.09228360652923584
1751214698942146800,2.476146728515625,-0.35925763845443726,-0.055428504943847656,0.11350548267364502
1751214698952140800,2.486140869140625,-0.3784862160682678,-0.03629779815673828,0.18136072158813477
1751214698962134800,2.496134765625,-0.38753455877304077,-0.05043315887451172,0.27149713039398193
1751214698972128500,2.50612841796875,-0.35879260301589966,-0.045653343200683594,0.36385977268218994
1751214698982122500,2.51612255859375,-0.31636953353881836,-0.017578125,0.41587603092193604
1751214698992116500,2.526116455078125,-0.30302780866622925,-0.03730201721191406,0.44661760330200195
1751214699002110200,2.536110107421875,-0.29889267683029175,-0.04747772216796875,0.43747031688690186
1751214699012104200,2.546104248046875,-0.3084861636161804,-0.04353809356689453,0.38919198513031006
1751214699022098200,2.55609814453125,-0.3682445287704468,-0.025650978088378906,0.3444240093231201
1751214699032092000,2.566091796875,-0.4436381459236145,-0.036266326904296875,0.31299614906311035
1751214699042086000,2.5760859375,-0.49194836616516113,-0.027799606323242188,0.2853590250015259
1751214699062073600,2.596073486328125,-0.5515450835227966,-0.14643287658691406,0.24224042892456055
1751214699072067600,2.606067626953125,-0.535404622554779,-0.16883277893066406,0.2500584125518799
1751214699082061600,2.6160615234375,-0.49892938137054443,-0.1720428466796875,0.2561957836151123
1751214699102049300,2.63604931640625,-0.43864405155181885,-0.1511859893798828,0.3424999713897705
1751214699112043300,2.646043212890625,-0.4146828055381775,-0.24935340881347656,0.3792233467102051
1751214699122037200,2.656037353515625,-0.34254908561706543,-0.26595592498779297,0.37126636505126953
1751214699132031000,2.666031005859375,-0.2710447907447815,-0.17896652221679688,0.3709137439727783
1751214699142025000,2.67602490234375,-0.2578853964805603,-0.07039070129394531,0.34930384159088135
1751214699152019000,2.68601904296875,-0.2599979043006897,0.0547637939453125,0.31216883659362793
1751214699162012700,2.6960126953125,-0.25390857458114624,0.1067800521850586,0.2554938793182373
1751214699172006700,2.706006591796875,-0.22079342603683472,0.06327247619628906,0.2639584541320801
1751214699182000600,2.716000732421875,-0.1947881579399109,0.019669532775878906,0.34446823596954346
1751214699191994600,2.72599462890625,-0.20011073350906372,0.07915782928466797,0.3671046495437622
1751214699201988400,2.73598828125,-0.22187083959579468,0.2729635238647461,0.27641427516937256
1751214699211982300,2.745982421875,-0.27323925495147705,0.5142040252685547,0.027742981910705566
1751214699221976300,2.755976318359375,-0.296154260635376,0.7224874496459961,-0.4308356046676636
1751214699231970000,2.765969970703125,-0.23730164766311646,0.8050365447998047,-0.9372402429580688
1751214699241964000,2.775964111328125,-0.09950709342956543,0.627955436706543,-1.3299000263214111
1751214699251958000,2.7859580078125,0.10993695259094238,0.3984947204589844,-1.69070303440094
1751214699261951700,2.79595166015625,0.40128064155578613,0.2733116149902344,-2.0995402336120605
1751214699271945700,2.80594580078125,0.7770941257476807,0.32170677185058594,-2.5437698364257812
1751214699281939700,2.815939697265625,1.276589035987854,0.5291204452514648,-2.9257407188415527
1751214699291933700,2.82593359375,1.87397301197052,0.6138086318969727,-3.0804269313812256
1751214699301927400,2.835927490234375,2.3444228172302246,0.45661449432373047,-2.9028115272521973
1751214699311921400,2.84592138671875,2.509570598602295,0.08195114135742188,-2.35150146484375
1751214699321915400,2.855915283203125,2.407322406768799,-0.27104759216308594,-1.6044533252716064
1751214699331909000,2.8659091796875,2.142845630645752,-0.531071662902832,-0.7720991373062134
1751214699341903000,2.875903076171875,1.7257732152938843,-0.7466049194335938,0.15357542037963867
1751214699351897000,2.88589697265625,1.1996324062347412,-0.7612762451171875,1.034437894821167
1751214699361890800,2.895890869140625,0.7290940284729004,-0.523921012878418,1.7139394283294678
1751214699371884800,2.905884765625,0.3257492780685425,-0.21719932556152344,2.1842446327209473
1751214699381878800,2.915878662109375,-0.052147626876831055,0.05813407897949219,2.4909605979919434
1751214699391872500,2.92587255859375,-0.3276698589324951,0.14912796020507812,2.693760395050049
1751214699401866500,2.935866455078125,-0.46252238750457764,0.28006553649902344,2.8551828861236572
1751214699411860500,2.945860595703125,-0.4805524945259094,0.2833976745605469,2.6811203956604004
1751214699421854500,2.9558544921875,-0.4071645736694336,0.15084171295166016,1.9743611812591553
1751214699431848200,2.96584814453125,-0.49960339069366455,0.1993846893310547,1.0946409702301025
1751214699441842200,2.97584228515625,-0.6308739185333252,0.2337188720703125,0.4658687114715576
1751214699451836200,2.985836181640625,-0.5741655826568604,0.3255424499511719,-0.0728912353515625
1751214699461830000,2.995829833984375,-0.1876814365386963,0.5463428497314453,-0.7693066000938416
1751214699471824000,3.005823974609375,0.283463716506958,0.5997800827026367,-1.3077032566070557
1751214699481817900,3.01581787109375,0.4824575185775757,0.20498085021972656,-1.3644607067108154
1751214699491811600,3.0258115234375,0.37467682361602783,-0.08261394500732422,-1.0798659324645996
1751214699501805600,3.0358056640625,-0.6858787536621094,-0.2110137939453125,-0.2240825891494751
1751214699511799600,3.045799560546875,-1.5274356603622437,0.03938007354736328,0.3457533121109009
1751214699521793500,3.05579345703125,-2.097412109375,0.27237987518310547,0.6838418245315552
1751214699531787300,3.065787353515625,-2.4363644123077393,0.32129669189453125,1.1323360204696655
1751214699541781200,3.07578125,-2.3167121410369873,0.31494998931884766,1.5300410985946655
1751214699551775200,3.085775146484375,-1.8525147438049316,0.2811574935913086,1.8072723150253296
1751214699561769000,3.09576904296875,-1.2643237113952637,0.1712808609008789,1.930115818977356
1751214699571763000,3.105762939453125,-0.6858466863632202,-0.015219688415527344,1.8704984188079834
1751214699581757000,3.1157568359375,-0.2871098518371582,-0.13506031036376953,1.6170592308044434
1751214699591750700,3.125750732421875,-0.0069435834884643555,-0.09745979309082031,1.2025818824768066
1751214699601744600,3.13574462890625,0.2885080575942993,0.030608177185058594,0.8256140947341919
1751214699611738600,3.145738525390625,0.6090035438537598,0.1965179443359375,0.44853687286376953
1751214699621732400,3.155732421875,0.949770450592041,0.3284893035888672,0.17102551460266113
1751214699631726300,3.165726318359375,1.1857757568359375,0.3406410217285156,-0.09754276275634766
1751214699641720300,3.17572021484375,1.3312207460403442,0.33355236053466797,-0.361719012260437
1751214699651714300,3.18571435546875,1.4136112928390503,0.23078536987304688,-0.5682364106178284
1751214699661708000,3.1957080078125,1.3175055980682373,0.10887813568115234,-0.7024452090263367
1751214699671702000,3.205701904296875,1.10142982006073,0.025371551513671875,-0.7157713174819946
1751214699681696000,3.215696044921875,0.7147349119186401,-0.1103668212890625,-0.5558791160583496
1751214699691689700,3.225689697265625,0.2504732608795166,-0.2838430404663086,-0.19139766693115234
1751214699701683700,3.23568359375,-0.23097848892211914,-0.4661521911621094,0.21272945404052734
1751214699711677700,3.245677734375,-0.627566933631897,-0.5855245590209961,0.4787043333053589
1751214699721671400,3.25567138671875,-0.861384928226471,-0.6802177429199219,0.6532483100891113
1751214699731665400,3.26566552734375,-0.970320463180542,-0.86004638671875,0.7310335636138916
1751214699741659400,3.275659423828125,-0.925652265548706,-1.2010278701782227,0.7648674249649048
1751214699751653400,3.2856533203125,-0.6849160194396973,-1.6787405014038086,0.8795759677886963
1751214699761647000,3.295647216796875,-0.41597676277160645,-2.412299156188965,1.1593749523162842
1751214699771641000,3.30564111328125,-0.08968794345855713,-3.1289682388305664,1.491434097290039
1751214699781635000,3.315635009765625,0.38081347942352295,-3.6665048599243164,1.7397055625915527
1751214699791628800,3.32562890625,0.9493390321731567,-3.658474922180176,1.9217371940612793
1751214699801622800,3.335622802734375,1.4853689670562744,-3.2175350189208984,2.134934186935425
1751214699811616800,3.34561669921875,1.7851210832595825,-2.7999820709228516,2.1281182765960693
1751214699821610500,3.355610595703125,1.6448496580123901,-2.7927989959716797,1.7898836135864258
1751214699831604500,3.3656044921875,0.9192095994949341,-3.1034936904907227,1.4406577348709106
1751214699841598500,3.375598388671875,-0.31810295581817627,-3.27166748046875,1.0943973064422607
1751214699851592200,3.38559228515625,-1.9615362882614136,-3.0762977600097656,0.7036800980567932
1751214699861586200,3.395586181640625,-3.792219877243042,-2.721245765686035,0.5307525396347046
1751214699871580200,3.405580078125,-5.370694637298584,-2.4100093841552734,0.760691225528717
1751214699881574100,3.41557421875,-6.314777374267578,-2.079522132873535,1.248850703239441
1751214699891567900,3.42556787109375,-6.337263107299805,-1.7118959426879883,1.748944878578186
1751214699901561900,3.435561767578125,-5.618854999542236,-1.252553939819336,2.0132808685302734
1751214699911555800,3.445555908203125,-4.620237350463867,-0.8668174743652344,2.098658561706543
1751214699921549600,3.455549560546875,-3.5097107887268066,-0.5423059463500977,2.0248990058898926
1751214699931543600,3.46554345703125,-2.425166606903076,-0.28985595703125,1.9023727178573608
1751214699941537500,3.47553759765625,-1.4514551162719727,-0.19608306884765625,1.797987699508667
1751214699951531300,3.48553125,-0.580829918384552,-0.44236183166503906,1.7965452671051025
1751214699961525200,3.495525146484375,0.05939203500747681,-0.879612922668457,1.916317343711853
1751214699971519200,3.505519287109375,0.580960750579834,-1.33984375,2.061901569366455
1751214699981513200,3.51551318359375,1.1542469263076782,-1.6511774063110352,2.08432936668396
1751214699991507000,3.5255068359375,1.839303731918335,-1.781036376953125,1.844258189201355
1751214700001501000,3.5355009765625,2.7694594860076904,-1.6299943923950195,1.3569453954696655
1751214700011495000,3.545494873046875,3.8245458602905273,-0.8783493041992188,0.5417830944061279
1751214700021488600,3.555488525390625,4.315562725067139,-0.022146224975585938,-0.5518018007278442
1751214700031482600,3.565482666015625,5.008918762207031,0.4350852966308594,-1.1161941289901733
1751214700041476600,3.5754765625,5.307236671447754,0.4440879821777344,-1.1872639656066895
1751214700051470300,3.58547021484375,4.635558605194092,0.1985330581665039,-0.9721307754516602
1751214700061464300,3.59546435546875,2.8811023235321045,-0.3110198974609375,-0.3826720714569092
1751214700071458300,3.605458251953125,0.12236171960830688,-0.7431612014770508,0.44982194900512695
1751214700081452300,3.615452392578125,-3.5644211769104004,-1.2358207702636719,1.4148383140563965
1751214700091446000,3.625446044921875,-6.9846601486206055,-1.7784643173217773,2.2442610263824463
1751214700101440000,3.63543994140625,-8.109807968139648,-1.7490482330322266,2.4015140533447266
1751214700111434000,3.64543408203125,-5.765740394592285,-1.3169832229614258,1.578618049621582
1751214700121427700,3.655427734375,-0.9490227699279785,-1.0921173095703125,0.6618039608001709
1751214700131421700,3.665421630859375,3.9296889305114746,-1.2901744842529297,0.12040567398071289
1751214700141415700,3.675415771484375,6.408895492553711,-1.557621955871582,-0.40147972106933594
1751214700151409400,3.685409423828125,6.042593955993652,-1.8243694305419922,-0.8021447658538818
1751214700161403400,3.6954033203125,3.8965678215026855,-2.1136226654052734,-0.8025860786437988
1751214700171397400,3.7053974609375,1.2437806129455566,-2.3219404220581055,-0.49492645263671875
1751214700181391000,3.71539111328125,-1.06078040599823,-2.496182441711426,0.07246541976928711
1751214700191385000,3.725385009765625,-2.3231773376464844,-2.082052230834961,-0.2242445945739746
1751214700201379000,3.735379150390625,-1.8701233863830566,-1.4596529006958008,-0.9861149787902832
1751214700211373000,3.745373046875,-0.1479717493057251,-0.9517660140991211,-1.5839018821716309
1751214700221366800,3.75536669921875,1.8015060424804688,-0.46863746643066406,-2.0280473232269287
1751214700231360800,3.76536083984375,2.6634140014648438,-0.3165578842163086,-2.5224461555480957
1751214700241354800,3.775354736328125,2.5287587642669678,-0.3023853302001953,-2.7699031829833984
1751214700251348500,3.785348388671875,2.221907377243042,-0.3691277503967285,-2.7708396911621094
1751214700261342500,3.795342529296875,2.1257152557373047,-0.48505735397338867,-2.667457342147827
1751214700271336400,3.80533642578125,2.2040598392486572,-0.6135516166687012,-2.5843911170959473
1751214700281330200,3.815330078125,2.2932353019714355,-0.7312130928039551,-2.5183632373809814
1751214700291324200,3.82532421875,2.0848231315612793,-0.7276158332824707,-2.538334608078003
1751214700301318100,3.835318115234375,1.8066591024398804,-0.5779929161071777,-2.7089345455169678
1751214700311312100,3.84531201171875,1.9268115758895874,-0.2839999198913574,-3.1026368141174316
1751214700321305900,3.855305908203125,2.104215145111084,-0.13765811920166016,-3.523998975753784
1751214700331299800,3.8652998046875,1.92121422290802,0.07039546966552734,-3.7926888465881348
1751214700341293800,3.8752939453125,1.3721487522125244,0.36913013458251953,-4.054693222045898
1751214700351287600,3.88528759765625,1.0597091913223267,0.705772876739502,-4.229630470275879
1751214700361281500,3.895281494140625,0.932068943977356,1.0517668724060059,-4.505486488342285
1751214700371275500,3.905275634765625,1.0449978113174438,1.38344144821167,-4.839729309082031
1751214700381269200,3.915269287109375,1.1798189878463745,1.561997890472412,-5.105109691619873
1751214700391263200,3.92526318359375,1.113854169845581,1.6772656440734863,-5.299685478210449
1751214700401257200,3.93525732421875,1.0967607498168945,1.8436331748962402,-5.521383285522461
1751214700411251000,3.9452509765625,1.0170600414276123,2.0138072967529297,-5.700747966766357
1751214700421245000,3.955244873046875,0.8590954542160034,2.121384620666504,-5.716170787811279
1751214700431239000,3.965239013671875,0.7404530048370361,2.2723937034606934,-5.602067947387695
1751214700441233000,3.97523291015625,0.7270987033843994,2.2482194900512695,-5.380434989929199
1751214700451226600,3.9852265625,0.690527081489563,1.9498510360717773,-4.994572639465332
1751214700461220600,3.995220703125,0.7954113483428955,1.515343189239502,-4.511895179748535
1751214700471214600,4.005214599609375,0.9055476188659668,1.239668369293213,-3.96323299407959
1751214700481208300,4.015208251953125,0.8338552713394165,1.2416129112243652,-3.5400686264038086
1751214700491202300,4.025202392578125,0.7624481916427612,1.4450974464416504,-3.283811330795288
1751214700501196300,4.0351962890625,1.054163932800293,1.6495213508605957,-3.2171194553375244
1751214700511190000,4.04518994140625,1.2499055862426758,1.7460741996765137,-3.4095606803894043
1751214700521184000,4.05518408203125,1.2272669076919556,1.8357257843017578,-3.8206520080566406
1751214700531178000,4.065177978515625,0.6599880456924438,1.9479212760925293,-4.361401081085205
1751214700541172000,4.075171875,-0.7178256511688232,2.1059670448303223,-4.7858052253723145
1751214700551165700,4.085165771484375,-2.209038257598877,2.1687631607055664,-4.776586532592773
1751214700561159700,4.09515966796875,-1.5944862365722656,1.3544793128967285,-3.879697561264038
1751214700571153700,4.105153564453125,0.9099527597427368,-0.14581727981567383,-2.149294376373291
1751214700581147400,4.1151474609375,2.6802902221679688,-1.6328415870666504,-0.5251421928405762
1751214700591141400,4.125141357421875,1.6872793436050415,-2.9691858291625977,0.4993748664855957
1751214700601135400,4.13513525390625,0.05657827854156494,-4.341132640838623,1.1545653343200684
1751214700611129000,4.145129150390625,0.19984674453735352,-5.9571614265441895,1.6805734634399414
1751214700621123000,4.155123046875,1.2458701133728027,-7.400205612182617,2.243846893310547
1751214700631117000,4.165116943359375,3.0249557495117188,-8.224322319030762,2.731358051300049
1751214700641111000,4.175111083984375,3.924001932144165,-7.795538902282715,3.300609588623047
1751214700651104800,4.185104736328125,3.4459118843078613,-6.5507001876831055,3.8000307083129883
1751214700661098800,4.1950986328125,3.0567824840545654,-5.4217987060546875,4.0504326820373535
1751214700671092700,4.2050927734375,2.2791080474853516,-4.598841667175293,4.736632823944092
1751214700681086500,4.21508642578125,0.7151838541030884,-4.026759147644043,5.750376224517822
1751214700691080400,4.22508056640625,-1.229414463043213,-3.8526105880737305,5.914358615875244
1751214700701074400,4.235074462890625,-2.3339016437530518,-3.113022804260254,4.303946495056152
1751214700711068200,4.245068115234375,-1.9113340377807617,-1.4198341369628906,2.1528286933898926
1751214700721062100,4.255062255859375,-1.2103145122528076,-0.10133743286132812,0.764430046081543
1751214700731056000,4.26505615234375,-0.9462475776672363,0.5504817962646484,-0.014369010925292969
1751214700741049900,4.2750498046875,-1.2442502975463867,0.8464884757995605,-0.5888369083404541
1751214700751043800,4.2850439453125,-1.8054583072662354,1.0443053245544434,-0.9856739044189453
1751214700761037800,4.295037841796875,-2.1602044105529785,1.204782485961914,-1.260836124420166
1751214700771031800,4.30503173828125,-2.04400634765625,1.2797584533691406,-1.4971058368682861
1751214700781025500,4.315025634765625,-1.5958740711212158,1.2363648414611816,-1.6992604732513428
1751214700791019500,4.32501953125,-0.9532582759857178,1.113508701324463,-1.8481364250183105
1751214700801013500,4.335013427734375,-0.3127366304397583,0.9845447540283203,-2.0219593048095703
1751214700811007200,4.34500732421875,0.39477047324180603,0.8503093719482422,-2.1324729919433594
1751214700821001200,4.355001220703125,0.8855298757553101,0.7300405502319336,-2.1786208152770996
1751214700830995200,4.3649951171875,1.263981580734253,0.6570949554443359,-2.1884605884552
1751214700840989000,4.374989013671875,1.4601314067840576,0.5642919540405273,-2.066467046737671
1751214700850983000,4.38498291015625,1.5213568210601807,0.5756072998046875,-1.8611019849777222
1751214700860977000,4.394976806640625,1.4444899559020996,0.6140756607055664,-1.515960693359375
1751214700870971000,4.404970947265625,1.2198905944824219,0.6122360229492188,-1.0660769939422607
1751214700880964600,4.414964599609375,0.9449384808540344,0.5554714202880859,-0.5798768997192383
1751214700890958600,4.42495849609375,0.7288009524345398,0.5012025833129883,-0.1777052879333496
1751214700900952600,4.43495263671875,0.5224618911743164,0.42093658447265625,0.1689167022705078
1751214700910946300,4.4449462890625,0.3469545841217041,0.31966304779052734,0.4932591915130615
1751214700920940300,4.454940185546875,0.22608977556228638,0.19279956817626953,0.8336381912231445
1751214700930934300,4.464934326171875,0.13985872268676758,0.08814811706542969,1.137122392654419
1751214700940928000,4.474927978515625,0.07251507043838501,0.043918609619140625,1.384852647781372
1751214700950922000,4.484921875,0.105135977268219,0.04580879211425781,1.5391488075256348
1751214700960916000,4.494916015625,0.1800350546836853,0.09843921661376953,1.6666545867919922
1751214700970909700,4.50490966796875,0.1919780969619751,0.31169891357421875,1.6340603828430176
1751214700980903700,4.514903564453125,0.20792949199676514,0.5180120468139648,1.484483242034912
1751214700990897700,4.524897705078125,0.15301406383514404,0.602508544921875,1.325639009475708
1751214701000891600,4.5348916015625,0.12974846363067627,0.7467861175537109,1.2261770963668823
1751214701010885400,4.544885498046875,0.1440686583518982,0.9411916732788086,1.0982391834259033
1751214701020879400,4.55487939453125,0.014319300651550293,1.0570030212402344,0.8614476919174194
1751214701030873300,4.564873291015625,-0.03328573703765869,0.9038553237915039,0.7940177917480469
1751214701040867000,4.5748671875,-0.18137043714523315,0.6923046112060547,0.7883059978485107
1751214701050861000,4.584861083984375,-0.0482250452041626,0.5752840042114258,0.905349612236023
1751214701060855000,4.59485498046875,0.10651254653930664,0.4664878845214844,0.9674278497695923
1751214701070848800,4.604848876953125,0.1227114200592041,0.4902486801147461,0.9387762546539307
1751214701080842800,4.6148427734375,0.5508736371994019,0.4740180969238281,0.9590238332748413
1751214701090836700,4.624836669921875,0.48285388946533203,0.4081287384033203,0.814990758895874
1751214701100830700,4.634830810546875,-0.0829383134841919,0.21160507202148438,0.6869395971298218
1751214701110824400,4.644824462890625,-0.5967957973480225,0.1855020523071289,0.804222822189331
1751214701120818400,4.654818359375,-0.8889334201812744,0.45420360565185547,0.5623462200164795
1751214701130812400,4.6648125,-1.3317745923995972,0.5021963119506836,0.5862308740615845
1751214701140806100,4.67480615234375,-1.8410199880599976,0.5553836822509766,0.8075394630432129
1751214701150800100,4.684800048828125,-2.224731922149658,0.5383205413818359,0.6535086631774902
1751214701160794000,4.694794189453125,-2.177988290786743,0.5709543228149414,0.3466792106628418
1751214701170787800,4.704787841796875,-2.0518651008605957,0.6907119750976562,0.08416235446929932
1751214701180781800,4.71478173828125,-2.0028090476989746,0.7968835830688477,-0.31377553939819336
1751214701190775600,4.724775634765625,-2.0051517486572266,0.7846794128417969,-0.6554149389266968
1751214701200769500,4.73476953125,-1.6390289068222046,0.6929874420166016,-0.8085296750068665
1751214701210763300,4.74476318359375,-1.0136491060256958,0.5078201293945312,-0.7740671038627625
1751214701220757200,4.75475732421875,-0.5244531631469727,0.16747093200683594,-0.18989777565002441
1751214701230751000,4.7647509765625,-0.21121811866760254,-0.17074966430664062,0.763355016708374
1751214701240745000,4.774744873046875,0.03694295883178711,-0.43173694610595703,1.6693618297576904
1751214701250738700,4.78473876953125,0.06028425693511963,-0.5161724090576172,2.2811484336853027
1751214701260732700,4.794732666015625,-0.13492882251739502,-0.43874263763427734,2.5890631675720215
1751214701270726400,4.804726318359375,-0.487900972366333,-0.2183094024658203,2.6667518615722656
1751214701280720400,4.814720458984375,-0.7520811557769775,0.09279441833496094,2.592517852783203
1751214701290714000,4.824714111328125,-0.7742357850074768,0.32741260528564453,2.420651912689209
1751214701300708000,4.8347080078125,-0.4421161413192749,0.28966808319091797,2.1615023612976074
1751214701310701800,4.844701904296875,0.17238986492156982,-0.11124992370605469,1.8621023893356323
1751214701320695800,4.85469580078125,0.7960094213485718,-0.7318630218505859,1.359891653060913
1751214701330689500,4.864689453125,1.3231416940689087,-1.352250099182129,0.6674612760543823
1751214701340683500,4.87468359375,1.765570878982544,-1.8146705627441406,-0.09655821323394775
1751214701350677200,4.88467724609375,2.186990261077881,-2.161820411682129,-0.7512641549110413
1751214701360671200,4.894671142578125,2.594377040863037,-2.5225658416748047,-1.0806403160095215
1751214701370665000,4.9046650390625,3.0509185791015625,-2.916156768798828,-1.2209949493408203
1751214701380659000,4.914658935546875,3.268631935119629,-3.500828742980957,-1.2096667289733887
1751214701390652700,4.924652587890625,3.227506637573242,-4.377311706542969,-1.0521615743637085
1751214701400646700,4.934646728515625,2.871426582336426,-5.263572692871094,-0.8394400477409363
1751214701410640400,4.944640380859375,2.1768147945404053,-5.95375919342041,-0.5875195264816284
1751214701430628000,4.964628173828125,-0.43402552604675293,-6.5509233474731445,0.24448537826538086
1751214701440622000,4.9746220703125,-1.966282606124878,-6.50382137298584,0.9691941142082214
1751214701450616000,4.984615966796875,-3.5610923767089844,-6.18625545501709,1.6089078187942505
1751214701460610000,4.994610107421875,-5.219773292541504,-5.56495475769043,2.0345072746276855
1751214701470603800,5.004603759765625,-6.781400203704834,-4.5304412841796875,2.5051867961883545
1751214701480597800,5.01459765625,-7.781675338745117,-2.8547773361206055,2.968140125274658
1751214701490591700,5.024591796875,-8.084556579589844,-1.472024917602539,3.4883999824523926
1751214701500585500,5.03458544921875,-8.039648056030273,-0.6455535888671875,4.131402015686035
1751214701510579500,5.044579345703125,-7.73744010925293,-0.2612791061401367,4.716084003448486
1751214701520573400,5.054573486328125,-6.805916786193848,-0.20595645904541016,5.0373735427856445
1751214701530567200,5.064567138671875,-5.623940467834473,-0.4286794662475586,5.128064155578613
1751214701540561200,5.07456103515625,-4.489104270935059,-0.7299528121948242,5.060667514801025
1751214701550555100,5.08455517578125,-3.389477252960205,-0.9913702011108398,4.935212135314941
1751214701560548900,5.094548828125,-2.0667052268981934,-1.2570734024047852,4.539732933044434
1751214701570542800,5.10454296875,-0.4426899254322052,-1.4277381896972656,3.7493982315063477
1751214701580536800,5.114536865234375,1.1555311679840088,-1.6238288879394531,2.7903800010681152
1751214701590530800,5.12453076171875,2.402662754058838,-1.386256217956543,1.512850046157837
1751214701600524500,5.134524658203125,3.4725122451782227,-1.1678400039672852,0.3726210594177246
1751214701610518500,5.1445185546875,5.443903923034668,-0.7407569885253906,-0.5721473693847656
1751214701620512500,5.154512451171875,6.773065567016602,-0.1679067611694336,-1.344023585319519
1751214701630506200,5.16450634765625,6.956247806549072,-0.13553142547607422,-1.9168388843536377
1751214701640500200,5.174500244140625,6.838696002960205,-0.2648792266845703,-2.192976474761963
1751214701650494200,5.184494140625,5.898598670959473,0.012761116027832031,-2.4752120971679688
1751214701660488000,5.194488037109375,4.59332799911499,0.5355215072631836,-2.832782745361328
1751214701670482000,5.20448193359375,3.4219589233398438,0.9505043029785156,-2.9693398475646973
1751214701680476000,5.214475830078125,2.115377426147461,0.9422721862792969,-2.459956645965576
1751214701690470000,5.224469970703125,0.5946513414382935,0.6233062744140625,-1.4109675884246826
1751214701700463600,5.234463623046875,-1.0378870964050293,0.17038249969482422,-0.20702672004699707
1751214701710457600,5.24445751953125,-1.8970917463302612,-0.21978759765625,0.6111931800842285
1751214701720451600,5.25445166015625,-1.5064361095428467,-0.4830951690673828,0.9003276824951172
1751214701730445300,5.2644453125,0.17463070154190063,-0.719487190246582,0.7755241394042969
1751214701740439300,5.274439208984375,2.451364040374756,-1.0220317840576172,0.4014449119567871
1751214701750433300,5.284433349609375,3.8872721195220947,-1.2153940200805664,-0.09073448181152344
1751214701760427000,5.294427001953125,3.617182493209839,-1.3392963409423828,-0.7477054595947266
1751214701770421000,5.3044208984375,1.9208048582077026,-1.2286901473999023,-1.5941298007965088
1751214701780415000,5.3144150390625,0.46720677614212036,-0.8816204071044922,-2.9461989402770996
1751214701790408700,5.32440869140625,-0.07113265991210938,-0.7963199615478516,-3.6771512031555176
1751214701800402700,5.334402587890625,0.2278957962989807,-0.8551883697509766,-3.911968946456909
1751214701810396700,5.344396728515625,0.7984553575515747,-0.6482381820678711,-4.145638465881348
1751214701820390700,5.354390625,0.9637221097946167,-0.32948875427246094,-4.361124515533447
1751214701830384400,5.36438427734375,1.211348533630371,-0.1269063949584961,-4.5480546951293945
1751214701840378400,5.37437841796875,1.0931750535964966,-0.0969533920288086,-4.405971527099609
1751214701850372400,5.384372314453125,0.9808486700057983,-0.14298629760742188,-4.0789384841918945
1751214701860366000,5.394365966796875,1.0846867561340332,-0.27429962158203125,-3.6288084983825684
1751214701870360000,5.404360107421875,1.4234932661056519,-0.29900455474853516,-3.2742269039154053
1751214701880354000,5.41435400390625,1.7310984134674072,-0.2820587158203125,-3.1989002227783203
1751214701890347800,5.42434765625,1.6669390201568604,-0.2736377716064453,-3.3144750595092773
1751214701900341800,5.434341796875,1.4501562118530273,-0.11913204193115234,-3.5624148845672607
1751214701910335700,5.444335693359375,1.2871708869934082,0.1488037109375,-3.917959213256836
1751214701920329700,5.454329833984375,1.0089001655578613,0.512537956237793,-4.283637046813965
1751214701930323500,5.464323486328125,0.8427197933197021,0.8962459564208984,-4.510565280914307
1751214701940317400,5.4743173828125,0.8641230463981628,1.2619051933288574,-4.546917915344238
1751214701950311400,5.4843115234375,0.6678993701934814,1.5229501724243164,-4.4665679931640625
1751214701960305200,5.49430517578125,0.4527902603149414,1.687922477722168,-4.290920257568359
1751214701970299100,5.504299072265625,0.365344762802124,1.7562484741210938,-4.059760093688965
1751214701980293000,5.514293212890625,0.2742478847503662,1.7232003211975098,-3.8600914478302
1751214701990286800,5.524286865234375,0.2784780263900757,1.621232509613037,-3.6409239768981934
1751214702000280800,5.53428076171875,0.2047898769378662,1.4922003746032715,-3.504214286804199
1751214702010274800,5.54427490234375,0.07579898834228516,1.4015889167785645,-3.437269449234009
1751214702020268800,5.554268798828125,0.015085458755493164,1.3433609008789062,-3.312333345413208
1751214702030262500,5.564262451171875,-0.20904278755187988,1.2313027381896973,-3.230778455734253
1751214702040256500,5.574256591796875,-0.41846609115600586,1.117358684539795,-3.036766529083252
1751214702050250500,5.58425048828125,-0.47455310821533203,1.024472713470459,-2.889047145843506
1751214702060244200,5.594244140625,-0.5903043746948242,0.9190759658813477,-2.9492359161376953
1751214702070238200,5.60423828125,-0.5766017436981201,0.8875246047973633,-3.0914084911346436
1751214702080232200,5.614232177734375,-0.42703914642333984,0.8448095321655273,-3.0747907161712646
1751214702090226000,5.624225830078125,-0.2832796573638916,0.8204607963562012,-3.027259349822998
1751214702100220000,5.634219970703125,-0.2067406177520752,0.8261809349060059,-3.0277326107025146
1751214702110214000,5.6442138671875,-0.30732131004333496,0.7724065780639648,-3.041334390640259
1751214702120207600,5.65420751953125,-0.26922130584716797,0.7456569671630859,-3.067357301712036
1751214702140195600,5.674195556640625,-0.5889426469802856,0.9447717666625977,-3.1165778636932373
1751214702150189600,5.684189453125,-1.0769942998886108,0.8431792259216309,-2.4755029678344727
1751214702160183300,5.694183349609375,-1.2018656730651855,0.26284265518188477,-1.5913844108581543
1751214702170177300,5.70417724609375,-0.5870625972747803,-0.48407793045043945,-0.6419992446899414
1751214702180171300,5.714171142578125,-0.30741584300994873,-1.1712946891784668,0.05830860137939453
1751214702190165000,5.7241650390625,-0.16403508186340332,-1.7593975067138672,0.48767709732055664
1751214702200159000,5.734158935546875,0.0025905370712280273,-2.2676239013671875,0.9049205780029297
1751214702210153000,5.744153076171875,0.19262480735778809,-2.736604690551758,1.4032001495361328
1751214702220146700,5.754146728515625,0.695440411567688,-3.1459693908691406,1.783285140991211
1751214702230140700,5.764140625,1.4125850200653076,-3.296522617340088,1.7445416450500488
1751214702240134700,5.774134765625,1.7848296165466309,-3.3855347633361816,1.589646339416504
1751214702250128600,5.784128662109375,1.9415864944458008,-3.5189976692199707,1.481569766998291
1751214702260122400,5.794122314453125,2.297683000564575,-3.634580135345459,1.3785696029663086
1751214702270116400,5.804116455078125,2.9021248817443848,-3.6971487998962402,1.1496238708496094
1751214702280110300,5.8141103515625,3.8245677947998047,-3.8004608154296875,0.9695816040039062
1751214702290104000,5.82410400390625,4.236194610595703,-4.067928314208984,1.0302166938781738
1751214702300098000,5.83409814453125,3.7510833740234375,-4.227896690368652,1.5778584480285645
1751214702310092000,5.844092041015625,3.152945041656494,-3.992443084716797,2.3586673736572266
1751214702320085800,5.854085693359375,2.7513201236724854,-3.337312698364258,3.1187539100646973
1751214702330079700,5.864079833984375,1.3571908473968506,-2.4158945083618164,3.831907272338867
1751214702340073700,5.87407373046875,-0.36752864718437195,-1.2833137512207031,4.059058666229248
1751214702350067500,5.8840673828125,-1.89768385887146,-0.0754241943359375,3.3366451263427734
1751214702360061400,5.8940615234375,-2.3614706993103027,0.9410943984985352,2.157553195953369
1751214702370055400,5.904055419921875,-2.4440577030181885,1.647697925567627,1.2480354309082031
1751214702380049400,5.91404931640625,-2.652510404586792,1.9476943016052246,0.4497957229614258
1751214702390043100,5.924043212890625,-2.7514705657958984,1.9175477027893066,-0.2351522445678711
1751214702400037000,5.934037109375,-2.657464027404785,1.563033103942871,-0.8598921298980713
1751214702410031000,5.944031005859375,-2.497617244720459,1.0626721382141113,-1.4562742710113525
1751214702420024800,5.95402490234375,-2.2887537479400635,0.5950345993041992,-1.9304804801940918
1751214702430018800,5.964018798828125,-2.0914034843444824,0.3667764663696289,-2.1743667125701904
1751214702440012800,5.9740126953125,-1.7500756978988647,0.22954559326171875,-2.3299319744110107
1751214702450006500,5.984006591796875,-1.4229156970977783,0.2881355285644531,-2.3680481910705566
1751214702479988500,6.013988525390625,0.20648938417434692,0.6585865020751953,-1.79580557346344
1751214702489982200,6.023982177734375,0.6636205911636353,0.8455772399902344,-1.536320447921753
1751214702499976200,6.03397607421875,0.9609473943710327,0.9345197677612305,-1.2983522415161133
1751214702509970200,6.04397021484375,1.158483862876892,0.9208955764770508,-1.1007964611053467
1751214702519964000,6.0539638671875,1.197801113128662,0.7717390060424805,-0.875990629196167
1751214702529958000,6.0639580078125,1.2698829174041748,0.612030029296875,-0.655975341796875
1751214702539951900,6.073951904296875,1.2606364488601685,0.47075462341308594,-0.47784972190856934
1751214702549945600,6.083945556640625,1.2098963260650635,0.3336648941040039,-0.2979319095611572
1751214702559939600,6.093939697265625,1.1431925296783447,0.17678165435791016,-0.09720683097839355
1751214702569933600,6.10393359375,1.0521537065505981,0.0764780044555664,0.062077999114990234
1751214702579927600,6.113927490234375,0.8564392924308777,0.0707864761352539,0.22795605659484863
1751214702589921500,6.123921630859375,0.6667033433914185,0.14507007598876953,0.41959214210510254
1751214702599915500,6.13391552734375,0.5394451022148132,0.24243640899658203,0.6193177700042725
1751214702609909500,6.143909423828125,0.4049642086029053,0.34893131256103516,0.895338773727417
1751214702619903500,6.153903564453125,0.17178070545196533,0.37845325469970703,1.2909133434295654
1751214702629897200,6.163897216796875,-0.0372997522354126,0.12946605682373047,1.8690481185913086
1751214702639891200,6.17389111328125,-0.26414942741394043,-0.15030479431152344,2.450307607650757
1751214702649885200,6.18388525390625,-0.6021134257316589,-0.22275829315185547,2.698438882827759
1751214702659879200,6.193879150390625,-0.8789325952529907,-0.18417930603027344,2.4877986907958984
1751214702669873200,6.203873046875,-1.1478089094161987,-0.005680084228515625,2.011692523956299
1751214702679867100,6.2138671875,-1.3739936351776123,0.2326059341430664,1.370258092880249
1751214702689861000,6.223861083984375,-1.3300411701202393,0.34537696838378906,0.890002965927124
1751214702699855000,6.233855224609375,-1.291940689086914,0.37145423889160156,0.6933159828186035
1751214702709849000,6.24384912109375,-1.3106701374053955,0.3683128356933594,0.5999281406402588
1751214702719843000,6.253843017578125,-1.1986901760101318,0.38379669189453125,0.4261897802352905
1751214702729836800,6.2638369140625,-0.7250417470932007,0.3506155014038086,0.5735006332397461
1751214702739830800,6.273830810546875,-0.3185913562774658,0.4450845718383789,0.7249317169189453
1751214702749824800,6.28382470703125,-0.1092824935913086,0.5761070251464844,0.7952945232391357
1751214702759818800,6.29381884765625,0.014189839363098145,0.7534494400024414,0.800243616104126
1751214702769812700,6.303812744140625,0.0953298807144165,0.8677997589111328,0.6576920747756958
1751214702779806700,6.313806640625,0.28327906131744385,0.9152097702026367,0.7341951131820679
1751214702789800700,6.32380078125,0.5818105936050415,0.9584636688232422,0.7996616363525391
1751214702799794700,6.333794677734375,0.7296774387359619,0.9503812789916992,0.9569820165634155
1751214702809788700,6.34378857421875,0.5326603651046753,0.7841196060180664,0.9630769491195679
1751214702819782400,6.353782470703125,0.513678789138794,0.6653652191162109,0.6916898488998413
1751214702829776400,6.3637763671875,0.40321409702301025,0.5606575012207031,0.3652322292327881
1751214702839770400,6.373770263671875,0.09306740760803223,0.5614147186279297,0.12533044815063477
1751214702849764000,6.38376416015625,-0.26806366443634033,0.5106935501098633,0.08764004707336426
1751214702859758000,6.393758056640625,-0.5762490034103394,0.30869102478027344,0.1981440782546997
1751214702869752000,6.403751953125,-0.7120324373245239,0.0845804214477539,0.2785773277282715
1751214702879745800,6.413745849609375,-0.8114047050476074,-0.09487628936767578,0.37755048274993896
1751214702889739800,6.42373974609375,-0.9084348082542419,-0.20585918426513672,0.5485326051712036
1751214702899733800,6.433733642578125,-0.8156898021697998,-0.20062637329101562,0.7054151296615601
1751214702909727700,6.443727783203125,-0.5894342660903931,-0.09379863739013672,0.9855127334594727
1751214702919721500,6.453721435546875,-0.34476304054260254,-0.10597610473632812,1.337076187133789
1751214702929715500,6.463715576171875,-0.03033745288848877,-0.2566070556640625,1.5037826299667358
1751214702939709400,6.47370947265625,0.25185441970825195,-0.4358711242675781,1.4085237979888916
1751214702949703200,6.483703125,0.4320293664932251,-0.615483283996582,1.1426528692245483
1751214702959697200,6.493697265625,0.47915780544281006,-0.9008932113647461,0.8117117881774902
1751214702969691100,6.503691162109375,0.47485828399658203,-1.267953872680664,0.3629976511001587
1751214702979684900,6.513684814453125,0.5253288745880127,-1.7066431045532227,-0.16913962364196777
1751214702989678800,6.523678955078125,0.690345048904419,-2.2503271102905273,-0.7924473285675049
1751214702999672800,6.5336728515625,1.0493487119674683,-2.8513479232788086,-1.4781826734542847
1751214703009666800,6.543666748046875,1.4649196863174438,-3.189089775085449,-2.351830005645752
1751214703019660500,6.55366064453125,1.7782217264175415,-3.439565658569336,-2.8266239166259766
1751214703029654500,6.563654541015625,1.8667521476745605,-4.056225776672363,-2.402491807937622
1751214703039648500,6.5736484375,1.8698381185531616,-4.8666229248046875,-1.2661505937576294
1751214703049642200,6.583642333984375,1.403434157371521,-5.359869003295898,0.31344670057296753
1751214703059636200,6.59363623046875,0.6697769165039062,-5.513397216796875,1.874197244644165
1751214703069630200,6.603630126953125,-0.20106875896453857,-5.4761857986450195,3.2495005130767822
1751214703079624000,6.6136240234375,-1.0169401168823242,-5.334522247314453,4.3412065505981445
1751214703089618000,6.623617919921875,-1.7456175088882446,-5.06412410736084,5.01225471496582
1751214703099612000,6.63361181640625,-2.3866195678710938,-4.477997779846191,5.036222457885742
1751214703109605600,6.643605712890625,-2.8635365962982178,-3.3706045150756836,4.413905620574951
1751214703119599600,6.653599609375,-3.294915199279785,-2.5549583435058594,3.5462803840637207
1751214703129593600,6.663593505859375,-3.667553424835205,-2.0351552963256836,2.535862445831299
1751214703139587600,6.673587646484375,-3.8773629665374756,-1.2233123779296875,1.8876323699951172
1751214703149581300,6.683581298828125,-3.9051337242126465,-0.43105030059814453,1.6777210235595703
1751214703159575300,6.6935751953125,-3.844931125640869,0.07779979705810547,1.756300687789917
1751214703169569300,6.7035693359375,-3.7250800132751465,0.31684207916259766,1.8298066854476929
1751214703179563000,6.71356298828125,-3.602750301361084,0.3668098449707031,1.9369217157363892
1751214703189557000,6.723556884765625,-3.559518575668335,0.021347999572753906,2.3849194049835205
1751214703199551000,6.733551025390625,-3.4412643909454346,-0.21802520751953125,2.660266399383545
1751214703209544700,6.743544677734375,-3.4369938373565674,-0.9198474884033203,2.625002861022949
1751214703219538700,6.75353857421875,-3.015543222427368,-0.9796724319458008,2.6098201274871826
1751214703229532700,6.76353271484375,-2.1333532333374023,-0.5859746932983398,2.583299160003662
1751214703239526700,6.773526611328125,-1.0786553621292114,-0.47144222259521484,2.332568407058716
1751214703249520400,6.783520263671875,0.10067132115364075,-0.4547700881958008,1.9344139099121094
1751214703259514400,6.793514404296875,1.1231540441513062,-0.3355522155761719,1.490968942642212
1751214703279502000,6.813502197265625,2.4480488300323486,-0.016748428344726562,0.5472860336303711
1751214703289496000,6.82349609375,3.0826005935668945,0.21953296661376953,-0.0222318172454834
1751214703299490000,6.833489990234375,3.800741672515869,0.7164716720581055,-0.3477365970611572
1751214703309483800,6.84348388671875,3.853262424468994,1.1105985641479492,-0.5115797519683838
1751214703319477800,6.853477783203125,5.385297775268555,1.1352081298828125,-0.8527622222900391
1751214703329471700,6.8634716796875,5.9303178787231445,0.6572237014770508,-0.628185510635376
1751214703339465700,6.8734658203125,4.29705286026001,0.1015472412109375,-0.20748639106750488
1751214703349459500,6.88345947265625,1.7802221775054932,-0.11551856994628906,0.1472644805908203
1751214703359453400,6.893453369140625,-1.3113813400268555,-0.569549560546875,0.8096010684967041
1751214703369447400,6.903447509765625,-3.470790147781372,-1.254673957824707,1.4838829040527344
1751214703379441200,6.913441162109375,-3.633495569229126,-1.8422422409057617,1.9644627571105957
1751214703389435100,6.92343505859375,-1.5709593296051025,-1.8662433624267578,1.3494601249694824
1751214703399429000,6.93342919921875,1.7269089221954346,-1.564748764038086,-0.15187644958496094
1751214703409422800,6.9434228515625,4.155472278594971,-1.4371166229248047,-1.3774049282073975
1751214703419416800,6.953416748046875,4.3591413497924805,-1.6743888854980469,-2.255908489227295
1751214703429410800,6.963410888671875,2.346583127975464,-1.801722526550293,-3.1081690788269043
1751214703439404500,6.973404541015625,0.6192848086357117,-1.1027450561523438,-4.325295448303223
1751214703449398500,6.9833984375,0.7295470237731934,-0.5944385528564453,-4.650206565856934
1751214703459392500,6.993392578125,1.319191336631775,-0.3981456756591797,-4.438497066497803
1751214703469386500,7.003386474609375,1.2427865266799927,-0.1219930648803711,-4.286416053771973
1751214703479380200,7.013380126953125,1.2899951934814453,0.03297138214111328,-3.976706027984619
1751214703499368200,7.0333681640625,1.4138308763504028,0.0413970947265625,-3.3588762283325195
1751214703509362000,7.04336181640625,1.574743628501892,-0.19135713577270508,-3.047828197479248
1751214703519356000,7.05335595703125,1.4489350318908691,-0.38494443893432617,-2.4935872554779053
1751214703529350000,7.063349853515625,0.9121514558792114,-0.3645510673522949,-2.077082633972168
1751214703539343600,7.073343505859375,1.0334465503692627,-0.22457122802734375,-2.2115092277526855
1751214703549337600,7.083337646484375,1.5479761362075806,-0.1976771354675293,-2.5338287353515625
1751214703559331600,7.09333154296875,1.6145950555801392,-0.0593719482421875,-2.886371374130249
1751214703569325600,7.10332568359375,1.215855598449707,0.15433549880981445,-3.1144216060638428
1751214703579319300,7.1133193359375,1.0982081890106201,0.5025715827941895,-3.317483901977539
1751214703589313300,7.123313232421875,1.152780532836914,0.744408130645752,-3.4406485557556152
1751214703599307300,7.133307373046875,0.9177793860435486,0.9181623458862305,-3.4130239486694336
1751214703609301000,7.143301025390625,0.6407952308654785,1.0602226257324219,-3.5089244842529297
1751214703619295000,7.153294921875,0.34442567825317383,1.2218432426452637,-3.7859861850738525
1751214703629289000,7.1632890625,-0.013472557067871094,1.3823604583740234,-3.9703145027160645
1751214703639282700,7.17328271484375,-0.3054013252258301,1.5642166137695312,-4.104799270629883
1751214703649276700,7.183276611328125,-0.5222594738006592,1.679779052734375,-4.1846513748168945
1751214703659270700,7.193270751953125,-0.5316674709320068,1.7485284805297852,-4.237922668457031
1751214703669264400,7.203264404296875,-0.523923397064209,1.6699409484863281,-4.062891960144043
1751214703679258400,7.21325830078125,-0.4802885055541992,1.4861674308776855,-3.7206532955169678
1751214703689252400,7.22325244140625,-0.36016178131103516,1.3740434646606445,-3.4814295768737793
1751214703699246300,7.233246337890625,-0.23142695426940918,1.300926685333252,-3.199406862258911
1751214703709240000,7.243239990234375,-0.08898758888244629,1.2430329322814941,-2.861794948577881
1751214703719234000,7.253234130859375,-0.0024747848510742188,1.3095440864562988,-2.653477191925049
1751214703729228000,7.26322802734375,0.21433281898498535,1.4663801193237305,-2.725767135620117
1751214703739221800,7.2732216796875,0.5410747528076172,1.6242856979370117,-2.938023805618286
1751214703749215700,7.2832158203125,0.7980968952178955,1.6888031959533691,-3.055490255355835
1751214703759209700,7.293209716796875,0.8804537057876587,1.7851815223693848,-3.249265193939209
1751214703769203500,7.303203369140625,0.675452709197998,1.6562752723693848,-3.3917882442474365
1751214703779197400,7.313197509765625,0.06055939197540283,1.6694393157958984,-3.305311918258667
1751214703789191400,7.32319140625,-0.6512013673782349,1.6734123229980469,-2.8812034130096436
1751214703799185400,7.333185302734375,-0.5869489908218384,1.2402548789978027,-2.1602978706359863
1751214703809179100,7.34317919921875,-0.42791759967803955,0.6336960792541504,-1.6417741775512695
1751214703819173000,7.353173095703125,-0.38660097122192383,0.12337017059326172,-1.315579891204834
1751214703829167000,7.3631669921875,0.48036789894104004,-0.37500572204589844,-1.136579990386963
1751214703839160800,7.373160888671875,1.1872949600219727,-0.9693074226379395,-0.913177490234375
1751214703849154800,7.38315478515625,0.3594719171524048,-1.5843110084533691,-0.26309967041015625
1751214703859148800,7.393148681640625,-0.40526282787323,-2.1952686309814453,0.6453843116760254
1751214703869142500,7.403142578125,0.09607970714569092,-2.9762167930603027,1.2495698928833008
1751214703879136500,7.413136474609375,0.36170440912246704,-4.1042633056640625,1.6966218948364258
1751214703889130500,7.423130615234375,0.39557331800460815,-5.331099510192871,2.4041080474853516
1751214703899124200,7.433124267578125,1.3770334720611572,-6.38273811340332,3.1716346740722656
1751214703909118200,7.4431181640625,2.15105938911438,-6.945713996887207,3.783809185028076
1751214703919112200,7.4531123046875,1.6236183643341064,-6.307010173797607,3.4812769889831543
1751214703929106200,7.463106201171875,1.0456938743591309,-4.542427062988281,2.1255593299865723
1751214703939100000,7.473099853515625,0.9043375253677368,-2.725475311279297,1.1433501243591309
1751214703949094000,7.483093994140625,1.277454137802124,-1.118027687072754,0.7561039924621582
1751214703959087900,7.493087890625,1.6762514114379883,-0.4715080261230469,0.836392879486084
1751214703969081600,7.50308154296875,1.5534580945968628,-0.5098981857299805,1.0867023468017578
1751214703979075600,7.51307568359375,1.305354118347168,-0.7768850326538086,1.3090639114379883
1751214703989069600,7.523069580078125,0.7458224892616272,-0.9071149826049805,1.3592395782470703
1751214703999063300,7.533063232421875,0.23457537591457367,-0.7438106536865234,1.1544561386108398
1751214704009057300,7.543057373046875,-0.022634200751781464,-0.5105752944946289,0.6209096908569336
1751214704019051300,7.55305126953125,-0.08706879615783691,-0.4592161178588867,0.19658422470092773
1751214704029045200,7.563045166015625,-0.3423178791999817,-0.2693643569946289,-0.10507965087890625
1751214704039039000,7.5730390625,-0.5473592877388,-0.18931865692138672,-0.3703756332397461
1751214704049033000,7.583032958984375,-0.903293788433075,-0.17068958282470703,-0.6523351669311523
1751214704059027000,7.59302685546875,-1.2254226207733154,-0.25127506256103516,-0.9611399173736572
1751214704069020700,7.603020751953125,-1.1969252824783325,-0.19652938842773438,-1.2447943687438965
1751214704079014700,7.6130146484375,-1.0495274066925049,0.10819435119628906,-1.617868423461914
1751214704089008600,7.623008544921875,-0.965888500213623,0.4863147735595703,-1.9873151779174805
1751214704099002400,7.63300244140625,-0.9856401681900024,0.8327150344848633,-2.280592441558838
1751214704108996400,7.642996337890625,-0.9106808304786682,1.1047840118408203,-2.4729418754577637
1751214704118990300,7.652990234375,-0.7909323573112488,1.2689905166625977,-2.4219753742218018
1751214704128984300,7.662984375,-0.669069766998291,1.3155441284179688,-2.278224229812622
1751214704138978000,7.67297802734375,-0.39452236890792847,1.273122787475586,-1.9624922275543213
1751214704148972000,7.682971923828125,-0.02592894434928894,1.2712020874023438,-1.6331976652145386
1751214704158966000,7.692966064453125,0.3670252859592438,1.3292608261108398,-1.2611579895019531
1751214704168959700,7.702959716796875,0.6677883267402649,1.3804121017456055,-0.8366951942443848
1751214704178953700,7.71295361328125,0.8983911275863647,1.333836555480957,-0.29358696937561035
1751214704188947700,7.72294775390625,1.091454029083252,1.1419754028320312,0.2001042366027832
1751214704198941400,7.73294140625,1.2118868827819824,0.9106960296630859,0.5552628040313721
1751214704208935400,7.742935302734375,1.3726941347122192,0.6410102844238281,0.8669965267181396
1751214704218929400,7.752929443359375,1.434131383895874,0.38100624084472656,1.2943801879882812
1751214704228923100,7.762923095703125,1.488269567489624,0.07295894622802734,1.7969732284545898
1751214704238917000,7.772917236328125,1.2906432151794434,-0.045350074768066406,2.349752187728882
1751214704248911000,7.7829111328125,1.0404343605041504,0.34932804107666016,2.578939437866211
1751214704258905000,7.792905029296875,0.8539901971817017,0.759455680847168,2.4624290466308594
1751214704268898800,7.80289892578125,0.553941547870636,0.9376945495605469,2.2212228775024414
1751214704278892800,7.812892822265625,0.22943061590194702,0.9474592208862305,1.9032164812088013
1751214704288886800,7.82288671875,0.004553735256195068,0.875462532043457,1.6205991506576538
1751214704298880500,7.832880615234375,-0.013562619686126709,0.8172378540039062,1.4766806364059448
1751214704308874500,7.84287451171875,0.12472808361053467,0.6290178298950195,1.5103521347045898
1751214704318868500,7.852868408203125,0.09939080476760864,0.3250913619995117,1.4795523881912231
1751214704328862200,7.8628623046875,0.23104673624038696,0.04439067840576172,1.4850049018859863
1751214704338856200,7.872856201171875,0.5904686450958252,-0.23689556121826172,1.618107557296753
1751214704348850200,7.88285009765625,0.7642014026641846,-0.40900325775146484,1.554226279258728
1751214704358844200,7.89284423828125,0.5263087153434753,-0.4816904067993164,1.30521559715271
1751214704368838000,7.902837890625,0.07342201471328735,-0.5458536148071289,1.0973265171051025
1751214704378832000,7.912831787109375,-0.6570818424224854,-0.46295738220214844,1.1912091970443726
1751214704388825900,7.922825927734375,-1.224988341331482,-0.046482086181640625,1.1088839769363403
1751214704398819600,7.932819580078125,-1.8369512557983398,0.2877626419067383,1.0373564958572388
1751214704408813600,7.9428134765625,-2.3131296634674072,0.6551923751831055,0.8388149738311768
1751214704418807600,7.9528076171875,-2.495100498199463,0.8891477584838867,0.740423321723938
1751214704428801300,7.96280126953125,-2.3560237884521484,0.7604255676269531,0.941116213798523
1751214704438795300,7.972795166015625,-1.9053266048431396,0.6514806747436523,1.1766661405563354
1751214704448789200,7.982789306640625,-1.3092504739761353,0.6192817687988281,1.2899051904678345
1751214704468777000,8.00277685546875,-0.19681310653686523,0.5074529647827148,1.300955057144165
1751214704488765000,8.022764892578126,0.31533920764923096,0.30956268310546875,0.9344099760055542
1751214704498758700,8.032758544921874,0.2358386516571045,0.26755619049072266,0.5564814805984497
1751214704508752600,8.042752685546875,0.204339861869812,0.22527790069580078,0.23366224765777588
1751214704518746600,8.05274658203125,0.230185866355896,0.22611141204833984,-0.23705053329467773
1751214704528740400,8.062740234375,0.21930503845214844,0.189361572265625,-0.7094855904579163
1751214704538734300,8.072734375,0.18495643138885498,-0.008526802062988281,-0.8632064461708069
1751214704548728300,8.082728271484376,0.05502951145172119,-0.19492816925048828,-0.7199268937110901
1751214704558722000,8.09272216796875,-0.18968844413757324,-0.2982912063598633,-0.46202802658081055
1751214704568716000,8.102716064453125,-0.32971930503845215,-0.38072872161865234,-0.19314932823181152
1751214704578710000,8.1127099609375,-0.3062262535095215,-0.537841796875,0.16649389266967773
1751214704588704000,8.1227041015625,-0.16042721271514893,-0.6504182815551758,0.416719913482666
1751214704598697700,8.13269775390625,0.1361922025680542,-0.7570667266845703,0.42225754261016846
1751214704608691700,8.142691650390624,0.4756430387496948,-0.9822349548339844,0.22275972366333008
1751214704618685700,8.152685791015625,0.775863528251648,-1.3403091430664062,-0.016236424446105957
1751214704628679400,8.162679443359375,1.0448440313339233,-1.8648853302001953,-0.24457430839538574
1751214704638673400,8.17267333984375,1.330519437789917,-2.4747581481933594,-0.3892630338668823
1751214704648667400,8.18266748046875,1.5977442264556885,-3.0267133712768555,-0.5079389810562134
1751214704658661000,8.1926611328125,1.8048417568206787,-3.4778757095336914,-0.6245046257972717
1751214704668655000,8.202655029296874,1.9360487461090088,-3.799701690673828,-0.6775701642036438
1751214704678649000,8.212649169921875,1.9283130168914795,-3.9685163497924805,-0.5781161785125732
1751214704688643000,8.22264306640625,1.7112737894058228,-3.99436092376709,-0.313133180141449
1751214704698636800,8.23263671875,1.2581461668014526,-4.016319274902344,0.31453609466552734
1751214704708630800,8.242630859375,0.5961463451385498,-3.948514938354492,1.1698150634765625
1751214704718624800,8.252624755859374,-0.0853966474533081,-3.900811195373535,1.96229887008667
1751214704728618500,8.262618408203124,-0.7027527689933777,-3.9108848571777344,2.6387171745300293
1751214704738612500,8.272612548828125,-1.3731186389923096,-3.9923877716064453,3.256582260131836
1751214704748606500,8.2826064453125,-2.1425108909606934,-4.097011566162109,3.844301223754883
1751214704758600200,8.29260009765625,-3.0758538246154785,-4.08125114440918,4.298867225646973
1751214704768594200,8.30259423828125,-4.249446868896484,-3.8350257873535156,4.517890453338623
1751214704778588200,8.312588134765624,-5.521220684051514,-3.3484582901000977,4.534055709838867
1751214704788582000,8.322581787109375,-6.59621524810791,-2.8030147552490234,4.428656578063965
1751214704798575900,8.332575927734375,-7.1932172775268555,-2.213594436645508,4.3208513259887695
1751214704808569900,8.34256982421875,-7.166682243347168,-1.6727237701416016,4.206396102905273
1751214704818563800,8.352563720703126,-6.620306015014648,-1.2018804550170898,4.061745643615723
1751214704828557600,8.3625576171875,-5.693881034851074,-1.0184478759765625,3.93430757522583
1751214704838551600,8.372551513671874,-4.742048740386963,-1.2338104248046875,3.908358573913574
1751214704848545500,8.382545654296875,-4.018515586853027,-1.5332260131835938,3.8724536895751953
1751214704858539300,8.392539306640625,-3.467932939529419,-2.085385322570801,3.9325125217437744
1751214704868533200,8.402533203125,-2.5568020343780518,-2.193418502807617,3.5476653575897217
1751214704878527200,8.41252734375,-1.3270988464355469,-1.9735431671142578,2.812497854232788
1751214704888521000,8.42252099609375,0.3876779079437256,-1.7370548248291016,1.9699592590332031
1751214704898515000,8.432514892578125,2.3174517154693604,-1.4208993911743164,1.1591370105743408
1751214704908509000,8.442509033203125,4.132261276245117,-0.8980751037597656,0.16089391708374023
1751214704918503000,8.4525029296875,5.721826553344727,-0.13631534576416016,-1.0178077220916748
1751214704928496600,8.46249658203125,7.490204811096191,0.40521717071533203,-2.259152412414551
1751214704938490600,8.47249072265625,8.170326232910156,0.3188142776489258,-2.7337844371795654
1751214704948484600,8.482484619140624,6.856363296508789,0.2106609344482422,-2.7091455459594727
1751214704958478300,8.492478271484375,5.176698207855225,0.4866142272949219,-3.051473379135132
1751214704968472300,8.502472412109375,3.601768970489502,0.9174184799194336,-3.242988109588623
1751214704978466300,8.51246630859375,2.509437084197998,1.1346449851989746,-3.1249585151672363
1751214704988460000,8.5224599609375,1.5097905397415161,1.042963981628418,-2.848722457885742
1751214704998454000,8.5324541015625,0.43134647607803345,0.746800422668457,-2.4027366638183594
1751214705008448000,8.542447998046875,-0.623328685760498,0.550114631652832,-2.0291643142700195
1751214705018441700,8.552441650390625,-1.2172117233276367,0.6318254470825195,-1.9319841861724854
1751214705028435700,8.562435791015625,-0.8029248714447021,0.8522305488586426,-2.101140260696411
1751214705038429700,8.5724296875,0.40921783447265625,1.0013923645019531,-2.2594196796417236
1751214705048423700,8.582423583984376,2.1349754333496094,1.02874755859375,-2.3991317749023438
1751214705058417400,8.59241748046875,3.8927268981933594,0.7898011207580566,-2.2809455394744873
1751214705068411400,8.602411376953125,4.7867255210876465,0.27657604217529297,-1.8649799823760986
1751214705078405400,8.6124052734375,4.488749980926514,-0.3540182113647461,-1.422990322113037
1751214705088399000,8.622399169921875,2.482720375061035,-0.8666801452636719,-0.7726497650146484
1751214705098393000,8.63239306640625,-0.0699462890625,-1.195892333984375,-0.15601348876953125
1751214705108387000,8.642386962890624,-1.3253870010375977,-1.2749404907226562,0.11581039428710938
1751214705118380800,8.652380859375,-0.5856890678405762,-1.1140069961547852,-0.25235795974731445
1751214705128374800,8.662374755859375,0.9031636714935303,-0.6464481353759766,-1.125521183013916
1751214705138368800,8.67236865234375,2.014932870864868,-0.2866644859313965,-1.9266297817230225
1751214705148362800,8.68236279296875,2.0655782222747803,-0.14930963516235352,-2.4346671104431152
1751214705158356500,8.6923564453125,1.5052909851074219,-0.18164300918579102,-2.5105466842651367
1751214705168350500,8.7023505859375,0.8797005414962769,-0.2849130630493164,-2.4689931869506836
1751214705178344400,8.712344482421875,0.8674956560134888,-0.2297964096069336,-2.476205587387085
1751214705188338200,8.722338134765625,1.1768798828125,-0.18741178512573242,-2.49556565284729
1751214705198332200,8.732332275390625,1.4013030529022217,0.03570270538330078,-2.575768232345581
1751214705208326100,8.742326171875,1.3941899538040161,0.10143375396728516,-2.548142433166504
1751214705218320000,8.75231982421875,1.398672342300415,0.18741893768310547,-2.499392509460449
1751214705228313900,8.76231396484375,1.337172508239746,-0.1293191909790039,-2.1800036430358887
1751214705238307800,8.772307861328125,1.1590993404388428,-0.26321887969970703,-2.2779154777526855
1751214705248301600,8.782301513671875,1.1257723569869995,-0.009788036346435547,-2.9525792598724365
1751214705258295600,8.792295654296876,1.1762868165969849,0.11427640914916992,-3.409670829772949
1751214705278283500,8.812283447265624,0.8768637180328369,0.5817174911499023,-3.91025972366333
1751214705288277200,8.82227734375,0.6685380935668945,0.7816920280456543,-3.9559202194213867
1751214705298271200,8.832271240234375,0.5157177448272705,0.928126335144043,-3.947495460510254
1751214705308265200,8.84226513671875,0.36179471015930176,0.9966216087341309,-3.8665666580200195
1751214705318259000,8.852259033203126,0.16068148612976074,1.0243277549743652,-3.680588483810425
1751214705328253000,8.8622529296875,0.11800432205200195,0.9479269981384277,-3.35764741897583
1751214705338247000,8.872246826171875,0.02733635902404785,0.8910360336303711,-2.9851059913635254
1751214705348240600,8.88224072265625,-0.2299182415008545,0.9294133186340332,-2.735377788543701
1751214705358234600,8.892234619140625,-0.5911626815795898,1.0479750633239746,-2.7041306495666504
1751214705368228600,8.902228515625,-0.7044668197631836,1.1465635299682617,-2.7574195861816406
1751214705378222600,8.91222265625,-0.467573881149292,1.192481517791748,-2.847433567047119
1751214705388216300,8.92221630859375,-0.092498779296875,1.1626567840576172,-2.9355411529541016
1751214705398210300,8.932210205078125,0.1437058448791504,1.0569391250610352,-2.9310479164123535
1751214705408204300,8.942204345703125,0.2942326068878174,0.9323339462280273,-2.7435975074768066
1751214705418198000,8.952197998046875,0.2727980613708496,0.8170204162597656,-2.52215576171875
1751214705428192000,8.96219189453125,0.21517086029052734,0.7155208587646484,-2.2471165657043457
1751214705438186000,8.97218603515625,0.2500460147857666,0.6181340217590332,-1.9361395835876465
1751214705448179700,8.9821796875,0.3252103328704834,0.5963778495788574,-1.7069940567016602
1751214705458173700,8.992173583984375,0.2547571659088135,0.6370673179626465,-1.8049516677856445
1751214705468167700,9.002167724609375,-0.15508079528808594,0.649566650390625,-1.8114266395568848
1751214705478161700,9.01216162109375,-0.7886736392974854,0.6379508972167969,-1.6303668022155762
1751214705488155400,9.0221552734375,-0.7017815113067627,0.5022578239440918,-1.2672367095947266
1751214705498149400,9.0321494140625,-0.4977257251739502,0.23378992080688477,-0.8916335105895996
1751214705508143400,9.042143310546875,-0.43944859504699707,-0.10502815246582031,-0.510927677154541
1751214705518137000,9.05213720703125,-0.24899625778198242,-0.5003752708435059,-0.05666685104370117
1751214705528131000,9.062131103515625,-0.20096707344055176,-0.914337158203125,0.3716607093811035
1751214705538125000,9.072125,-0.15367913246154785,-1.293929100036621,0.7060971260070801
1751214705548118800,9.082118896484374,0.09418320655822754,-1.6683282852172852,0.9270820617675781
1751214705558112800,9.09211279296875,0.7536434531211853,-2.037626266479492,0.8027777671813965
1751214705568106800,9.102106689453125,1.1161093711853027,-2.430403232574463,0.25740480422973633
1751214705578100500,9.1121005859375,0.849187433719635,-2.8232645988464355,-0.2980790138244629
1751214705588094500,9.122094482421875,0.9926386475563049,-3.2021284103393555,-0.7073063850402832
1751214705598088400,9.13208837890625,1.8527097702026367,-3.514408588409424,-0.8817329406738281
1751214705608082400,9.14208251953125,3.177248477935791,-3.6309714317321777,-0.768305778503418
1751214705618076200,9.152076171875,3.786872625350952,-3.663130760192871,0.1029362678527832
1751214705628070100,9.162070068359375,2.8253166675567627,-3.893134117126465,2.0613341331481934
1751214705638064000,9.172064208984375,0.9648419618606567,-4.510138511657715,4.491005897521973
1751214705648057900,9.182057861328126,-0.328717976808548,-4.681314468383789,6.033090591430664
1751214705658051800,9.1920517578125,-0.488325834274292,-3.7122879028320312,5.823622703552246
1751214705668045800,9.2020458984375,-0.5311485528945923,-2.1025218963623047,4.1971917152404785
1751214705678039600,9.21203955078125,-0.12837578356266022,-0.8667850494384766,2.5287837982177734
1751214705688033500,9.222033447265625,-0.05993354693055153,-0.3319587707519531,1.3555908203125
1751214705698027500,9.232027587890625,-0.4070535898208618,-0.08534431457519531,0.580657958984375
1751214705708021500,9.242021484375,-0.7568206787109375,0.2937917709350586,0.19722938537597656
1751214705718015200,9.25201513671875,-1.3622124195098877,0.7190060615539551,0.09862375259399414
1751214705728009200,9.26200927734375,-1.6872804164886475,1.1697568893432617,0.05202293395996094
1751214705738003200,9.272003173828125,-1.8594951629638672,1.5030927658081055,-0.19527578353881836
1751214705747997000,9.281996826171875,-1.6433109045028687,1.729968547821045,-0.4732844829559326
1751214705757991000,9.291990966796876,-1.3550233840942383,1.2235784530639648,-0.406965970993042
1751214705767985000,9.30198486328125,-1.0466647148132324,0.4328346252441406,-0.3450596332550049
1751214705777978600,9.311978515625,-0.8151687383651733,-0.24554824829101562,-0.3128349781036377
1751214705787972600,9.32197265625,-0.655634343624115,-0.49663257598876953,-0.40163755416870117
1751214705797966600,9.331966552734375,-0.563566267490387,-0.48357677459716797,-0.5107517242431641
1751214705807960300,9.341960205078125,-0.3769543170928955,-0.10113906860351562,-0.7151055335998535
1751214705817954300,9.351954345703126,-0.24894282221794128,0.3637371063232422,-0.860633134841919
1751214705827948300,9.3619482421875,-0.09212027490139008,0.7393636703491211,-0.941922664642334
1751214705837942300,9.3719423828125,0.06613276898860931,1.0932683944702148,-0.9917483329772949
1751214705847936000,9.38193603515625,0.20780009031295776,1.253242015838623,-0.9110016822814941
1751214705857930000,9.391929931640625,0.2705744802951813,1.386716365814209,-0.8489761352539062
1751214705867924000,9.401924072265626,0.28067871928215027,1.4653067588806152,-0.8147873878479004
1751214705877917700,9.411917724609374,0.37958329916000366,1.5564866065979004,-0.7928869724273682
1751214705887911700,9.42191162109375,0.4982367157936096,1.4743962287902832,-0.7629270553588867
1751214705897905700,9.43190576171875,0.4297567903995514,1.2575435638427734,-0.6776900291442871
1751214705907899400,9.4418994140625,0.22078394889831543,0.9776763916015625,-0.6002871990203857
1751214705917893400,9.451893310546875,0.12970104813575745,0.5874013900756836,-0.5063035488128662
1751214705927887400,9.461887451171876,0.005412369966506958,0.23522567749023438,-0.42411255836486816
1751214705937881300,9.47188134765625,-0.06932888925075531,0.045627593994140625,-0.3334038257598877
1751214705947875000,9.481875,0.0068239569664001465,-0.0677947998046875,-0.18180227279663086
1751214705957869000,9.491869140625,0.19063767790794373,-0.09112739562988281,-0.06584429740905762
1751214705967863000,9.501863037109375,0.5385780930519104,0.09506511688232422,-0.051429033279418945
1751214705977856800,9.511856689453126,0.8002254962921143,0.36141109466552734,-0.08037376403808594
1751214705987850800,9.521850830078124,0.9310511946678162,0.4737358093261719,-0.07556462287902832
1751214705997844700,9.5318447265625,1.0024166107177734,0.3607368469238281,-0.017781734466552734
1751214706007838500,9.54183837890625,0.9871065616607666,0.1423187255859375,0.049756526947021484
1751214706017832400,9.55183251953125,0.9153076410293579,0.009761810302734375,0.09830451011657715
1751214706027826400,9.561826416015625,0.8165980577468872,0.015253067016601562,0.1322038173675537
1751214706037820400,9.5718203125,0.7151618599891663,0.04393959045410156,0.1856226921081543
1751214706047814100,9.581814208984374,0.6394211053848267,0.0719451904296875,0.2639005184173584
1751214706057808100,9.59180810546875,0.5114091634750366,0.09914875030517578,0.4006669521331787
1751214706067802000,9.601802001953125,0.4254509210586548,0.13486862182617188,0.5144810676574707
1751214706077795800,9.6117958984375,0.24112433195114136,0.14989948272705078,0.6999015808105469
1751214706087789800,9.621789794921876,-0.002641737461090088,0.18688011169433594,0.8886125087738037
1751214706107777500,9.641777587890624,-0.4994463324546814,0.37766075134277344,1.1976704597473145
1751214706117771500,9.651771484375,-0.6857511401176453,0.5215282440185547,1.2813677787780762
1751214706127765500,9.661765625,-1.2755898237228394,0.6630420684814453,1.0961419343948364
1751214706137759200,9.67175927734375,-2.711244821548462,0.6267309188842773,0.9834284782409668
1751214706147753200,9.681753173828126,-3.5499191284179688,0.47651100158691406,1.1241495609283447
1751214706157747200,9.691747314453124,-4.034109115600586,0.3858070373535156,1.2435096502304077
1751214706167741200,9.7017412109375,-4.328010082244873,0.4418621063232422,1.1196465492248535
1751214706177735000,9.71173486328125,-3.9158692359924316,0.3726367950439453,1.041918396949768
1751214706187729000,9.72172900390625,-2.742739677429199,0.2920808792114258,1.0144364833831787
1751214706197723000,9.731722900390626,-1.487388253211975,0.2228240966796875,0.9612914323806763
1751214706217710600,9.751710693359374,0.09720468521118164,-0.03776073455810547,0.9376060962677002
1751214706227704600,9.76170458984375,0.5745751857757568,0.0038928985595703125,0.8541111946105957
1751214706237698300,9.7716982421875,0.7337969541549683,0.226470947265625,0.7263787984848022
1751214706247692300,9.7816923828125,0.7530570030212402,0.4150562286376953,0.6521047353744507
1751214706257686300,9.791686279296876,0.8976001739501953,0.46042442321777344,0.6901249885559082
1751214706267680300,9.80168017578125,1.083905816078186,0.30092906951904297,0.891398549079895
1751214706277674000,9.811674072265625,1.182806372642517,-0.01589202880859375,1.1508344411849976
1751214706287668000,9.82166796875,1.105993628501892,-0.3089170455932617,1.2071378231048584
1751214706297662000,9.831661865234375,0.8556097745895386,-0.4686918258666992,0.9888787269592285
1751214706307655700,9.84165576171875,0.5645203590393066,-0.5812091827392578,0.642919659614563
1751214706317649700,9.851649658203126,0.301713228225708,-0.7845630645751953,0.3437507152557373
1751214706327643600,9.8616435546875,0.1522502899169922,-1.0971603393554688,0.18249177932739258
1751214706337637400,9.871637451171875,0.14288330078125,-1.5329723358154297,0.15233564376831055
1751214706347631400,9.88163134765625,0.20375704765319824,-1.9483966827392578,0.16052663326263428
1751214706357625300,9.891625244140625,0.3683847188949585,-2.2954750061035156,0.12280428409576416
1751214706377613000,9.911613037109374,1.2026116847991943,-3.162364959716797,0.43212997913360596
1751214706397601000,9.93160107421875,2.3433678150177,-4.5269060134887695,1.0070347785949707
1751214706407594800,9.9415947265625,2.941800117492676,-5.366228103637695,1.330302357673645
1751214706417588700,9.951588623046876,3.3553524017333984,-6.120012283325195,1.7012245655059814
1751214706427582700,9.961582763671874,3.2571911811828613,-6.535932540893555,1.9545586109161377
1751214706437576400,9.971576416015624,2.4936580657958984,-6.394870758056641,2.0584867000579834
1751214706447570400,9.9815703125,1.2303590774536133,-5.497061729431152,2.208594560623169
1751214706487546000,10.021546142578124,-5.559112548828125,-1.8751802444458008,2.370699405670166
1751214706497540000,10.0315400390625,-6.68307638168335,-1.2822265625,2.644559621810913
1751214706507533800,10.041533935546875,-7.233550071716309,-0.5666160583496094,3.019397020339966
1751214706517527800,10.05152783203125,-7.393014430999756,0.21330547332763672,3.263239860534668
1751214706527521800,10.061521728515626,-6.945022106170654,0.8027925491333008,3.413388252258301
1751214706537515500,10.071515625,-5.987408638000488,1.1142997741699219,3.6077492237091064
1751214706547509500,10.081509521484374,-4.850414276123047,1.136704444885254,3.8889589309692383
1751214706557503500,10.09150341796875,-3.726053476333618,0.9548301696777344,4.295240879058838
1751214706567497200,10.101497314453125,-2.6515986919403076,0.6011714935302734,4.752281188964844
1751214706577491200,10.1114912109375,-1.6455349922180176,0.14689159393310547,5.142400741577148
1751214706587485200,10.121485107421876,-0.6867536902427673,-0.2700920104980469,5.252518177032471
1751214706597479000,10.13147900390625,0.2121535688638687,-0.650726318359375,5.09542179107666
1751214706607473000,10.141472900390625,1.167859435081482,-0.8814582824707031,4.6887102127075195
1751214706617467000,10.151466796875,1.9055805206298828,-1.1592416763305664,3.985781669616699
1751214706627460900,10.1614609375,2.3522744178771973,-1.4651498794555664,3.0049889087677
1751214706637454600,10.17145458984375,2.4880919456481934,-1.7744817733764648,1.9166572093963623
1751214706647448600,10.181448486328126,2.6209566593170166,-1.808609962463379,0.7871038913726807
1751214706657442600,10.191442626953124,2.42972993850708,-1.728480339050293,-0.27954959869384766
1751214706667436300,10.201436279296875,2.1509382724761963,-1.6861286163330078,-1.036473035812378
1751214706677430300,10.21143017578125,2.112328290939331,-1.2882537841796875,-1.8956298828125
1751214706687424300,10.22142431640625,2.315579891204834,-1.0112619400024414,-2.584995746612549
1751214706697418000,10.23141796875,2.33739972114563,-0.8302516937255859,-2.8480453491210938
1751214706707412000,10.241411865234374,1.7416512966156006,-0.7314252853393555,-2.7799816131591797
1751214706717406000,10.251406005859375,0.653186559677124,-0.5869169235229492,-2.824504852294922
1751214706727400000,10.26139990234375,-0.2850353717803955,-0.5509681701660156,-2.950766086578369
1751214706737393700,10.2713935546875,-0.7365533709526062,-0.6385211944580078,-3.1272873878479004
1751214706747387600,10.2813876953125,-0.5789682269096375,-0.6198387145996094,-3.2170090675354004
1751214706757381600,10.291381591796876,0.3392482399940491,-0.6620082855224609,-3.1022233963012695
1751214706767375400,10.301375244140624,1.666113018989563,-0.6357936859130859,-2.775313138961792
1751214706777369300,10.311369384765625,3.011381149291992,-0.9529027938842773,-2.2758278846740723
1751214706787363300,10.32136328125,3.505615711212158,-1.4460687637329102,-1.8094727993011475
1751214706797357000,10.331357177734375,2.7232489585876465,-1.8431987762451172,-1.47062087059021
1751214706807351000,10.34135107421875,0.9601398706436157,-2.0934324264526367,-1.4504106044769287
1751214706817345000,10.351344970703124,-0.3609755039215088,-1.8528404235839844,-1.9556512832641602
1751214706827339000,10.361339111328125,-0.46607375144958496,-0.988408088684082,-1.9003164768218994
1751214706837332700,10.371332763671875,0.40243005752563477,-0.3440256118774414,-1.9462387561798096
1751214706847326700,10.38132666015625,1.079308032989502,0.0022487640380859375,-1.6576547622680664
1751214706857320700,10.39132080078125,1.480556607246399,-0.12688541412353516,-1.4544591903686523
1751214706867314400,10.401314453125,1.046541452407837,-0.41446876525878906,-1.5930204391479492
1751214706877308400,10.411308349609374,0.4988568425178528,-0.48031139373779297,-2.2116293907165527
1751214706887302400,10.421302490234375,0.6496226787567139,-0.44576597213745117,-2.8976285457611084
1751214706897296100,10.431296142578125,1.037918210029602,-0.5249643325805664,-3.310397148132324
1751214706907290000,10.4412900390625,1.1347965002059937,-0.3440718650817871,-3.6798269748687744
1751214706917284000,10.4512841796875,1.1166359186172485,-0.031036853790283203,-3.8575439453125
1751214706927277800,10.46127783203125,0.8724979162216187,0.2894582748413086,-3.773667097091675
1751214706937271800,10.471271728515624,0.3923036456108093,0.5738115310668945,-3.6786255836486816
1751214706947265800,10.481265869140625,0.22148513793945312,0.8795971870422363,-3.6443662643432617
1751214706957259800,10.491259765625,0.49322229623794556,1.2351322174072266,-3.7477169036865234
1751214706967253500,10.50125341796875,0.6343801617622375,1.4752707481384277,-3.987260103225708
1751214706977247500,10.51124755859375,0.5062568783760071,1.5046172142028809,-4.053521156311035
1751214706987241500,10.521241455078124,0.39832234382629395,1.66141939163208,-4.1112871170043945
1751214706997235200,10.531235107421875,0.3637772798538208,1.796593189239502,-4.223344326019287
1751214707007229200,10.541229248046875,0.3167273998260498,1.775794506072998,-4.390192031860352
1751214707017223200,10.55122314453125,0.23978066444396973,1.8152446746826172,-4.735884666442871
1751214707027217000,10.561216796875,0.1485048532485962,1.892077922821045,-4.992475509643555
1751214707037211000,10.5712109375,0.04605376720428467,1.8997254371643066,-4.999532699584961
1751214707047204900,10.581204833984375,0.13989472389221191,2.000197410583496,-4.835413455963135
1751214707057198800,10.59119873046875,0.22013628482818604,2.0884957313537598,-4.639986991882324
1751214707067192600,10.601192626953125,0.27772581577301025,2.0843358039855957,-4.504613876342773
1751214707077186600,10.6111865234375,0.2809494733810425,1.9408721923828125,-4.529752731323242
1751214707087180500,10.6211806640625,0.4201045036315918,1.8597021102905273,-4.681151866912842
1751214707097174300,10.63117431640625,0.5874685049057007,1.8036284446716309,-4.904001235961914
1751214707107168300,10.641168212890625,0.6191089153289795,1.7114291191101074,-5.172061920166016
1751214707117162200,10.651162353515625,0.24792659282684326,1.5505385398864746,-5.310726165771484
1751214707127156000,10.661156005859375,-0.5256003141403198,1.3390893936157227,-4.907744884490967
1751214707137150000,10.67114990234375,-0.8026484251022339,0.8159670829772949,-3.859766960144043
1751214707147144000,10.68114404296875,-0.9866646528244019,-0.13029098510742188,-2.6300458908081055
1751214707157137700,10.6911376953125,-0.10399222373962402,-1.102820873260498,-1.3349623680114746
1751214707167131600,10.701131591796875,1.0026915073394775,-1.8614377975463867,-0.1981368064880371
1751214707177125600,10.711125732421875,1.1945600509643555,-2.6511430740356445,1.2038321495056152
1751214707187119600,10.72111962890625,0.6077982783317566,-3.3754992485046387,2.6030640602111816
1751214707197113300,10.73111328125,0.3531496524810791,-3.967336654663086,3.5578627586364746
1751214707207107300,10.741107421875,0.4371252954006195,-4.580899715423584,3.6792802810668945
1751214707217101300,10.751101318359375,0.3951072692871094,-4.9185967445373535,2.943882942199707
1751214707227095000,10.761094970703125,0.4707372486591339,-4.748254776000977,1.7697439193725586
1751214707237089000,10.771089111328125,1.1292542219161987,-4.3399763107299805,0.5878839492797852
1751214707247083000,10.7810830078125,2.296943187713623,-3.9524354934692383,-0.20526695251464844
1751214707257076700,10.79107666015625,3.4207711219787598,-3.5618815422058105,-0.7785153388977051
1751214707267070700,10.80107080078125,3.7365310192108154,-3.6143956184387207,-0.6335310935974121
1751214707277064700,10.811064697265625,3.8490214347839355,-3.8728885650634766,0.3003993034362793
1751214707287058700,10.82105859375,2.346006155014038,-4.03334903717041,2.257411003112793
1751214707297052400,10.831052490234375,-0.7424103617668152,-4.5651397705078125,4.940220832824707
1751214707307046400,10.84104638671875,-2.8858768939971924,-4.760476112365723,6.542362213134766
1751214707317040400,10.851040283203124,-2.413858413696289,-3.271265983581543,5.591091156005859
1751214707327034000,10.8610341796875,-1.3409373760223389,-1.1459970474243164,3.2671613693237305
1751214707337028000,10.871028076171875,-0.5891509652137756,0.1600637435913086,1.4602622985839844
1751214707347022000,10.88102197265625,-0.2755177319049835,0.7928967475891113,0.3175673484802246
1751214707357015800,10.891015869140626,-0.39845341444015503,1.1126251220703125,-0.27735042572021484
1751214707367009800,10.901009765625,-0.5897951126098633,1.3630571365356445,-0.5755903720855713
1751214707377003800,10.911003662109374,-0.7287205457687378,1.3574323654174805,-0.8465104103088379
1751214707386997800,10.920997802734375,-0.7532919645309448,1.2485847473144531,-1.08638334274292
1751214707396991500,10.930991455078125,-0.6851680278778076,0.9558873176574707,-1.2509992122650146
1751214707406985500,10.9409853515625,-0.6842942237854004,0.7620162963867188,-1.2338922023773193
1751214707416979500,10.9509794921875,-0.5836439728736877,0.5335159301757812,-1.2248022556304932
1751214707426973200,10.96097314453125,-0.5576505064964294,0.26569461822509766,-1.1134581565856934
1751214707436967200,10.97096728515625,-0.4803087115287781,0.030162811279296875,-1.0389518737792969
1751214707446961200,10.980961181640625,-0.28330135345458984,-0.29746532440185547,-1.1311893463134766
1751214707456955000,10.990954833984375,-0.10139200091362,-0.3736457824707031,-1.138817310333252
1751214707466948900,11.000948974609376,0.052428364753723145,-0.07486915588378906,-1.239431619644165
1751214707476942800,11.01094287109375,0.18939954042434692,0.36470699310302734,-1.3928579092025757
1751214707486936600,11.0209365234375,0.248019278049469,0.6774225234985352,-1.3217169046401978
1751214707496930600,11.0309306640625,0.2571756839752197,0.8530473709106445,-1.0777308940887451
1751214707506924500,11.040924560546875,0.1735050082206726,1.015793800354004,-0.8826358318328857
1751214707516918500,11.05091845703125,0.12020516395568848,1.2564210891723633,-0.6843266487121582
1751214707526912300,11.060912353515626,0.039537668228149414,1.3983135223388672,-0.5302009582519531
1751214707536906200,11.07090625,0.0993654727935791,1.3946533203125,-0.3754425048828125
1751214707546900200,11.080900146484375,0.11789864301681519,1.375391960144043,-0.22292542457580566
1751214707556894000,11.09089404296875,0.18170207738876343,1.2599554061889648,0.034377336502075195
1751214707566888000,11.100887939453125,0.3200687766075134,1.163437843322754,0.32040858268737793
1751214707576882000,11.1108818359375,0.45554643869400024,1.104792594909668,0.6683943271636963
1751214707586875600,11.120875732421876,0.5190430283546448,1.0357580184936523,1.0389683246612549
1751214707596869600,11.13086962890625,0.5705545544624329,0.9176874160766602,1.3350821733474731
1751214707606863600,11.140863525390625,0.6187071800231934,0.8221168518066406,1.5510563850402832
1751214707616857600,11.150857666015625,0.6619499921798706,0.7534418106079102,1.7286192178726196
1751214707626851300,11.160851318359375,0.6893792748451233,0.6921377182006836,1.8946833610534668
1751214707636845300,11.17084521484375,0.6281487345695496,0.6043615341186523,2.061357021331787
1751214707646839300,11.18083935546875,0.4167509078979492,0.5808391571044922,2.09822416305542
1751214707656833000,11.1908330078125,0.1958720088005066,0.5357789993286133,2.015617847442627
1751214707666827000,11.200826904296875,0.00963127613067627,0.3646526336669922,1.9304245710372925
1751214707676821000,11.210821044921875,-0.19911301136016846,0.30719661712646484,1.6120405197143555
1751214707686814700,11.220814697265626,-0.19661945104599,0.25869274139404297,1.347396969795227
1751214707696808700,11.23080859375,-0.5602266788482666,0.10901641845703125,1.6454230546951294
1751214707706802700,11.240802734375,-0.8766762018203735,0.015830039978027344,1.8812239170074463
1751214707716796400,11.25079638671875,-0.9645026922225952,0.10793304443359375,1.8970056772232056
1751214707726790400,11.260790283203125,-1.2675443887710571,0.18446731567382812,1.8371710777282715
1751214707736784400,11.270784423828125,-1.248146653175354,0.35094738006591797,1.7119905948638916
1751214707746778400,11.2807783203125,-1.2005250453948975,0.4833841323852539,1.5836259126663208
1751214707756772000,11.290772216796874,-1.1833672523498535,0.5824604034423828,1.442524790763855
1751214707766766000,11.30076611328125,-1.0792914628982544,0.6629905700683594,1.3499629497528076
1751214707776760000,11.310760009765625,-1.0136536359786987,0.6818418502807617,1.3190935850143433
1751214707786753800,11.32075390625,-1.107954740524292,0.6628732681274414,1.18329918384552
1751214707796747800,11.330747802734376,-1.2289323806762695,0.5824918746948242,0.9545271396636963
1751214707806741800,11.34074169921875,-1.1653770208358765,0.46991825103759766,0.816199779510498
1751214707816735500,11.350735595703124,-0.997664213180542,0.344573974609375,0.7874599695205688
1751214707826729500,11.3607294921875,-0.7130040526390076,0.27312374114990234,0.8345026969909668
1751214707836723500,11.370723388671875,-0.45389747619628906,0.20705509185791016,0.8615082502365112
1751214707846717400,11.380717529296875,-0.21007251739501953,0.15047264099121094,0.7776676416397095
1751214707856711200,11.390711181640626,-0.13651525974273682,0.08400535583496094,0.6650105714797974
1751214707866705200,11.400705078125,-0.06996762752532959,0.027009963989257812,0.5532300472259521
1751214707876699100,11.41069921875,-0.015170812606811523,0.103759765625,0.42864227294921875
1751214707886692900,11.42069287109375,0.03851962089538574,0.1374683380126953,0.3349788188934326
1751214707896686800,11.430686767578125,-0.005218863487243652,0.12353134155273438,0.1873157024383545
1751214707906680800,11.440680908203126,-0.07087051868438721,0.023856163024902344,0.02498006820678711
1751214707916674600,11.450674560546876,-0.1000206470489502,-0.13231754302978516,-0.19835007190704346
1751214707926668500,11.46066845703125,-0.10065865516662598,-0.31583404541015625,-0.410025954246521
1751214707936662500,11.47066259765625,0.015488266944885254,-0.5501461029052734,-0.5094151496887207
1751214707946656300,11.48065625,0.21103274822235107,-0.7728662490844727,-0.5250556468963623
1751214707956650200,11.490650146484375,0.5040266513824463,-1.0319757461547852,-0.43803489208221436
1751214707966644200,11.500644287109376,0.8485606908798218,-1.4236345291137695,-0.29353857040405273
1751214707976638200,11.51063818359375,1.204586148262024,-1.8476638793945312,-0.19322502613067627
1751214707986632000,11.5206318359375,1.543509602546692,-2.203777313232422,-0.16615033149719238
1751214707996626000,11.5306259765625,1.7703689336776733,-2.4825382232666016,-0.15457594394683838
1751214708006620000,11.540619873046875,1.9911688566207886,-2.812986373901367,-0.03355991840362549
1751214708016613600,11.550613525390625,2.2330052852630615,-3.3529815673828125,0.30576014518737793
1751214708026607600,11.560607666015626,2.397928237915039,-4.145695686340332,0.8693101406097412
1751214708036601600,11.5706015625,2.3933351039886475,-5.014459609985352,1.4518851041793823
1751214708046595300,11.58059521484375,2.1119022369384766,-5.668266296386719,1.9365007877349854
1751214708056589300,11.59058935546875,1.5245318412780762,-5.950162887573242,2.3997650146484375
1751214708066583300,11.600583251953125,0.7141060829162598,-5.698575973510742,2.851102352142334
1751214708076577300,11.610577392578126,-0.1770559549331665,-5.119973182678223,3.197467803955078
1751214708086571000,11.620571044921874,-1.0527873039245605,-4.434450149536133,3.3201658725738525
1751214708096565000,11.63056494140625,-1.9644898176193237,-3.6701345443725586,3.0981812477111816
1751214708106559000,11.64055908203125,-2.9619410037994385,-2.9786500930786133,2.6106340885162354
1751214708116552700,11.650552734375,-3.884514570236206,-2.587657928466797,2.027242660522461
1751214708126546700,11.660546630859375,-4.468772888183594,-2.3185291290283203,1.3659143447875977
1751214708136540700,11.670540771484376,-4.751189231872559,-2.070248603820801,0.792121171951294
1751214708146534400,11.680534423828124,-4.738498687744141,-1.7237730026245117,0.3752332329750061
1751214708156528400,11.6905283203125,-4.5746564865112305,-1.137063980102539,0.09387719631195068
1751214708166522400,11.7005224609375,-4.528061866760254,-0.3786582946777344,0.1316136121749878
1751214708176516400,11.710516357421875,-4.284369468688965,-0.05718517303466797,0.675359845161438
1751214708186510000,11.720510009765626,-3.8215324878692627,-0.034455299377441406,1.1804347038269043
1751214708196504000,11.730504150390624,-3.233916997909546,-0.10014629364013672,1.6650618314743042
1751214708206498000,11.740498046875,-2.5041146278381348,-0.10168933868408203,2.2607357501983643
1751214708216491800,11.75049169921875,-1.705688714981079,-0.07339286804199219,2.929802894592285
1751214708226485800,11.76048583984375,-0.8596163988113403,-0.04483318328857422,3.543498992919922
1751214708236479700,11.770479736328125,-0.025841891765594482,-0.06463336944580078,3.9456214904785156
1751214708246473500,11.780473388671876,0.7694706320762634,-0.0665578842163086,4.0057244300842285
1751214708256467500,11.790467529296874,1.4155105352401733,-0.12768936157226562,3.695594072341919
1751214708266461400,11.80046142578125,1.826534628868103,-0.2528533935546875,3.171499252319336
1751214708276455200,11.810455078125,2.3378965854644775,-0.41285037994384766,2.5728232860565186
1751214708286449200,11.82044921875,2.7866926193237305,-0.44937992095947266,2.047889471054077
1751214708296443100,11.830443115234376,2.3964853286743164,-0.2954578399658203,1.5758495330810547
1751214708306437000,11.84043701171875,2.4188623428344727,-0.2520179748535156,1.0353138446807861
1751214708316430800,11.850430908203125,2.990729808807373,-0.26573753356933594,0.6721363067626953
1751214708326424800,11.8604248046875,2.666172504425049,0.17010498046875,0.21898794174194336
1751214708336418800,11.870418701171875,2.064737558364868,0.7313442230224609,-0.2232065200805664
1751214708346412500,11.88041259765625,1.2818365097045898,1.0940132141113281,-0.6428470611572266
1751214708356406500,11.890406494140626,0.9653778076171875,1.0867900848388672,-1.2887978553771973
1751214708366400500,11.900400390625,1.0398223400115967,0.8635292053222656,-2.141103744506836
1751214708376394200,11.910394287109375,1.209560751914978,0.5150861740112305,-2.66902494430542
1751214708386388200,11.92038818359375,1.4222047328948975,0.17499160766601562,-2.892904758453369
1751214708396382200,11.93038232421875,1.5070185661315918,-0.0415496826171875,-3.014037609100342
1751214708406376200,11.940376220703126,1.5810682773590088,-0.153839111328125,-3.1008028984069824
1751214708416370000,11.950369873046874,1.7411621809005737,-0.14649486541748047,-3.4488821029663086
1751214708426364000,11.960364013671875,2.051577091217041,-0.022859573364257812,-3.728285074234009
1751214708436358000,11.97035791015625,2.415719509124756,0.1363382339477539,-3.925999641418457
1751214708446351600,11.9803515625,2.65291690826416,0.2251739501953125,-4.015783309936523
1751214708476333300,12.010333251953124,0.9942188858985901,0.12514495849609375,-3.1924617290496826
1751214708496321300,12.0303212890625,0.09998643398284912,0.036479949951171875,-2.410494565963745
1751214708506315000,12.04031494140625,0.004399299621582031,-0.31880760192871094,-1.5819017887115479
1751214708516309000,12.05030908203125,0.14956575632095337,-0.7773246765136719,-0.7157058715820312
1751214708526303000,12.060302978515624,0.5216442942619324,-1.2206792831420898,0.047158241271972656
1751214708536297000,12.070296875,0.825476884841919,-1.6016640663146973,0.45394277572631836
1751214708546290700,12.080290771484375,1.1323347091674805,-1.8374543190002441,0.6725120544433594
1751214708556284700,12.09028466796875,1.0463305711746216,-1.8304805755615234,0.6087179183959961
1751214708566278700,12.100278564453125,0.9051257371902466,-1.3646225929260254,-0.2850632667541504
1751214708576272400,12.1102724609375,0.8106532096862793,-0.8211379051208496,-1.0480093955993652
1751214708586266400,12.120266357421874,0.7509411573410034,-0.3067455291748047,-1.6405105590820312
1751214708596260400,12.13026025390625,0.6236914992332458,0.10685300827026367,-2.141871452331543
1751214708606254000,12.140254150390625,0.39701151847839355,0.047414302825927734,-2.3730340003967285
1751214708626242000,12.160241943359376,0.37181299924850464,0.07966232299804688,-2.9683470726013184
1751214708636236000,12.170236083984374,0.3030296564102173,0.21805953979492188,-3.1392595767974854
1751214708646229800,12.180229736328124,0.16051673889160156,0.32161617279052734,-3.252246141433716
1751214708656223700,12.1902236328125,0.2276514768600464,0.3959083557128906,-3.2593390941619873
1751214708666217700,12.2002177734375,0.24770665168762207,0.4394707679748535,-3.195730686187744
1751214708676211500,12.21021142578125,0.23724257946014404,0.6579866409301758,-3.1615610122680664
1751214708686205400,12.220205322265626,0.236535906791687,0.8146100044250488,-3.1787734031677246
1751214708696199400,12.230199462890624,0.3282620906829834,0.964137077331543,-3.313274383544922
1751214708706193200,12.240193115234375,0.3094630241394043,0.7848443984985352,-3.1574482917785645
1751214708716187100,12.250187255859375,0.36016881465911865,1.1564106941223145,-3.2668709754943848
1751214708726181000,12.26018115234375,0.36403417587280273,1.2815518379211426,-3.219761371612549
1751214708736175000,12.270175048828126,0.4527015686035156,1.316126823425293,-3.1148509979248047
1751214708746168800,12.2801689453125,0.6165506839752197,1.1966590881347656,-3.019350528717041
1751214708756162800,12.290162841796874,0.4885650873184204,1.0694866180419922,-2.7962684631347656
1751214708766156800,12.30015673828125,0.3660869598388672,1.2808613777160645,-2.776981830596924
1751214708776150500,12.310150634765625,0.36702048778533936,1.3096952438354492,-2.4977269172668457
1751214708786144500,12.32014453125,0.35401439666748047,1.1476893424987793,-2.0213875770568848
1751214708796138500,12.330138427734376,0.3463488817214966,0.9415736198425293,-1.478792667388916
1751214708806132200,12.34013232421875,0.27551698684692383,0.8824605941772461,-1.1988444328308105
1751214708816126200,12.350126220703125,0.12706291675567627,0.9028258323669434,-1.0223565101623535
1751214708826120200,12.3601201171875,0.024169206619262695,1.055135726928711,-0.9290204048156738
1751214708836114000,12.370114013671875,0.04546964168548584,1.2302312850952148,-1.017587661743164
1751214708846108000,12.38010791015625,-0.04727315902709961,1.3674273490905762,-1.2909941673278809
1751214708856102000,12.390101806640626,-0.008824825286865234,1.4106483459472656,-1.5755672454833984
1751214708866095900,12.400095947265624,0.02675795555114746,1.4126768112182617,-1.8329930305480957
1751214708876089600,12.410089599609375,-0.023410916328430176,1.4408082962036133,-2.082404613494873
1751214708886083600,12.42008349609375,-0.4320777654647827,1.465723991394043,-2.190549850463867
1751214708896077600,12.43007763671875,-0.9326223134994507,1.3747687339782715,-1.767704963684082
1751214708906071300,12.4400712890625,-0.9872357845306396,0.8537578582763672,-0.9528131484985352
1751214708916065300,12.450065185546874,-0.6913179159164429,0.1989879608154297,-0.2892308235168457
1751214708926059300,12.460059326171875,-0.4789252281188965,-0.32514381408691406,0.012664318084716797
1751214708936053000,12.470052978515625,-0.34899604320526123,-0.6327576637268066,0.13464593887329102
1751214708946047000,12.480046875,-0.5778518915176392,-0.8201303482055664,0.03318595886230469
1751214708956041000,12.490041015625,-0.7953426837921143,-0.8675432205200195,-0.11772298812866211
1751214708966035000,12.500034912109374,-0.7730849981307983,-0.8216686248779297,-0.2293558120727539
1751214708976028700,12.510028564453124,-0.4759795665740967,-0.8353652954101562,-0.2290053367614746
1751214708986022700,12.520022705078125,0.18864494562149048,-0.9538483619689941,-0.26804256439208984
1751214708996016600,12.5300166015625,0.20015639066696167,-1.146275520324707,-0.583223819732666
1751214709006010400,12.54001025390625,-0.07748782634735107,-1.4265661239624023,-0.9897198677062988
1751214709016004400,12.55000439453125,0.024090707302093506,-1.8707098960876465,-1.2687454223632812
1751214709025998300,12.559998291015624,0.8192126750946045,-2.540696144104004,-1.2799077033996582
1751214709035992000,12.569991943359375,1.6652494668960571,-3.2215137481689453,-1.157118320465088
1751214709045986000,12.579986083984375,2.254842758178711,-3.857694625854492,-0.7784867286682129
1751214709055980000,12.58997998046875,2.720346212387085,-4.24951696395874,-0.37505578994750977
1751214709065973800,12.599973876953126,2.6548256874084473,-4.571201324462891,0.5764188766479492
1751214709075967700,12.6099677734375,1.0694059133529663,-4.847146511077881,2.7559895515441895
1751214709085961700,12.619961669921874,-1.6837279796600342,-5.304196834564209,5.898080348968506
1751214709095955700,12.629955810546875,-2.4876649379730225,-5.840909957885742,7.867519855499268
1751214709105949400,12.639949462890625,-1.8074183464050293,-5.041568756103516,5.946042537689209
1751214709115943400,12.649943359375,-1.2831051349639893,-2.896841049194336,2.018627166748047
1751214709125937400,12.6599375,-1.1301575899124146,-1.0181865692138672,0.1137232780456543
1751214709135931100,12.66993115234375,-1.2614469528198242,-0.13957691192626953,-0.822237491607666
1751214709145925000,12.679925048828125,-1.3829994201660156,-0.5749921798706055,-1.2202823162078857
1751214709155919000,12.689919189453125,-0.9591740369796753,-1.1339912414550781,-1.3135457038879395
1751214709165912800,12.699912841796875,-0.6331429481506348,-1.0933208465576172,-1.3507037162780762
1751214709175906800,12.70990673828125,-0.26105254888534546,-0.5953073501586914,-1.449962854385376
1751214709185900800,12.71990087890625,-0.018195807933807373,0.0036001205444335938,-1.4468016624450684
1751214709195894800,12.729894775390624,0.2636706233024597,0.46315860748291016,-1.3720505237579346
1751214709205888500,12.739888427734375,0.540907084941864,0.873652458190918,-1.284677267074585
1751214709215882500,12.749882568359375,0.947938084602356,1.1151738166809082,-0.9999792575836182
1751214709225876500,12.75987646484375,1.2049087285995483,1.1298327445983887,-0.7124593257904053
1751214709235870200,12.7698701171875,1.3450801372528076,1.1043243408203125,-0.5001168251037598
1751214709245864200,12.7798642578125,1.360823392868042,0.933873176574707,-0.23959994316101074
1751214709255858200,12.789858154296875,1.3020551204681396,0.685577392578125,0.014425516128540039
1751214709265852000,12.799851806640625,1.1560766696929932,0.4417886734008789,0.09572863578796387
1751214709275846000,12.809845947265625,0.8927775621414185,0.47122669219970703,0.06936287879943848
1751214709285840000,12.81983984375,0.8087718486785889,0.6881017684936523,0.05254411697387695
1751214709295833600,12.82983349609375,0.6493958234786987,0.8630914688110352,0.22766399383544922
1751214709305827600,12.83982763671875,0.3522929251194,0.9635334014892578,0.38047218322753906
1751214709315821600,12.849821533203125,-0.05189087986946106,1.0760669708251953,0.5741949081420898
1751214709325815300,12.859815185546875,-0.4486423432826996,1.17681884765625,0.7562005519866943
1751214709335809300,12.869809326171875,-0.6294776797294617,1.2699470520019531,0.8860726356506348
1751214709345803000,12.879802978515626,-0.645243763923645,1.398392677307129,0.8529210090637207
1751214709355797000,12.889796875,-0.6023778319358826,1.4336557388305664,0.7772209644317627
1751214709365790700,12.899790771484374,-0.4743945300579071,1.3763132095336914,0.7355124950408936
1751214709375784700,12.90978466796875,-0.36066025495529175,1.2412471771240234,0.7041304111480713
1751214709385778400,12.9197783203125,-0.218816339969635,1.0861272811889648,0.697620153427124
1751214709395772400,12.9297724609375,-0.050500571727752686,0.8824005126953125,0.7161405086517334
1751214709405766100,12.93976611328125,0.15719252824783325,0.6397151947021484,0.8120568990707397
1751214709415760100,12.949760009765624,0.4271419048309326,0.5493879318237305,0.8187150955200195
