time,seconds_elapsed,z,y,x
1747978548763856600,0.094856689453125,4.1844024658203125,-0.7128699421882629,-0.5039174556732178
1747978548782123000,0.113123046875,4.716723442077637,-0.3260732889175415,0.8872957229614258
1747978548800382700,0.1313828125,2.2747507095336914,0.8534107208251953,1.6167957782745361
1747978548818654000,0.149654052734375,-3.8580474853515625,3.0770576000213623,0.4291412830352783
1747978548836918500,0.16791845703125,-3.8205995559692383,2.391904830932617,-2.1765687465667725
1747978548855187000,0.18618701171875,-0.8696775436401367,-0.050249576568603516,-0.7393066883087158
1747978548873446100,0.204446044921875,1.071054458618164,0.03388261795043945,-0.13240432739257812
1747978548891717000,0.222717041015625,0.6388349533081055,-0.705599308013916,0.8018515110015869
1747978548909980200,0.240980224609375,-1.2480297088623047,0.640186071395874,-1.4792473316192627
1747978548928246800,0.259246826171875,-3.7017769813537598,1.4934139251708984,-3.3673532009124756
1747978548946506200,0.27750634765625,-3.590857982635498,-0.7466249465942383,-1.5499131679534912
1747978548964777500,0.295777587890625,-3.368018627166748,-1.2346282005310059,-1.3786811828613281
1747978548983041800,0.314041748046875,-0.59521484375,0.5324802398681641,0.4538763761520386
1747978549001308700,0.33230859375,-1.4169092178344727,-0.4351104497909546,0.6029608845710754
1747978549019568400,0.350568359375,-0.4675006866455078,-0.6463688611984253,-1.7064419984817505
1747978549037838300,0.36883837890625,-0.6500797271728516,-0.1216881275177002,-2.0298666954040527
1747978549056104400,0.3871044921875,-2.8787918090820312,1.418440341949463,-1.683271884918213
1747978549074366000,0.405365966796875,-3.4355082511901855,0.975212574005127,-1.3901809453964233
1747978549092634600,0.423634521484375,-2.550682544708252,0.1491856575012207,-1.1376333236694336
1747978549110901200,0.4419013671875,-2.0784201622009277,-0.005073070526123047,0.23478597402572632
1747978549129165800,0.460165771484375,-3.2840075492858887,-0.02133011817932129,1.5782910585403442
1747978549147431700,0.478431640625,-2.860820770263672,-0.7209882736206055,-0.4406598210334778
1747978549165696500,0.496696533203125,-3.1486806869506836,0.08580183982849121,-1.4508408308029175
1747978549183963000,0.514962890625,-1.810168743133545,2.6012015342712402,-1.4186228513717651
1747978549202222300,0.533222412109375,-0.7033090591430664,0.797027587890625,0.3038902282714844
1747978549220492500,0.551492431640625,-2.261666774749756,0.958282470703125,-1.2997267246246338
1747978549238759400,0.569759521484375,-1.1838054656982422,2.9092488288879395,0.4388906955718994
1747978549257024300,0.588024169921875,1.2753000259399414,1.154674768447876,1.1676158905029297
1747978549275289000,0.6062890625,2.363287925720215,0.4053456783294678,0.83109450340271
1747978549293555500,0.624555419921875,1.548741340637207,-0.17983734607696533,0.42823100090026855
1747978549311818200,0.642818359375,-1.040679931640625,-0.7958305478096008,-0.17383980751037598
1747978549330087400,0.66108740234375,-1.0010814666748047,-0.992629885673523,1.0539000034332275
1747978549348351200,0.679351318359375,0.6388435363769531,-1.5380635261535645,2.697779417037964
1747978549366617600,0.69761767578125,0.056450843811035156,-2.8763022422790527,1.3322837352752686
1747978549384881400,0.71588134765625,-1.1806468963623047,-3.6496994495391846,-0.29622602462768555
1747978549403148000,0.73414794921875,-2.6270055770874023,-3.210249185562134,-0.06562590599060059
1747978549421408300,0.752408203125,-4.9338297843933105,-2.953148365020752,-0.09497547149658203
1747978549439674400,0.77067431640625,-5.5283355712890625,-2.9589905738830566,0.01563549041748047
1747978549457943300,0.788943359375,-3.3112807273864746,-3.630310535430908,-0.4928474426269531
1747978549476208600,0.807208740234375,-2.434755802154541,-4.708899974822998,-1.8417942523956299
1747978549494475800,0.825475830078125,-3.584583282470703,-5.381246566772461,-4.624431610107422
1747978549512740400,0.843740234375,-2.7995619773864746,-4.640856742858887,-4.438078880310059
1747978549531002000,0.862002197265625,-2.2026169300079346,-3.464327812194824,-3.1308937072753906
1747978549549272000,0.88027197265625,-3.0274152755737305,-3.4560699462890625,-1.8508009910583496
1747978549567539000,0.8985390625,-2.866126537322998,-2.8254048824310303,-2.9999537467956543
1747978549585801500,0.916801513671875,-3.030625104904175,-1.9458434581756592,-5.044974327087402
1747978549604068400,0.935068359375,-2.6926755905151367,-3.418032646179199,-2.043221950531006
1747978549622333400,0.95333349609375,0.7138270735740662,-0.8150410652160645,0.5860385894775391
1747978549640584700,0.971584716796875,3.10219144821167,1.1915137767791748,2.417875289916992
1747978549658864400,0.989864501953125,2.2187933921813965,0.20761823654174805,5.5208024978637695
1747978549677128400,1.00812841796875,0.995363712310791,1.6905906200408936,4.761624336242676
1747978549695379700,1.026379638671875,1.6365355253219604,1.471278190612793,6.8938069343566895
1747978549713654500,1.044654541015625,1.2598763704299927,1.7818150520324707,8.019147872924805
1747978549731925000,1.062925048828125,-1.228678584098816,0.13363122940063477,8.06397819519043
1747978549750191400,1.08119140625,-2.11130428314209,0.7727909088134766,10.582279205322266
1747978549768457200,1.099457275390625,-3.056208610534668,1.8005471229553223,11.10028076171875
1747978549786716700,1.117716552734375,-6.059035301208496,1.0066885948181152,10.592033386230469
1747978549804991000,1.135990966796875,-7.68903112411499,0.30030393600463867,8.942341804504395
1747978549823253200,1.154253173828125,-4.441151142120361,-0.9519596099853516,8.616958618164062
1747978549841507000,1.172507080078125,-0.42313042283058167,-2.126378059387207,10.105908393859863
1747978549859790800,1.190790771484375,-3.729952812194824,-2.199246883392334,9.363653182983398
1747978549878035700,1.20903564453125,-5.461556911468506,-3.2097630500793457,7.438377380371094
1747978549896313900,1.22731396484375,-3.4122796058654785,-5.342897891998291,3.055994987487793
1747978549914580200,1.245580322265625,0.44617998600006104,-6.404892444610596,-0.17901945114135742
1747978549932843800,1.26384375,1.0556293725967407,-4.247396469116211,1.93733549118042
1747978549951112200,1.2821123046875,0.1056978702545166,-1.0651378631591797,4.977941036224365
1747978549969371100,1.30037109375,-1.4179372787475586,1.865156650543213,5.956275939941406
1747978549987641900,1.318641845703125,-0.06676888465881348,2.649014949798584,5.863574504852295
1747978550005907000,1.336906982421875,0.4065711498260498,1.474832534790039,2.6480202674865723
1747978550024158500,1.355158447265625,-2.3564140796661377,-0.6622233390808105,-3.505751609802246
1747978550042437400,1.373437255859375,-2.040268898010254,1.8501763343811035,-1.5026483535766602
1747978550060699100,1.39169921875,-1.5726064443588257,4.1140642166137695,-0.4075446128845215
1747978550078955000,1.409955078125,-3.121469736099243,2.3204402923583984,-2.219327449798584
1747978550097236200,1.428236328125,-1.5810019969940186,1.3664274215698242,-0.17910194396972656
1747978550115499500,1.44649951171875,0.722642183303833,3.814754009246826,-3.8639297485351562
1747978550133766000,1.464765869140625,1.6689977645874023,0.3977315425872803,-8.739385604858398
1747978550152030000,1.483030029296875,1.20786714553833,0.44661760330200195,-9.904521942138672
1747978550170284800,1.501284912109375,5.112040996551514,-0.17992353439331055,-12.091150283813477
1747978550188561200,1.51956103515625,4.370527267456055,-0.35736608505249023,-9.428068161010742
1747978550206826800,1.53782666015625,0.8461889028549194,1.805732011795044,-5.374834060668945
1747978550225092400,1.55609228515625,-5.966638565063477,1.8992542028427124,-3.543705940246582
1747978550261625600,1.59262548828125,-0.5365962982177734,-1.0593621730804443,-3.8910608291625977
1747978550279889700,1.6108896484375,1.274235486984253,-0.04602670669555664,-1.1111736297607422
1747978550298154000,1.629154052734375,-0.3634907603263855,-0.6570229530334473,4.80510139465332
1747978550316415700,1.647415771484375,-1.2971715927124023,-0.13268709182739258,5.00913143157959
1747978550334681600,1.665681640625,-0.7486132979393005,2.261347532272339,5.236886978149414
1747978550352954600,1.68395458984375,-0.5430116653442383,6.169266700744629,1.2757291793823242
1747978550371215600,1.702215576171875,-2.100003719329834,3.5238726139068604,-1.238203525543213
1747978550389482500,1.720482421875,-2.4254345893859863,0.41338062286376953,-2.989352226257324
1747978550407746800,1.738746826171875,-2.880537748336792,0.9647254943847656,-2.678600788116455
1747978550426013400,1.757013427734375,-2.986215353012085,-1.2307767868041992,-2.569027900695801
1747978550444277500,1.775277587890625,-0.8637112975120544,-2.340275764465332,-2.5223755836486816
1747978550462544400,1.79354443359375,-3.956162214279175,-2.9647035598754883,7.201704025268555
1747978550480807400,1.811807373046875,-1.2813962697982788,-3.280158042907715,4.175532341003418
1747978550499076400,1.830076416015625,-2.163257598876953,-1.9757652282714844,5.350099086761475
1747978550517339400,1.84833935546875,-4.606903553009033,-4.388941764831543,5.8688859939575195
1747978550535606300,1.866606201171875,-5.3963799476623535,-12.563981056213379,1.8506426811218262
1747978550553867300,1.8848671875,-3.436717987060547,-12.08407974243164,1.2931839227676392
1747978550572135000,1.903135009765625,1.2206114530563354,-4.819602012634277,4.447844982147217
1747978550590395600,1.921395751953125,2.380380630493164,-1.1205854415893555,5.221301078796387
1747978550608669200,1.939669189453125,2.280087947845459,-0.46209144592285156,3.501065492630005
1747978550626932200,1.95793212890625,1.172534704208374,-1.6466398239135742,0.7974560260772705
1747978550645197800,1.97619775390625,1.0593302249908447,-2.4894113540649414,-1.489264726638794
1747978550663461600,1.994461669921875,2.6867105960845947,-1.4021873474121094,-2.565246105194092
1747978550681732400,2.012732421875,3.5647242069244385,0.15385150909423828,-2.7597556114196777
1747978550699993900,2.030993896484375,4.244103908538818,2.195199966430664,-1.493103265762329
1747978550718260500,2.049260498046875,4.12939453125,3.725632667541504,-0.24479103088378906
1747978550736525000,2.067525146484375,3.6306052207946777,4.4412031173706055,0.8428793549537659
1747978550754792400,2.08579248046875,4.1372809410095215,5.453482151031494,0.8908576965332031
1747978550773041000,2.104041015625,5.118973731994629,5.095651149749756,0.11444109678268433
1747978550791322400,2.122322265625,6.123270511627197,3.547966480255127,-0.9995329976081848
1747978550809581800,2.140581787109375,7.169468402862549,2.4994335174560547,-1.2110248804092407
1747978550827854600,2.1588544921875,6.824810981750488,1.906052589416504,-1.526503562927246
1747978550846115600,2.177115478515625,5.4337944984436035,2.5810117721557617,-1.629549264907837
1747978550864380700,2.195380615234375,3.596719741821289,3.55064058303833,-0.7612278461456299
1747978550882654000,2.213654052734375,-1.1559712886810303,3.4217910766601562,-1.188615083694458
1747978550900915200,2.231915283203125,-5.4029645919799805,2.3351688385009766,-2.1777725219726562
1747978550919179800,2.2501796875,-11.716049194335938,-0.2993507385253906,-0.8433845043182373
1747978550937444000,2.268444091796875,-15.18725299835205,-4.819355010986328,4.715470314025879
1747978550955712500,2.28671240234375,-14.192426681518555,-11.569903373718262,9.168696403503418
1747978550973976300,2.304976318359375,-9.29694652557373,-11.522976875305176,3.569464683532715
1747978550992241400,2.323241455078125,-3.2472991943359375,-2.127446174621582,1.3131933212280273
1747978551010507800,2.3415078125,0.07685708999633789,4.027217388153076,-3.599017381668091
1747978551028772600,2.359772705078125,-5.489233016967773,4.0649333000183105,-11.347721099853516
1747978551047038700,2.378038818359375,5.763228416442871,2.0511317253112793,-8.429338455200195
1747978551065302000,2.396302001953125,2.2156288623809814,-2.661775588989258,3.9700119495391846
1747978551083566000,2.414566162109375,1.1866964101791382,-9.593748092651367,4.707613468170166
1747978551101833000,2.4328330078125,11.574743270874023,-3.8299875259399414,7.39540433883667
1747978551120102000,2.451101806640625,7.64579439163208,-1.1441593170166016,4.146161079406738
1747978551138360800,2.46936083984375,1.00790274143219,1.287240982055664,-0.4937855899333954
1747978551156631300,2.48763134765625,1.2696876525878906,2.3277478218078613,-2.806412935256958
1747978551174891000,2.50589111328125,1.8668643236160278,1.1849555969238281,-1.4158763885498047
1747978551193162000,2.524161865234375,2.5457048416137695,-0.5908746719360352,-0.7051858901977539
1747978551211426800,2.5424267578125,0.6667903661727905,-0.9344749450683594,-1.1908711194992065
1747978551229688800,2.560688720703125,-1.4134113788604736,0.7850532531738281,-0.2849079966545105
1747978551247958000,2.5789580078125,-1.038110613822937,1.8348073959350586,1.7548832893371582
1747978551266224000,2.59722412109375,-0.9336297512054443,2.4184579849243164,1.5466089248657227
1747978551284477200,2.615477294921875,-0.6868230104446411,2.539984703063965,-0.20251142978668213
1747978551302755000,2.633755126953125,-0.8250601291656494,1.8605499267578125,-0.7821642160415649
1747978551321019600,2.65201953125,-0.04928147792816162,1.287001609802246,0.2883448004722595
1747978551339286000,2.6702861328125,-0.9377842545509338,0.9938697814941406,0.6872904896736145
1747978551357549600,2.688549560546875,-2.8625845909118652,1.0875530242919922,0.9637340903282166
1747978551375817000,2.70681689453125,-3.9563212394714355,0.3306617736816406,0.6819466948509216
1747978551394082800,2.725082763671875,-3.0493030548095703,0.0967264175415039,2.347805976867676
1747978551412348200,2.74334814453125,-1.0094022750854492,0.7097072601318359,3.2390599250793457
1747978551430607600,2.761607666015625,-0.6849994659423828,-0.10394477844238281,2.001458168029785
1747978551448877600,2.779877685546875,-1.7077901363372803,-0.5259265899658203,1.0444953441619873
1747978551467144700,2.798144775390625,-2.2956161499023438,-0.27634239196777344,-0.3327033817768097
1747978551485405400,2.816405517578125,-2.7858448028564453,-1.0035514831542969,-0.44925785064697266
1747978551503674400,2.83467431640625,-3.146176815032959,-1.7555904388427734,0.1514713615179062
1747978551521941000,2.85294091796875,-2.657978057861328,-1.846940040588379,2.7024991512298584
1747978551540205300,2.871205322265625,-1.3709980249404907,-1.7055282592773438,4.255436897277832
1747978551558472200,2.88947216796875,-0.8292652368545532,-1.8408479690551758,3.0677809715270996
1747978551576736300,2.907736328125,-3.026991367340088,0.006617546081542969,3.9002726078033447
1747978551595001600,2.926001708984375,-6.149367332458496,-1.4282684326171875,1.5924900770187378
1747978551613268500,2.9442685546875,-7.742821216583252,-3.9962081909179688,0.5597151517868042
1747978551631534000,2.9625341796875,-4.723807334899902,-4.760149955749512,4.25366735458374
1747978551649792500,2.98079248046875,-1.6770262718200684,-4.0714826583862305,7.472276210784912
1747978551668053800,2.9990537109375,-1.3819544315338135,-2.9617252349853516,5.8032307624816895
1747978551686324500,3.017324462890625,-1.4611128568649292,-2.279599189758301,4.6668829917907715
1747978551704595700,3.035595703125,2.3818821907043457,1.3104829788208008,4.207743167877197
1747978551722860000,3.053860107421875,5.124674320220947,-2.607499122619629,-1.13325035572052
1747978551741127000,3.072126953125,3.7420663833618164,-7.097512245178223,-1.493680477142334
1747978551759386000,3.09038623046875,2.125997304916382,-4.445307731628418,4.892545223236084
1747978551777657600,3.10865771484375,0.9075531959533691,-2.1351490020751953,0.9800028800964355
1747978551795922000,3.126921875,-0.03892326354980469,-2.837733268737793,-2.4567689895629883
1747978551814188300,3.145188232421875,0.7836499214172363,-2.5906200408935547,-2.5474302768707275
1747978551832453000,3.163453125,2.016860246658325,0.2745647430419922,-0.07123780250549316
1747978551850719500,3.181719482421875,2.763390064239502,1.5887436866760254,1.4628138542175293
1747978551868983800,3.19998388671875,2.590754270553589,2.493422031402588,0.8688876628875732
1747978551887250400,3.21825048828125,2.4077110290527344,3.421717643737793,-0.1668596863746643
1747978551905514800,3.2365146484375,3.368696451187134,3.967527389526367,-0.5366106033325195
1747978551923777300,3.25477734375,4.956670761108398,5.509181022644043,-0.028192877769470215
1747978551942043400,3.27304345703125,6.089093208312988,5.223598480224609,-1.4516187906265259
1747978551960311300,3.291311279296875,6.482287406921387,4.9942731857299805,-1.8512216806411743
1747978551978578000,3.309577880859375,5.692586898803711,4.3983235359191895,-1.3647291660308838
1747978551996842500,3.327842529296875,4.679734706878662,4.379790782928467,-1.0319021940231323
1747978552015105800,3.346105712890625,3.0945727825164795,3.6732378005981445,-2.5084354877471924
1747978552033372400,3.364372314453125,1.825463056564331,3.182748317718506,-2.9259817600250244
1747978552051638800,3.382638671875,-1.1075468063354492,4.755164623260498,-1.5497527122497559
1747978552069905200,3.4009052734375,-6.943968772888184,3.3239006996154785,-1.2704317569732666
1747978552088170000,3.419169921875,-12.675335884094238,0.8475761413574219,-1.1708030700683594
1747978552106436400,3.437436279296875,-9.202143669128418,-6.357335090637207,0.5718080401420593
1747978552124700700,3.45570068359375,-11.592524528503418,-9.202136039733887,1.599746584892273
1747978552142967600,3.473967529296875,-8.016318321228027,-5.503449440002441,2.650123119354248
1747978552161231600,3.492231689453125,-5.31839656829834,-1.4431333541870117,2.070913314819336
1747978552179498200,3.510498291015625,-7.4058332443237305,-2.279078483581543,-0.6204734444618225
1747978552197757700,3.5287578125,0.3527202606201172,-5.539424896240234,-2.1661527156829834
1747978552216028000,3.54702783203125,18.100610733032227,-3.717470169067383,-1.1100828647613525
1747978552234294300,3.565294189453125,7.499483108520508,-7.171390533447266,1.5458059310913086
1747978552252560100,3.58356005859375,-2.5693142414093018,-1.5829668045043945,-3.6008098125457764
1747978552270810400,3.601810302734375,4.9513163566589355,3.027825355529785,-2.2539052963256836
1747978552289092400,3.62009228515625,6.230149745941162,4.074183464050293,-1.2104425430297852
1747978552307358700,3.638358642578125,5.731873512268066,2.7949399948120117,-0.6178905963897705
1747978552325622300,3.656622314453125,5.191854000091553,0.3573284149169922,0.09722089767456055
1747978552343886300,3.67488623046875,4.275146484375,-2.5579757690429688,0.768246054649353
1747978552362153200,3.6931533203125,3.6134414672851562,-3.464259147644043,1.688217043876648
1747978552380413400,3.711413330078125,3.505629062652588,-2.4064626693725586,1.1077535152435303
1747978552398684000,3.729683837890625,1.4677724838256836,0.1665945053100586,0.13547948002815247
1747978552416948500,3.747948486328125,-4.151508808135986,3.326669216156006,-0.40196940302848816
1747978552435217400,3.766217529296875,-6.703701019287109,2.969845771789551,-0.6192373633384705
1747978552453472300,3.78447216796875,-4.688453674316406,1.0723590850830078,-1.094058632850647
1747978552471745000,3.8027451171875,-1.3450915813446045,0.3560152053833008,-1.6279551982879639
1747978552490011400,3.821011474609375,1.0097239017486572,-0.24430561065673828,-1.5815949440002441
1747978552508277000,3.839277099609375,1.1933033466339111,0.9745521545410156,-0.10179150104522705
1747978552526541300,3.857541259765625,0.6490973830223083,2.7510223388671875,1.3290083408355713
1747978552544802300,3.87580224609375,-0.1783846616744995,3.1969738006591797,3.1337971687316895
1747978552563071000,3.894071044921875,-3.287014961242676,2.7121458053588867,6.102128028869629
1747978552581342200,3.91234228515625,-6.2476959228515625,1.6975140571594238,7.99722957611084
1747978552599599000,3.93059912109375,-3.5938315391540527,1.4977197647094727,6.695674896240234
1747978552617870000,3.9488701171875,-2.1733360290527344,1.223745346069336,5.312612056732178
1747978552636134700,3.967134765625,-1.250300407409668,-0.15336036682128906,3.8934125900268555
1747978552654396700,3.985396728515625,-1.4005670547485352,-1.6780633926391602,3.053948163986206
1747978552672665600,4.00366552734375,-1.8159432411193848,-4.165762901306152,2.17205810546875
1747978552690932000,4.021931884765625,-1.6839255094528198,-5.920475006103516,0.23889848589897156
1747978552709196800,4.04019677734375,-1.5792770385742188,-4.443905830383301,-1.1897084712982178
1747978552727463200,4.058463134765625,-1.8728673458099365,-1.541825294494629,0.9170133471488953
1747978552745727700,4.076727783203125,-5.038566589355469,-1.7051668167114258,2.6566877365112305
1747978552763994400,4.094994384765625,-8.859615325927734,-3.6821231842041016,4.797902584075928
1747978552782258700,4.1132587890625,-6.117671012878418,-4.023223876953125,6.955569267272949
1747978552800520400,4.1315205078125,-1.4658840894699097,-2.452484130859375,6.486164569854736
1747978552818790700,4.149790771484375,-1.9215425252914429,-1.654505729675293,3.991241931915283
1747978552837055500,4.168055419921875,-2.9102282524108887,-2.454730987548828,0.7000365853309631
1747978552855320600,4.186320556640625,2.0338809490203857,-2.2981414794921875,1.128426432609558
1747978552873587000,4.2045869140625,3.7403507232666016,-3.7181434631347656,1.65837824344635
1747978552891850800,4.222850830078125,3.776801586151123,-6.702149391174316,0.03576850891113281
1747978552910119400,4.241119384765625,1.6502251625061035,-8.925978660583496,-1.4812557697296143
1747978552928378000,4.259378173828125,-2.304776191711426,-7.210161209106445,-2.522939682006836
1747978552946649600,4.277649658203125,0.39757251739501953,-2.9427719116210938,-3.633065700531006
1747978552964914000,4.295913818359375,3.2427918910980225,0.6798725128173828,-3.4726967811584473
1747978552983179500,4.314179443359375,4.64937162399292,2.942281723022461,-2.160036563873291
1747978553001446000,4.33244580078125,4.544301509857178,4.385819435119629,-1.2511563301086426
1747978553019704600,4.35070458984375,4.0339765548706055,5.333837032318115,-0.278312087059021
1747978553037978600,4.368978515625,3.3111572265625,5.294286727905273,0.7786188125610352
1747978553056234800,4.38723486328125,3.3542633056640625,4.276418685913086,1.2625958919525146
1747978553074509300,4.40550927734375,5.3308844566345215,3.0959081649780273,0.08636069297790527
1747978553092770600,4.4237705078125,5.492096900939941,2.8590712547302246,-1.6073689460754395
1747978553111041000,4.442041015625,4.193578720092773,3.477717876434326,-3.314072847366333
1747978553129304600,4.4603046875,3.984015941619873,4.623002529144287,-3.6390233039855957
1747978553147569200,4.478569091796875,4.103396892547607,5.698782920837402,-3.7619385719299316
1747978553165834800,4.496834716796875,3.4886581897735596,5.990935325622559,-4.447857856750488
1747978553184100600,4.5151005859375,2.490006446838379,5.493205547332764,-4.923708915710449
1747978553202362400,4.5333623046875,1.5002797842025757,4.057883262634277,-4.692575454711914
1747978553220631300,4.55163134765625,-5.11643123626709,0.09101104736328125,-2.5469231605529785
1747978553238897700,4.569897705078125,-21.443876266479492,-6.235441207885742,5.174017906188965
1747978553257162000,4.588161865234375,-17.938554763793945,-17.050052642822266,12.947895050048828
1747978553275428400,4.606428466796875,-7.653355598449707,-15.874780654907227,5.631185531616211
1747978553293693400,4.624693359375,-4.459868907928467,-1.3738174438476562,4.116626739501953
1747978553311954700,4.64295458984375,-4.742595672607422,4.915371894836426,-2.6511576175689697
1747978553330223000,4.66122314453125,-3.291412591934204,6.253420829772949,-7.7926435470581055
1747978553348479500,4.6794794921875,6.0736403465271,4.7393083572387695,-5.6230010986328125
1747978553366755600,4.697755615234375,10.598531723022461,-0.8497028350830078,-4.254876136779785
1747978553385020400,4.7160205078125,9.944694519042969,-8.225167274475098,-0.7606454491615295
1747978553403287600,4.73428759765625,3.175579786300659,-11.17563247680664,3.0366640090942383
1747978553421553000,4.752552978515625,1.8438637256622314,-3.9034881591796875,2.2181293964385986
1747978553439816400,4.77081640625,1.3677186965942383,1.2352828979492188,0.13320684432983398
1747978553458085000,4.789085205078125,2.9602510929107666,3.4510507583618164,-1.083670973777771
1747978553476349000,4.807348876953125,3.9947476387023926,3.0527849197387695,-1.1138830184936523
1747978553494615000,4.825614990234375,4.049128532409668,0.8573923110961914,0.23314344882965088
1747978553512879900,4.8438798828125,3.809035301208496,-1.4250307083129883,1.2228788137435913
1747978553531146200,4.862146240234375,2.608555316925049,-1.8235712051391602,1.387223720550537
1747978553549406500,4.880406494140625,0.11459779739379883,0.1941356658935547,-0.6480083465576172
1747978553567672300,4.89867236328125,-2.311307430267334,1.7943615913391113,-2.445096492767334
1747978553585940700,4.916940673828125,-2.761793613433838,2.572023868560791,-2.2915873527526855
1747978553604209700,4.935209716796875,-1.4013051986694336,2.609992027282715,-0.756626546382904
1747978553622473000,4.953472900390625,0.04086583852767944,2.1517863273620605,0.40123677253723145
1747978553640739600,4.971739501953125,0.7815148234367371,2.0366616249084473,0.9634290933609009
1747978553659004200,4.990004150390625,0.5858584642410278,2.323850154876709,1.268070101737976
1747978553677270500,5.0082705078125,-0.9084644317626953,3.0645594596862793,1.5620249509811401
1747978553695535000,5.02653515625,-5.704308032989502,3.4823250770568848,2.035975217819214
1747978553713800400,5.044800537109375,-6.630780220031738,1.905148983001709,0.8846415281295776
1747978553732067300,5.0630673828125,-3.6570322513580322,0.7510719299316406,1.217137336730957
1747978553750333000,5.0813330078125,-1.4233909845352173,-0.7654581069946289,1.5651370286941528
1747978553768580400,5.099580322265625,-1.420799732208252,-1.802525520324707,0.911809504032135
1747978553786863900,5.11786376953125,-2.2301852703094482,-2.5866317749023438,2.079928159713745
1747978553805127400,5.13612744140625,-2.5044708251953125,-3.50631046295166,3.171952247619629
1747978553823391500,5.1543916015625,-1.9746941328048706,-4.277578353881836,3.4365193843841553
1747978553841658000,5.172658203125,-1.2885469198226929,-2.405825614929199,4.286038875579834
1747978553859927300,5.19092724609375,-0.9239051342010498,-0.5868616104125977,5.144432067871094
1747978553878188300,5.209188232421875,-1.183517575263977,-1.2634544372558594,5.108851432800293
1747978553896459500,5.22745947265625,-2.058926582336426,-2.8529815673828125,4.627126216888428
1747978553914717000,5.245717041015625,-10.412952423095703,-5.499985694885254,3.273115873336792
1747978553932988400,5.263988525390625,-11.018144607543945,-5.0716094970703125,5.387784481048584
1747978553951252700,5.282252685546875,-3.6484475135803223,-1.4881839752197266,4.481985569000244
1747978553969519600,5.30051953125,-0.1577986478805542,0.09763717651367188,4.746736526489258
1747978553987784400,5.318784423828125,1.0333540439605713,-0.3677682876586914,4.5840864181518555
1747978554006050300,5.33705029296875,1.1736886501312256,-2.370823860168457,4.206563949584961
1747978554024315100,5.355315185546875,1.6706445217132568,-4.78969669342041,3.084157943725586
1747978554042581800,5.373581787109375,2.6616833209991455,-6.688392639160156,1.989184856414795
1747978554060845000,5.391844970703125,1.0318208932876587,-8.136777877807617,0.2455674409866333
1747978554079113700,5.41011376953125,-0.06185901165008545,-6.054346084594727,-1.2923221588134766
1747978554097369300,5.428369384765625,2.197096586227417,-3.081380844116211,-2.511887788772583
1747978554115647000,5.44664697265625,3.597947359085083,0.0008106231689453125,-2.51792311668396
1747978554133906700,5.46490673828125,3.8312294483184814,2.5523805618286133,-1.4812967777252197
1747978554152176600,5.4831767578125,2.991513967514038,4.476284027099609,-0.09934687614440918
1747978554170434600,5.5014345703125,3.2017507553100586,5.6224365234375,0.862618088722229
1747978554188706300,5.519706298828125,3.4474592208862305,5.263160705566406,1.2320877313613892
1747978554206970400,5.537970458984375,4.621697425842285,3.9607791900634766,0.5758758783340454
1747978554225237200,5.5562373046875,5.030576229095459,3.3713765144348145,-0.4569211006164551
1747978554243501600,5.57450146484375,5.077948570251465,3.8708386421203613,-1.8591794967651367
1747978554261768400,5.5927685546875,5.109939098358154,5.293967247009277,-3.148306131362915
1747978554280033000,5.611032958984375,5.778313636779785,6.5186967849731445,-3.6291348934173584
1747978554298299400,5.62929931640625,5.717443466186523,7.3995280265808105,-4.091411590576172
1747978554316564000,5.64756396484375,4.885959148406982,7.542953014373779,-4.894624710083008
1747978554334829600,5.66582958984375,3.9222800731658936,5.656562805175781,-5.057714462280273
1747978554353095200,5.68409521484375,0.5655398368835449,2.9382424354553223,-3.6551690101623535
1747978554371361300,5.702361328125,-8.833540916442871,-0.28632640838623047,-1.6971652507781982
1747978554389621200,5.720621337890625,-20.02822494506836,-5.905714988708496,4.207587242126465
1747978554407893000,5.73889306640625,-12.151579856872559,-13.520831108093262,10.90081787109375
1747978554426154800,5.75715478515625,-8.374212265014648,-14.79061222076416,10.02540111541748
1747978554444424200,5.775424072265625,-6.170486927032471,-6.011406898498535,4.390224456787109
1747978554462688300,5.793688232421875,-6.196671485900879,0.8317575454711914,-0.37174201011657715
1747978554480955400,5.811955322265625,-5.326544761657715,7.181148529052734,-3.0064306259155273
1747978554499219500,5.830219482421875,1.528886318206787,8.65014362335205,-2.332760810852051
1747978554517486600,5.848486572265625,11.441577911376953,5.767839431762695,-4.379120349884033
1747978554535750400,5.86675048828125,12.704771041870117,-0.1832256317138672,-7.199542999267578
1747978554554017500,5.885017578125,-21.081005096435547,-21.347827911376953,-6.325827598571777
1747978554572281600,5.903281494140625,10.838085174560547,-11.798529624938965,1.95925772190094
1747978554590548500,5.921548583984375,5.8921356201171875,-0.6625375747680664,2.825467586517334
1747978554608811500,5.9398115234375,4.450160503387451,2.617793560028076,0.4719780683517456
1747978554627081000,5.9580810546875,4.0956525802612305,1.4405360221862793,-0.8409520387649536
1747978554645344500,5.976344482421875,3.9053092002868652,-1.5366783142089844,-0.9882557392120361
1747978554663610600,5.994610595703125,2.22664737701416,-3.1613035202026367,-0.5763039588928223
1747978554681870600,6.01287060546875,-0.2503507137298584,-1.6915388107299805,-0.4840050935745239
1747978554700140800,6.031140869140625,-1.378627061843872,-0.5570306777954102,-0.38499557971954346
1747978554718403300,6.0494033203125,-0.9000869393348694,0.9086446762084961,-0.352743923664093
1747978554736673000,6.067673095703125,-1.0911880731582642,2.337527275085449,0.08448612689971924
1747978554754937600,6.0859375,-0.5504995584487915,3.1489315032958984,-0.051625967025756836
1747978554773203700,6.10420361328125,0.0025444626808166504,3.572972297668457,-0.638140082359314
1747978554791468800,6.12246875,-0.26801472902297974,3.460998058319092,-0.02998673915863037
1747978554809730600,6.14073046875,-0.4189631938934326,3.205418109893799,0.5495599508285522
1747978554828000000,6.159,-0.22468912601470947,3.6856555938720703,0.4709506034851074
1747978554846266600,6.1772666015625,-0.544948935508728,4.996297359466553,0.49916309118270874
1747978554864531000,6.195531005859375,-6.4732770919799805,5.222482204437256,1.8291256427764893
1747978554882796300,6.21379638671875,-9.815054893493652,3.1282992362976074,2.7734575271606445
1747978554901063400,6.2320634765625,-3.0297939777374268,0.7458133697509766,1.5204894542694092
1747978554919328800,6.250328857421875,0.7927207946777344,-2.3232831954956055,1.1660667657852173
1747978554937588500,6.26858837890625,0.019135713577270508,-4.071348190307617,1.1294933557510376
1747978554955859000,6.28685888671875,-1.7702280282974243,-3.3282394409179688,1.8310890197753906
1747978554974125000,6.305125,-3.271043300628662,-3.2305727005004883,1.8247698545455933
1747978554992386600,6.323386474609375,-4.206595420837402,-2.061345100402832,4.055666923522949
1747978555010655700,6.34165576171875,-3.573021650314331,-0.5507307052612305,6.24884033203125
1747978555028922400,6.35992236328125,-4.588099479675293,-1.0108041763305664,7.6534271240234375
1747978555047186700,6.378186767578125,-9.483877182006836,-2.864617347717285,6.831528186798096
1747978555065453300,6.396453369140625,-11.288558006286621,-2.287592887878418,4.841835975646973
1747978555083718000,6.4147177734375,-5.362346172332764,-1.3786859512329102,6.309599876403809
1747978555101984500,6.432984619140625,-1.2333790063858032,-0.8775091171264648,5.753299713134766
1747978555120238000,6.451238037109375,-0.5553902387619019,-2.1660022735595703,5.00451135635376
1747978555138515200,6.46951513671875,-2.0298407077789307,-6.4737348556518555,3.7013349533081055
1747978555156780300,6.4877802734375,2.2926464080810547,-11.103628158569336,3.089582920074463
1747978555175045000,6.506045166015625,4.397363662719727,-16.891517639160156,1.0041446685791016
1747978555193308200,6.52430810546875,3.288559675216675,-18.158607482910156,-1.6910957098007202
1747978555211576300,6.542576416015625,-1.0842266082763672,-10.86920166015625,-1.0149407386779785
1747978555229843500,6.560843505859375,0.2351515293121338,-4.256317138671875,-1.8089375495910645
1747978555248110300,6.5791103515625,3.353079080581665,-1.3447132110595703,-3.560833215713501
1747978555266369000,6.597369140625,4.536113739013672,1.2227683067321777,-3.1136462688446045
1747978555284635400,6.615635498046875,4.172741889953613,3.166018009185791,-1.9602634906768799
1747978555302905000,6.633905029296875,4.155232906341553,4.3433380126953125,-0.4157063961029053
1747978555321171500,6.65217138671875,3.1337990760803223,4.093955039978027,0.806359052658081
1747978555339439900,6.67043994140625,5.270230770111084,3.2977170944213867,0.8707144260406494
1747978555357703000,6.688702880859375,6.780616760253906,3.001800537109375,-0.2911067008972168
1747978555375966700,6.706966796875,6.156140327453613,4.05350399017334,-4.257667541503906
1747978555394233900,6.72523388671875,5.825803279876709,6.338798999786377,-5.33016300201416
1747978555412498200,6.743498291015625,6.158825397491455,7.808015823364258,-5.404106140136719
1747978555430764500,6.7617646484375,6.2784881591796875,8.413804054260254,-5.16738224029541
1747978555449029400,6.780029296875,5.901986598968506,8.631762504577637,-5.200137138366699
1747978555467295700,6.798295654296875,4.922544002532959,8.638416290283203,-5.659115791320801
1747978555485560600,6.816560546875,4.582310676574707,8.617663383483887,-5.862343788146973
1747978555503826000,6.834825927734375,2.5358481407165527,8.227811813354492,-6.45247745513916
1747978555522092800,6.8530927734375,-10.429328918457031,3.8286914825439453,-4.534434795379639
1747978555540362200,6.8713623046875,-24.344837188720703,-5.644623756408691,3.643911600112915
1747978555558623000,6.889623046875,-13.068780899047852,-20.789199829101562,11.05583381652832
1747978555576889300,6.907889404296875,-5.706419467926025,-20.830867767333984,9.366202354431152
1747978555595155500,6.926155517578125,-6.001235485076904,-3.374570846557617,4.678537368774414
1747978555613422800,6.9444228515625,-3.7147233486175537,3.784806251525879,-0.6267253160476685
1747978555631685400,6.962685302734375,-3.6105892658233643,6.374661445617676,-7.191368103027344
1747978555649951700,6.98095166015625,3.164001226425171,4.8372697830200195,-5.858453273773193
1747978555668212500,6.99921240234375,8.66920280456543,4.9845170974731445,-2.566187620162964
1747978555686483000,7.01748291015625,9.755398750305176,2.839200496673584,-2.6468214988708496
1747978555704747800,7.035747802734375,-13.546941757202148,-12.706075668334961,-6.45999813079834
1747978555723012900,7.054012939453125,7.6684956550598145,-13.331923484802246,-0.6522938013076782
1747978555741280300,7.0722802734375,5.236990928649902,-3.7047882080078125,1.0139739513397217
1747978555759549200,7.090549072265625,3.5224106311798096,3.1166210174560547,0.15060436725616455
1747978555777809000,7.108808837890625,3.861894369125366,4.51927375793457,0.5347564220428467
1747978555796073200,7.1270732421875,4.478152275085449,3.071214199066162,1.491739273071289
1747978555814340600,7.145340576171875,3.8571839332580566,-0.34246063232421875,1.7421687841415405
1747978555832609300,7.163609375,2.7311043739318848,-3.990549087524414,2.5267701148986816
1747978555850872300,7.181872314453125,0.4873790442943573,-3.1624746322631836,4.227339744567871
1747978555869139000,7.200138916015625,-2.68091082572937,1.1585206985473633,3.6436758041381836
1747978555887399700,7.218399658203125,-3.313168525695801,3.583527088165283,0.8118389844894409
1747978555905670400,7.23667041015625,-1.6791614294052124,3.5329790115356445,-1.4321271181106567
1747978555923934700,7.254934814453125,-0.40254926681518555,3.7710251808166504,-1.985252857208252
1747978555942201600,7.27320166015625,-0.639976441860199,4.075061798095703,-1.8590047359466553
1747978555960465700,7.291465576171875,-1.7909499406814575,3.1450257301330566,-0.9384317398071289
1747978555978732800,7.30973291015625,-2.1184844970703125,1.7785673141479492,0.059113383293151855
1747978555996996900,7.327996826171875,-2.4329137802124023,1.9578886032104492,0.8435155749320984
1747978556015263700,7.346263671875,-4.6324782371521,2.473756790161133,1.7294340133666992
1747978556033528300,7.3645283203125,-5.6622185707092285,2.176140308380127,1.9175944328308105
1747978556051789800,7.382789794921875,-3.4952054023742676,0.14306354522705078,1.0244852304458618
1747978556070058200,7.401058349609375,-2.198878765106201,-1.7545804977416992,1.8719884157180786
1747978556088327400,7.419327392578125,-1.7729912996292114,-3.672610282897949,3.690929651260376
1747978556106590500,7.437590576171875,-3.494615077972412,-3.6753015518188477,5.215962886810303
1747978556124856300,7.455856201171875,-5.449451446533203,-1.8032608032226562,6.704878807067871
1747978556143122700,7.474122802734375,-3.805452823638916,-0.3053264617919922,7.786896228790283
1747978556161383700,7.4923837890625,-5.050972938537598,-1.302760124206543,9.947638511657715
1747978556179649000,7.51064892578125,-8.697261810302734,-3.845698356628418,11.776427268981934
1747978556197919500,7.52891943359375,-6.494523048400879,-4.311906814575195,12.479365348815918
1747978556216184300,7.547184326171875,-1.117504596710205,-3.001117706298828,8.57802677154541
1747978556234451000,7.565450927734375,0.8114968538284302,-3.749882698059082,5.481109619140625
1747978556252712200,7.583712158203125,1.06814706325531,-7.107967376708984,3.0828702449798584
1747978556270984700,7.601984619140625,1.9079878330230713,-12.659894943237305,1.4011247158050537
1747978556289243600,7.62024365234375,2.3407819271087646,-17.86345863342285,-1.8877047300338745
1747978556307511300,7.63851123046875,-0.3625444173812866,-18.32726287841797,-6.411765098571777
1747978556325776400,7.6567763671875,1.7930039167404175,-9.871858596801758,-4.505448818206787
1747978556344045600,7.675045654296875,3.2942419052124023,-2.2846269607543945,-3.639946460723877
1747978556362308600,7.69330859375,3.0852138996124268,2.429168701171875,-2.6124889850616455
1747978556380575700,7.71157568359375,3.162853240966797,5.32962703704834,-1.745602011680603
1747978556398839000,7.729839111328125,3.906973361968994,7.4803338050842285,-0.14859914779663086
1747978556417107700,7.748107666015625,3.5589041709899902,8.695488929748535,1.2156819105148315
1747978556435366700,7.76636669921875,2.918926239013672,8.802062034606934,1.7362804412841797
1747978556453638100,7.78463818359375,5.493281364440918,7.275793075561523,-1.7948065996170044
1747978556471902500,7.80290234375,7.314496040344238,6.88492488861084,-4.227306365966797
1747978556490168800,7.8211689453125,7.259197235107422,7.7396063804626465,-4.689487457275391
1747978556508435700,7.839435791015625,7.2577223777771,8.903765678405762,-4.491959571838379
1747978556526700000,7.857699951171875,6.87345552444458,9.522238731384277,-4.096635818481445
1747978556544953900,7.875953857421875,4.662537574768066,9.312257766723633,-4.996630668640137
1747978556563225900,7.894225830078125,1.658846139907837,8.406780242919922,-6.228610038757324
1747978556581495000,7.9124951171875,-7.252769470214844,4.024620056152344,-3.7485604286193848
1747978556599759400,7.93075927734375,-26.812246322631836,-8.320515632629395,3.5716962814331055
1747978556618026800,7.94902685546875,-11.598005294799805,-25.182775497436523,9.045125961303711
1747978556636294000,7.9672939453125,-10.233916282653809,-17.14516258239746,8.840721130371094
1747978556654553000,7.985552978515625,-6.986832618713379,-1.6736621856689453,4.79459285736084
1747978556672823800,8.00382373046875,-2.4123830795288086,3.859325885772705,-2.011115074157715
1747978556691090400,8.02209033203125,-1.20564603805542,6.778706073760986,-6.106138229370117
1747978556709359400,8.040359375,-4.788751602172852,6.9155426025390625,-4.328708648681641
1747978556727620600,8.05862060546875,5.9790425300598145,0.892341136932373,5.19285774230957
1747978556745887500,8.076887451171874,20.91387939453125,-0.038580894470214844,-1.4066698551177979
1747978556764151600,8.095151611328125,9.536827087402344,3.924429416656494,-4.89975643157959
1747978556782423800,8.113423828125,-31.080278396606445,5.987454414367676,-18.13593292236328
1747978556800682500,8.1316826171875,12.296051025390625,7.186284065246582,-5.042097091674805
1747978556818949600,8.14994970703125,14.995327949523926,4.795832633972168,-3.6237778663635254
1747978556837217000,8.168217041015625,4.265926837921143,0.6999969482421875,-0.19451820850372314
1747978556855478300,8.186478271484376,-4.274776458740234,-6.252627372741699,-0.21939754486083984
1747978556873745000,8.204744873046875,7.859408378601074,-7.926982879638672,-3.691605567932129
1747978556892012000,8.223011962890626,5.319413185119629,-5.465765953063965,-2.0457115173339844
1747978556910276600,8.241276611328125,2.2673521041870117,-5.222539901733398,-0.8284202814102173
1747978556928543000,8.25954296875,2.212326765060425,-7.693315505981445,1.4493274688720703
1747978556946806500,8.277806640625,2.47819447517395,-13.022948265075684,5.759584426879883
1747978556965074400,8.296074462890624,3.8489503860473633,-17.006065368652344,12.117980003356934
1747978556983339500,8.314339599609376,2.22292423248291,-16.680160522460938,15.938484191894531
1747978557001605600,8.332605712890626,-4.433387756347656,-13.556258201599121,18.918766021728516
1747978557019870000,8.350869873046875,-23.713193893432617,-8.662487030029297,18.993022918701172
1747978557038136600,8.369136474609375,-25.548898696899414,-2.1643590927124023,12.337331771850586
1747978557056396800,8.387396728515625,-10.637521743774414,0.9789838790893555,7.905857086181641
1747978557074667800,8.405667724609375,-2.6809377670288086,1.2590904235839844,4.821108341217041
1747978557092931300,8.423931396484376,-0.5305612087249756,5.401212692260742,2.436433792114258
1747978557111200300,8.4422001953125,-1.0166685581207275,8.813704490661621,0.3281310200691223
1747978557129463600,8.460463623046875,-2.8150341510772705,9.623486518859863,-0.4429967999458313
1747978557147730200,8.478730224609375,-3.5358967781066895,9.377577781677246,-1.2898098230361938
1747978557165986800,8.49698681640625,-3.2445015907287598,9.43038558959961,-2.0507705211639404
1747978557179690200,8.510690185546874,-2.6403374671936035,10.246332168579102,-1.8956773281097412
1747978557197955600,8.52895556640625,-10.077214241027832,11.2982177734375,-2.6128854751586914
1747978557216229000,8.54722900390625,-8.303112030029297,10.088056564331055,-3.259665012359619
1747978557234493000,8.565492919921875,-5.630877494812012,8.54916000366211,-2.0248491764068604
1747978557252759600,8.583759521484374,-4.457183837890625,7.457408428192139,-0.2925909757614136
1747978557271023900,8.60202392578125,-1.8898624181747437,5.950767993927002,0.8448554873466492
1747978557289289700,8.620289794921876,0.9540672302246094,1.6754875183105469,3.418689250946045
1747978557307555000,8.63855517578125,5.143980979919434,-11.22945785522461,6.573779106140137
1747978557325820700,8.656820556640625,5.452798843383789,-40.78158187866211,6.066296100616455
1747978557344087800,8.675087890625,-27.003332138061523,-52.78377914428711,28.69313621520996
1747978557362354200,8.693354248046875,-10.74811840057373,-26.9238338470459,25.026151657104492
1747978557380617700,8.71161767578125,-1.7361304759979248,-11.617362022399902,16.28742218017578
1747978557398879500,8.72987939453125,3.360288619995117,-3.432206630706787,7.740475177764893
1747978557417147600,8.748147705078125,6.201491355895996,2.128016471862793,0.843989372253418
1747978557435411200,8.7664111328125,8.006709098815918,6.353829383850098,-4.1631879806518555
1747978557453680000,8.78468017578125,9.953773498535156,6.667893886566162,-7.317934989929199
1747978557471946500,8.802946533203125,9.997718811035156,6.512819290161133,-6.529942989349365
1747978557490211000,8.821211181640624,9.434398651123047,6.688882827758789,-5.741194725036621
1747978557508476700,8.8394765625,11.337263107299805,6.603607177734375,-4.384217739105225
1747978557526742300,8.8577421875,16.956432342529297,8.28211784362793,-3.640498161315918
1747978557545008000,8.876008056640625,22.10575294494629,11.837087631225586,-5.4340314865112305
1747978557563272400,8.8942724609375,14.331073760986328,13.18923568725586,-7.536274433135986
1747978557581538600,8.91253857421875,7.590335845947266,15.420212745666504,-3.9375159740448
1747978557599806700,8.930806640625,-0.9188039302825928,10.861942291259766,-4.76723575592041
1747978557618071000,8.949071044921874,-10.773696899414062,7.7713117599487305,-6.233932971954346
1747978557636337400,8.96733740234375,-13.770408630371094,4.098286151885986,-0.4721546173095703
1747978557654596600,8.9855966796875,-14.494698524475098,-2.9434595108032227,0.09871149063110352
1747978557672865800,9.00386572265625,-2.1190149784088135,-3.393437385559082,-5.5747785568237305
1747978557691135000,9.022135009765625,10.60399341583252,-3.3215370178222656,-12.651666641235352
1747978557709393700,9.0403935546875,2.289625883102417,-8.946866035461426,-15.70072078704834
1747978557727663900,9.058663818359374,5.489459037780762,-12.511492729187012,-9.938488006591797
1747978557745929500,9.076929443359376,12.806499481201172,-7.872946739196777,-5.045079708099365
1747978557764193800,9.09519384765625,11.610955238342285,-2.447821617126465,1.1275473833084106
1747978557782463000,9.113462890625,13.331108093261719,-8.346039772033691,1.4205143451690674
1747978557800726300,9.131726318359375,17.940561294555664,-23.202632904052734,8.128632545471191
1747978557818991900,9.149991943359375,10.13453483581543,-27.956527709960938,15.35129165649414
1747978557837246700,9.168246826171876,2.894968271255493,-27.275287628173828,11.905056953430176
1747978557855523000,9.186523193359376,3.3991799354553223,-21.993637084960938,19.276744842529297
1747978557873788000,9.204787841796875,-57.485389709472656,-13.729788780212402,43.618080139160156
1747978557892053200,9.22305322265625,-30.080890655517578,-1.2393264770507812,22.41554832458496
1747978557910308900,9.241308837890625,1.9047753810882568,3.0535335540771484,10.968179702758789
1747978557928584200,9.259584228515624,4.403377532958984,1.6612234115600586,9.263943672180176
1747978557946854000,9.27785400390625,-1.0401993989944458,4.7698493003845215,6.990094184875488
1747978557965114000,9.296114013671875,-2.9818406105041504,8.193782806396484,2.843644380569458
1747978557983379000,9.31437890625,-2.440491199493408,10.35822582244873,0.374187171459198
1747978558001642800,9.332642822265624,-1.1276679039001465,11.586950302124023,-0.880096435546875
1747978558019912000,9.350911865234375,-2.010744094848633,12.62060832977295,-1.148930549621582
1747978558038180000,9.36918017578125,-12.998194694519043,13.189070701599121,-3.7682790756225586
1747978558056445400,9.387445556640625,-4.955488204956055,11.300871849060059,-4.756834983825684
1747978558074709800,9.405709716796874,-0.5651448965072632,9.842080116271973,-4.623165130615234
1747978558092975600,9.4239755859375,0.9458268880844116,9.134928703308105,-3.7282252311706543
1747978558111241200,9.4422412109375,0.35038644075393677,8.200430870056152,-1.9147920608520508
1747978558129507600,9.460507568359375,0.2377544343471527,7.802582740783691,-1.5705504417419434
1747978558147772400,9.4787724609375,-11.512260437011719,3.115738868713379,1.9355225563049316
1747978558166038000,9.4970380859375,-18.509252548217773,-43.126243591308594,16.623611450195312
1747978558184289800,9.515289794921875,2.4196581840515137,-66.8758773803711,25.35329246520996
1747978558202558500,9.533558349609375,-12.251422882080078,-37.40583038330078,33.96937561035156
1747978558220834800,9.551834716796876,-6.470466613769531,-9.531866073608398,18.096010208129883
1747978558239103200,9.570103271484374,3.2623531818389893,0.0019073486328125,7.052538871765137
1747978558257361400,9.588361328125,8.911285400390625,3.6253743171691895,-1.0757665634155273
1747978558275632000,9.606632080078125,11.096908569335938,6.831092357635498,-5.091625213623047
1747978558293897200,9.624897216796874,10.389331817626953,6.309212684631348,-7.947564125061035
1747978558312162600,9.64316259765625,10.702823638916016,5.146088600158691,-7.062002182006836
1747978558330428400,9.661428466796876,10.826339721679688,5.18912410736084,-4.94905948638916
1747978558348695000,9.679695068359376,10.885018348693848,5.889816761016846,-2.546276807785034
1747978558366959600,9.697959716796875,22.55423927307129,9.961409568786621,-2.597646474838257
1747978558385224700,9.716224609375,25.371395111083984,13.581222534179688,-8.809255599975586
1747978558403490600,9.734490478515625,21.332185745239258,17.128677368164062,-15.806057929992676
1747978558421757400,9.75275732421875,7.158398151397705,15.357857704162598,-10.625164985656738
1747978558440021800,9.771021728515626,-1.33005690574646,9.717724800109863,-7.941887855529785
1747978558458287400,9.789287353515626,-18.072416305541992,4.794164657592773,-7.1245293617248535
1747978558476553000,9.807552978515625,-14.271130561828613,-0.38372135162353516,-0.8205356597900391
1747978558494818600,9.825818603515625,-18.07508087158203,-7.120765686035156,0.9787964820861816
1747978558513080600,9.84408056640625,-15.62249755859375,-16.841304779052734,-0.16476678848266602
1747978558531349000,9.862348876953124,7.868410110473633,-11.706605911254883,-9.295418739318848
1747978558549611800,9.88061181640625,23.881147384643555,-20.016027450561523,-18.698585510253906
1747978558567875800,9.898875732421875,13.035633087158203,-18.504465103149414,-5.4769487380981445
1747978558586146300,9.917146240234375,5.306305408477783,-11.689521789550781,-1.1047568321228027
1747978558604407800,9.93540771484375,6.38474702835083,-0.3652677536010742,-0.053055763244628906
1747978558622677800,9.953677734375,5.850841522216797,2.2590885162353516,-1.3027812242507935
1747978558640944400,9.9719443359375,8.290669441223145,-5.923478126525879,-0.788162112236023
1747978558659208400,9.99020849609375,11.33037281036377,-20.960908889770508,8.017261505126953
1747978558709439000,10.04043896484375,1.2289339303970337,-21.52912139892578,35.199092864990234
1747978558727702300,10.058702392578125,-60.88763427734375,-8.548035621643066,38.59047317504883
1747978558745969200,10.07696923828125,-23.914398193359375,2.416105270385742,22.518802642822266
1747978558764231000,10.09523095703125,-0.5748392343521118,2.4199938774108887,11.963844299316406
1747978558782503700,10.113503662109375,2.989514112472534,1.1497440338134766,9.161876678466797
1747978558800764700,10.1317646484375,-1.3452833890914917,4.376029968261719,7.232691287994385
1747978558819031800,10.15003173828125,-3.2320642471313477,8.313379287719727,2.6965372562408447
1747978558837296000,10.168296142578125,-6.25141716003418,10.417222023010254,0.3663032650947571
1747978558855562800,10.186562744140625,-9.885394096374512,11.921144485473633,0.463341623544693
1747978558873825500,10.204825439453124,-4.91737174987793,11.607471466064453,-0.5789491534233093
1747978558892095000,10.223094970703125,-2.166717767715454,10.54365348815918,-1.1229934692382812
1747978558910362600,10.241362548828125,-0.6783688068389893,9.894484519958496,-2.22128963470459
1747978558928625400,10.25962548828125,-0.3733149766921997,9.862586975097656,-3.0795376300811768
1747978558946889500,10.277889404296875,-1.1468591690063477,9.739815711975098,-2.80411696434021
1747978558965152300,10.29615234375,-0.6020621061325073,9.268808364868164,-1.5899300575256348
1747978558976573000,10.307572998046876,-0.8600820302963257,8.520123481750488,-0.8842858672142029
1747978558994837000,10.3258369140625,-0.6138077974319458,8.073225021362305,-0.756485104560852
1747978559013099300,10.344099365234374,-0.4729920029640198,5.316201686859131,3.4585533142089844
1747978559031368700,10.36236865234375,-13.914509773254395,-50.34751892089844,23.664033889770508
1747978559049634800,10.380634765625,3.2810463905334473,-68.12427520751953,45.78951644897461
1747978559067895300,10.398895263671875,-20.330543518066406,-25.4139404296875,21.982799530029297
1747978559086165200,10.417165283203126,-3.58284854888916,-6.164302825927734,9.363699913024902
1747978559104432000,10.43543212890625,5.9624223709106445,-1.8067522048950195,1.8168573379516602
1747978559122696700,10.45369677734375,9.055213928222656,-0.22925138473510742,-1.8986878395080566
1747978559140962800,10.471962890625,8.264312744140625,3.705996036529541,-4.880152702331543
1747978559159228200,10.490228271484375,9.73739242553711,5.424229145050049,-7.606827259063721
1747978559177489200,10.5084892578125,9.618663787841797,4.617907524108887,-8.344703674316406
1747978559195757600,10.526757568359375,8.922561645507812,5.006673812866211,-7.312041759490967
1747978559214013400,10.545013427734375,7.613368034362793,6.339242935180664,-5.933122634887695
1747978559257401600,10.588401611328125,15.12499713897705,12.530710220336914,-5.616509437561035
1747978559275669800,10.606669677734375,16.609210968017578,14.291200637817383,-10.014240264892578
1747978559293937000,10.62493701171875,12.540755271911621,19.523303985595703,-6.1158599853515625
1747978559312200700,10.64320068359375,4.904855251312256,11.49642562866211,-7.454310417175293
1747978559330467800,10.6614677734375,0.9243049025535583,7.835300922393799,-6.263226509094238
1747978559348727600,10.6797275390625,-10.765071868896484,4.253974437713623,-4.103316307067871
1747978559366998300,10.697998291015624,-24.776554107666016,-5.658882141113281,2.05489444732666
1747978559385264400,10.716264404296876,-21.64687728881836,-8.228079795837402,3.0414819717407227
1747978559403530200,10.7345302734375,15.724089622497559,-8.918085098266602,-19.7176513671875
1747978559421793800,10.752793701171875,15.756040573120117,-26.131479263305664,-26.91548728942871
1747978559440062500,10.7710625,12.217873573303223,-30.358745574951172,-9.645753860473633
1747978559458325500,10.789325439453124,9.294486999511719,-11.403765678405762,0.6939053535461426
1747978559476592600,10.807592529296874,9.914587020874023,-0.8703680038452148,0.6342631578445435
1747978559494855700,10.825855712890625,12.865400314331055,-4.75506591796875,4.419862747192383
1747978559513125000,10.844125,15.952619552612305,-13.341917037963867,14.013260841369629
1747978559531382000,10.862382080078126,9.044283866882324,-24.760482788085938,12.242005348205566
1747978559549652500,10.880652587890625,6.578776836395264,-23.470848083496094,18.52822494506836
1747978559567901700,10.898901611328125,5.876223087310791,-20.080957412719727,38.68622589111328
1747978559586186500,10.9171865234375,-72.66857147216797,-15.912029266357422,45.805267333984375
1747978559604445400,10.935445556640625,-25.038951873779297,-1.473989486694336,25.135677337646484
1747978559622717200,10.95371728515625,4.46038293838501,-0.4754676818847656,8.64195728302002
1747978559640981800,10.971981689453125,4.571525573730469,0.5295619964599609,6.748104095458984
1747978559659248400,10.990248291015625,-1.1559839248657227,5.609759330749512,6.0861639976501465
1747978559677512700,11.0085126953125,-3.4639999866485596,9.70589542388916,2.6877856254577637
1747978559695779600,11.026779541015625,-16.44315528869629,13.567983627319336,5.3435163497924805
1747978559714044000,11.0450439453125,-8.101078987121582,12.448579788208008,3.2109854221343994
1747978559732311000,11.06331103515625,-3.0255050659179688,12.042499542236328,1.737673282623291
1747978559750574800,11.081574951171875,-1.923801064491272,11.745019912719727,0.9277911186218262
1747978559768840700,11.0998408203125,-1.6222716569900513,11.637529373168945,0.2859190106391907
1747978559787107600,11.118107666015625,-1.5090924501419067,10.93151569366455,-0.4620225429534912
1747978559805368300,11.136368408203126,-0.648500919342041,10.11484146118164,-0.7027024626731873
1747978559825922300,11.15692236328125,-1.1269429922103882,8.494122505187988,-0.8717055320739746
1747978559844187400,11.1751875,-1.627032995223999,5.878117084503174,5.648066520690918
1747978559862452700,11.19345263671875,-7.110261917114258,-7.573349952697754,17.735519409179688
1747978559880714800,11.21171484375,8.503231048583984,-52.0175666809082,37.16715621948242
1747978559898983400,11.2299833984375,6.502770900726318,-48.646690368652344,32.78358840942383
1747978559917250600,11.24825048828125,-37.31885528564453,-15.642412185668945,13.135986328125
1747978559935515000,11.266514892578124,-15.007203102111816,-9.293050765991211,5.497045993804932
1747978559953782500,11.284782470703124,-1.3153353929519653,-5.826554775238037,5.992668628692627
1747978559972045800,11.3030458984375,10.133001327514648,-0.5990967750549316,0.3464994430541992
1747978559990311400,11.3213115234375,16.539762496948242,6.362306118011475,-5.588679313659668
1747978560008577500,11.33957763671875,13.570804595947266,9.586027145385742,-8.050495147705078
1747978560026839000,11.357839111328126,11.6705904006958,7.828747272491455,-8.880308151245117
1747978560045103900,11.376103759765625,12.468292236328125,4.739345550537109,-9.362930297851562
1747978560063374300,11.394374267578126,13.725120544433594,6.03358268737793,-9.744275093078613
1747978560081639700,11.4126396484375,14.203646659851074,9.617317199707031,-8.697019577026367
1747978560099906300,11.43090625,15.938202857971191,12.254512786865234,-16.873226165771484
1747978560118171100,11.449171142578125,3.493535041809082,13.23300552368164,-9.722344398498535
1747978560136431600,11.467431640625,-0.47834742069244385,7.008272647857666,-11.741445541381836
1747978560154701600,11.48570166015625,-17.612865447998047,1.2909317016601562,-12.702484130859375
1747978560172969000,11.503968994140624,-35.697418212890625,-12.7133150100708,1.7039308547973633
1747978560191233300,11.5222333984375,12.214095115661621,-7.803776741027832,-7.856664657592773
1747978560209499000,11.540498779296875,19.789043426513672,-8.802806854248047,-17.23052215576172
1747978560227764200,11.55876416015625,9.257232666015625,-7.530094146728516,-10.743905067443848
1747978560246030800,11.57703076171875,12.860630989074707,-10.9730806350708,-11.193734169006348
1747978560264295700,11.595295654296875,15.577859878540039,-12.665740966796875,-4.691730976104736
1747978560282560500,11.613560546875,6.502019882202148,-7.022560119628906,1.730564832687378
1747978560300827400,11.631827392578124,7.216487884521484,-8.867256164550781,7.441604137420654
1747978560319088600,11.650088623046875,13.761709213256836,-21.268409729003906,18.84657859802246
1747978560337353700,11.668353759765624,20.191059112548828,-33.434024810791016,24.64604949951172
1747978560355623400,11.68662353515625,-6.0293288230896,-31.516799926757812,46.38494873046875
1747978560373888800,11.704888671875,-59.48126220703125,-10.794267654418945,36.38689422607422
1747978560392151000,11.723151123046875,-12.040938377380371,3.996407985687256,22.375898361206055
1747978560410419500,11.74141943359375,-5.589804649353027,4.439169406890869,6.764101028442383
1747978560428686300,11.759686279296876,8.84591293334961,-0.018627166748046875,4.960497856140137
1747978560446951400,11.777951416015625,0.217515230178833,2.7386512756347656,4.901008605957031
1747978560465218000,11.796218017578125,-11.628973007202148,4.631696701049805,-1.2655901908874512
1747978560483482000,11.814482177734375,-8.370760917663574,8.732024192810059,12.104429244995117
1747978560501748000,11.832748046875,-6.771871566772461,11.3892183303833,12.341269493103027
1747978560520013600,11.851013671875,-3.9837794303894043,13.509456634521484,7.913676738739014
1747978560538280400,11.869280517578124,0.20046281814575195,12.784940719604492,3.461638927459717
1747978560556544300,11.887544189453125,-0.23494982719421387,13.396955490112305,3.4465737342834473
1747978560574811100,11.90581103515625,-1.8101463317871094,12.728744506835938,3.807039976119995
1747978560593079000,11.9240791015625,-5.010784149169922,8.138859748840332,4.337782859802246
1747978560611342600,11.942342529296875,-7.857583522796631,1.8066301345825195,13.35586929321289
1747978560629607200,11.960607177734374,-5.536348342895508,-9.714361190795898,21.4277286529541
1747978560647868000,11.978867919921875,-5.905129432678223,-42.76884460449219,35.566158294677734
1747978560666126800,11.997126953125,17.268991470336914,-58.96563720703125,35.38246536254883
1747978560684405200,12.0154052734375,-23.211124420166016,-44.22160339355469,21.045894622802734
1747978560702669300,12.03366943359375,-19.639692306518555,-16.97191619873047,1.3385567665100098
1747978560720934700,12.0519345703125,-4.072235584259033,-9.21749496459961,-0.27611637115478516
1747978560739196000,12.07019580078125,6.444175720214844,-5.738697528839111,-1.5111708641052246
1747978560757463000,12.088463134765625,15.888334274291992,-0.9429688453674316,-5.392995834350586
1747978560775732000,12.10673193359375,21.348857879638672,3.6675798892974854,-7.738316535949707
1747978560793996500,12.12499658203125,24.400968551635742,4.6132378578186035,-9.69369888305664
1747978560812262400,12.143262451171875,24.688459396362305,8.181055068969727,-7.709743499755859
1747978560830529300,12.161529296875,32.542049407958984,13.195539474487305,-8.346776962280273
1747978560848794000,12.179794189453125,28.288188934326172,22.389888763427734,-13.215330123901367
1747978560867060700,12.198060791015624,2.683820962905884,4.758790016174316,-13.657636642456055
1747978560885325000,12.216324951171876,-16.50797462463379,2.0799713134765625,-18.720346450805664
1747978560903586800,12.2345869140625,-16.95377540588379,-0.25507497787475586,-24.194190979003906
1747978560921855500,12.25285546875,-13.385032653808594,-7.71401309967041,-17.258758544921875
1747978560940118300,12.2711181640625,-20.398473739624023,-8.49448299407959,5.615041255950928
1747978560958387200,12.28938720703125,12.177988052368164,-4.234867572784424,-14.147165298461914
1747978560976653800,12.30765380859375,17.91608428955078,-13.990936279296875,-24.680213928222656
1747978560994918100,12.325918212890626,12.824409484863281,-20.906103134155273,-15.370155334472656
1747978561013184000,12.34418408203125,27.40332794189453,-32.727237701416016,-13.048425674438477
1747978561031449300,12.362449462890625,12.889969825744629,-21.26082992553711,2.9449191093444824
1747978561049716200,12.38071630859375,6.598455429077148,-8.9937744140625,8.295635223388672
1747978561067981600,12.398981689453125,7.417836666107178,-14.026315689086914,18.1348934173584
1747978561086246400,12.417246337890624,6.655558109283447,-28.563419342041016,31.21103286743164
1747978561104503300,12.43550341796875,8.384492874145508,-38.773048400878906,49.59056091308594
1747978561122778000,12.453778076171876,-48.68229675292969,-20.712799072265625,64.88673400878906
1747978561141043200,12.472043212890625,-41.95746612548828,0.6881093978881836,25.818538665771484
1747978561159303700,12.4903037109375,-3.2682292461395264,9.25545883178711,8.32632827758789
1747978561177573000,12.508572998046875,14.227922439575195,4.303935527801514,5.863066673278809
1747978561195841300,12.52684130859375,2.621399164199829,8.541955947875977,7.501297950744629
1747978561214100000,12.545099853515625,-5.309296607971191,9.65505313873291,3.6962392330169678
1747978561232370700,12.56337060546875,-10.845101356506348,10.181560516357422,2.062859296798706
1747978561250631200,12.581631103515624,-14.800674438476562,14.920351028442383,0.13193148374557495
1747978561268890000,12.59989013671875,-4.0006890296936035,11.429815292358398,0.21405284106731415
1747978561287155700,12.61815576171875,-0.6712005138397217,9.112024307250977,0.01009419560432434
1747978561305434000,12.63643408203125,-1.390472650527954,8.899933815002441,-0.2291628122329712
1747978561323696000,12.654696044921875,-2.8087546825408936,7.782960891723633,1.0836877822875977
1747978561357934800,12.688934814453125,-5.413957595825195,0.8801183700561523,11.224505424499512
1747978561376210700,12.707210693359375,-3.9401073455810547,-10.260082244873047,21.46017074584961
1747978561394464300,12.72546435546875,-0.138458251953125,-45.296146392822266,41.19427490234375
1747978561412742100,12.7437421875,21.217187881469727,-58.86375045776367,63.588279724121094
1747978561431007000,12.762007080078124,-37.844356536865234,-36.945125579833984,6.719143390655518
1747978561449273000,12.780273193359376,-9.45051097869873,-18.01810073852539,-3.7475857734680176
1747978561467538200,12.7985380859375,1.908768892288208,-8.657113075256348,-5.211669921875
1747978561485798400,12.81679833984375,13.251652717590332,-0.9483132362365723,-7.520944118499756
1747978561504069000,12.835069091796875,22.588781356811523,1.6283345222473145,-9.641756057739258
1747978561522336500,12.85333642578125,24.7510929107666,1.0007128715515137,-11.941194534301758
1747978561540600600,12.8716005859375,29.758459091186523,-0.6746058464050293,-16.905662536621094
1747978561558867000,12.889866943359374,22.886926651000977,5.075859069824219,-13.815707206726074
1747978561577131500,12.908131591796876,38.68267059326172,23.38106918334961,-13.320832252502441
1747978561595393000,12.92639306640625,9.68118953704834,16.30340003967285,-18.646589279174805
1747978561613662700,12.944662841796875,-20.443923950195312,1.759286880493164,-16.138864517211914
1747978561631928800,12.9629287109375,-11.691265106201172,1.7355976104736328,-16.285667419433594
1747978561650194000,12.98119384765625,-11.831066131591797,-1.9521923065185547,-23.714946746826172
1747978561668453000,12.999453125,-11.256012916564941,-3.8550353050231934,-10.981945037841797
1747978561686725600,13.0177255859375,-7.443949222564697,-4.018471717834473,-2.100694179534912
1747978561704990200,13.035990234375,-0.05784916877746582,-1.915318489074707,-3.3963255882263184
1747978561723257000,13.054257080078125,13.817069053649902,-5.683559417724609,-12.43845272064209
1747978561741517300,13.072517333984376,7.559865951538086,-32.892578125,-22.61167335510254
1747978561759788300,13.090788330078125,23.17586326599121,-62.22451400756836,-9.500137329101562
1747978561778054700,13.1090546875,14.287952423095703,-26.627208709716797,7.566079139709473
1747978561796318500,13.127318359375,7.758604049682617,-3.578287124633789,7.187654495239258
1747978561814584300,13.145584228515625,8.51113510131836,-2.2174196243286133,14.618886947631836
1747978561832846600,13.1638466796875,9.275008201599121,-12.399065971374512,23.050861358642578
1747978561851113700,13.18211376953125,11.23949909210205,-19.263412475585938,45.3095817565918
1747978561869375700,13.200375732421875,-6.990664005279541,-28.812841415405273,72.46308135986328
1747978561887646500,13.218646484375,-75.87928009033203,-9.383464813232422,38.23063659667969
1747978561905912000,13.236912109375,-12.638628005981445,4.870603561401367,18.690092086791992
1747978561924178000,13.255177978515626,2.409477710723877,8.029189109802246,9.169943809509277
1747978561942442800,13.27344287109375,6.675637722015381,7.283296585083008,8.126561164855957
1747978561960708600,13.29170849609375,-0.11918210983276367,10.201969146728516,5.060056209564209
1747978561978974200,13.30997412109375,-3.249298572540283,11.468531608581543,2.505376100540161
1747978561997240000,13.328239990234374,-2.243623733520508,10.166178703308105,-1.161064624786377
1747978562015504000,13.34650390625,-2.548252820968628,9.369989395141602,-2.8443527221679688
1747978562033772000,13.36477197265625,-2.518040180206299,8.897891998291016,-3.369128942489624
1747978562052036600,13.38303662109375,-2.2625627517700195,9.022186279296875,-3.867711305618286
1747978562070302000,13.401302001953125,-2.759927749633789,9.066720962524414,-3.3831465244293213
1747978562088562400,13.4195625,-3.619715690612793,8.783429145812988,-2.213561534881592
1747978562106832100,13.43783203125,-12.952777862548828,7.764469146728516,-1.1926556825637817
1747978562125098500,13.456098388671874,-7.941840171813965,5.747175216674805,1.381848692893982
1747978562143361300,13.474361328125,-0.07889324426651001,5.437232494354248,2.982848882675171
1747978562161629700,13.492629638671875,-0.700243353843689,-2.6850099563598633,17.70803451538086
1747978562179893000,13.51089306640625,-12.717110633850098,-40.28306579589844,49.678619384765625
1747978562198163200,13.5291630859375,7.184147834777832,-70.17354583740234,22.589590072631836
1747978562216426800,13.5474267578125,-16.828746795654297,-26.202102661132812,38.77033233642578
1747978562234691800,13.56569189453125,-12.414382934570312,-11.503976821899414,1.7285065650939941
1747978562252957700,13.583957763671876,-3.784553050994873,-3.377467155456543,2.452639579772949
1747978562271221800,13.6022216796875,5.945767402648926,2.114346981048584,-0.9962348937988281
1747978562289490200,13.620490234375,15.228976249694824,1.6092703342437744,-5.422310829162598
1747978562307754000,13.63875390625,21.922578811645508,-0.18047809600830078,-8.850408554077148
1747978562326019800,13.657019775390625,35.48729705810547,-3.688781261444092,-11.598880767822266
1747978562344280300,13.6752802734375,29.983301162719727,-1.1022992134094238,-12.643585205078125
1747978562362551000,13.693551025390626,20.449932098388672,9.00402545928955,-11.763782501220703
1747978562380815000,13.711815185546875,20.868175506591797,22.12264060974121,-8.924311637878418
1747978562399083000,13.7300830078125,10.304920196533203,17.565319061279297,-11.236858367919922
1747978562417347300,13.748347412109375,2.4146862030029297,3.4510300159454346,-13.034854888916016
1747978562435613000,13.766613037109375,-17.081863403320312,0.830024242401123,-23.200550079345703
1747978562453878300,13.784878173828124,-18.48151969909668,-0.30521106719970703,-23.68084716796875
1747978562472144000,13.803143798828126,-5.260140419006348,-0.38898658752441406,-9.801900863647461
1747978562490406000,13.821406005859375,-4.142267227172852,-3.787766933441162,-3.023453712463379
1747978562508675300,13.83967529296875,-11.349349975585938,-5.507109642028809,-0.8927655220031738
1747978562526940700,13.857940673828125,9.416170120239258,-8.82927131652832,-15.755959510803223
1747978562545206300,13.876206298828125,-38.70039749145508,-61.136539459228516,-24.448211669921875
1747978562563469600,13.894469482421876,28.107152938842773,-42.708168029785156,-1.2896616458892822
1747978562581739800,13.91273974609375,31.021989822387695,-3.8126182556152344,8.887313842773438
1747978562599998000,13.930998046875,15.415306091308594,1.580606460571289,5.567816734313965
1747978562618267100,13.94926708984375,11.822867393493652,-4.907210350036621,7.960143566131592
1747978562636535300,13.967535400390625,15.423460006713867,-18.256546020507812,27.596752166748047
1747978562654798600,13.985798583984375,17.369421005249023,-29.477495193481445,50.64138412475586
1747978562673064000,14.00406396484375,12.748146057128906,-30.645904541015625,46.08576965332031
1747978562691330600,14.02233056640625,-144.9166259765625,-27.26874542236328,34.64104461669922
1747978562709591600,14.040591552734375,-4.215771675109863,-0.7090320587158203,16.227346420288086
1747978562727862000,14.058862060546875,7.319839954376221,3.58345365524292,9.390003204345703
1747978562746127000,14.077127197265625,1.777083396911621,7.218209266662598,10.220782279968262
1747978562764388000,14.09538818359375,-1.582994818687439,9.569454193115234,4.981391906738281
1747978562782654700,14.11365478515625,-1.0065901279449463,11.937138557434082,-0.25092029571533203
1747978562800924400,14.13192431640625,-3.210944890975952,14.915117263793945,-0.6749629974365234
1747978562819189000,14.15018896484375,-14.440876007080078,13.323930740356445,-0.9038585424423218
1747978562837455000,14.168455078125,-8.169172286987305,13.07275390625,1.5784655809402466
1747978562855715800,14.1867158203125,-1.244768738746643,11.440205574035645,0.2933218479156494
1747978562873984800,14.20498486328125,-0.6559669971466064,10.710970878601074,-0.3756831884384155
1747978562892252700,14.223252685546875,-1.674233078956604,10.12912654876709,-0.15623268485069275
1747978562910517200,14.241517333984374,-3.9677891731262207,8.915688514709473,-0.038926899433135986
1747978562928782800,14.259782958984376,-3.897402763366699,7.176103115081787,1.7888911962509155
1747978562947048400,14.27804833984375,-2.428292751312256,2.774965763092041,10.735307693481445
1747978562965313500,14.2963134765625,-14.195154190063477,-17.461898803710938,38.02366638183594
1747978562983579100,14.3145791015625,-2.943887710571289,-56.33796691894531,18.557323455810547
1747978563001843700,14.33284375,18.29800796508789,-58.13480758666992,30.679170608520508
1747978563020111600,14.351111572265625,-8.877176284790039,-21.284618377685547,34.26092529296875
1747978563038371000,14.36937109375,-13.624852180480957,-9.903205871582031,11.570629119873047
1747978563056641500,14.3876416015625,-3.790536403656006,-4.031362056732178,6.11982536315918
1747978563074906600,14.40590673828125,8.341070175170898,1.2418131828308105,-1.9206743240356445
1747978563093173000,14.424173095703125,15.645491600036621,1.140085220336914,-5.153809547424316
1747978563111433000,14.442432861328125,27.63079833984375,-0.5120635032653809,-8.245655059814453
1747978563129698000,14.460697998046875,45.10010528564453,-2.802335262298584,-11.118257522583008
1747978563147970300,14.47897021484375,33.91117477416992,3.468093156814575,-11.448738098144531
1747978563166235100,14.497235107421876,15.757272720336914,12.255422592163086,-10.469603538513184
1747978563184499700,14.515499755859375,10.3516845703125,15.441228866577148,-8.447535514831543
1747978563202761200,14.53376123046875,5.156468391418457,11.804071426391602,-10.429605484008789
1747978563221028400,14.5520283203125,2.9462132453918457,3.0843634605407715,-18.6174373626709
1747978563239300000,14.570300048828125,-21.291492462158203,-1.6598472595214844,-24.129589080810547
1747978563257559600,14.5885595703125,-22.387245178222656,-5.453383922576904,-23.156169891357422
1747978563275829000,14.6068291015625,-7.1255998611450195,-5.307754993438721,-8.692663192749023
1747978563294094600,14.625094482421876,-5.871791839599609,-3.2803502082824707,-0.7206659317016602
1747978563312362500,14.643362548828126,4.132229804992676,0.7597818374633789,-6.715598106384277
1747978563330624500,14.66162451171875,16.343374252319336,-10.224584579467773,-25.323257446289062
1747978563348890000,14.67989013671875,-26.172256469726562,-32.11406707763672,-9.869949340820312
1747978563367155700,14.69815576171875,21.459213256835938,-32.57332229614258,-11.341164588928223
1747978563385423000,14.716423095703124,25.508520126342773,-12.356621742248535,-0.16062331199645996
1747978563403687700,14.734687744140626,12.58790397644043,-0.046466827392578125,1.8749970197677612
1747978563421952300,14.7529521484375,9.893234252929688,-6.739171028137207,8.369732856750488
1747978563440217900,14.7712177734375,12.696113586425781,-26.22970199584961,25.386632919311523
1747978563458478800,14.789478759765625,13.737857818603516,-32.31442642211914,50.88108444213867
1747978563476740600,14.80774072265625,7.3418378829956055,-22.712268829345703,43.50518798828125
1747978563495013400,14.826013427734376,-134.5154266357422,-18.404865264892578,32.01484298706055
1747978563513267700,14.844267822265625,-7.11665153503418,1.0391931533813477,18.077058792114258
1747978563531546000,14.862546142578125,5.517865180969238,4.068307876586914,9.516824722290039
1747978563549809200,14.88080908203125,1.300417184829712,5.508916854858398,7.74804162979126
1747978563568065500,14.8990654296875,-1.7414261102676392,8.08254337310791,4.003143787384033
1747978563586342400,14.91734228515625,-0.5193674564361572,11.553762435913086,0.20885786414146423
1747978563604607700,14.935607666015626,-4.5251922607421875,12.92037296295166,1.079496145248413
1747978563622872800,14.953872802734375,-17.365989685058594,14.797727584838867,1.872766137123108
1747978563641137700,14.9721376953125,-2.5089855194091797,13.005231857299805,0.9846231937408447
1747978563659401500,14.9904013671875,-1.212900161743164,11.452467918395996,-0.35502639412879944
1747978563677670100,15.008670166015625,-1.700513482093811,10.385456085205078,-0.9081242084503174
1747978563695934700,15.026934814453124,-3.3610148429870605,8.9453706741333,-0.7987104654312134
1747978563714196000,15.045196044921875,-1.8080906867980957,7.245809555053711,1.072642207145691
1747978563732465000,15.06346484375,-3.3343424797058105,1.4149680137634277,11.626620292663574
1747978563750733300,15.0817333984375,-21.29949951171875,-26.820167541503906,45.02397918701172
1747978563768996900,15.099996826171875,-3.330476760864258,-69.9132308959961,25.302324295043945
1747978563787263200,15.11826318359375,9.856134414672852,-47.7019157409668,26.37056541442871
1747978563805528600,15.136528564453124,-9.092815399169922,-20.17991065979004,20.278982162475586
1747978563823793400,15.15479345703125,-5.991484642028809,-10.527838706970215,1.6036596298217773
1747978563842060000,15.17306005859375,0.5604168176651001,-4.468268871307373,-0.749638557434082
1747978563860325000,15.1913251953125,6.483426094055176,2.4031901359558105,-5.152956485748291
1747978563878590500,15.209590576171875,10.114114761352539,4.4682393074035645,-7.977695465087891
1747978563896855000,15.22785498046875,13.932336807250977,2.740412712097168,-10.202923774719238
1747978563915121400,15.246121337890624,23.321401596069336,1.4637422561645508,-9.531293869018555
1747978563933383400,15.264383544921875,39.084266662597656,-1.0938615798950195,-11.473036766052246
1747978563951653000,15.282653076171876,31.06735610961914,3.237288475036621,-8.731201171875
1747978563969913300,15.300913330078124,17.516843795776367,10.818536758422852,-9.995805740356445
1747978563988182300,15.319182373046875,8.082799911499023,12.653963088989258,-6.642378807067871
1747978564006450700,15.33745068359375,-1.0189876556396484,11.496734619140625,-3.080542802810669
1747978564024715000,15.355715087890625,-8.158864974975586,2.7049808502197266,-11.838855743408203
1747978564042980600,15.373980712890624,-11.80004596710205,-0.632357120513916,-18.095035552978516
1747978564061245700,15.39224560546875,-10.9810209274292,-5.3534111976623535,-18.881275177001953
1747978564079511600,15.410511474609375,-8.38552188873291,-9.106359481811523,-8.974602699279785
1747978564097777200,15.428777099609375,-13.120625495910645,-8.428828239440918,-1.957601547241211
1747978564116042500,15.44704248046875,12.632156372070312,-12.773286819458008,-20.445735931396484
1747978564134307800,15.465307861328125,-18.604604721069336,-30.05624008178711,-19.22225570678711
1747978564152573400,15.483573486328124,19.145877838134766,-22.10331153869629,-9.580329895019531
1747978564170837800,15.501837646484375,15.398622512817383,-4.47044563293457,-1.436577320098877
1747978564189105700,15.520105712890626,18.36581802368164,-0.7432718276977539,2.441899538040161
1747978564207365400,15.538365478515624,32.322296142578125,-17.469213485717773,22.750335693359375
1747978564225630700,15.556630615234376,19.28971290588379,-30.56856918334961,28.111143112182617
1747978564243900000,15.57489990234375,17.17458724975586,-32.593421936035156,47.74835205078125
1747978564262168000,15.59316796875,-18.11463165283203,-36.11280059814453,40.03274917602539
1747978564280431900,15.611431884765626,-85.79045104980469,-23.825820922851562,28.481037139892578
1747978564298698000,15.629697998046876,8.495399475097656,-2.7238197326660156,9.430455207824707
1747978564316963000,15.647963134765625,6.561765670776367,3.3895511627197266,9.870746612548828
1747978564335229400,15.6662294921875,-0.57471764087677,7.355606555938721,10.15822696685791
1747978564353493000,15.684492919921874,-2.6769068241119385,9.979451179504395,7.4692182540893555
1747978564371759900,15.702759765625,-15.89322566986084,17.847274780273438,9.84200382232666
1747978564390025200,15.721025146484376,-8.118824005126953,17.78793716430664,8.286137580871582
1747978564408291000,15.739291015625,0.48792243003845215,16.755773544311523,6.4787187576293945
1747978564426556200,15.75755615234375,-0.529247522354126,15.884271621704102,4.543605327606201
1747978564444820500,15.775820556640625,-1.8106427192687988,13.921367645263672,2.3953328132629395
1747978564463085800,15.7940859375,-2.4235315322875977,11.681661605834961,1.3633990287780762
1747978564481346300,15.81234619140625,-2.2904610633850098,9.601482391357422,0.8852008581161499
1747978564499614000,15.830614013671875,-1.555073618888855,7.4767913818359375,0.020546317100524902
1747978564517885200,15.84888525390625,0.3659685254096985,0.9434642791748047,6.559174060821533
1747978564536149500,15.8671494140625,-27.972501754760742,-42.42685317993164,49.08439254760742
1747978564554400000,15.88539990234375,19.8204402923584,-74.00725555419922,19.082008361816406
1747978564572675600,15.903675537109375,3.3041489124298096,-40.403656005859375,32.674949645996094
1747978564590930000,15.921929931640625,-23.6290283203125,-13.92889404296875,13.14456558227539
1747978564609211400,15.94021142578125,-9.587479591369629,-6.614134311676025,7.638328552246094
1747978564627477000,15.95847705078125,3.4675512313842773,0.39743709564208984,-1.5610146522521973
1747978564645742300,15.976742431640625,13.67573070526123,4.207483768463135,-4.880630016326904
1747978564664007700,15.995007568359375,19.23932647705078,4.714382171630859,-6.803433418273926
1747978564682273500,16.0132734375,22.888107299804688,3.1835501194000244,-8.757201194763184
1747978564700539000,16.031538818359376,25.275487899780273,2.04434871673584,-10.313385009765625
1747978564718803200,16.04980322265625,22.62468719482422,8.657066345214844,-6.112200736999512
1747978564737070800,16.06807080078125,22.1811580657959,13.54853630065918,-12.967329978942871
1747978564755334400,16.08633447265625,10.229366302490234,16.410526275634766,-9.441510200500488
1747978564773602300,16.104602294921875,3.430511236190796,8.363710403442383,-12.426015853881836
1747978564791866600,16.12286669921875,2.402527332305908,3.1408352851867676,-15.85716438293457
1747978564810131700,16.141131591796874,-5.495700359344482,0.14682292938232422,-18.10988998413086
1747978564828386300,16.15938623046875,-20.103609085083008,-6.734241008758545,-23.458650588989258
1747978564864928300,16.19592822265625,-18.16404914855957,-11.046382904052734,2.1838889122009277
1747978564883193900,16.21419384765625,13.304428100585938,-9.283218383789062,-16.067588806152344
1747978564901460000,16.2324599609375,-4.2616424560546875,-21.052047729492188,-18.617599487304688
1747978564919727900,16.250727783203125,11.981022834777832,-17.533573150634766,-9.040210723876953
1747978564937990700,16.26899072265625,11.685577392578125,-5.626445770263672,-3.8191397190093994
1747978564956256300,16.28725634765625,14.422146797180176,-3.189943313598633,2.6944668292999268
1747978564974521300,16.305521240234373,30.64055633544922,-18.871845245361328,25.104883193969727
1747978564992788500,16.32378857421875,17.521814346313477,-33.78382110595703,29.8045597076416
1747978565011050500,16.342050537109376,20.856346130371094,-28.560300827026367,44.22342300415039
1747978565029319400,16.3603193359375,-34.90524673461914,-30.651962280273438,35.43892288208008
1747978565047584000,16.378583984375,-48.496952056884766,-15.699566841125488,23.105510711669922
1747978565065851400,16.396851318359374,2.8965377807617188,-0.3648204803466797,7.697492599487305
1747978565084107800,16.415107666015626,3.1083977222442627,3.6971988677978516,7.87681770324707
1747978565102374100,16.4333740234375,-1.8516855239868164,7.160149097442627,7.86873722076416
1747978565120647200,16.451647216796875,-3.1280083656311035,10.265985488891602,4.6948041915893555
1747978565138911500,16.469911376953124,-17.9680118560791,15.156585693359375,7.476271629333496
1747978565157176600,16.488176513671874,-7.406418800354004,14.006912231445312,5.002043724060059
1747978565175442000,16.50644189453125,-1.2132999897003174,12.544567108154297,2.4848849773406982
1747978565193707800,16.524707763671874,-1.4944813251495361,13.384151458740234,1.9937835931777954
1747978565211973600,16.5429736328125,-2.352430820465088,12.785648345947266,0.4901167154312134
1747978565230238500,16.561238525390625,-2.3580033779144287,11.521340370178223,-0.5045717358589172
1747978565248504600,16.579504638671875,-1.8779833316802979,10.12801456451416,-0.3096139430999756
1747978565266770000,16.59777001953125,-1.1623071432113647,7.646905899047852,0.5311124324798584
1747978565285034500,16.616034423828125,-0.15893283486366272,-0.39467811584472656,11.636300086975098
1747978565303302000,16.634302001953124,-24.954404830932617,-35.666378021240234,42.32780838012695
1747978565321566500,16.65256640625,2.6121363639831543,-65.96773529052734,23.382339477539062
1747978565339824000,16.67082421875,1.4096615314483643,-38.1900520324707,30.657917022705078
1747978565358099700,16.689099609375,-26.426511764526367,-17.003747940063477,17.93975067138672
1747978565376358700,16.707358642578125,-8.540464401245117,-10.73953628540039,9.210845947265625
1747978565394630100,16.725630126953124,6.4687089920043945,-2.0518088340759277,-0.9959521293640137
1747978565412891000,16.743890869140625,11.79841423034668,4.2767744064331055,-5.7759013175964355
1747978565431162600,16.76216259765625,15.416583061218262,5.8655524253845215,-7.722928524017334
1747978565449420000,16.780419921875,21.96923828125,4.134079456329346,-7.780041217803955
1747978565467690000,16.79868994140625,34.397972106933594,0.4399528503417969,-9.818540573120117
1747978565485956000,16.8169560546875,33.041656494140625,0.4805288314819336,-9.397815704345703
1747978565504222000,16.835221923828126,26.353309631347656,10.479974746704102,-9.589179992675781
1747978565522486800,16.85348681640625,11.018757820129395,13.66628646850586,-8.188040733337402
1747978565540752600,16.871752685546873,-4.433754920959473,13.000234603881836,-4.259405136108398
1747978565559018000,16.89001806640625,-1.3221021890640259,5.040936470031738,-10.919266700744629
1747978565577283600,16.90828369140625,-12.547642707824707,2.2093505859375,-19.059371948242188
1747978565595543800,16.926543701171877,-12.223583221435547,-2.279867649078369,-24.516124725341797
1747978565613813200,16.944813232421875,-9.427664756774902,-5.482884407043457,-12.434720993041992
1747978565632084200,16.963084228515626,-16.07200050354004,-10.16125774383545,0.6380324363708496
1747978565650346800,16.9813466796875,11.156767845153809,-10.720159530639648,-17.873559951782227
1747978565668599600,16.999599609375,-2.4086804389953613,-34.20818328857422,-29.782564163208008
1747978565686876700,17.017876708984375,12.778682708740234,-30.824295043945312,-11.321171760559082
1747978565705140700,17.036140625,16.38805389404297,-8.177037239074707,0.6885185241699219
1747978565723404500,17.054404541015625,13.230077743530273,1.119084358215332,1.9290449619293213
1747978565741672400,17.07267236328125,21.03902244567871,-7.697908401489258,15.153083801269531
1747978565759938600,17.0909384765625,18.86089324951172,-31.971019744873047,27.65409278869629
1747978565778203100,17.109203125,18.209684371948242,-34.374290466308594,46.77587890625
1747978565796470500,17.127470458984376,-13.105987548828125,-34.536102294921875,37.33973693847656
1747978565814734600,17.145734619140626,-114.92716217041016,-22.45216178894043,24.197080612182617
1747978565833000700,17.164000732421876,1.7815663814544678,-5.000530242919922,15.493368148803711
1747978565851265800,17.182265869140625,9.626256942749023,1.7117705345153809,7.663691520690918
1747978565869531000,17.20053076171875,1.0319290161132812,5.616802215576172,8.92111587524414
1747978565887796700,17.218796630859377,-4.856597423553467,9.510972023010254,7.948047637939453
1747978565906063400,17.2370634765625,-18.602262496948242,16.16289520263672,13.136478424072266
1747978565924328000,17.255327880859376,-6.856258392333984,16.370445251464844,8.079538345336914
1747978565942589000,17.2735888671875,-0.04212784767150879,15.24790096282959,5.412779331207275
1747978565960859000,17.29185888671875,0.533236026763916,14.675751686096191,5.070956230163574
1747978565979124700,17.310124755859373,-2.237861156463623,13.459453582763672,3.187488079071045
1747978565997385500,17.328385498046874,-3.82058048248291,12.26802921295166,0.6086122989654541
1747978566015656000,17.346656005859376,-4.66839599609375,10.1048583984375,-0.6066285967826843
1747978566033920800,17.364920654296874,-4.824438571929932,7.319474697113037,0.18481004238128662
1747978566052186400,17.383186279296876,-3.416020393371582,0.9240741729736328,8.585083961486816
1747978566070452000,17.401451904296874,-21.926387786865234,-32.550804138183594,42.77244567871094
1747978566088717800,17.4197177734375,14.277812004089355,-65.69585418701172,28.829456329345703
1747978566106978000,17.43797802734375,14.558854103088379,-55.2374267578125,30.789852142333984
1747978566125247500,17.45624755859375,-31.048505783081055,-19.296302795410156,12.766040802001953
1747978566143515400,17.474515380859376,-14.384069442749023,-10.02025032043457,6.696670055389404
1747978566161780000,17.492780029296874,3.880955696105957,-4.162509441375732,-0.7562432289123535
1747978566180044800,17.511044921875,15.06659984588623,1.7653076648712158,-6.359435081481934
1747978566198310700,17.529310546875,19.378877639770508,3.1491479873657227,-7.667673110961914
1747978566216576000,17.547575927734375,21.3525333404541,3.435015916824341,-9.80657958984375
1747978566234840800,17.5658408203125,26.74370574951172,2.1186511516571045,-14.86648941040039
1747978566253108200,17.584108154296874,26.407453536987305,9.934560775756836,-12.080402374267578
1747978566271368000,17.602367919921875,25.430665969848633,21.171066284179688,-10.997394561767578
1747978566289633800,17.6206337890625,8.859607696533203,12.644668579101562,-11.34796142578125
1747978566307904000,17.638904052734375,0.6505694389343262,1.7631778717041016,-18.196802139282227
1747978566326168800,17.6571689453125,-12.64920425415039,-2.581921100616455,-29.028343200683594
1747978566344434700,17.6754345703125,-15.750450134277344,-5.606800079345703,-34.62342834472656
1747978566362700000,17.693699951171876,-3.054989814758301,-3.973865032196045,-15.31301498413086
1747978566380964600,17.711964599609374,1.0107039213180542,-4.430624961853027,-8.591843605041504
1747978566399232300,17.730232177734376,-11.66830062866211,-11.27402114868164,-6.022439956665039
1747978566417496800,17.748496826171873,-12.9957275390625,-42.03329849243164,-17.776403427124023
1747978566435762200,17.76676220703125,25.519697189331055,-51.14183807373047,-6.027576923370361
1747978566454022700,17.785022705078124,24.027042388916016,-16.534332275390625,10.941227912902832
1747978566472292000,17.8032919921875,12.042972564697266,-0.5169553756713867,3.4413185119628906
1747978566490557000,17.821556884765624,3.5451672077178955,-3.9070138931274414,7.590585708618164
1747978566508825900,17.839825927734374,12.675233840942383,-12.968172073364258,22.12062644958496
1747978566527091200,17.85809130859375,28.189146041870117,-24.122615814208984,44.22737503051758
1747978566545358300,17.8763583984375,1.283384084701538,-32.74394226074219,58.09634780883789
1747978566563620600,17.89462060546875,-108.2608871459961,-23.126224517822266,16.307201385498047
1747978566581886200,17.91288623046875,-8.57142448425293,-4.796820640563965,18.875524520874023
1747978566600151800,17.93115185546875,5.09928035736084,1.4951395988464355,7.078910827636719
1747978566618413000,17.9494130859375,5.255901336669922,4.389240741729736,8.351841926574707
1747978566636681500,17.967681396484377,-1.6679561138153076,9.591790199279785,7.3184356689453125
1747978566654949400,17.985949462890623,-12.395536422729492,11.09865665435791,6.628396511077881
1747978566673213400,18.00421337890625,-14.352489471435547,13.173349380493164,8.62030029296875
1747978566691479000,18.02247900390625,-6.970913410186768,12.247424125671387,7.421600818634033
1747978566709740300,18.040740234375,-0.41661953926086426,9.807809829711914,3.6101129055023193
1747978566728009000,18.059009033203125,-0.16166281700134277,10.068663597106934,1.2603800296783447
1747978566746261800,18.07726171875,-0.5152308940887451,10.336790084838867,0.30521339178085327
1747978566764541000,18.095541015625,-2.131265163421631,10.492462158203125,-0.3505261540412903
1747978566782805200,18.11380517578125,-2.9569339752197266,9.96180534362793,-0.4569833278656006
1747978566801073400,18.132073486328125,-3.856538772583008,6.785346031188965,1.1943514347076416
1747978566819337700,18.150337646484374,-1.308959722518921,1.7488722801208496,6.097133159637451
1747978566837602800,18.168602783203124,-11.34990119934082,-17.937253952026367,29.692434310913086
1747978566855868700,18.18686865234375,7.552516937255859,-61.730804443359375,42.13985824584961
1747978566874134000,18.205134033203127,20.8321533203125,-58.876007080078125,46.8380012512207
1747978566892395500,18.2233955078125,-39.56626892089844,-19.68730354309082,7.572652339935303
1747978566910665200,18.241665283203126,-22.944509506225586,-8.323234558105469,4.236634254455566
1747978566928930300,18.259930419921876,-3.1669139862060547,-3.4381227493286133,-1.323838233947754
1747978566947196200,18.278196044921874,12.715757369995117,0.4503364562988281,-5.917032241821289
1747978566965457200,18.29645703125,20.4910888671875,3.212948799133301,-5.887579917907715
1747978566983725800,18.314725830078125,23.46525764465332,4.34984827041626,-7.6637420654296875
1747978567001994000,18.332993896484375,28.542037963867188,3.685593366622925,-10.132078170776367
1747978567020258600,18.351258544921876,27.184223175048828,7.768883228302002,-9.198953628540039
1747978567038524200,18.369524169921874,23.63282012939453,15.053850173950195,-10.163398742675781
1747978567056789800,18.387789794921876,12.594301223754883,15.366852760314941,-7.588196754455566
1747978567075052300,18.40605224609375,2.3462002277374268,5.443427562713623,-10.51623249053955
1747978567093321700,18.42432177734375,-0.3485581874847412,0.31986331939697266,-14.215970039367676
1747978567111585800,18.442585693359376,-10.833399772644043,-2.877234935760498,-22.766681671142578
1747978567129852200,18.46085205078125,-14.696666717529297,-7.936678409576416,-28.007678985595703
1747978567148115700,18.47911572265625,-6.6736297607421875,-7.972238540649414,-13.141626358032227
1747978567166377200,18.497377197265624,-2.3647565841674805,-6.57174015045166,-5.868335723876953
1747978567184648000,18.51564794921875,-2.767457962036133,-2.843388557434082,-1.999281406402588
1747978567202913300,18.533913330078125,12.231290817260742,-9.655939102172852,-21.55100440979004
1747978567221179000,18.552178955078126,-32.313812255859375,-33.00886535644531,-16.683679580688477
1747978567239443200,18.570443115234376,16.613027572631836,-27.125534057617188,-11.048543930053711
1747978567257711400,18.58871142578125,20.03656005859375,-8.810688018798828,0.8265914916992188
1747978567275974400,18.606974365234375,21.443910598754883,-7.437699317932129,13.305183410644531
1747978567294240800,18.62524072265625,19.013687133789062,-31.323665618896484,29.778106689453125
1747978567312501800,18.643501708984374,12.578579902648926,-38.528377532958984,43.126678466796875
1747978567330772200,18.661772216796876,2.382103204727173,-26.60002326965332,47.44926452636719
1747978567349036800,18.680036865234374,-95.92182922363281,-25.557334899902344,19.938005447387695
1747978567367303000,18.698302978515624,-24.230426788330078,-6.564008712768555,23.006336212158203
1747978567385568000,18.716568115234374,0.9317965507507324,3.878847599029541,8.322494506835938
1747978567403833000,18.7348330078125,2.1040256023406982,5.241709232330322,8.403827667236328
1747978567422100200,18.753100341796873,-1.3386318683624268,8.981934547424316,5.689342975616455
1747978567440360700,18.771360595703126,-2.9850149154663086,10.892692565917969,2.8621320724487305
1747978567458630400,18.78963037109375,-1.918813943862915,14.63922119140625,1.8171896934509277
1747978567476892200,18.80789208984375,-4.7369489669799805,14.883934020996094,3.994472026824951
1747978567495158300,18.826158203125,-9.718917846679688,16.43996810913086,7.5936150550842285
1747978567513429800,18.8444296875,-6.241513252258301,14.748061180114746,3.9438514709472656
1747978567531690000,18.86268994140625,-3.463590145111084,12.19827938079834,1.2950880527496338
1747978567549960700,18.880960693359373,-2.7138218879699707,10.463083267211914,0.20046311616897583
1747978567568215600,18.899215576171876,-2.370616912841797,9.386309623718262,0.5325519442558289
1747978567586489000,18.917489013671876,-2.6379528045654297,7.402388572692871,2.531951427459717
1747978567604754200,18.935754150390625,-4.775094985961914,-4.247142791748047,16.15225601196289
1747978567623020300,18.954020263671875,-21.632726669311523,-52.45813751220703,42.31731414794922
1747978567641285000,18.97228515625,11.199387550354004,-71.11964416503906,6.982507705688477
1747978567659547400,18.99054736328125,-6.481085300445557,-36.360042572021484,24.788299560546875
1747978567677803300,19.00880322265625,-21.241531372070312,-13.487236022949219,16.037199020385742
1747978567696084200,19.027084228515626,-4.91563606262207,-8.298404693603516,7.84927225112915
1747978567714347300,19.04534716796875,5.826897621154785,-4.100321292877197,-0.16346979141235352
1747978567732612900,19.06361279296875,14.237805366516113,-2.0087623596191406,-6.158845901489258
1747978567750877400,19.08187744140625,19.492197036743164,-0.8661422729492188,-9.847228050231934
1747978567769145000,19.10014501953125,25.643386840820312,-0.3236103057861328,-10.13602352142334
1747978567787397400,19.1183974609375,38.61837387084961,-3.314462184906006,-14.23695182800293
1747978567805675000,19.136675048828124,29.645402908325195,1.4857397079467773,-11.078132629394531
1747978567823935000,19.15493505859375,13.587820053100586,8.998401641845703,-8.566604614257812
1747978567842204700,19.17320458984375,9.741316795349121,15.675653457641602,-4.743195533752441
1747978567860472000,19.19147216796875,-2.1541833877563477,14.104991912841797,-3.6751601696014404
1747978567878736600,19.209736572265626,-2.577843427658081,5.029257774353027,-10.000048637390137
1747978567897002000,19.228001953125,-10.84621810913086,2.252488613128662,-16.34358024597168
1747978567915268400,19.246268310546874,-11.699562072753906,-3.1498465538024902,-22.898298263549805
1747978567933533000,19.264532958984375,-25.575695037841797,-13.727127075195312,-15.473031997680664
1747978567951798000,19.282798095703125,8.15600872039795,-13.922807693481445,-19.74210548400879
1747978567970065400,19.3010654296875,-16.10289192199707,-41.87105941772461,-14.830429077148438
1747978567988330000,19.319330078125,14.492368698120117,-18.910362243652344,-8.047908782958984
1747978568006594800,19.3375947265625,16.528667449951172,-3.2227344512939453,-1.8013978004455566
1747978568024860000,19.35585986328125,16.443925857543945,3.4529809951782227,0.14813709259033203
1747978568043127000,19.374126953125,20.19861602783203,-1.9275636672973633,3.95900821685791
1747978568061387500,19.392387451171874,17.095979690551758,-28.170082092285156,17.43239402770996
1747978568079653400,19.4106533203125,13.164017677307129,-40.99882888793945,35.966304779052734
1747978568097921500,19.428921630859374,8.721658706665039,-37.56648254394531,40.2203369140625
1747978568116189700,19.447189697265625,-47.85662841796875,-25.37299346923828,18.31861686706543
1747978568134454000,19.4654541015625,-42.77778625488281,-10.70287036895752,22.56938934326172
1747978568152719000,19.483718994140624,7.6876220703125,1.8660874366760254,8.088226318359375
1747978568170984700,19.501984619140625,2.562373638153076,3.787778377532959,9.909372329711914
1747978568189250600,19.52025048828125,-4.099135875701904,7.739229679107666,6.150476455688477
1747978568207516400,19.538516357421877,-7.638540267944336,10.352863311767578,3.3867716789245605
1747978568225781200,19.55678125,-14.376093864440918,13.900554656982422,0.5294479727745056
1747978568244046600,19.575046630859376,-5.228655815124512,13.837103843688965,-1.4559988975524902
1747978568262312200,19.593312255859374,-3.126377582550049,12.208486557006836,-1.035724401473999
1747978568280578000,19.611578125,-2.56563663482666,10.849922180175781,-0.8408628702163696
1747978568298841900,19.629841796875,-3.036879062652588,10.180550575256348,-1.1578375101089478
1747978568317109800,19.64810986328125,-2.4103190898895264,9.458151817321777,-0.8985283970832825
1747978568337659100,19.6686591796875,-3.456277370452881,7.98870849609375,0.10357069969177246
1747978568355921700,19.686921630859374,-7.915388584136963,2.144184112548828,9.984272003173828
1747978568374189800,19.70518994140625,-24.379680633544922,-45.41447448730469,38.3540153503418
1747978568392456700,19.723456787109374,14.938333511352539,-84.38079071044922,14.378281593322754
1747978568410721500,19.741721435546875,2.3302078247070312,-46.692264556884766,23.960124969482422
1747978568428988200,19.75998828125,-21.554134368896484,-14.0265531539917,12.000560760498047
1747978568447253200,19.778253173828126,-9.596522331237793,-4.130958080291748,3.576298713684082
1747978568465502200,19.796502197265625,-4.614828586578369,0.5978312492370605,-2.398662567138672
1747978568483784200,19.8147841796875,7.158401012420654,4.959692001342773,-9.411271095275879
1747978568502050300,19.83305029296875,10.205771446228027,4.747832298278809,-11.141583442687988
1747978568520315000,19.85131494140625,18.115432739257812,3.3610129356384277,-10.526567459106445
1747978568538579700,19.869579833984375,32.01567840576172,0.645195484161377,-12.697771072387695
1747978568556846300,19.887846435546876,29.255708694458008,4.7911248207092285,-10.75895881652832
1747978568575107600,19.906107666015625,21.690582275390625,12.154180526733398,-11.32119369506836
1747978568593376800,19.924376708984376,13.331355094909668,20.403343200683594,-3.3905491828918457
1747978568611638800,19.942638671875,10.077326774597168,20.873559951782227,-3.242438554763794
1747978568629907000,19.960906982421875,4.682196140289307,6.871922492980957,-7.643536567687988
1747978568648174300,19.97917431640625,-1.7699799537658691,2.162208080291748,-14.545696258544922
1747978568666427600,19.997427734375,-22.38140869140625,0.7224307060241699,-20.829788208007812
1747978568684693200,20.015693359375,-5.893914222717285,-1.5686726570129395,-17.240312576293945
1747978568702969600,20.033969482421874,-3.6556169986724854,-3.8570828437805176,-10.86297607421875
1747978568721236000,20.052236083984376,-3.105403184890747,-5.007046699523926,-10.20283317565918
1747978568739500800,20.070500732421873,-2.3186452388763428,-20.01029396057129,-25.052114486694336
1747978568757765600,20.088765625,10.132275581359863,-55.138893127441406,-20.44853973388672
1747978568776031700,20.10703173828125,25.427453994750977,-23.36290168762207,4.914716720581055
1747978568794297900,20.1252978515625,16.402435302734375,-0.6922264099121094,6.473853588104248
1747978568812562000,20.14356201171875,17.10449981689453,-2.759614944458008,11.306357383728027
1747978568830828300,20.161828369140625,15.880298614501953,-18.272430419921875,21.090057373046875
1747978568849088800,20.1800888671875,9.540680885314941,-20.293163299560547,24.013092041015625
1747978568867355600,20.198355712890624,7.882249355316162,-20.581146240234375,35.21296691894531
1747978568885623800,20.216623779296874,1.3961966037750244,-24.20132827758789,31.787939071655273
1747978568903890700,20.234890625,-112.31919860839844,-23.940349578857422,19.56875991821289
1747978568922155800,20.25315576171875,-8.399231910705566,-4.291709899902344,12.052513122558594
1747978568940422400,20.27142236328125,5.980002403259277,2.404420852661133,6.777932643890381
1747978568958686500,20.2896865234375,-0.3860764503479004,5.754208564758301,8.034235000610352
1747978568976952000,20.3079521484375,-3.5130198001861572,8.984434127807617,5.325264930725098
1747978568995217400,20.326217529296876,-10.66002082824707,13.633113861083984,5.947888374328613
1747978569013484000,20.344484130859374,-13.407270431518555,14.81381607055664,6.310464859008789
1747978569031748600,20.36274853515625,-3.0086278915405273,12.92971420288086,2.9378104209899902
1747978569050014200,20.38101416015625,-1.0076684951782227,14.088094711303711,2.491494655609131
1747978569068279300,20.399279296875,-2.2894225120544434,13.769811630249023,1.6174184083938599
1747978569086545700,20.417545654296877,-2.49951171875,12.678245544433594,0.3993351459503174
1747978569104811000,20.43581103515625,-2.820439577102661,11.328474998474121,-0.5372710227966309
1747978569123071000,20.454071044921875,-2.552957534790039,10.006881713867188,-0.5198801755905151
1747978569141340700,20.472340576171874,-2.05061936378479,8.450404167175293,-0.7172749042510986
1747978569159608600,20.490608642578124,-1.4138264656066895,4.42367696762085,4.785898208618164
1747978569177872400,20.508872314453125,-17.69191551208496,-23.473793029785156,32.29247283935547
1747978569196140800,20.527140869140624,-0.01371544599533081,-74.75230407714844,28.49386215209961
1747978569214398700,20.545398681640624,16.540475845336914,-50.68583679199219,27.206560134887695
1747978569232670200,20.563670166015626,-25.975637435913086,-13.092896461486816,16.974416732788086
1747978569250934500,20.5819345703125,-18.138660430908203,-6.88490104675293,10.980936050415039
1747978569269200000,20.600199951171874,-8.018987655639648,-3.2420620918273926,4.781375408172607
1747978569287460400,20.61846044921875,1.5822720527648926,-0.1511063575744629,-4.430476188659668
1747978569305731800,20.63673193359375,11.668669700622559,0.9653840065002441,-7.934455871582031
1747978569323996200,20.65499609375,15.99632453918457,1.734109878540039,-9.320975303649902
1747978569342261800,20.67326171875,22.664173126220703,1.9419150352478027,-10.564701080322266
1747978569360527400,20.69152734375,25.81878089904785,3.3423948287963867,-11.440187454223633
1747978569378789000,20.7097890625,20.616350173950195,9.392936706542969,-11.520687103271484
1747978569397057800,20.728057861328125,11.498912811279297,14.720182418823242,-10.011175155639648
1747978569415325000,20.746324951171875,9.15061092376709,18.05222511291504,-6.384068489074707
1747978569433588000,20.764587890625,6.514885902404785,13.450355529785156,-9.018684387207031
1747978569451857400,20.782857421875,5.681135177612305,6.633761882781982,-15.200101852416992
1747978569470115800,20.80111572265625,3.050048351287842,2.5794854164123535,-15.663731575012207
1747978569488385800,20.8193857421875,-20.5255069732666,-1.5281281471252441,-14.852042198181152
1747978569506651100,20.837651123046875,-15.887866020202637,-8.347373962402344,-11.445411682128906
1747978569524918000,20.85591796875,-10.891474723815918,-11.01373291015625,-9.770051956176758
1747978569543182300,20.874182373046875,15.956157684326172,-16.384288787841797,-31.60394287109375
1747978569561446100,20.892446044921876,-27.577716827392578,-29.33029556274414,-15.522749900817871
1747978569579714800,20.91071484375,23.595890045166016,-27.782604217529297,-2.0016093254089355
1747978569597979600,20.928979736328124,12.19556713104248,-7.8894853591918945,3.5501344203948975
1747978569616244000,20.947243896484373,14.577075958251953,-2.3393993377685547,8.813226699829102
1747978569634510000,20.965510009765627,18.10332489013672,-14.735359191894531,20.21738052368164
1747978569652757500,20.983757568359376,12.74105453491211,-27.0540771484375,25.429609298706055
1747978569671041800,21.002041748046874,8.602590560913086,-24.46369171142578,30.871212005615234
1747978569689292500,21.02029248046875,11.390603065490723,-16.686729431152344,27.133241653442383
1747978569707559700,21.0385595703125,-116.77985382080078,-21.621807098388672,20.75035858154297
1747978569725833500,21.05683349609375,-29.094924926757812,-5.158647537231445,17.795902252197266
1747978569744098300,21.075098388671876,1.7528836727142334,4.203798770904541,4.17822790145874
1747978569762368000,21.093367919921874,3.1191394329071045,5.738142967224121,5.630166530609131
1747978569780631000,21.111631103515624,-2.6934685707092285,7.325016021728516,5.3265886306762695
1747978569798898700,21.129898681640626,-2.3783469200134277,9.57091236114502,1.4588303565979004
1747978569817165600,21.14816552734375,-14.703570365905762,10.999826431274414,6.204830169677734
1747978569835418600,21.166418701171875,-13.194875717163086,13.250775337219238,6.278903484344482
1747978569869672200,21.200672119140624,-2.184988498687744,12.310416221618652,1.5598682165145874
1747978569887940000,21.218940185546874,-2.3447868824005127,12.217201232910156,0.3194546699523926
1747978569906213400,21.23721337890625,-3.0868420600891113,11.4625883102417,-1.0247595310211182
1747978569924471800,21.255471923828125,-3.0052735805511475,9.841352462768555,-1.0916879177093506
1747978569942733600,21.273733642578126,-2.379434823989868,7.031703948974609,1.7852399349212646
1747978569961003000,21.2920029296875,-6.057938575744629,-2.7585582733154297,18.757837295532227
1747978569979263000,21.310262939453125,-18.17935562133789,-41.544273376464844,48.67336654663086
1747978569997534700,21.32853466796875,-1.0090677738189697,-66.64337921142578,29.32707405090332
1747978570015798800,21.346798828125,-5.769970417022705,-51.34660339355469,12.57952880859375
1747978570034066200,21.365066162109375,-9.013097763061523,-19.79303741455078,7.52167272567749
1747978570052330800,21.383330810546877,1.7230679988861084,-10.327765464782715,1.2229385375976562
1747978570070595300,21.40159521484375,3.4081149101257324,-4.735522747039795,1.7339982986450195
1747978570088862000,21.419862060546876,5.358964920043945,1.6440293788909912,-7.426455497741699
1747978570107126800,21.438126708984374,9.981122970581055,3.854243755340576,-10.709831237792969
1747978570125388300,21.45638818359375,12.759085655212402,3.5120644569396973,-11.18163013458252
1747978570143657500,21.474657470703125,22.740636825561523,1.9359607696533203,-12.814623832702637
1747978570161923800,21.492923828125,40.85082244873047,-2.559134006500244,-18.181304931640625
1747978570180188700,21.511188720703124,32.89223098754883,6.637578964233398,-14.346840858459473
1747978570198454500,21.52945458984375,12.631686210632324,11.756567001342773,-9.33989143371582
1747978570216714500,21.547714599609375,14.37464427947998,19.766881942749023,-2.6603755950927734
1747978570234985200,21.565985107421874,0.43170344829559326,1.5747103691101074,-10.176531791687012
1747978570253251300,21.584251220703123,-29.542226791381836,-2.478250026702881,-18.708717346191406
1747978570271516400,21.602516357421877,-17.827823638916016,-4.522614002227783,-24.353837966918945
1747978570289777400,21.62077734375,-11.731563568115234,-10.102980613708496,-17.784381866455078
1747978570308048000,21.6390478515625,-4.910894393920898,-5.257424831390381,-6.196155548095703
1747978570326312400,21.6573125,4.459075450897217,-2.832919120788574,-10.153632164001465
1747978570344578600,21.67557861328125,6.242396354675293,-20.648775100708008,-26.020610809326172
1747978570362842000,21.693842041015625,-3.5788488388061523,-47.19028091430664,-16.749130249023438
1747978570381110800,21.71211083984375,23.06562614440918,-28.857990264892578,-0.06559944152832031
1747978570399368200,21.7303681640625,22.263761520385742,-2.71309757232666,0.12261319160461426
1747978570417641700,21.748641845703126,21.861465454101562,-3.1568498611450195,8.667295455932617
1747978570435905300,21.7669052734375,19.066417694091797,-23.44470977783203,20.125619888305664
1747978570454171600,21.785171630859374,10.494661331176758,-27.325063705444336,29.482196807861328
1747978570472436200,21.803436279296875,3.747605562210083,-23.022506713867188,39.865169525146484
1747978570490702300,21.821702392578125,-9.549964904785156,-21.215484619140625,41.221343994140625
1747978570527233500,21.858233642578124,-7.748146057128906,-0.4144296646118164,17.786592483520508
1747978570545498400,21.876498291015626,6.072610378265381,2.827228546142578,5.255755424499512
1747978570563759400,21.89475927734375,2.522758722305298,3.8017525672912598,6.90056037902832
1747978570582027800,21.91302783203125,-4.493481636047363,6.564575672149658,5.073685646057129
1747978570600296400,21.93129638671875,-10.066993713378906,9.467253684997559,4.580810070037842
1747978570618560000,21.94956005859375,-15.266010284423828,12.067808151245117,5.684174537658691
1747978570636825000,21.9678251953125,-4.374304294586182,10.779541015625,0.7442299127578735
1747978570655090700,21.986090576171875,-2.604125499725342,10.990741729736328,-0.45165547728538513
1747978570673361400,22.004361328125,-2.8928089141845703,10.885732650756836,-0.876051127910614
1747978570691622000,22.022621826171875,-3.5461902618408203,10.416366577148438,-1.7827699184417725
1747978570709888000,22.040887939453125,-3.4341721534729004,10.260873794555664,-2.450684070587158
1747978570728149500,22.0591494140625,-2.589184284210205,10.201745986938477,-2.4008285999298096
1747978570746425600,22.077425537109374,-2.2747063636779785,9.161029815673828,-1.641702651977539
1747978570766954500,22.09795458984375,-1.893838882446289,4.488864421844482,5.729713439941406
1747978570785223000,22.116222900390625,-2.7166314125061035,-17.106666564941406,28.34933853149414
1747978570803498200,22.134498291015625,-4.641229629516602,-68.94863891601562,34.86361312866211
1747978570821764000,22.15276416015625,11.025696754455566,-60.03378677368164,18.364059448242188
1747978570840030500,22.171030517578124,-20.368885040283203,-17.009563446044922,19.365182876586914
1747978570858295000,22.189294921875,-15.382265090942383,-8.851890563964844,8.144749641418457
1747978570876560000,22.207559814453123,-1.468260407447815,-5.993093490600586,2.0129780769348145
1747978570894826200,22.225826171875,5.111075401306152,-1.4573960304260254,-3.439390182495117
1747978570913087500,22.24408740234375,9.362157821655273,2.360590934753418,-8.798954010009766
1747978570931357000,22.26235693359375,13.140254974365234,3.8968844413757324,-9.842321395874023
1747978570949622300,22.280622314453126,24.018306732177734,4.083067893981934,-10.343554496765137
1747978570967887600,22.2988876953125,31.513639450073242,3.4655919075012207,-11.617749214172363
1747978570986154200,22.317154296875,26.962024688720703,9.798564910888672,-10.773279190063477
1747978571004418600,22.33541845703125,15.29707145690918,14.502410888671875,-11.123600006103516
1747978571022683400,22.353683349609376,7.208585262298584,17.212276458740234,-5.028121471405029
1747978571040950000,22.371949951171874,4.194756507873535,12.08421516418457,-6.312375545501709
1747978571059216100,22.390216064453124,1.856902837753296,5.461498260498047,-11.846691131591797
1747978571077476400,22.408476318359376,-12.43548583984375,2.673753261566162,-22.655221939086914
1747978571095741400,22.426741455078126,-12.505121231079102,-1.233816146850586,-22.019010543823242
1747978571114011000,22.445010986328125,-4.532103538513184,-2.918031692504883,-12.4915771484375
1747978571132278800,22.46327880859375,-3.552797555923462,-4.9378204345703125,-8.891475677490234
1747978571150542000,22.4815419921875,0.905462384223938,-8.261486053466797,-13.735233306884766
1747978571168808400,22.499808349609374,-40.29164505004883,-45.485042572021484,-26.47223663330078
1747978571187076900,22.518076904296876,28.131567001342773,-37.28038024902344,-9.37545394897461
1747978571205340000,22.53633984375,18.040149688720703,-7.254561424255371,0.8033246994018555
1747978571223604500,22.5546044921875,19.184581756591797,-0.3751668930053711,3.771841287612915
1747978571241869800,22.572869873046876,15.622747421264648,-7.676355361938477,6.797184944152832
1747978571260131800,22.5911318359375,11.476962089538574,-16.158906936645508,15.917055130004883
1747978571278401800,22.60940185546875,10.247071266174316,-19.803714752197266,34.03776550292969
1747978571296666000,22.627666015625,13.963418960571289,-21.189863204956055,31.588640213012695
1747978571314931700,22.645931640625,-9.901104927062988,-21.425296783447266,34.552555084228516
1747978571333197000,22.664197021484377,-73.89871215820312,-18.35080909729004,14.709199905395508
1747978571351458800,22.682458740234374,-8.989816665649414,-3.699697494506836,10.747493743896484
1747978571369727200,22.700727294921876,-0.2862887382507324,2.704845428466797,5.425564765930176
1747978571387993900,22.718993896484374,-2.4039106369018555,5.356217861175537,7.029290199279785
1747978571406259000,22.737259033203124,-4.268150329589844,8.520191192626953,3.352573871612549
1747978571424525000,22.755525146484374,-8.28869342803955,12.68848705291748,1.3402514457702637
1747978571442790000,22.773789794921875,-14.095022201538086,13.743668556213379,3.0527758598327637
1747978571461055200,22.79205517578125,-6.380521297454834,12.539271354675293,1.048715591430664
1747978571479321300,22.8103212890625,-3.7325992584228516,12.361655235290527,0.5104248523712158
1747978571497587500,22.82858740234375,-3.7237937450408936,11.635040283203125,-0.8813679218292236
1747978571515851500,22.8468515625,-4.1160197257995605,9.93366813659668,-2.8100521564483643
1747978571534112800,22.86511279296875,-4.857805252075195,8.375337600708008,-4.132706642150879
1747978571552382500,22.883382568359377,-3.652710437774658,7.186913967132568,-3.228480100631714
1747978571570649900,22.90164990234375,-2.810392379760742,6.392241477966309,-1.662017583847046
1747978571588913400,22.919913330078124,-7.752116680145264,-0.6952409744262695,10.858278274536133
1747978571607174000,22.938173828125,-19.44804573059082,-39.12052917480469,36.7103385925293
1747978571625443600,22.956443603515623,6.690258502960205,-75.4670181274414,24.840951919555664
1747978571643711500,22.97471142578125,-12.827958106994629,-27.968904495239258,36.47834014892578
1747978571661975000,22.99297509765625,-11.658601760864258,-10.633563995361328,12.26811695098877
1747978571680240600,23.01124072265625,-0.36469823122024536,-4.931259632110596,4.63389778137207
1747978571698506500,23.029506591796874,5.2646565437316895,-1.5406608581542969,-2.3179235458374023
1747978571716772000,23.047772216796876,9.280253410339355,2.507457733154297,-7.306195259094238
1747978571735037000,23.066036865234373,12.401250839233398,3.509568691253662,-9.195436477661133
1747978571753302800,23.084302734375,13.402084350585938,3.0570015907287598,-9.207296371459961
1747978571796681500,23.127681396484373,33.835384368896484,1.3429522514343262,-2.8022122383117676
1747978571814947300,23.145947265625,27.291547775268555,6.733237266540527,-8.78133773803711
1747978571833212200,23.164212158203124,17.148700714111328,11.317901611328125,-9.955496788024902
1747978571851478500,23.182478515625,9.101967811584473,15.568991661071777,-7.389232158660889
1747978571869738500,23.200738525390626,-1.0450785160064697,3.152301073074341,-13.984588623046875
1747978571888004400,23.21900439453125,-16.475940704345703,-0.5869159698486328,-19.859390258789062
1747978571906273000,23.23727294921875,-16.236778259277344,-2.0271215438842773,-22.194629669189453
1747978571924541400,23.25554150390625,-9.621467590332031,-6.396061897277832,-16.897842407226562
1747978571942804000,23.273803955078126,-19.73525619506836,-9.494489669799805,-3.7955002784729004
1747978571961072400,23.292072265625,-0.19169974327087402,-12.277972221374512,-11.261658668518066
1747978571979336200,23.310336181640626,2.1844563484191895,-39.70719528198242,-25.19979476928711
1747978571997602000,23.32860205078125,11.32268238067627,-27.73555564880371,-9.056131362915039
1747978572015867000,23.346866943359377,13.577916145324707,-7.648717880249023,-0.042969703674316406
1747978572034132700,23.3651328125,19.881023406982422,-0.7310504913330078,1.4357717037200928
1747978572052393000,23.38339306640625,18.80008888244629,-8.047628402709961,4.959601402282715
1747978572070663400,23.401663330078126,14.089947700500488,-25.50954246520996,13.935843467712402
