time,seconds_elapsed,z,y,x
1751214583135874300,0.141874267578125,0.9500994682312012,0.06797266006469727,0.8471164703369141
1751214583145683200,0.15168310546875,1.37418794631958,0.20961713790893555,0.5920310020446777
1751214583155503400,0.16150341796875,1.6394968032836914,0.3021082878112793,0.23213768005371094
1751214583165341000,0.1713408203125,1.4610939025878906,0.3153982162475586,-0.17317819595336914
1751214583175201800,0.181201904296875,1.0772857666015625,0.399233341217041,-0.7202038764953613
1751214583185089800,0.19108984375,0.688624382019043,0.45221710205078125,-1.2312731742858887
1751214583195008800,0.2010087890625,0.5043225288391113,0.31458091735839844,-1.7704150676727295
1751214583204960000,0.2109599609375,0.3747539520263672,0.08171272277832031,-2.4784183502197266
1751214583214944000,0.220944091796875,-0.10437345504760742,0.07282376289367676,-3.2068493366241455
1751214583224960000,0.2309599609375,-0.4515876770019531,0.9230577945709229,-2.9618587493896484
1751214583235005700,0.241005615234375,-0.6761908531188965,0.7728724479675293,-1.1496105194091797
1751214583245077800,0.251077880859375,-1.1093082427978516,-0.13644695281982422,0.3444814682006836
1751214583255172400,0.26117236328125,-0.6426386833190918,-0.5429883003234863,1.0701980590820312
1751214583265284000,0.2712841796875,0.2721376419067383,-0.5504140853881836,0.9283633232116699
1751214583275408000,0.281407958984375,1.128495216369629,-0.4814128875732422,0.34738636016845703
1751214583285538000,0.2915380859375,2.245924949645996,-0.4372901916503906,-0.1430959701538086
1751214583295668700,0.301668701171875,3.8208765983581543,-0.3831753730773926,-0.7193450927734375
1751214583305677300,0.31167724609375,4.879086971282959,-0.16103363037109375,-2.0657880306243896
1751214583315671300,0.32167138671875,4.625275135040283,-0.19876956939697266,-3.2833003997802734
1751214583325665000,0.3316650390625,3.3798060417175293,-0.6738309860229492,-3.8427302837371826
1751214583335659000,0.341658935546875,2.2322940826416016,-1.07542085647583,-3.7197275161743164
1751214583345652700,0.35165283203125,1.407578468322754,-1.4432525634765625,-2.819037914276123
1751214583355646700,0.361646728515625,0.5289850234985352,-1.909740924835205,-2.02087140083313
1751214583365640400,0.371640380859375,0.04554176330566406,-2.2035326957702637,-1.4154276847839355
1751214583375634400,0.381634521484375,-0.3087949752807617,-2.537391185760498,-0.647435188293457
1751214583385628200,0.391628173828125,-0.6534833908081055,-2.6323795318603516,0.640143871307373
1751214583395622100,0.4016220703125,-1.6453793048858643,-2.0804662704467773,2.797977924346924
1751214583405615900,0.411615966796875,-4.131503105163574,-1.2717065811157227,5.744360446929932
1751214583415609900,0.42160986328125,-9.172112464904785,-0.6603689193725586,8.495035171508789
1751214583425603600,0.431603515625,-17.092239379882812,0.2303919792175293,12.956855773925781
1751214583435597600,0.44159765625,-18.96846580505371,2.3064188957214355,16.95555305480957
1751214583445591300,0.45159130859375,-12.023101806640625,3.5320169925689697,17.051836013793945
1751214583455585300,0.461585205078125,-6.5484819412231445,3.7116761207580566,12.128191947937012
1751214583465579000,0.4715791015625,-5.459834098815918,1.1554951667785645,12.206629753112793
1751214583475573000,0.481572998046875,-2.8321754932403564,0.6822690963745117,9.571247100830078
1751214583485566700,0.491566650390625,-1.8189420700073242,0.5119032859802246,4.898554801940918
1751214583495560700,0.501560791015625,-1.5538585186004639,-0.30138492584228516,1.722564697265625
1751214583505554400,0.511554443359375,-0.9213069677352905,-0.6294279098510742,-1.305612564086914
1751214583515548400,0.52154833984375,0.40886127948760986,-0.6485114097595215,-2.8829636573791504
1751214583525542100,0.531542236328125,1.292924404144287,-0.20765352249145508,-3.279816150665283
1751214583535536000,0.5415361328125,2.60439133644104,0.011651039123535156,-2.8441381454467773
1751214583545529900,0.55152978515625,4.4118523597717285,0.283172607421875,-2.703571319580078
1751214583555523800,0.56152392578125,5.421291351318359,0.228546142578125,-2.421046733856201
1751214583565517600,0.571517578125,4.382474422454834,0.386932373046875,-3.9111509323120117
1751214583575511600,0.581511474609375,0.9092187881469727,0.5256953239440918,-5.984851837158203
1751214583585505300,0.59150537109375,-1.329528570175171,0.8038477897644043,-7.224063396453857
1751214583595499300,0.601499267578125,-2.0136168003082275,1.0999150276184082,-8.656550407409668
1751214583605493000,0.611492919921875,-1.2907452583312988,0.7072417736053467,-9.183122634887695
1751214583615487000,0.621487060546875,0.1657106876373291,-0.3756694793701172,-9.028335571289062
1751214583625480700,0.631480712890625,1.7482033967971802,-1.043184757232666,-8.836495399475098
1751214583635474700,0.641474609375,2.581021308898926,-1.4176392555236816,-8.806999206542969
1751214583645468400,0.651468505859375,2.3314568996429443,-1.5075325965881348,-9.262482643127441
1751214583655462400,0.66146240234375,1.3920007944107056,-1.4250454902648926,-9.473067283630371
1751214583665456000,0.6714560546875,0.24681341648101807,-1.4271183013916016,-8.928621292114258
1751214583675450000,0.6814501953125,-0.8012730479240417,-1.9443435668945312,-7.622959613800049
1751214583685444000,0.691444091796875,-1.5650726556777954,-3.1560192108154297,-6.284780502319336
1751214583695437800,0.701437744140625,-1.4734573364257812,-3.8508925437927246,-4.914132118225098
1751214583705431800,0.711431884765625,-0.15464770793914795,-4.338379859924316,-1.923926830291748
1751214583715425800,0.72142578125,1.2727617025375366,-4.2107768058776855,0.5245223045349121
1751214583725419500,0.73141943359375,0.7533104419708252,-4.348513603210449,1.150874137878418
1751214583735413500,0.74141357421875,-1.0449641942977905,-4.802835464477539,0.20227956771850586
1751214583745407500,0.751407470703125,-1.6179360151290894,-5.204735279083252,-1.2128262519836426
1751214583755401200,0.761401123046875,-0.7460342049598694,-5.534065246582031,-1.7820730209350586
1751214583765395200,0.771395263671875,0.41246891021728516,-5.808522701263428,-1.5033063888549805
1751214583775389200,0.78138916015625,0.5530458688735962,-5.774364948272705,-0.7796788215637207
1751214583785383200,0.791383056640625,-1.2163951396942139,-5.309584617614746,-0.19065523147583008
1751214583795377000,0.801376953125,-1.0330370664596558,-4.837732315063477,-0.2583351135253906
1751214583805371000,0.811370849609375,-0.5835494995117188,-4.588922023773193,0.13161659240722656
1751214583815364900,0.82136474609375,0.02778446674346924,-3.8434720039367676,0.9129104614257812
1751214583825358600,0.831358642578125,0.5377541780471802,-3.119403839111328,1.5321340560913086
1751214583835352600,0.8413525390625,0.31117403507232666,-2.6665596961975098,1.313044548034668
1751214583845346600,0.8513466796875,-0.1299295425415039,-2.4785609245300293,0.2462310791015625
1751214583855340300,0.86134033203125,-0.04760169982910156,-2.5109329223632812,-0.9901857376098633
1751214583865334300,0.871334228515625,0.5200372934341431,-2.458066940307617,-2.0269525051116943
1751214583875328300,0.881328369140625,1.4382418394088745,-2.385209083557129,-2.550100088119507
1751214583885322000,0.891322021484375,2.3489723205566406,-2.287260055541992,-2.89007830619812
1751214583895316000,0.90131591796875,2.885420322418213,-2.2746496200561523,-2.784788131713867
1751214583905310000,0.91131005859375,3.5936529636383057,-2.0340652465820312,-1.998011827468872
1751214583915304000,0.921303955078125,3.8710546493530273,-1.5662870407104492,-0.41707563400268555
1751214583925297700,0.931297607421875,3.607921838760376,-1.091207504272461,0.8235788345336914
1751214583935291600,0.941291748046875,2.8653433322906494,-0.8682422637939453,1.7808022499084473
1751214583945285600,0.95128564453125,0.9448695182800293,-0.546574592590332,3.070606231689453
1751214583955279400,0.961279296875,-2.2352848052978516,-0.09450340270996094,4.740978717803955
1751214583965273300,0.9712734375,-2.8916172981262207,0.3886451721191406,6.317930698394775
1751214583975267300,0.981267333984375,0.7712688446044922,0.5666847229003906,7.784743785858154
1751214583985261000,0.991260986328125,6.060457706451416,0.731938362121582,9.808978080749512
1751214583995255000,1.001255126953125,-0.4405643939971924,1.605015754699707,11.133636474609375
1751214584005249000,1.0112490234375,-7.884622097015381,3.12916898727417,11.099267959594727
1751214584015243000,1.021242919921875,-9.05894947052002,3.356480598449707,9.705635070800781
1751214584025236700,1.03123681640625,-6.977890968322754,2.9949889183044434,8.303560256958008
1751214584035230700,1.041230712890625,-4.34931755065918,2.2680892944335938,6.895874977111816
1751214584045224700,1.051224609375,-2.191500186920166,1.9793577194213867,5.242076873779297
1751214584055218400,1.061218505859375,-1.3377256393432617,2.2575974464416504,4.651827335357666
1751214584065212400,1.07121240234375,-2.297434091567993,2.8374452590942383,3.906270980834961
1751214584075206400,1.081206298828125,-3.232649803161621,3.289885997772217,3.716416835784912
1751214584085200100,1.0912001953125,-3.3965513706207275,3.8489937782287598,3.7241101264953613
1751214584095194000,1.101194091796875,-3.2497501373291016,4.010436058044434,4.11966609954834
1751214584105188000,1.11118798828125,-1.0714744329452515,4.33968448638916,4.746819972991943
1751214584115181800,1.121181884765625,-2.047722339630127,4.494210243225098,2.5140438079833984
1751214584125175800,1.13117578125,-3.2441506385803223,4.393600940704346,1.3154072761535645
1751214584135169800,1.141169677734375,-3.1263444423675537,4.097402572631836,0.4906582832336426
1751214584145163800,1.151163818359375,-0.20495426654815674,3.528223752975464,-0.5617504119873047
1751214584155157500,1.161157470703125,1.4813165664672852,3.0492935180664062,-3.3156919479370117
1751214584165151500,1.1711513671875,1.8493311405181885,2.2524547576904297,-7.660170555114746
1751214584175145500,1.1811455078125,2.183093309402466,1.9769961833953857,-11.242127418518066
1751214584185139200,1.19113916015625,4.744599342346191,1.2777390480041504,-13.011043548583984
1751214584195133200,1.20113330078125,3.687370777130127,0.7204432487487793,-14.266268730163574
1751214584205127200,1.211127197265625,2.156517744064331,0.8192853927612305,-14.489889144897461
1751214584215121000,1.221120849609375,1.6825157403945923,-0.04739189147949219,-12.954182624816895
1751214584225115000,1.231114990234375,1.2110964059829712,-0.5858969688415527,-11.443387985229492
1751214584235108900,1.24110888671875,0.09573698043823242,-0.7081046104431152,-10.24394702911377
1751214584245102800,1.251102783203125,-1.9802677631378174,-1.3356552124023438,-8.530595779418945
1751214584255096600,1.2610966796875,-2.8341331481933594,-1.6021156311035156,-6.631811618804932
1751214584265090600,1.271090576171875,-2.4428112506866455,-1.9453024864196777,-4.330965042114258
1751214584275084500,1.28108447265625,-1.7193422317504883,-2.082563877105713,-2.324387550354004
1751214584285078300,1.291078369140625,-1.403334379196167,-2.172743320465088,-0.8296723365783691
1751214584295072300,1.301072265625,-1.4397832155227661,-1.5763936042785645,-0.45774078369140625
1751214584305066200,1.311066162109375,-1.4280939102172852,-1.7626867294311523,-0.10898447036743164
1751214584315060000,1.32106005859375,-1.3177894353866577,-1.1238985061645508,-0.7987112998962402
1751214584325054000,1.331053955078125,-1.6478383541107178,-0.9980001449584961,-1.057722568511963
1751214584335048000,1.3410478515625,-1.8185259103775024,-2.541564464569092,-0.08272647857666016
1751214584345042000,1.3510419921875,-1.6223342418670654,-3.4325294494628906,0.952023983001709
1751214584355035600,1.36103564453125,-0.7204015254974365,-3.0446419715881348,1.4159164428710938
1751214584365029600,1.371029541015625,0.403012752532959,-0.5776882171630859,0.19989681243896484
1751214584375023600,1.381023681640625,0.98276686668396,1.9029974937438965,-1.40891432762146
1751214584385017300,1.391017333984375,1.0388190746307373,1.9349370002746582,-1.520843505859375
1751214584395011300,1.40101123046875,1.4097570180892944,0.8533878326416016,-1.089165449142456
1751214584405005300,1.41100537109375,2.281316041946411,-0.022378921508789062,-0.08731746673583984
1751214584414999000,1.4209990234375,2.763819932937622,0.2631988525390625,0.9469180107116699
1751214584424993000,1.430992919921875,3.441689968109131,-0.07927989959716797,1.9076032638549805
1751214584434987000,1.440987060546875,3.4965853691101074,-1.189697265625,2.409771680831909
1751214584444980700,1.450980712890625,2.9307210445404053,-1.491215705871582,2.537418842315674
1751214584454974700,1.460974609375,2.317765951156616,-1.2335681915283203,1.9046978950500488
1751214584464968700,1.47096875,1.721771001815796,-0.3090476989746094,0.6897680759429932
1751214584474962700,1.480962646484375,1.607387900352478,0.5643291473388672,0.285947322845459
1751214584484956400,1.490956298828125,1.9556913375854492,0.8211164474487305,0.9763786792755127
1751214584494950400,1.500950439453125,1.672842264175415,1.2576770782470703,0.8285865783691406
1751214584504944400,1.5109443359375,0.9359073042869568,2.3060317039489746,0.2967367172241211
1751214584514938000,1.520938232421875,0.21487629413604736,3.150737762451172,-0.2097933292388916
1751214584524932000,1.53093212890625,-0.3946352005004883,3.529841899871826,-0.610942006111145
1751214584534926000,1.540926025390625,-0.9152313470840454,2.618513584136963,-0.6044120788574219
1751214584544919800,1.550919921875,-0.7621489763259888,-1.1926183700561523,-0.04989051818847656
1751214584554913800,1.560913818359375,-1.06859290599823,-6.785523414611816,0.20428907871246338
1751214584564907800,1.57090771484375,-1.7486724853515625,-11.037126541137695,0.15538424253463745
1751214584574901800,1.58090185546875,-1.0342905521392822,-12.289863586425781,-0.14291217923164368
1751214584584895500,1.5908955078125,4.388800144195557,-12.923136711120605,-0.5229817032814026
1751214584594889500,1.600889404296875,4.240591049194336,-11.866798400878906,0.25851693749427795
1751214584604883500,1.610883544921875,1.055052638053894,-8.21563720703125,1.8142614364624023
1751214584614877200,1.620877197265625,-0.43221384286880493,-5.13896369934082,2.06319260597229
1751214584624871200,1.63087109375,-1.2119096517562866,-2.5206298828125,1.0590307712554932
1751214584634865200,1.640865234375,-1.54893159866333,0.28774166107177734,-1.4139854907989502
1751214584644859000,1.65085888671875,-1.664142370223999,1.988387107849121,-4.197845935821533
1751214584654852900,1.660852783203125,-2.1133346557617188,2.369762420654297,-5.200686931610107
1751214584664846800,1.670846923828125,-2.5462145805358887,1.579463005065918,-4.509568691253662
1751214584674840600,1.680840576171875,-2.557100296020508,0.6486082077026367,-3.446702003479004
1751214584684834600,1.69083447265625,-2.4048471450805664,0.38253307342529297,-2.4997494220733643
1751214584694828300,1.700828369140625,-1.9615590572357178,0.38688182830810547,-1.5839457511901855
1751214584704822300,1.710822265625,-1.348957896232605,0.2023153305053711,-0.6699696779251099
1751214584714816000,1.72081591796875,-0.9563334584236145,-0.04238319396972656,0.15631932020187378
1751214584724810000,1.73081005859375,-0.7497968673706055,-0.14271068572998047,0.7684332132339478
1751214584734803700,1.7408037109375,-0.6792923212051392,-0.2997093200683594,1.1993846893310547
1751214584744797700,1.750797607421875,-0.5745333433151245,-0.26557350158691406,1.4346635341644287
1751214584754791400,1.76079150390625,-0.3783552050590515,-0.13184833526611328,1.4006493091583252
1751214584764785400,1.770785400390625,-0.04776233434677124,0.11557197570800781,1.1209774017333984
1751214584774779100,1.780779052734375,0.44646161794662476,0.08570003509521484,0.8790205717086792
1751214584784772900,1.79077294921875,0.8137572407722473,-0.010683059692382812,0.72051602602005
1751214584794766800,1.800766845703125,0.9173616766929626,-0.04019641876220703,0.46360448002815247
1751214584804760600,1.810760498046875,0.8190547227859497,0.034694671630859375,0.07728743553161621
1751214584814754600,1.820754638671875,0.6530956029891968,0.14667224884033203,-0.28798508644104004
1751214584824748300,1.830748291015625,0.5100510120391846,0.3192481994628906,-0.5823203325271606
1751214584834742300,1.8407421875,0.46595942974090576,0.4139547348022461,-0.7139248847961426
1751214584844736000,1.850736083984375,0.449462890625,0.09323787689208984,-0.6796451807022095
1751214584854730000,1.86072998046875,0.4579259157180786,0.26911067962646484,-0.6711975932121277
1751214584864723700,1.8707236328125,0.7397461533546448,0.4626636505126953,-0.5923790335655212
1751214584874717700,1.8807177734375,1.0827393531799316,0.3309183120727539,-0.3165509104728699
1751214584884711400,1.89071142578125,1.1374995708465576,0.1519298553466797,-0.02437502145767212
1751214584894705400,1.900705322265625,0.9873396158218384,0.11178112030029297,0.08325868844985962
1751214584904699100,1.91069921875,0.6716662645339966,0.12399578094482422,0.08835941553115845
1751214584914693000,1.920693115234375,0.24028784036636353,0.15024375915527344,0.03968954086303711
1751214584924686800,1.930686767578125,-0.133297860622406,0.1904916763305664,-0.04234969615936279
1751214584934680800,1.940680908203125,-0.3860282599925995,0.23519515991210938,-0.13751035928726196
1751214584944674600,1.950674560546875,-0.5032050609588623,0.24628448486328125,-0.1642094850540161
1751214584954668500,1.96066845703125,-0.559752881526947,0.2003307342529297,-0.13293993473052979
1751214584964662300,1.970662353515625,-0.5212321877479553,0.1883106231689453,-0.0636938214302063
1751214584974656300,1.98065625,-0.48718735575675964,0.17208385467529297,-0.009777724742889404
1751214584994644000,2.00064404296875,-0.46711426973342896,0.10330486297607422,0.0006797909736633301
1751214585004638000,2.010637939453125,-0.37436267733573914,0.11712837219238281,0.02981388568878174
1751214585014632000,2.0206318359375,-0.2674102783203125,0.17856693267822266,0.010987460613250732
1751214585024626000,2.0306259765625,-0.14633268117904663,0.2206897735595703,-0.04139518737792969
1751214585034619600,2.04061962890625,-0.0021465420722961426,0.23403453826904297,-0.09869539737701416
1751214585044613600,2.050613525390625,0.08396559953689575,0.2330465316772461,-0.19447433948516846
1751214585054607600,2.060607666015625,0.10826170444488525,0.23687744140625,-0.3088614344596863
1751214585064601300,2.070601318359375,0.17122846841812134,0.22164344787597656,-0.3839415907859802
1751214585074595300,2.08059521484375,0.25762397050857544,0.23025989532470703,-0.43423062562942505
1751214585084589300,2.09058935546875,0.3334651589393616,0.2530069351196289,-0.4641997814178467
1751214585094583000,2.1005830078125,0.38864922523498535,0.24209022521972656,-0.4545750617980957
1751214585104577000,2.110576904296875,0.3462134599685669,0.17853069305419922,-0.39110851287841797
1751214585114571000,2.120571044921875,0.2500273585319519,0.16272258758544922,-0.26494014263153076
1751214585124565000,2.13056494140625,0.15736782550811768,0.15158748626708984,-0.13909918069839478
1751214585134558700,2.140558837890625,0.01145780086517334,0.15946388244628906,-0.047335684299468994
1751214585144552700,2.150552734375,-0.12894868850708008,0.1673107147216797,0.05813562870025635
1751214585154546700,2.160546630859375,-0.1962587833404541,0.13710594177246094,0.13876831531524658
1751214585164540400,2.17054052734375,-0.19965040683746338,0.09293556213378906,0.19442075490951538
1751214585174534400,2.180534423828125,-0.19202768802642822,0.03483295440673828,0.21591776609420776
1751214585184528400,2.1905283203125,-0.17429059743881226,-0.04675102233886719,0.28454673290252686
1751214585194522000,2.200522216796875,-0.13280552625656128,-0.1040811538696289,0.3379349112510681
1751214585204516000,2.21051611328125,-0.08722394704818726,-0.12779998779296875,0.35257846117019653
1751214585214510000,2.220510009765625,-0.028227150440216064,-0.21818828582763672,0.41944003105163574
1751214585224503800,2.23050390625,0.019740402698516846,-0.25097179412841797,0.4990731477737427
1751214585234497800,2.240497802734375,0.059975624084472656,-0.24726581573486328,0.551325261592865
1751214585244491800,2.25049169921875,0.021599113941192627,-0.2861185073852539,0.6439523696899414
1751214585254485800,2.26048583984375,-0.070900559425354,-0.37621021270751953,0.7331320643424988
1751214585264479500,2.2704794921875,-0.20666873455047607,-0.4224557876586914,0.8139270544052124
1751214585274473500,2.280473388671875,-0.4212772250175476,-0.4254121780395508,0.8855708241462708
1751214585284467500,2.290467529296875,-0.6270712614059448,-0.45157909393310547,0.8961259722709656
1751214585294461200,2.300461181640625,-0.8177821636199951,-0.49576663970947266,0.889514148235321
1751214585304455200,2.310455078125,-1.0485063791275024,-0.5433664321899414,0.9310243129730225
1751214585314449200,2.32044921875,-1.3624131679534912,-0.4920024871826172,0.9797417521476746
1751214585324443000,2.33044287109375,-1.7580121755599976,-0.36853981018066406,1.014559030532837
1751214585334436900,2.340436767578125,-2.118320941925049,-0.23515892028808594,1.0450247526168823
1751214585344430800,2.350430908203125,-2.3452372550964355,-0.07750511169433594,1.076114535331726
1751214585354424800,2.3604248046875,-2.3997154235839844,0.018380165100097656,1.07517409324646
1751214585364418600,2.37041845703125,-2.224306106567383,0.03348541259765625,1.0996888875961304
1751214585374412500,2.38041259765625,-2.05336332321167,0.034613609313964844,1.1439881324768066
1751214585384406500,2.390406494140625,-1.882185459136963,0.13581180572509766,1.1750311851501465
1751214585394400300,2.400400146484375,-1.7495768070220947,-0.007008552551269531,1.255145788192749
1751214585404394200,2.410394287109375,-1.4388763904571533,0.12149238586425781,1.0019381046295166
1751214585414388200,2.42038818359375,-0.7283251881599426,0.36213016510009766,0.6125917434692383
1751214585424382000,2.4303818359375,0.12942613661289215,0.25176429748535156,0.4530709385871887
1751214585434376000,2.4403759765625,0.9189125299453735,0.3546314239501953,0.05853530764579773
1751214585444370000,2.450369873046875,1.5902676582336426,0.07411479949951172,-0.2013118714094162
1751214585454363600,2.46036376953125,2.018606185913086,-0.2492523193359375,-0.36429330706596375
1751214585464357600,2.470357666015625,1.648158073425293,-1.0728673934936523,-0.2898603677749634
1751214585474351600,2.4803515625,0.714887261390686,-1.6794605255126953,-0.2148682326078415
1751214585484345600,2.490345703125,-0.10423296689987183,-1.7552013397216797,-0.055115729570388794
1751214585494339300,2.50033935546875,-0.9539686441421509,-1.6931772232055664,0.3943231701850891
1751214585504333300,2.510333251953125,-1.9306740760803223,-1.618117332458496,1.0642516613006592
1751214585514327300,2.520327392578125,-2.7802929878234863,-1.6213226318359375,1.6837871074676514
1751214585524321000,2.530321044921875,-3.3461925983428955,-1.6702594757080078,2.143040895462036
1751214585534315000,2.54031494140625,-3.4943790435791016,-1.6995582580566406,2.2443809509277344
1751214585544309000,2.55030908203125,-2.8940014839172363,-1.9109582901000977,1.7566778659820557
1751214585554302700,2.560302734375,-1.516339659690857,-2.2184343338012695,0.6189981698989868
1751214585564296700,2.570296630859375,0.048514604568481445,-1.9483966827392578,-0.2910194396972656
1751214585574290700,2.580290771484375,1.1604584455490112,-1.873875617980957,-1.0069471597671509
1751214585584284700,2.59028466796875,1.384874939918518,-2.0875558853149414,-1.378960371017456
1751214585594278400,2.6002783203125,1.0144093036651611,-2.153109550476074,-1.383164882659912
1751214585604272400,2.6102724609375,0.9059160351753235,-2.055837631225586,-1.2847565412521362
1751214585614266400,2.620266357421875,1.3102412223815918,-2.006624221801758,-0.7841382026672363
1751214585624260000,2.630260009765625,2.1389000415802,-1.806532859802246,0.06870627403259277
1751214585634254000,2.640254150390625,3.2515907287597656,-1.753188133239746,1.30491304397583
1751214585644248000,2.650248046875,3.91988468170166,-1.888869285583496,3.170851230621338
1751214585654241800,2.66024169921875,2.9079203605651855,-2.959019660949707,4.195559501647949
1751214585664235800,2.67023583984375,0.8967758417129517,-3.0992918014526367,3.7785189151763916
1751214585674229800,2.680229736328125,-1.3799166679382324,-2.006490707397461,2.1312308311462402
1751214585684223500,2.690223388671875,-1.8473758697509766,-1.0152816772460938,0.24147295951843262
1751214585694217500,2.700217529296875,-0.3969937562942505,0.1284017562866211,-1.4728286266326904
1751214585704211500,2.71021142578125,0.9050776958465576,0.8258352279663086,-2.5403356552124023
1751214585714205400,2.720205322265625,1.2158468961715698,0.2663726806640625,-2.7897825241088867
1751214585724199200,2.73019921875,1.512941598892212,0.7170953750610352,-3.2915494441986084
1751214585734193200,2.740193115234375,1.7287194728851318,1.7800979614257812,-3.598815441131592
1751214585744187100,2.750187255859375,1.0491540431976318,1.8163552284240723,-3.412118434906006
1751214585754180900,2.760180908203125,0.0006954669952392578,1.6032400131225586,-3.1733622550964355
1751214585764174800,2.7701748046875,-0.5481922626495361,1.6399788856506348,-3.2136619091033936
1751214585774168800,2.7801689453125,-0.2763345241546631,1.825791835784912,-3.5109901428222656
1751214585784162600,2.79016259765625,0.2896461486816406,2.0093021392822266,-3.9535369873046875
1751214585794156500,2.800156494140625,0.7833383083343506,2.1830034255981445,-4.431881904602051
1751214585804150500,2.810150634765625,1.0855398178100586,2.368323802947998,-4.859361171722412
1751214585814144500,2.82014453125,1.1105097532272339,2.5186514854431152,-5.1113200187683105
1751214585824138200,2.83013818359375,0.9330337047576904,2.6013102531433105,-5.296680927276611
1751214585834132200,2.84013232421875,0.7549407482147217,2.6597366333007812,-5.3056817054748535
1751214585844126200,2.850126220703125,0.7131049633026123,2.6173782348632812,-5.064290523529053
1751214585854120000,2.860119873046875,0.8702882528305054,2.4070286750793457,-4.600703716278076
1751214585864114000,2.870114013671875,1.1578582525253296,2.190406322479248,-3.9898650646209717
1751214585874108000,2.88010791015625,1.3483377695083618,2.0520830154418945,-3.326239585876465
1751214585884101600,2.8901015625,1.301631212234497,2.0047788619995117,-2.8609402179718018
1751214585894095600,2.900095703125,1.3423465490341187,2.0004758834838867,-2.474159002304077
1751214585904089600,2.910089599609375,1.5271179676055908,1.9914875030517578,-2.1058831214904785
1751214585914083600,2.92008349609375,1.775411605834961,2.0398759841918945,-1.9534754753112793
1751214585924077300,2.930077392578125,1.9857985973358154,2.1888842582702637,-2.0537266731262207
1751214585934071300,2.9400712890625,2.06318736076355,2.400951862335205,-2.3032286167144775
1751214585944065300,2.950065185546875,2.0364911556243896,2.5475735664367676,-2.489919900894165
1751214585954059000,2.96005908203125,1.8940364122390747,2.7628703117370605,-2.6760144233703613
1751214585964053000,2.970052978515625,1.8119243383407593,2.9278335571289062,-2.8624155521392822
1751214585974047000,2.980046875,2.04280161857605,2.9578800201416016,-2.9857001304626465
1751214585984040700,2.990040771484375,2.29328989982605,2.905993938446045,-3.0011234283447266
1751214585994034700,3.00003466796875,2.701979637145996,2.9620718955993652,-2.6696395874023438
1751214586004028700,3.010028564453125,3.0730791091918945,3.196112632751465,-0.9528653621673584
1751214586014022400,3.0200224609375,-4.376504421234131,0.8499374389648438,2.5260114669799805
1751214586024016400,3.030016357421875,-9.959761619567871,-6.308844566345215,7.595728874206543
1751214586034010400,3.04001025390625,-2.9835474491119385,-14.038330078125,11.047675132751465
1751214586044004400,3.05000439453125,-2.7925620079040527,-14.292795181274414,7.619186878204346
1751214586053998000,3.059998046875,1.3042640686035156,-10.525090217590332,2.209010601043701
1751214586063992000,3.069991943359375,2.4365622997283936,-6.363515853881836,0.15746307373046875
1751214586073986000,3.079986083984375,2.3326141834259033,-3.590503692626953,-0.35435914993286133
1751214586083979800,3.089979736328125,2.1392669677734375,-0.0858926773071289,-2.103799819946289
1751214586093973800,3.099973876953125,2.5242490768432617,1.8503446578979492,-3.8163154125213623
1751214586103967700,3.1099677734375,2.2598233222961426,2.3576579093933105,-4.211332321166992
1751214586113961500,3.11996142578125,2.164954900741577,1.9983816146850586,-4.416174411773682
1751214586123955500,3.12995556640625,1.8535236120224,1.0229454040527344,-4.392763137817383
1751214586133949400,3.139949462890625,1.1840990781784058,-0.03914451599121094,-3.5316061973571777
1751214586143943400,3.149943359375,0.6675525307655334,-1.1661529541015625,-2.138526201248169
1751214586153937200,3.159937255859375,0.1457112431526184,-2.306788444519043,-0.7114913463592529
1751214586163931100,3.16993115234375,-0.31917619705200195,-2.8612680435180664,0.723991870880127
1751214586173925000,3.179925048828125,-1.164258360862732,-2.4549903869628906,1.7102265357971191
1751214586183918800,3.1899189453125,-2.0742368698120117,-1.3570919036865234,1.6199584007263184
1751214586193912800,3.199912841796875,-2.3004064559936523,-0.20349407196044922,0.7730369567871094
1751214586203906800,3.20990673828125,-1.9127274751663208,0.5528583526611328,-0.1159827709197998
1751214586213900500,3.219900634765625,-1.250983715057373,0.9284000396728516,-0.9770417213439941
1751214586223894500,3.22989453125,-0.6592731475830078,1.1492481231689453,-1.6116360425949097
1751214586233888500,3.239888427734375,-0.17085400223731995,1.2970647811889648,-1.9860979318618774
1751214586243882200,3.24988232421875,0.21004828810691833,1.4770355224609375,-2.27235746383667
1751214586253876200,3.259876220703125,0.4985670745372772,1.5744085311889648,-2.4460320472717285
1751214586263870200,3.2698701171875,0.6152064204216003,1.5558557510375977,-2.454514503479004
1751214586273864200,3.2798642578125,0.7375233769416809,1.4935293197631836,-2.3677849769592285
1751214586283858000,3.28985791015625,0.7064475417137146,1.3302497863769531,-1.9663200378417969
1751214586293852000,3.299851806640625,0.635040283203125,1.1377010345458984,-1.3337011337280273
1751214586303846000,3.309845947265625,0.6113168597221375,0.8775520324707031,-0.6445619463920593
1751214586313839600,3.319839599609375,0.5127561092376709,0.5642156600952148,0.05589538812637329
1751214586323833600,3.32983349609375,0.4605051279067993,0.3075437545776367,0.7500874996185303
1751214586333827600,3.33982763671875,0.4867458939552307,0.054744720458984375,1.2967848777770996
1751214586373803300,3.37980322265625,-0.4140041172504425,-0.10651206970214844,0.9886233806610107
1751214586383797000,3.389796875,-0.6927803754806519,0.12772274017333984,0.6251159906387329
1751214586393791000,3.399791015625,-0.8082870244979858,0.31828880310058594,0.35296714305877686
1751214586403785000,3.409784912109375,-0.8170950412750244,0.4798240661621094,0.15360024571418762
1751214586413778700,3.41977880859375,-0.6998741626739502,0.5743131637573242,0.03688022494316101
1751214586423772700,3.429772705078125,-0.47140297293663025,0.5207929611206055,0.05034683644771576
1751214586433766700,3.4397666015625,-0.1661117672920227,0.38644886016845703,0.1733044534921646
1751214586443760400,3.449760498046875,0.012455284595489502,0.2906150817871094,0.28559231758117676
1751214586453754400,3.45975439453125,0.19077998399734497,0.2758932113647461,0.37789884209632874
1751214586463748400,3.469748291015625,0.3759653568267822,0.2415599822998047,0.57840895652771
1751214586473742300,3.479742431640625,0.4658297896385193,0.24959182739257812,0.7095726728439331
1751214586483736000,3.489736083984375,0.39759552478790283,0.14702606201171875,0.9138360023498535
1751214586493730000,3.49972998046875,0.49489378929138184,0.015287399291992188,1.1404714584350586
1751214586503724000,3.50972412109375,0.39354753494262695,-0.09303092956542969,1.249671459197998
1751214586513717800,3.5197177734375,0.10420393943786621,-0.19219970703125,1.3215768337249756
1751214586523711700,3.529711669921875,-0.270300030708313,-0.1292400360107422,1.208909511566162
1751214586533705700,3.539705810546875,-0.42771780490875244,-0.004755973815917969,1.065368413925171
1751214586543699500,3.549699462890625,-0.6441773772239685,0.06661415100097656,0.844314455986023
1751214586553693400,3.559693359375,-1.053739070892334,0.3098764419555664,0.5624787211418152
1751214586563687400,3.5696875,-1.6587610244750977,0.596348762512207,0.19573426246643066
1751214586573681200,3.57968115234375,-2.0048930644989014,0.7737216949462891,-0.06177607178688049
1751214586583675100,3.589675048828125,-1.8734753131866455,0.8709211349487305,-0.24713295698165894
1751214586593668900,3.5996689453125,-1.4416861534118652,0.7539100646972656,-0.3589610159397125
1751214586603662800,3.609662841796875,-1.0740467309951782,0.4941730499267578,-0.2877803146839142
1751214586613656600,3.619656494140625,-1.0008914470672607,0.1492300033569336,-0.0018218755722045898
1751214586623650600,3.629650634765625,-1.0368973016738892,-0.0750131607055664,0.3828376531600952
1751214586633644300,3.639644287109375,-0.8384530544281006,-0.1735858917236328,0.8253831267356873
1751214586643638300,3.64963818359375,-0.3550720810890198,-0.30933284759521484,1.1706736087799072
1751214586653632000,3.659632080078125,0.1785430908203125,-0.5542974472045898,1.369930624961853
1751214586663626000,3.6696259765625,0.4794350862503052,-0.8990955352783203,1.5260069370269775
1751214586673619700,3.67961962890625,0.6168001294136047,-1.1860723495483398,1.499855875968933
1751214586683613700,3.68961376953125,0.7178692817687988,-1.4251976013183594,1.3323386907577515
1751214586693607400,3.699607421875,0.6743389964103699,-1.669236183166504,1.0906364917755127
1751214586703601400,3.709601318359375,0.5375070571899414,-2.075737953186035,0.8222068548202515
1751214586713595100,3.71959521484375,0.49128788709640503,-2.5821266174316406,0.6144457459449768
1751214586723589000,3.729589111328125,0.6584573984146118,-3.02581787109375,0.4414774775505066
1751214586733582800,3.739582763671875,1.0080115795135498,-3.3354015350341797,0.08608567714691162
1751214586743576800,3.749576904296875,1.551802158355713,-3.6641845703125,-0.33767032623291016
1751214586753570600,3.759570556640625,2.2748351097106934,-4.031254768371582,-0.6577001214027405
1751214586763564500,3.769564453125,2.894618034362793,-4.250424385070801,-1.0875225067138672
1751214586773558300,3.779558349609375,3.071286916732788,-3.9928483963012695,-1.525300145149231
1751214586783552300,3.78955224609375,2.6017045974731445,-3.3218345642089844,-1.6281256675720215
1751214586793546000,3.7995458984375,1.705671787261963,-2.706000328063965,-1.285082221031189
1751214586803540000,3.8095400390625,0.7930070161819458,-2.4549055099487305,-0.4439650774002075
1751214586813533700,3.81953369140625,-0.012147665023803711,-2.452035903930664,0.6093553900718689
1751214586823527700,3.829527587890625,-0.7266404628753662,-2.528604507446289,1.5210716724395752
1751214586833521400,3.839521484375,-1.3261111974716187,-2.6885290145874023,2.2021403312683105
1751214586843515400,3.849515380859375,-1.9553368091583252,-3.026660919189453,2.701646089553833
1751214586853509000,3.859509033203125,-2.8349735736846924,-3.6758785247802734,2.9634885787963867
1751214586863503000,3.869503173828125,-4.218630313873291,-4.482626914978027,2.886653423309326
1751214586873497000,3.8794970703125,-6.130107402801514,-4.744544982910156,2.8466668128967285
1751214586883490800,3.88949072265625,-7.935153007507324,-3.8414907455444336,3.408336639404297
1751214586893484800,3.89948486328125,-9.019414901733398,-3.132303237915039,3.990321159362793
1751214586903478800,3.909478759765625,-9.225998878479004,-3.1092052459716797,4.168195724487305
1751214586913472500,3.919472412109375,-8.635957717895508,-3.194784164428711,4.132728576660156
1751214586923466500,3.929466552734375,-7.422736644744873,-3.0625715255737305,3.993159770965576
1751214586933460500,3.93946044921875,-5.320444583892822,-2.8792600631713867,3.4530787467956543
1751214586943454500,3.949454345703125,-2.5116546154022217,-2.5622854232788086,2.433657646179199
1751214586953448200,3.9594482421875,0.01579385995864868,-2.0133113861083984,1.084916591644287
1751214586963442200,3.969442138671875,1.8633781671524048,-1.4764385223388672,-0.39874017238616943
1751214586973436200,3.979436279296875,3.32201886177063,-1.01708984375,-1.6835718154907227
1751214586983430000,3.989429931640625,4.395090103149414,-0.5130434036254883,-2.672051191329956
1751214586993424000,3.999423828125,4.683037757873535,-0.08076286315917969,-3.5070104598999023
1751214587003417900,4.00941796875,5.144160270690918,0.4307689666748047,-4.203100204467773
1751214587013411600,4.01941162109375,5.7270121574401855,1.137831687927246,-4.371610164642334
1751214587023405600,4.029405517578125,5.536379337310791,1.8254156112670898,-4.007253170013428
1751214587033399600,4.039399658203125,4.712407112121582,2.3840723037719727,-3.5576744079589844
1751214587043393300,4.049393310546875,3.411424398422241,2.712977886199951,-3.2747693061828613
1751214587053387300,4.05938720703125,1.6822619438171387,2.577092170715332,-3.160696268081665
1751214587063381200,4.06938134765625,-0.20094996690750122,1.9955906867980957,-2.8287179470062256
1751214587073375200,4.079375244140625,-1.6080199480056763,1.3078784942626953,-2.0771098136901855
1751214587083369000,4.089368896484375,-1.9676272869110107,0.7036933898925781,-0.9911929368972778
1751214587093363000,4.099363037109375,-0.3679920434951782,0.010044097900390625,-0.3512120246887207
1751214587103357000,4.10935693359375,2.605889320373535,-0.05170631408691406,-0.03585195541381836
1751214587113350700,4.1193505859375,5.105792045593262,0.045403480529785156,0.04658150672912598
1751214587123344600,4.1293447265625,5.617318630218506,-0.02130603790283203,-0.06775379180908203
1751214587133338600,4.139338623046875,4.316771507263184,-0.3462190628051758,0.12204098701477051
1751214587143332400,4.149332275390625,1.9060947895050049,-0.7593040466308594,0.5530917644500732
1751214587153326300,4.159326416015625,-0.5979528427124023,-0.7777070999145508,0.43306636810302734
1751214587163320300,4.1693203125,-1.1006700992584229,-0.40389156341552734,-0.5606651306152344
1751214587173314300,4.179314208984375,0.30360233783721924,0.13519668579101562,-2.070263147354126
1751214587183308000,4.18930810546875,2.056091070175171,0.19192028045654297,-2.8335297107696533
1751214587193302000,4.199302001953125,2.619734287261963,0.12185287475585938,-3.111739158630371
1751214587203296000,4.2092958984375,2.052797794342041,0.07876110076904297,-3.208796501159668
1751214587213289700,4.219289794921875,1.1195451021194458,0.1339092254638672,-3.2847630977630615
1751214587223283700,4.22928369140625,0.8664843440055847,0.15751934051513672,-3.2598352432250977
1751214587233277700,4.239277587890625,1.2178566455841064,0.020477294921875,-3.078242540359497
1751214587243271400,4.249271484375,1.4621974229812622,0.07163810729980469,-2.878514051437378
1751214587253265400,4.259265380859375,1.3163790702819824,0.40781259536743164,-2.84116530418396
1751214587263259400,4.26925927734375,1.298115849494934,0.5669546127319336,-2.7556633949279785
1751214587273253400,4.27925341796875,1.456827163696289,0.80072021484375,-2.7437775135040283
1751214587283247000,4.2892470703125,1.1464660167694092,0.728367805480957,-2.7343695163726807
1751214587293241000,4.299240966796875,1.073106050491333,1.202836036682129,-3.0034396648406982
1751214587303235000,4.309235107421875,0.9691066741943359,1.316908359527588,-3.257566452026367
1751214587313228800,4.319228759765625,0.7135601043701172,1.2179884910583496,-3.2520899772644043
1751214587323222800,4.329222900390625,0.954486608505249,1.7818784713745117,-3.6402223110198975
1751214587333216800,4.339216796875,0.8886264562606812,2.117201328277588,-3.86129093170166
1751214587343210500,4.34921044921875,0.4923485517501831,2.0550365447998047,-3.8382925987243652
1751214587353204500,4.35920458984375,0.24091410636901855,2.0621094703674316,-3.760850667953491
1751214587363198500,4.369198486328125,0.3097984790802002,2.1656646728515625,-3.645444631576538
1751214587373192200,4.379192138671875,0.47498035430908203,2.2077574729919434,-3.4554662704467773
1751214587383186200,4.389186279296875,0.47399115562438965,2.274890422821045,-3.2784011363983154
1751214587393180200,4.39918017578125,0.25737857818603516,2.3377108573913574,-3.0491151809692383
1751214587403174100,4.409174072265625,0.028727054595947266,2.3385891914367676,-3.0032849311828613
1751214587413167900,4.41916796875,0.1096653938293457,2.244023323059082,-3.00368595123291
1751214587423161900,4.429161865234375,0.3673255443572998,2.0980358123779297,-3.0984299182891846
1751214587433155800,4.43915576171875,0.6191458702087402,1.877039909362793,-3.1536495685577393
1751214587443149600,4.449149658203125,0.6522221565246582,1.6671380996704102,-3.1686089038848877
1751214587453143600,4.4591435546875,0.5937440395355225,1.42472505569458,-3.023552179336548
1751214587463137500,4.469137451171875,0.4993093013763428,1.1731667518615723,-2.8137879371643066
1751214587473131300,4.47913134765625,0.5276575088500977,1.0076537132263184,-2.5393035411834717
1751214587483125200,4.489125244140625,0.6169716119766235,0.9150032997131348,-2.5085103511810303
1751214587493119200,4.499119140625,0.7069553136825562,0.805816650390625,-2.636518955230713
1751214587503113200,4.50911328125,0.5922422409057617,0.685335636138916,-2.915329694747925
1751214587513107000,4.51910693359375,0.1653599739074707,0.6584076881408691,-3.2272939682006836
1751214587523101000,4.529100830078125,-0.959749698638916,0.5887651443481445,-3.1414389610290527
1751214587533095000,4.539094970703125,-2.331631898880005,0.19977521896362305,-2.536355495452881
1751214587543088600,4.549088623046875,-2.8403003215789795,-0.6490488052368164,-1.7619519233703613
1751214587553082600,4.55908251953125,-1.8506977558135986,-1.5232696533203125,-1.2709779739379883
1751214587563076600,4.56907666015625,-0.030302762985229492,-2.028811454772949,-0.9415278434753418
1751214587573070300,4.5790703125,0.9033416509628296,-2.4053993225097656,-0.7127065658569336
1751214587583064300,4.589064208984375,1.1050875186920166,-2.8557138442993164,-0.707242488861084
1751214587593058300,4.599058349609375,1.1334302425384521,-3.2710838317871094,-0.9678363800048828
1751214587603052000,4.609052001953125,0.6030500531196594,-3.392642021179199,-1.6239936351776123
1751214587613046000,4.6190458984375,0.9161163568496704,-3.5288400650024414,-2.0902342796325684
1751214587623040000,4.6290400390625,2.679159641265869,-3.6674022674560547,-1.9780688285827637
1751214587633034000,4.639033935546875,2.966216564178467,-4.015459060668945,-1.1480624675750732
1751214587643027700,4.64902783203125,1.26605224609375,-4.753207206726074,0.5654234886169434
1751214587653021700,4.659021728515625,-0.6223785877227783,-5.6686296463012695,2.6958184242248535
1751214587663015700,4.669015625,-1.0746328830718994,-6.025152206420898,4.078941822052002
1751214587673009400,4.679009521484375,-0.553870677947998,-5.049982070922852,3.5203256607055664
1751214587683003400,4.68900341796875,0.25036856532096863,-3.232816696166992,2.009272575378418
1751214587692997400,4.698997314453125,0.6463658809661865,-1.992823600769043,1.0554063320159912
1751214587702991000,4.7089912109375,0.5575357675552368,-1.3195552825927734,0.6557343006134033
1751214587712985000,4.718985107421875,0.2508442997932434,-1.1846389770507812,0.37419629096984863
1751214587722979000,4.72897900390625,0.0031223148107528687,-0.6311712265014648,0.35849809646606445
1751214587732973000,4.73897314453125,-0.18933682143688202,0.005367279052734375,0.5496728420257568
1751214587742966800,4.748966796875,-0.3510916531085968,0.49468517303466797,0.7770466804504395
1751214587752960800,4.758960693359375,-0.23725731670856476,0.7122936248779297,0.866065263748169
1751214587762954800,4.768954833984375,-0.13080453872680664,0.815648078918457,0.8952643871307373
1751214587772948500,4.778948486328125,0.16734883189201355,0.9815158843994141,0.7298412322998047
1751214587782942500,4.7889423828125,0.1620713472366333,1.205160140991211,0.4662938117980957
1751214587792936400,4.7989365234375,0.010531365871429443,1.290994644165039,0.07211923599243164
1751214587802930200,4.80893017578125,-0.2002638578414917,1.4408349990844727,-0.588407039642334
1751214587812924200,4.818924072265625,-0.26208728551864624,1.5360679626464844,-1.2775862216949463
1751214587822918100,4.828918212890625,-0.12400949001312256,1.5490264892578125,-1.8969955444335938
1751214587832912100,4.838912109375,0.12447017431259155,1.4422779083251953,-2.320300579071045
1751214587842905900,4.84890576171875,0.27176904678344727,1.297536849975586,-2.565310478210449
1751214587852899800,4.85889990234375,0.2156025767326355,1.1484651565551758,-2.5682058334350586
1751214587862893800,4.868893798828125,0.16015899181365967,0.9803829193115234,-2.252976179122925
1751214587872887600,4.878887451171875,0.1530822515487671,0.7497720718383789,-1.71249258518219
1751214587882881500,4.888881591796875,0.26219862699508667,0.5227184295654297,-1.018584966659546
1751214587892875500,4.89887548828125,0.37464481592178345,0.5089111328125,-0.3805108070373535
1751214587902869200,4.908869140625,0.34762752056121826,0.5451784133911133,0.0942833423614502
1751214587912863200,4.91886328125,0.2727738618850708,0.5454530715942383,0.39526569843292236
1751214587922857200,4.928857177734375,0.23582082986831665,0.4908266067504883,0.5318673849105835
1751214587932851000,4.938850830078125,0.17889291048049927,0.5441484451293945,0.5155202150344849
1751214587942845000,4.948844970703125,0.18900156021118164,0.6625223159790039,0.5342127084732056
1751214587952839000,4.9588388671875,0.19181251525878906,0.6598949432373047,0.6169763207435608
1751214587962833000,4.9688330078125,0.039850711822509766,0.6370773315429688,0.7447876334190369
1751214587972826600,4.97882666015625,-0.08821249008178711,0.5896034240722656,0.9885343313217163
1751214587982820600,4.988820556640625,-0.29179322719573975,0.5367965698242188,1.2553337812423706
1751214587992814600,4.998814697265625,-0.4593866467475891,0.607945442199707,1.4242990016937256
1751214588002808300,5.008808349609375,-0.5419617891311646,0.6406955718994141,1.5282784700393677
1751214588012802300,5.01880224609375,-0.3366425037384033,0.7066841125488281,1.4951128959655762
1751214588022796300,5.02879638671875,-0.16217446327209473,0.7722311019897461,1.3448631763458252
1751214588032790000,5.0387900390625,-0.09580802917480469,0.6845436096191406,1.2176088094711304
1751214588042784000,5.048783935546875,-0.19114255905151367,0.6923294067382812,0.9950413703918457
1751214588052778000,5.058778076171875,-0.24865198135375977,0.6376399993896484,0.7513411045074463
1751214588062772000,5.06877197265625,-0.25571513175964355,0.5300436019897461,0.5947970747947693
1751214588072765700,5.078765625,-0.22751128673553467,0.4603118896484375,0.635465145111084
1751214588082759700,5.088759765625,-0.14642179012298584,0.3946866989135742,0.813599169254303
1751214588092753700,5.098753662109375,-0.0804295539855957,0.3473348617553711,0.8547046184539795
1751214588102747400,5.108747314453125,-0.1568688154220581,0.3279838562011719,0.6793684959411621
1751214588112741400,5.118741455078125,-0.4873983860015869,0.1410989761352539,0.7653040885925293
1751214588122735400,5.1287353515625,-0.7676124572753906,0.12189579010009766,0.8533070683479309
1751214588132729000,5.13872900390625,-0.9336460828781128,0.12220954895019531,0.8771811723709106
1751214588142723000,5.14872314453125,-1.0235391855239868,0.017913818359375,0.8374581933021545
1751214588152717000,5.158717041015625,-1.0135886669158936,-0.10473060607910156,0.8401879072189331
1751214588162710800,5.168710693359375,-1.1260724067687988,-0.149749755859375,0.8570548295974731
1751214588172704800,5.178704833984375,-0.792463481426239,-0.1746664047241211,0.9883955717086792
1751214588182698800,5.18869873046875,-0.3466367721557617,-0.1990985870361328,1.0229051113128662
1751214588192692700,5.198692626953125,-0.0399928092956543,-0.26645469665527344,0.9751802086830139
1751214588202686500,5.2086865234375,0.15084636211395264,-0.2955503463745117,0.8645129203796387
1751214588212680400,5.218680419921875,0.20660078525543213,-0.22446632385253906,0.743926465511322
1751214588222674400,5.22867431640625,-0.000020742416381835938,-0.16792774200439453,0.586076021194458
1751214588232668200,5.238668212890625,-0.36011219024658203,-0.1445913314819336,0.545549213886261
1751214588242662100,5.248662109375,-0.6022509336471558,-0.1824951171875,0.7650442123413086
1751214588252656000,5.25865625,-0.47223079204559326,-0.2764320373535156,1.1509435176849365
1751214588262649900,5.26864990234375,-0.036842942237854004,-0.3312244415283203,1.4761905670166016
1751214588272643800,5.278643798828125,0.4103204011917114,-0.3431110382080078,1.5974571704864502
1751214588282637800,5.288637939453125,0.645685076713562,-0.2746467590332031,1.474543809890747
1751214588292631800,5.2986318359375,0.6938349008560181,-0.25510692596435547,1.3638160228729248
1751214588302625500,5.30862548828125,0.6912539005279541,-0.34133243560791016,1.3316644430160522
1751214588312619500,5.31861962890625,0.6874974966049194,-0.4562845230102539,1.3092188835144043
1751214588322613500,5.328613525390625,0.7117253541946411,-0.7000131607055664,1.2280495166778564
1751214588332607200,5.338607177734375,0.6498240232467651,-0.9287652969360352,0.9540433883666992
1751214588372583000,5.3785830078125,-0.29418063163757324,-2.803217887878418,0.07552134990692139
1751214588382577000,5.388576904296875,-0.33592331409454346,-3.437673568725586,0.11569112539291382
1751214588392570600,5.398570556640625,-0.12765109539031982,-4.040431976318359,0.3535233736038208
1751214588402564600,5.408564697265625,0.3680863380432129,-4.144062042236328,0.6624742746353149
1751214588412558600,5.41855859375,0.8045105934143066,-4.104164123535156,0.9709932804107666
1751214588422552600,5.428552490234375,0.8484007120132446,-4.475512504577637,1.431504726409912
1751214588432546300,5.43854638671875,0.46292197704315186,-4.956048011779785,1.8526018857955933
1751214588442540300,5.448540283203125,-0.04743075370788574,-5.530778884887695,2.376612424850464
1751214588452534300,5.4585341796875,-0.5655901432037354,-5.711921691894531,2.8678207397460938
1751214588462528000,5.468528076171875,-1.0485267639160156,-5.3905181884765625,3.219484806060791
1751214588472522000,5.47852197265625,-1.8014581203460693,-4.715794563293457,3.4157745838165283
1751214588482516000,5.488515869140625,-3.0759854316711426,-3.7407655715942383,3.417163848876953
1751214588492509700,5.498509765625,-4.379124164581299,-2.642518997192383,3.323399543762207
1751214588502503700,5.508503662109375,-5.255043029785156,-1.550572395324707,3.1345715522766113
1751214588512497700,5.51849755859375,-5.615962028503418,-0.5948381423950195,2.785304069519043
1751214588522491600,5.52849169921875,-5.6783599853515625,0.09939289093017578,2.2549455165863037
1751214588532485400,5.5384853515625,-5.2567267417907715,0.516850471496582,1.7857869863510132
1751214588542479400,5.548479248046875,-4.338772773742676,0.5184965133666992,1.5503382682800293
1751214588552473300,5.558473388671875,-3.039954900741577,0.17184925079345703,1.5119762420654297
1751214588562467000,5.568467041015625,-1.4464786052703857,-0.20656299591064453,1.489697813987732
1751214588572461000,5.5784609375,0.3640320897102356,-0.4964590072631836,1.4804004430770874
1751214588602442800,5.60844287109375,3.368802547454834,-1.5131034851074219,0.6054818034172058
1751214588612436700,5.618436767578125,3.4011292457580566,-1.6520891189575195,-0.2130717635154724
1751214588622430700,5.6284306640625,3.151360034942627,-1.7003107070922852,-1.1876771450042725
1751214588632424400,5.638424560546875,3.0633366107940674,-1.6142845153808594,-1.7959494590759277
1751214588642418400,5.64841845703125,3.0154378414154053,-1.41253662109375,-1.9489322900772095
1751214588652412400,5.658412353515625,3.005275011062622,-1.0609912872314453,-2.087739944458008
1751214588662406100,5.66840625,2.178495407104492,-0.6597414016723633,-2.1145689487457275
1751214588672400100,5.678400146484375,0.4875776469707489,-0.5392246246337891,-2.0709431171417236
1751214588682394000,5.68839404296875,-0.7328000068664551,-0.30762767791748047,-1.8778104782104492
1751214588692387800,5.698387939453125,-1.2110815048217773,-0.01823902130126953,-1.4611830711364746
1751214588702381800,5.7083818359375,-1.0010628700256348,0.13716793060302734,-1.1783044338226318
1751214588712375800,5.718375732421875,-0.2766512632369995,0.22550296783447266,-1.0309536457061768
1751214588722369500,5.72836962890625,0.946112871170044,0.4246482849121094,-1.1237866878509521
1751214588732363500,5.738363525390625,2.2457528114318848,0.6266078948974609,-1.3817873001098633
1751214588742357500,5.748357421875,3.119819402694702,0.7800760269165039,-1.5251765251159668
1751214588752351500,5.7583515625,3.6692748069763184,0.9282073974609375,-1.634765863418579
1751214588762345200,5.76834521484375,3.54996395111084,0.8649272918701172,-1.5050067901611328
1751214588772339200,5.778339111328125,2.5914876461029053,0.7368793487548828,-1.262953758239746
1751214588782333200,5.788333251953125,1.1633228063583374,0.6337261199951172,-1.0394372940063477
1751214588792327000,5.798326904296875,0.22744965553283691,0.5402030944824219,-0.8801329135894775
1751214588802321000,5.80832080078125,-0.07373631000518799,0.39952754974365234,-1.0137078762054443
1751214588812315000,5.81831494140625,0.33505791425704956,0.22327136993408203,-1.1118083000183105
1751214588822308600,5.82830859375,1.1252124309539795,-0.012127876281738281,-1.1031298637390137
1751214588832302600,5.838302490234375,1.4674065113067627,-0.32424068450927734,-1.2809686660766602
1751214588842296600,5.848296630859375,1.513270616531372,-0.3832817077636719,-1.673236608505249
1751214588852290600,5.85829052734375,1.282738208770752,-0.10293388366699219,-2.4106085300445557
1751214588862284300,5.8682841796875,1.003130316734314,0.23845577239990234,-2.972269296646118
1751214588872278300,5.8782783203125,1.229112148284912,0.584775447845459,-3.5048301219940186
1751214588882272300,5.888272216796875,1.4965455532073975,0.7415962219238281,-3.8407020568847656
1751214588892266000,5.898265869140625,1.585032343864441,0.9503226280212402,-4.184767723083496
1751214588902260000,5.908260009765625,1.449188470840454,0.986839771270752,-4.117537975311279
1751214588912254000,5.91825390625,0.9322744011878967,1.2423973083496094,-4.191133499145508
1751214588922247700,5.92824755859375,0.7014134526252747,1.4025707244873047,-4.221733570098877
1751214588932241700,5.93824169921875,0.8124382495880127,1.3034682273864746,-4.131341934204102
1751214588942235600,5.948235595703125,0.8289422988891602,1.4258933067321777,-4.32361364364624
1751214588952229400,5.9582294921875,0.8122006058692932,1.4732074737548828,-4.340047359466553
1751214588962223400,5.968223388671875,0.674819827079773,1.550619125366211,-4.443309307098389
1751214588972217300,5.97821728515625,0.5840922594070435,1.9509787559509277,-4.539400100708008
1751214588982211300,5.98821142578125,0.2950937747955322,2.099832534790039,-4.3047637939453125
1751214588992205000,5.998205078125,0.360257625579834,2.135499954223633,-3.976132869720459
1751214589002199000,6.008198974609375,0.5028731822967529,2.063052177429199,-3.550201416015625
1751214589012193000,6.018193115234375,0.4379725456237793,1.9919610023498535,-3.0147695541381836
1751214589022186800,6.028186767578125,0.3211785554885864,1.9497570991516113,-2.6590092182159424
1751214589032180700,6.0381806640625,0.21360349655151367,1.8597025871276855,-2.4736452102661133
1751214589042174700,6.0481748046875,0.05837869644165039,1.8219919204711914,-2.3915295600891113
1751214589052168400,6.05816845703125,-0.1629791259765625,1.7597723007202148,-2.3743577003479004
1751214589062162400,6.068162353515625,-0.2433086633682251,1.7071762084960938,-2.559080123901367
1751214589072156400,6.078156494140625,-0.2182323932647705,1.656031608581543,-2.760850667953491
1751214589082150400,6.088150390625,-0.30604052543640137,1.5645952224731445,-2.8579139709472656
1751214589092144000,6.09814404296875,-0.4430880546569824,1.4716224670410156,-2.9400534629821777
1751214589102138000,6.10813818359375,-0.47550928592681885,1.3782777786254883,-3.1771063804626465
1751214589112132000,6.118132080078125,-0.6382139921188354,1.2048249244689941,-3.528172731399536
1751214589122125800,6.128125732421875,-1.1046849489212036,0.9887533187866211,-3.414567708969116
1751214589132119800,6.138119873046875,-1.6118144989013672,0.5550093650817871,-2.672497034072876
1751214589142113800,6.14811376953125,-1.8021674156188965,-0.23633623123168945,-1.8709187507629395
1751214589152107500,6.158107421875,-0.8585371971130371,-1.0063352584838867,-1.1889829635620117
1751214589162101500,6.1681015625,0.2272094488143921,-1.5715827941894531,-1.064868450164795
1751214589172095500,6.178095458984375,0.1464778184890747,-2.1648731231689453,-1.6433372497558594
1751214589182089500,6.18808935546875,0.37664300203323364,-2.9069786071777344,-2.3287553787231445
1751214589192083200,6.198083251953125,1.3389403820037842,-3.4697751998901367,-2.8166260719299316
1751214589202077200,6.2080771484375,1.756067156791687,-3.9183549880981445,-2.920198440551758
1751214589212071200,6.2180712890625,2.309136152267456,-4.275195121765137,-2.6843268871307373
1751214589222065000,6.22806494140625,2.9865963459014893,-4.466988563537598,-2.174893379211426
1751214589232059000,6.238058837890625,3.640596628189087,-4.471569061279297,-1.887042760848999
1751214589242052900,6.248052978515625,3.7961266040802,-4.361327171325684,-1.9604389667510986
1751214589252046600,6.258046630859375,3.9225120544433594,-4.266140937805176,-1.8423056602478027
1751214589262040600,6.26804052734375,3.9811320304870605,-4.230588912963867,-1.0069644451141357
1751214589272034600,6.27803466796875,3.772810697555542,-4.371394157409668,0.6724271774291992
1751214589282028300,6.2880283203125,3.3417468070983887,-4.685734748840332,3.1740286350250244
1751214589292022300,6.298022216796875,1.6187808513641357,-5.349301338195801,6.013732433319092
1751214589302016300,6.308016357421875,-2.2008280754089355,-4.728114128112793,7.795675277709961
1751214589312010200,6.31801025390625,-4.571839332580566,-2.179375648498535,7.217105865478516
1751214589322004000,6.32800390625,-4.240564823150635,0.14418601989746094,4.772905349731445
1751214589331998000,6.337998046875,-2.9747445583343506,1.2381677627563477,1.9192428588867188
1751214589341992000,6.347991943359375,-2.1455039978027344,1.4364337921142578,0.08563232421875
1751214589361979600,6.367979736328125,-2.0127882957458496,1.2103958129882812,-1.3224936723709106
1751214589371973600,6.3779736328125,-2.426150321960449,1.1355304718017578,-1.3991650342941284
1751214589381967400,6.38796728515625,-2.592123508453369,0.9370956420898438,-1.3775343894958496
1751214589391961300,6.39796142578125,-2.0629677772521973,0.7480239868164062,-1.4943947792053223
1751214589401955300,6.407955322265625,-1.3516790866851807,0.7160453796386719,-1.6772035360336304
1751214589411949300,6.41794921875,-0.5493253469467163,0.7066268920898438,-1.79240083694458
1751214589421943000,6.427943115234375,0.1663285493850708,0.6284980773925781,-1.8840210437774658
1751214589431937000,6.43793701171875,0.6590478420257568,0.6011257171630859,-1.9476797580718994
1751214589441931000,6.447930908203125,1.0043010711669922,0.6818466186523438,-1.9633488655090332
1751214589451924700,6.4579248046875,1.3127851486206055,0.7606086730957031,-1.8496897220611572
1751214589461918700,6.467918701171875,1.499983787536621,0.8422441482543945,-1.7454909086227417
1751214589471912700,6.47791259765625,1.6497704982757568,0.8934059143066406,-1.6076381206512451
1751214589481906400,6.487906494140625,1.7791454792022705,0.9144144058227539,-1.5064653158187866
1751214589491900400,6.497900390625,1.850614070892334,0.9150142669677734,-1.396905541419983
1751214589501894400,6.507894287109375,1.7747604846954346,0.8140764236450195,-1.07700777053833
1751214589511888100,6.51788818359375,1.6134939193725586,0.6497516632080078,-0.576583743095398
1751214589521882000,6.527882080078125,1.348304271697998,0.5365867614746094,-0.08832812309265137
1751214589531876000,6.5378759765625,1.0700079202651978,0.5219869613647461,0.3773561716079712
1751214589541870000,6.5478701171875,0.7698891162872314,0.5148448944091797,0.8478652238845825
1751214589551863800,6.55786376953125,0.4590381383895874,0.5056285858154297,1.3216044902801514
1751214589561857800,6.56785791015625,0.08757293224334717,0.5089578628540039,1.792293906211853
1751214589571851800,6.577851806640625,-0.32217150926589966,0.4775199890136719,2.26174259185791
1751214589581845500,6.587845458984375,-0.7235941290855408,0.5028772354125977,2.651217222213745
1751214589591839500,6.597839599609375,-0.9476398229598999,0.504338264465332,2.8871002197265625
1751214589601833500,6.60783349609375,-0.9997564554214478,0.4441194534301758,2.8881399631500244
1751214589611827200,6.6178271484375,-0.8965271711349487,0.4180593490600586,2.8777055740356445
1751214589621821200,6.6278212890625,-0.7020741105079651,0.4835023880004883,2.783468008041382
1751214589631815200,6.637815185546875,-0.5183343887329102,0.4778327941894531,2.6831090450286865
1751214589641809200,6.64780908203125,-0.37119460105895996,0.3867940902709961,2.5911166667938232
1751214589651803000,6.657802978515625,-0.26759910583496094,0.27251243591308594,2.426283359527588
1751214589661796900,6.667796875,-0.2996788024902344,0.1873912811279297,2.1376514434814453
1751214589671790800,6.677790771484375,-0.4098600149154663,0.1742544174194336,1.7276607751846313
1751214589681784600,6.68778466796875,-0.5404043793678284,0.22801971435546875,1.2330889701843262
1751214589691778600,6.697778564453125,-0.9378626346588135,0.32471275329589844,0.7480531930923462
1751214589701772500,6.7077724609375,-1.1119860410690308,0.4788045883178711,0.3793894052505493
1751214589711766300,6.717766357421875,-1.282244324684143,0.5707626342773438,-0.07208538055419922
1751214589721760300,6.72776025390625,-1.4510661363601685,0.4815177917480469,-0.41250890493392944
1751214589731754200,6.737754150390625,-1.468080997467041,0.3407449722290039,-0.4501844048500061
1751214589741748000,6.747748046875,-1.1622111797332764,0.21540451049804688,-0.335257351398468
1751214589751742000,6.757741943359375,-0.6809371113777161,0.10971927642822266,-0.18810272216796875
1751214589761736000,6.76773583984375,-0.15660715103149414,0.07094573974609375,-0.07593226432800293
1751214589771730000,6.77772998046875,0.2545790672302246,0.041077613830566406,0.049277424812316895
1751214589781723600,6.7877236328125,0.31368112564086914,-0.018195152282714844,0.28767138719558716
1751214589791717600,6.797717529296875,0.1192324161529541,-0.09213733673095703,0.7336877584457397
1751214589801711600,6.807711669921875,-0.05339837074279785,-0.2709808349609375,1.2894407510757446
1751214589811705300,6.817705322265625,-0.09735023975372314,-0.5014572143554688,1.780371904373169
1751214589821699300,6.82769921875,0.04004478454589844,-0.7544736862182617,2.1851463317871094
1751214589831693300,6.837693359375,0.2847785949707031,-1.010986328125,2.4694766998291016
1751214589851681000,6.857680908203125,0.5753927230834961,-1.5211114883422852,2.2723309993743896
1751214589861675000,6.867675048828125,0.5385725498199463,-1.7514333724975586,1.742843747138977
1751214589871669000,6.8776689453125,0.5470790863037109,-2.124772071838379,1.14207923412323
1751214589881662700,6.887662841796875,0.6289247274398804,-2.416341781616211,0.3700239062309265
1751214589891656700,6.89765673828125,0.8303775787353516,-2.564814567565918,-0.3926389217376709
1751214589901650700,6.907650634765625,1.0973132848739624,-2.733281135559082,-0.8436424732208252
1751214589911644400,6.91764453125,1.2288423776626587,-2.892812728881836,-0.9715535640716553
1751214589921638400,6.927638427734375,1.1874644756317139,-2.990656852722168,-0.9029912948608398
1751214589931632400,6.93763232421875,1.0502976179122925,-3.1795806884765625,-0.6257282495498657
1751214589941626000,6.947626220703125,0.8417806625366211,-3.382518768310547,-0.1335310935974121
1751214589951620000,6.9576201171875,0.3639695644378662,-3.403017997741699,0.29417848587036133
1751214589961614000,6.967614013671875,-0.377452552318573,-3.2694969177246094,0.6334984302520752
1751214589971608000,6.977608154296875,-1.1287068128585815,-3.124898910522461,0.9938859939575195
1751214589981601800,6.987601806640625,-1.7527685165405273,-2.987783432006836,1.2979390621185303
1751214589991595800,6.997595703125,-2.2525949478149414,-2.719249725341797,1.4541428089141846
1751214590001589800,7.00758984375,-2.5980124473571777,-2.41988468170166,1.573166847229004
1751214590011583500,7.01758349609375,-2.7850704193115234,-2.042184829711914,1.66404390335083
1751214590021577500,7.027577392578125,-2.8149209022521973,-1.605764389038086,1.6976368427276611
1751214590031571500,7.037571533203125,-2.6598434448242188,-1.0778236389160156,1.7462326288223267
1751214590041565200,7.047565185546875,-2.3604822158813477,-0.48311519622802734,1.8100907802581787
1751214590051559200,7.05755908203125,-1.8773045539855957,0.07244586944580078,1.8842934370040894
1751214590061553200,7.06755322265625,-1.3590909242630005,0.4449310302734375,1.844628095626831
1751214590071547000,7.077546875,-1.1012816429138184,0.4336233139038086,1.6299997568130493
1751214590081540900,7.087540771484375,-1.1253068447113037,0.11548900604248047,1.352050542831421
1751214590091534800,7.097534912109375,-1.231099247932434,-0.3178577423095703,1.1365435123443604
1751214590101528800,7.10752880859375,-1.2456364631652832,-0.6893434524536133,0.9925445318222046
1751214590111522600,7.1175224609375,-1.0343859195709229,-0.8271846771240234,0.7861508727073669
1751214590121516500,7.1275166015625,-0.6603964567184448,-0.8800973892211914,0.40728408098220825
1751214590131510500,7.137510498046875,-0.22110606729984283,-0.9630880355834961,-0.15620490908622742
1751214590141504300,7.147504150390625,0.0504302978515625,-1.0474891662597656,-0.6955711245536804
1751214590151498200,7.157498291015625,0.22461456060409546,-1.0520668029785156,-1.1319507360458374
1751214590161492200,7.1674921875,0.4859825670719147,-1.0581607818603516,-1.3009699583053589
1751214590171486000,7.17748583984375,0.8158196806907654,-1.0561332702636719,-1.2132439613342285
1751214590181480000,7.18747998046875,1.0418050289154053,-1.0698423385620117,-1.0136780738830566
1751214590191474000,7.197473876953125,1.0642820596694946,-1.084935188293457,-0.7227897047996521
1751214590201468000,7.207468017578125,0.48976224660873413,-1.3308305740356445,-0.323192298412323
1751214590211461600,7.217461669921875,-0.1670718789100647,-1.1815118789672852,0.15501970052719116
1751214590221455600,7.22745556640625,-0.41200482845306396,-0.915283203125,0.9044696092605591
1751214590231449600,7.23744970703125,-0.22777003049850464,-0.5566091537475586,1.5662803649902344
1751214590241443300,7.247443359375,0.2466481328010559,-0.2825794219970703,2.1693286895751953
1751214590251437300,7.257437255859375,0.7770836353302002,-0.050019264221191406,2.4003288745880127
1751214590261431300,7.267431396484375,1.2821733951568604,-0.18849658966064453,2.356067180633545
1751214590271425000,7.277425048828125,1.3034913539886475,-0.7979211807250977,1.902291178703308
1751214590281419000,7.2874189453125,1.1893575191497803,-1.0228395462036133,1.2776172161102295
1751214590291413000,7.2974130859375,0.9963963627815247,-0.8842334747314453,0.6989128589630127
1751214590301406700,7.30740673828125,0.7853002548217773,-0.4168996810913086,-0.21760010719299316
1751214590311400700,7.317400634765625,0.756665050983429,-0.04120826721191406,-1.2924134731292725
1751214590321394700,7.327394775390625,0.8442503213882446,0.2204122543334961,-1.9801418781280518
1751214590331388700,7.337388671875,0.9728691577911377,0.46469593048095703,-2.3234071731567383
1751214590381358000,7.387358154296875,0.04178828001022339,-0.17836570739746094,-0.1571037769317627
1751214590391352000,7.39735205078125,-0.06922292709350586,-0.19470882415771484,-0.10658121109008789
1751214590401345800,7.407345703125,-0.023647189140319824,-0.2936077117919922,-0.21041536331176758
1751214590411339800,7.41733984375,0.2577909231185913,-0.37510204315185547,-0.3875432014465332
1751214590421333800,7.427333740234375,0.6336955428123474,-0.34302616119384766,-0.7739434242248535
1751214590431327700,7.43732763671875,1.1208105087280273,-0.2966156005859375,-1.2462799549102783
1751214590441321500,7.447321533203125,1.4017810821533203,-0.25314903259277344,-1.7765908241271973
1751214590451315500,7.4573154296875,1.2014458179473877,-0.19207286834716797,-2.232909917831421
1751214590461309400,7.467309326171875,0.903746485710144,-0.04509258270263672,-2.693544626235962
1751214590471303200,7.47730322265625,0.6531326770782471,0.07874011993408203,-2.9990646839141846
1751214590481297200,7.487297119140625,0.3654704988002777,-0.029417991638183594,-3.243199348449707
1751214590491291100,7.497291015625,0.32024139165878296,0.17510509490966797,-3.5365872383117676
1751214590501284900,7.507284912109375,0.40954074263572693,0.6347451210021973,-3.8170716762542725
1751214590511278800,7.51727880859375,0.6055750846862793,1.1096525192260742,-4.011542797088623
1751214590521272800,7.52727294921875,0.8347823619842529,1.4389700889587402,-4.411641597747803
1751214590531266600,7.5372666015625,1.0030747652053833,1.931788444519043,-4.79969596862793
1751214590541260500,7.547260498046875,0.80461585521698,1.9154367446899414,-4.864614486694336
1751214590551254500,7.557254638671875,0.5500494241714478,1.7149620056152344,-4.7807817459106445
1751214590561248500,7.56724853515625,0.4849879741668701,1.5934257507324219,-4.6961140632629395
1751214590571242200,7.5772421875,0.6065285205841064,1.592782974243164,-4.535388469696045
1751214590581236200,7.587236328125,0.6833875179290771,1.6932244300842285,-4.36688232421875
1751214590591230200,7.597230224609375,0.7036005258560181,1.6745233535766602,-4.134444713592529
1751214590601224000,7.607223876953125,0.6447540521621704,1.875197410583496,-4.0410261154174805
1751214590611218000,7.617218017578125,0.23395007848739624,2.1552042961120605,-3.9285829067230225
1751214590621212000,7.6272119140625,-0.00693356990814209,2.0820441246032715,-3.70023775100708
1751214590631205600,7.63720556640625,-0.07676684856414795,2.1492881774902344,-3.7753653526306152
1751214590641199600,7.64719970703125,-0.25603628158569336,2.2090988159179688,-3.779494285583496
1751214590651193600,7.657193603515625,-0.45611631870269775,2.223917007446289,-3.816480875015259
1751214590661187600,7.6671875,-0.6666786670684814,2.247119426727295,-3.94228458404541
1751214590671181300,7.677181396484375,-0.8828738927841187,2.2076077461242676,-4.155628204345703
1751214590681175300,7.68717529296875,-1.0427206754684448,2.1445608139038086,-4.49297571182251
1751214590691169300,7.697169189453125,-1.0695762634277344,2.0204849243164062,-4.909384727478027
1751214590701163000,7.7071630859375,-1.0352150201797485,1.870140552520752,-5.401983737945557
1751214590711157000,7.717156982421875,-1.0974509716033936,1.7365264892578125,-5.63497257232666
1751214590721151000,7.72715087890625,-1.376011848449707,1.699070930480957,-5.255725860595703
1751214590731144700,7.737144775390625,-1.788894534111023,1.3952670097351074,-3.9590330123901367
1751214590741138700,7.747138671875,-1.9865061044692993,0.3734307289123535,-2.5126116275787354
1751214590751132700,7.757132568359375,-0.04426872730255127,-1.3804311752319336,-1.055922508239746
1751214590761126700,7.767126708984375,2.3296782970428467,-3.414888381958008,-0.27878904342651367
1751214590771120400,7.777120361328125,2.7319042682647705,-5.415477752685547,0.061543941497802734
1751214590781114400,7.7871142578125,3.3596696853637695,-6.678632736206055,0.3577141761779785
1751214590791108400,7.7971083984375,5.636102199554443,-7.399065971374512,1.3628664016723633
1751214590801102000,7.80710205078125,7.286426544189453,-7.735783576965332,2.593404769897461
1751214590811096000,7.817095947265625,5.523388385772705,-8.554476737976074,4.83867073059082
1751214590821090000,7.827090087890625,-0.017146587371826172,-8.64842700958252,7.709484100341797
1751214590831083800,7.837083740234375,-4.130033493041992,-5.516512870788574,7.253379821777344
1751214590841077800,7.847077880859375,-2.8495287895202637,-1.863783836364746,3.570225238800049
1751214590851071700,7.85707177734375,1.154577612876892,-0.1866292953491211,-0.20320415496826172
1751214590861065500,7.8670654296875,3.1607210636138916,-0.3072805404663086,-2.2868094444274902
1751214590871059500,7.8770595703125,2.5898056030273438,-1.3467884063720703,-2.1543312072753906
1751214590881053400,7.887053466796875,0.5489458441734314,-2.319398880004883,-0.8001596927642822
1751214590891047400,7.89704736328125,-1.2375106811523438,-2.329054832458496,1.4154095649719238
1751214590901041200,7.907041259765625,-1.9295424222946167,-1.3900470733642578,3.052676200866699
1751214590911035100,7.91703515625,-1.7303493022918701,-0.42226696014404297,3.184664726257324
1751214590921029000,7.927029052734375,-1.464574933052063,0.19217491149902344,2.2072153091430664
1751214590931022800,7.93702294921875,-1.5656499862670898,0.4590301513671875,1.5209321975708008
1751214590941016800,7.947016845703125,-1.6471431255340576,0.5887908935546875,1.2111706733703613
1751214590951010800,7.9570107421875,-1.4046597480773926,0.7337827682495117,0.9358168840408325
1751214590961004500,7.967004638671875,-0.8540205359458923,0.9077138900756836,0.6449458599090576
1751214590970998500,7.97699853515625,-0.4036846458911896,1.0863351821899414,0.25602996349334717
1751214590980992500,7.986992431640625,0.07184410095214844,1.3799943923950195,-0.2914317846298218
1751214590990986500,7.996986572265625,0.4071543216705322,1.6412591934204102,-0.9499911069869995
1751214591000980200,8.006980224609375,0.7156391143798828,1.8996901512145996,-1.5197383165359497
1751214591010974200,8.01697412109375,0.9384192228317261,2.1272783279418945,-1.9160137176513672
1751214591020968200,8.02696826171875,1.0041532516479492,2.224240303039551,-2.1174392700195312
1751214591030962000,8.0369619140625,0.9126170873641968,2.2053956985473633,-2.127363681793213
1751214591040956000,8.046955810546875,0.7840878367424011,2.1474428176879883,-1.9118908643722534
1751214591050950000,8.056949951171875,0.666844367980957,2.0693535804748535,-1.6105012893676758
1751214591060943600,8.066943603515625,0.5912980437278748,1.8849902153015137,-1.2479676008224487
1751214591070937600,8.0769375,0.5513195395469666,1.613504409790039,-0.88895183801651
1751214591080931600,8.086931640625,0.44497740268707275,1.2311792373657227,-0.5876757502555847
1751214591090925300,8.09692529296875,0.37538808584213257,0.7862329483032227,-0.3379848003387451
1751214591100919300,8.106919189453125,0.4098414182662964,0.38869667053222656,-0.08550190925598145
1751214591110913300,8.116913330078125,0.5001273155212402,0.3869810104370117,0.14560246467590332
1751214591120907300,8.1269072265625,0.6164486408233643,0.5123805999755859,0.47758474946022034
1751214591130901000,8.13690087890625,0.6646904945373535,0.48282909393310547,0.8606446981430054
1751214591140895000,8.14689501953125,0.5894373655319214,0.3849039077758789,1.1968212127685547
1751214591150889000,8.156888916015625,0.4217606782913208,0.33380794525146484,1.4647517204284668
1751214591160882700,8.166882568359375,0.2117633819580078,0.28694629669189453,1.6821720600128174
1751214591170876700,8.176876708984375,-0.043707966804504395,0.23521804809570312,1.753564715385437
1751214591180870700,8.18687060546875,-0.22454512119293213,0.16461658477783203,1.737402081489563
1751214591190864400,8.196864501953126,-0.2736561894416809,0.05159568786621094,1.7857608795166016
1751214591200858400,8.2068583984375,-0.23071444034576416,-0.04137897491455078,1.9245959520339966
1751214591210852400,8.216852294921875,-0.37239527702331543,-0.18565940856933594,1.96221125125885
1751214591220846300,8.226846435546875,-0.6167545318603516,-0.26631641387939453,2.0575010776519775
1751214591230840000,8.236840087890625,-0.7535752058029175,-0.2928781509399414,2.2096714973449707
1751214591240834000,8.246833984375,-0.7508002519607544,-0.3657817840576172,2.2368061542510986
1751214591250828000,8.256828125,-0.7145918607711792,-0.3512735366821289,2.087761402130127
1751214591260821800,8.26682177734375,-0.5410457253456116,-0.19730854034423828,1.7937781810760498
1751214591270815700,8.276815673828125,-0.2867268919944763,-0.15795516967773438,1.5144908428192139
1751214591280809700,8.286809814453125,-0.1412191390991211,-0.1521739959716797,1.2319095134735107
1751214591290803500,8.296803466796876,-0.03255605697631836,-0.027040481567382812,1.1517492532730103
1751214591300797400,8.30679736328125,-0.017598628997802734,0.1454315185546875,0.9835216999053955
1751214591310791400,8.31679150390625,0.037601351737976074,0.20261573791503906,0.8958777189254761
1751214591320785400,8.326785400390625,0.07971155643463135,0.20682430267333984,0.8980826139450073
1751214591330779100,8.336779052734375,-0.07272458076477051,0.3109283447265625,0.8144118189811707
1751214591340773000,8.346773193359375,-0.4265202283859253,0.4240684509277344,0.7897089123725891
1751214591350767000,8.35676708984375,-0.7872217297554016,0.5466365814208984,0.7512290477752686
1751214591360760800,8.3667607421875,-0.9507535696029663,0.664607048034668,0.6091294288635254
1751214591370754800,8.3767548828125,-0.687657356262207,0.6299409866333008,0.5505503416061401
1751214591380748800,8.386748779296875,-0.3541209101676941,0.4428825378417969,0.4694150686264038
1751214591390742500,8.396742431640625,-0.17231154441833496,0.16562366485595703,0.437546968460083
1751214591400736500,8.406736572265626,-0.10953569412231445,-0.07760238647460938,0.46489548683166504
1751214591410730500,8.41673046875,-0.05147981643676758,-0.29659557342529297,0.5761198997497559
1751214591420724200,8.42672412109375,0.0024961233139038086,-0.4243946075439453,0.8225476145744324
1751214591430718200,8.43671826171875,0.015575647354125977,-0.4226980209350586,1.0585871934890747
1751214591440712200,8.446712158203125,-0.0055005550384521484,-0.33440589904785156,1.1146537065505981
1751214591450706200,8.4567060546875,-0.055632054805755615,-0.23614788055419922,0.9959113001823425
1751214591460700000,8.466699951171876,-0.13081860542297363,-0.16161727905273438,0.7709360718727112
1751214591470694000,8.47669384765625,-0.022230923175811768,-0.1399078369140625,0.562871515750885
1751214591480687900,8.48668798828125,0.3113359212875366,-0.27155113220214844,0.45987242460250854
1751214591490681600,8.496681640625,0.7481220364570618,-0.46077823638916016,0.43744009733200073
1751214591500675600,8.506675537109375,1.2371865510940552,-0.5594034194946289,0.39761126041412354
1751214591510669600,8.516669677734376,1.7313742637634277,-0.6823205947875977,0.2517660856246948
1751214591520663300,8.526663330078126,2.1822495460510254,-0.9061203002929688,-0.08265542984008789
1751214591530657300,8.5366572265625,2.5002658367156982,-1.173797607421875,-0.6120866537094116
1751214591540651300,8.5466513671875,2.4617841243743896,-1.5240592956542969,-1.1444464921951294
1751214591550645200,8.556645263671875,2.122687816619873,-1.8800287246704102,-1.2430405616760254
1751214591560639000,8.566638916015625,1.7935839891433716,-2.111623764038086,-0.7884547710418701
1751214591570633000,8.576633056640626,1.5169390439987183,-2.2327709197998047,-0.3149346113204956
1751214591580627000,8.586626953125,1.2919747829437256,-2.5305442810058594,-0.055063605308532715
1751214591590620700,8.59662060546875,1.1663522720336914,-3.2631053924560547,0.08861649036407471
1751214591600614700,8.60661474609375,0.9334715604782104,-4.477326393127441,0.2987978458404541
1751214591610608600,8.616608642578125,0.30516529083251953,-5.631697654724121,0.4397634267807007
1751214591620602400,8.626602294921875,-0.8404396176338196,-6.023445129394531,0.3819999694824219
1751214591630596400,8.636596435546876,-2.341299533843994,-5.247260093688965,0.4968045949935913
1751214591640590300,8.64659033203125,-3.62634015083313,-4.48892879486084,0.9599231481552124
1751214591650584000,8.656583984375,-4.315479755401611,-4.134393692016602,1.4621498584747314
1751214591660578000,8.666578125,-4.592644691467285,-3.8101024627685547,1.720367431640625
1751214591670572000,8.676572021484375,-4.733242511749268,-3.2443628311157227,1.7981889247894287
1751214591680566000,8.68656591796875,-4.715554237365723,-2.6869583129882812,1.9411463737487793
1751214591690559700,8.696559814453124,-4.699695587158203,-2.2864980697631836,2.205355644226074
1751214591700553700,8.7065537109375,-4.50588321685791,-1.876028060913086,2.393923759460449
1751214591710547700,8.716547607421875,-4.228115081787109,-1.2269353866577148,2.491279125213623
1751214591720541400,8.72654150390625,-3.713834285736084,-0.6557102203369141,2.5290846824645996
1751214591730535400,8.736535400390625,-3.0743839740753174,-0.24417781829833984,2.479550361633301
1751214591740529400,8.746529296875,-2.515641212463379,0.03139305114746094,2.482429027557373
1751214591750523100,8.756523193359374,-2.103477954864502,0.0709371566772461,2.4602882862091064
1751214591760517000,8.76651708984375,-1.829162836074829,-0.07230472564697266,2.311086416244507
1751214591770511000,8.776510986328125,-1.6723909378051758,-0.3215370178222656,2.0253450870513916
1751214591780505000,8.786505126953125,-1.4829655885696411,-0.853367805480957,1.845766305923462
1751214591790498800,8.796498779296876,-1.0926384925842285,-1.509678840637207,1.6436702013015747
1751214591800492800,8.806492919921874,-0.2678311765193939,-1.6555871963500977,1.220076560974121
1751214591810486800,8.81648681640625,0.7697827219963074,-1.4028806686401367,0.765826404094696
1751214591820480500,8.82648046875,1.4747291803359985,-0.9727067947387695,0.29919499158859253
1751214591830474500,8.836474609375,2.001460552215576,-0.5567760467529297,-0.09314341843128204
1751214591840468500,8.846468505859375,2.503218412399292,0.0695505142211914,-0.3932814598083496
1751214591850462200,8.856462158203126,2.789313793182373,0.7150564193725586,-0.9221105575561523
1751214591860456200,8.866456298828124,2.83193039894104,0.9741401672363281,-1.3287172317504883
1751214591870450200,8.8764501953125,2.8441052436828613,1.0774116516113281,-1.6059207916259766
1751214591880444000,8.88644384765625,3.1954336166381836,1.1310758590698242,-1.9338301420211792
1751214591890438000,8.89643798828125,3.176901340484619,1.0309715270996094,-1.978661298751831
1751214591900432000,8.906431884765626,2.271658182144165,0.6151885986328125,-1.7295570373535156
1751214591910425900,8.91642578125,1.258364200592041,0.22770309448242188,-1.4944984912872314
1751214591920419600,8.926419677734375,0.06457716226577759,-0.19427013397216797,-1.1490354537963867
1751214591930413600,8.93641357421875,-0.8153559565544128,-0.5800886154174805,-0.6391398906707764
1751214591940407600,8.946407470703125,-0.9587274193763733,-0.6776628494262695,-0.05873608589172363
1751214591950401300,8.9564013671875,-0.28620004653930664,-0.46961307525634766,0.3501274585723877
1751214591960395300,8.966395263671876,1.0615670680999756,-0.3434743881225586,0.5392656326293945
1751214591970389200,8.97638916015625,2.197490930557251,-0.23121261596679688,0.2530972957611084
1751214591980383000,8.986383056640625,2.5315804481506348,-0.22723102569580078,-0.05385112762451172
1751214591990377000,8.996376953125,1.7547824382781982,-0.43629932403564453,-0.25051140785217285
1751214592000371000,9.006370849609375,0.5774728655815125,-0.5431022644042969,-0.503943920135498
1751214592010365000,9.016364990234376,-0.3428958058357239,-0.40970611572265625,-0.994638204574585
1751214592020358700,9.026358642578124,-0.577329695224762,-0.1515655517578125,-1.6452573537826538
1751214592030352600,9.0363525390625,-0.1821134090423584,0.006744384765625,-2.19266939163208
1751214592040346600,9.0463466796875,0.39849069714546204,0.18549728393554688,-2.774838447570801
1751214592050340400,9.05634033203125,0.7336010932922363,0.36106109619140625,-3.2575016021728516
1751214592060334300,9.066334228515625,0.7433064579963684,0.4573831558227539,-3.4921326637268066
1751214592070328300,9.076328369140626,0.47763386368751526,0.36473751068115234,-3.317145824432373
1751214592080322000,9.086322021484374,0.23619866371154785,0.2504539489746094,-2.9059715270996094
1751214592090316000,9.09631591796875,0.1112026572227478,0.13365650177001953,-2.4215903282165527
1751214592100310000,9.10631005859375,0.25727251172065735,0.1341552734375,-2.0406408309936523
1751214592110304000,9.116303955078125,0.6201742887496948,0.5634031295776367,-2.228959560394287
1751214592120297700,9.126297607421876,0.8266444206237793,0.926544189453125,-2.545835494995117
1751214592130291700,9.136291748046874,0.8294342756271362,1.1366491317749023,-2.7278921604156494
1751214592140285700,9.14628564453125,0.5522676110267639,0.5914578437805176,-2.281360149383545
1751214592150279400,9.156279541015625,0.4264072775840759,-0.01983642578125,-1.6849250793457031
1751214592160273400,9.1662734375,0.3786613643169403,0.02855205535888672,-1.7464826107025146
1751214592170267400,9.176267333984375,0.43835529685020447,0.22546052932739258,-1.9509925842285156
1751214592180261000,9.18626123046875,0.5664674639701843,0.36525583267211914,-2.1931304931640625
1751214592190255000,9.196255126953124,0.46984779834747314,0.5883197784423828,-2.61411190032959
1751214592200249000,9.2062490234375,0.3720713257789612,0.8238353729248047,-2.988130807876587
1751214592210242800,9.216242919921875,0.4397220313549042,1.1257233619689941,-3.2757010459899902
1751214592220236800,9.22623681640625,0.6240359544754028,1.3044419288635254,-3.465831756591797
1751214592230230800,9.236230712890626,0.803466796875,1.399336338043213,-3.439061164855957
1751214592240224800,9.246224853515624,0.6936342716217041,1.5399141311645508,-3.239361524581909
1751214592250218500,9.256218505859374,0.41465550661087036,1.739762306213379,-3.040328025817871
1751214592260212500,9.26621240234375,0.3339066505432129,1.8741464614868164,-2.914551019668579
1751214592270206500,9.27620654296875,0.44313496351242065,1.971555233001709,-2.839129686355591
1751214592280200200,9.2862001953125,0.5521934628486633,2.003082752227783,-2.695746898651123
1751214592290194200,9.296194091796876,0.5412045121192932,2.021312713623047,-2.709472179412842
1751214592300188200,9.306188232421874,0.36390817165374756,1.9781956672668457,-2.7034659385681152
1751214592310182000,9.316181884765625,0.14100587368011475,1.9356966018676758,-2.6493396759033203
1751214592320175900,9.32617578125,0.10728156566619873,1.9128031730651855,-2.6379733085632324
1751214592330169900,9.336169921875,0.28612786531448364,1.8760457038879395,-2.693046808242798
1751214592370145500,9.3761455078125,0.28444480895996094,1.580876350402832,-2.515872001647949
1751214592380139300,9.38613916015625,0.080666184425354,1.4937682151794434,-2.5781657695770264
1751214592390133200,9.39613330078125,-0.4574391841888428,1.401641845703125,-2.2177910804748535
1751214592400127200,9.406127197265626,-1.5124084949493408,1.1957974433898926,-1.2298779487609863
1751214592410121000,9.416120849609374,-1.7788223028182983,0.5541768074035645,-0.4072270393371582
1751214592420115000,9.426114990234375,-1.0352951288223267,-0.2840414047241211,0.18182134628295898
1751214592430109000,9.43610888671875,-0.5632256865501404,-0.9155778884887695,0.166259765625
1751214592440102700,9.4461025390625,-0.03222382068634033,-1.3181352615356445,-0.37133169174194336
1751214592450096600,9.4560966796875,-0.01806873083114624,-1.623495101928711,-0.8288965225219727
1751214592460090600,9.466090576171876,-0.15099871158599854,-1.9133033752441406,-0.7141413688659668
1751214592470084600,9.476084716796874,0.08154994249343872,-2.16959285736084,-0.12466764450073242
1751214592480078300,9.486078369140625,0.06345364451408386,-2.3460140228271484,0.4883303642272949
1751214592490072300,9.496072265625,-0.4165111780166626,-2.5681161880493164,0.7228455543518066
1751214592500066300,9.50606640625,-0.5591835975646973,-2.7785863876342773,0.5044002532958984
1751214592510060000,9.51606005859375,0.12928113341331482,-2.877312660217285,0.04455709457397461
1751214592520054000,9.526053955078124,0.9493169784545898,-2.903209686279297,-0.1791248321533203
1751214592530048000,9.536048095703125,1.8659181594848633,-3.1100902557373047,-0.13941049575805664
1751214592540041700,9.546041748046875,2.2170774936676025,-3.6977806091308594,0.1114034652709961
1751214592550035700,9.55603564453125,1.1836419105529785,-4.3458099365234375,0.8401522636413574
1751214592560029700,9.56602978515625,0.16137762367725372,-4.731908798217773,1.8547239303588867
1751214592570023700,9.576023681640624,-0.2718518078327179,-4.737810134887695,1.848745346069336
1751214592580017400,9.586017333984374,-0.33788394927978516,-4.108336448669434,0.801180362701416
1751214592590011400,9.596011474609375,0.08957341313362122,-3.2125701904296875,0.2676510810852051
1751214592600005400,9.60600537109375,0.49430784583091736,-2.3541154861450195,0.03280019760131836
1751214592609999000,9.6159990234375,0.3034523129463196,-1.8819150924682617,-0.34398865699768066
1751214592619993000,9.6259931640625,-0.37275248765945435,-1.7461433410644531,-0.7832615375518799
1751214592629987000,9.635987060546874,-0.7383257150650024,-1.4152717590332031,-0.9444699287414551
1751214592639980800,9.645980712890625,-0.5722044110298157,-0.9284515380859375,-1.158996820449829
1751214592649974800,9.655974853515625,-0.2611708343029022,-0.2815237045288086,-1.1884970664978027
1751214592659968800,9.66596875,-0.058425962924957275,0.4004173278808594,-1.04433012008667
1751214592669962800,9.675962646484376,-0.30930328369140625,0.7151880264282227,-0.6862366199493408
1751214592679956500,9.68595654296875,-0.6374267339706421,0.8916244506835938,-0.23357748985290527
1751214592689950500,9.695950439453124,-1.159600853919983,0.8913936614990234,-0.11370205879211426
1751214592699944400,9.7059443359375,-1.4328176975250244,0.763249397277832,-0.3103189468383789
1751214592709938200,9.715938232421875,-1.4196399450302124,0.45106029510498047,-0.696176290512085
1751214592719932200,9.72593212890625,-1.2536225318908691,-0.053447723388671875,-0.9866071939468384
1751214592729926100,9.735926025390626,-1.0702426433563232,-0.5398073196411133,-1.0677546262741089
1751214592739920000,9.745919921875,-0.7840175628662109,-0.3962564468383789,-1.2154620885849
1751214592749913900,9.755913818359375,-0.4201522767543793,0.08461666107177734,-1.2699490785598755
1751214592759907800,9.765907958984375,0.10442793369293213,0.4047403335571289,-1.2037293910980225
1751214592769901600,9.775901611328125,0.46674007177352905,0.535090446472168,-1.0627590417861938
1751214592779895600,9.7858955078125,0.580087423324585,0.8054161071777344,-0.9726225733757019
1751214592789889500,9.7958896484375,0.43160510063171387,1.2544794082641602,-1.1287025213241577
1751214592799883500,9.805883544921874,0.18229693174362183,1.3853435516357422,-0.9271261692047119
1751214592809877200,9.815877197265625,-0.07362383604049683,1.236800193786621,-0.5335028171539307
1751214592819871200,9.825871337890625,-0.22768175601959229,1.0578641891479492,-0.14699006080627441
1751214592829865200,9.835865234375,-0.2825765609741211,1.020833969116211,0.12186014652252197
1751214592839859000,9.84585888671875,-0.22216540575027466,1.07781982421875,0.41980141401290894
1751214592849853000,9.85585302734375,-0.08887994289398193,1.1236772537231445,0.6876105666160583
1751214592859847000,9.865846923828125,-0.06437838077545166,1.2493581771850586,0.8568962812423706
1751214592869840600,9.875840576171875,-0.04635012149810791,1.292806625366211,0.9521985650062561
1751214592879834600,9.885834716796875,-0.038289785385131836,1.1878700256347656,0.9704478979110718
1751214592899822600,9.905822509765626,-0.11744523048400879,1.0317192077636719,1.1623862981796265
1751214592909816300,9.91581640625,-0.11154818534851074,1.0430011749267578,1.4122446775436401
1751214592919810300,9.925810302734375,-0.07021057605743408,1.04052734375,1.6663227081298828
1751214592929804300,9.93580419921875,-0.06595683097839355,0.8761787414550781,1.903986930847168
1751214592939798000,9.945798095703125,-0.02341461181640625,0.5980100631713867,2.052013397216797
1751214592949792000,9.9557919921875,-0.030448079109191895,0.3685283660888672,2.1483302116394043
1751214592959786000,9.965785888671874,0.0446895956993103,0.3975505828857422,2.085286855697632
1751214592969779700,9.97577978515625,0.13335126638412476,0.3402976989746094,2.1266539096832275
1751214592979773700,9.985773681640625,0.34432005882263184,-0.07094860076904297,2.3795361518859863
1751214592989767700,9.995767578125,0.6776687502861023,-0.4772195816040039,2.6341640949249268
1751214592999761400,10.005761474609375,1.1993454694747925,-0.5109424591064453,2.579653739929199
1751214593009755400,10.01575537109375,1.680159091949463,-0.1732797622680664,2.318617582321167
1751214593019749400,10.025749267578124,2.0249826908111572,-0.08159351348876953,2.128295660018921
1751214593029743400,10.035743408203125,2.4415650367736816,-0.3547248840332031,2.4569344520568848
1751214593039737000,10.045737060546875,2.3499906063079834,-0.4857368469238281,2.214841365814209
1751214593049731000,10.05573095703125,1.862203598022461,-0.42754077911376953,1.7505788803100586
1751214593059725000,10.06572509765625,1.2689917087554932,-0.5677022933959961,1.653973937034607
1751214593069718800,10.07571875,0.5952610969543457,-0.5861291885375977,1.506882667541504
1751214593079712800,10.085712646484374,-0.21459972858428955,-0.11530685424804688,0.8799409866333008
1751214593089706800,10.095706787109375,-0.9979984760284424,0.5576705932617188,0.44717976450920105
1751214593099700500,10.105700439453125,-1.544102430343628,1.0365324020385742,-0.04626917839050293
1751214593109694500,10.115694580078125,-2.264158248901367,1.0121259689331055,-0.47710075974464417
1751214593119688400,10.1256884765625,-3.2429094314575195,0.7360496520996094,-0.8088010549545288
1751214593129682400,10.135682373046874,-3.8306009769439697,0.6034994125366211,-1.0041773319244385
1751214593139676200,10.14567626953125,-3.7775144577026367,0.6685247421264648,-0.9464191198348999
1751214593149670100,10.155670166015625,-3.059603214263916,0.7011489868164062,-0.6328657865524292
1751214593159664000,10.1656640625,-1.8946490287780762,0.6279163360595703,-0.3041812777519226
1751214593169657900,10.175657958984376,-0.6874977946281433,0.5853538513183594,-0.18290838599205017
1751214593179651800,10.18565185546875,0.3239084482192993,0.4619464874267578,-0.08862081170082092
1751214593189645800,10.195645751953125,1.1000151634216309,0.2568092346191406,0.0945034921169281
1751214593199639600,10.2056396484375,1.6937867403030396,0.09839916229248047,0.2663763165473938
1751214593209633500,10.215633544921875,1.9751635789871216,0.07237720489501953,0.41395407915115356
1751214593219627500,10.22562744140625,2.0075292587280273,0.030434608459472656,0.6573423147201538
1751214593229621200,10.235621337890626,1.8495609760284424,-0.2230358123779297,1.0130140781402588
1751214593239615200,10.245615234375,1.5266730785369873,-0.6060323715209961,1.3386249542236328
1751214593249609200,10.255609130859375,0.9850422143936157,-0.9839973449707031,1.3705854415893555
1751214593259603200,10.265603271484375,0.2152082920074463,-1.2512998580932617,1.1595680713653564
1751214593269597000,10.275596923828125,-0.6332032680511475,-1.3166332244873047,0.9506068229675293
1751214593279591000,10.2855908203125,-1.2594890594482422,-1.3469419479370117,0.799231767654419
1751214593289585000,10.2955849609375,-1.6130422353744507,-1.4516229629516602,0.5223249197006226
1751214593299578600,10.30557861328125,-1.6493043899536133,-1.725728988647461,0.21468597650527954
1751214593309572600,10.315572509765625,-1.3269754648208618,-2.102267265319824,-0.018416941165924072
1751214593319566600,10.325566650390625,-0.9206408858299255,-2.724776268005371,-0.1231147050857544
1751214593329560300,10.335560302734375,-0.38988709449768066,-3.880000114440918,0.07607901096343994
1751214593339554300,10.34555419921875,0.4990096092224121,-4.855955123901367,0.16653954982757568
1751214593349548300,10.35554833984375,1.5139210224151611,-5.52047061920166,0.09463900327682495
1751214593359542300,10.365542236328125,2.665013551712036,-6.013800621032715,-0.033551156520843506
1751214593369536000,10.375535888671875,3.8516995906829834,-6.355853080749512,0.06755578517913818
1751214593379530000,10.385530029296875,4.793630599975586,-6.289390563964844,0.47052228450775146
1751214593389524000,10.39552392578125,4.917588233947754,-5.738653182983398,1.0089396238327026
1751214593399517700,10.405517578125,3.862395763397217,-4.943086624145508,1.3832672834396362
1751214593409511700,10.41551171875,1.9540364742279053,-4.409097671508789,1.6023609638214111
1751214593419505700,10.425505615234375,-0.6211637258529663,-4.096996307373047,1.6153805255889893
1751214593429499400,10.43549951171875,-3.5573158264160156,-3.6036033630371094,1.486727237701416
1751214593439493400,10.445493408203125,-6.541843891143799,-3.0752134323120117,1.6687288284301758
1751214593449487400,10.4554873046875,-8.77245807647705,-2.4421749114990234,2.2853376865386963
1751214593459481300,10.4654814453125,-9.685755729675293,-1.3114013671875,2.9830689430236816
1751214593469475000,10.47547509765625,-9.072919845581055,-0.04830455780029297,3.386200428009033
1751214593479469000,10.485468994140625,-7.571889877319336,0.6846485137939453,3.569965362548828
1751214593489463000,10.495463134765625,-5.8712897300720215,0.8808555603027344,3.638861894607544
1751214593509450800,10.51545068359375,-2.709118127822876,0.20547199249267578,4.011064529418945
1751214593519444700,10.52544482421875,-1.4516465663909912,-0.29259395599365234,4.326360702514648
1751214593529438500,10.5354384765625,-0.3287309408187866,-0.7870473861694336,4.551894664764404
1751214593539432400,10.545432373046875,0.8868345618247986,-1.1441822052001953,4.441944122314453
1751214593549426400,10.555426513671875,1.8937262296676636,-1.4649906158447266,4.126062870025635
1751214593559420200,10.565420166015626,2.575510025024414,-1.5734796524047852,3.5012001991271973
1751214593569414100,10.5754140625,2.8765835762023926,-1.389678955078125,2.5848045349121094
1751214593579408100,10.585408203125,3.219804525375366,-1.0722932815551758,1.9113175868988037
1751214593589402000,10.595402099609375,3.3202884197235107,-0.5596790313720703,1.2546218633651733
1751214593599395800,10.605395751953125,2.823004961013794,-0.4449615478515625,0.6328859329223633
1751214593609389800,10.615389892578126,2.6352591514587402,-0.5986423492431641,0.28924858570098877
1751214593619383800,10.6253837890625,2.671156406402588,-0.3656730651855469,-0.5573092699050903
1751214593629377500,10.63537744140625,2.634768009185791,-0.11913490295410156,-1.3903367519378662
1751214593639371500,10.64537158203125,2.3619680404663086,-0.02093791961669922,-1.9881278276443481
1751214593649365500,10.655365478515625,1.9513952732086182,0.011366844177246094,-2.577829599380493
1751214593659359200,10.665359130859375,1.5034894943237305,-0.006417274475097656,-3.055213451385498
1751214593669353200,10.675353271484376,0.7905705571174622,-0.07321739196777344,-3.203829288482666
1751214593679347200,10.68534716796875,-0.10817742347717285,0.0019483566284179688,-3.1750271320343018
1751214593689341200,10.695341064453125,-0.7553613185882568,0.3612031936645508,-3.0826644897460938
1751214593699335000,10.7053349609375,-0.42439740896224976,0.8552341461181641,-2.920602321624756
1751214593709329000,10.715328857421875,0.9646092057228088,1.1349735260009766,-2.7875137329101562
1751214593719323000,10.725322998046876,2.375046730041504,1.0531425476074219,-2.742443084716797
1751214593729316600,10.735316650390626,3.2901148796081543,0.8453178405761719,-2.731478452682495
1751214593739310600,10.745310546875,3.2525432109832764,0.5214080810546875,-2.6830849647521973
1751214593749304600,10.7553046875,2.280198574066162,0.20557022094726562,-2.6408629417419434
1751214593759298300,10.76529833984375,0.7226543426513672,0.07405567169189453,-2.523566722869873
1751214593769292300,10.775292236328125,-0.20221078395843506,-0.018068313598632812,-2.2373757362365723
1751214593779286300,10.785286376953126,-0.20736205577850342,-0.19125652313232422,-1.7645528316497803
1751214593789280000,10.795280029296874,0.3680238127708435,-0.38926029205322266,-1.4364283084869385
1751214593799274000,10.80527392578125,0.697954535484314,-0.5211000442504883,-1.3464736938476562
1751214593809268000,10.81526806640625,0.6808139085769653,-0.7157573699951172,-1.4553115367889404
1751214593819262000,10.825261962890625,0.601499080657959,-0.9050617218017578,-1.768876075744629
1751214593829255700,10.835255615234376,0.6189269423484802,-1.0155267715454102,-2.240130662918091
1751214593839249700,10.845249755859374,0.9681724905967712,-0.8211479187011719,-2.913736581802368
1751214593849243600,10.85524365234375,1.1237235069274902,-0.29073429107666016,-3.838022232055664
1751214593859237400,10.8652373046875,1.0902252197265625,0.10960769653320312,-4.297630786895752
1751214593869231400,10.8752314453125,1.1559158563613892,0.4196758270263672,-4.441045761108398
1751214593879225300,10.885225341796875,1.2084866762161255,0.6023578643798828,-4.368943214416504
1751214593889219000,10.895218994140626,0.9500703811645508,0.7543778419494629,-4.195979595184326
1751214593899213000,10.905213134765624,0.7639131546020508,0.9189424514770508,-3.8699283599853516
1751214593909207000,10.91520703125,0.5192767381668091,1.05787992477417,-3.7019293308258057
1751214593919200800,10.92520068359375,0.5083657503128052,1.1951470375061035,-3.5774848461151123
1751214593929194800,10.93519482421875,0.5312918424606323,1.297670841217041,-3.5543465614318848
1751214593939188500,10.9451884765625,0.46833401918411255,1.3464202880859375,-3.528355598449707
1751214593949182500,10.955182373046876,0.24044758081436157,1.4317121505737305,-3.500971794128418
1751214593959176200,10.96517626953125,0.00043022632598876953,1.6530632972717285,-3.5162978172302246
1751214593969170200,10.975170166015625,-0.06080138683319092,1.9135746955871582,-3.508744239807129
1751214593979164000,10.985163818359375,-0.027897238731384277,2.1893310546875,-3.593547821044922
1751214593989158000,10.995157958984375,-0.1764965057373047,2.3653697967529297,-3.6139211654663086
1751214593999151600,11.005151611328126,-0.3941751718521118,2.460899829864502,-3.594728946685791
1751214594009145600,11.0151455078125,-0.41193366050720215,2.5000791549682617,-3.6371114253997803
1751214594019139300,11.025139404296874,-0.3729168176651001,2.4404807090759277,-3.813009262084961
1751214594029133300,11.03513330078125,-0.20245838165283203,2.3546605110168457,-4.121559143066406
1751214594039127000,11.045126953125,-0.17376339435577393,2.243770122528076,-4.498834609985352
1751214594049121000,11.05512109375,-0.262800931930542,2.108501434326172,-4.709339141845703
1751214594059114800,11.06511474609375,-0.37990832328796387,1.9164257049560547,-4.879688262939453
1751214594069108700,11.075108642578124,-0.6617149114608765,1.6775507926940918,-4.988064765930176
1751214594079102500,11.0851025390625,-1.2477151155471802,1.4300203323364258,-5.13720178604126
1751214594089096400,11.095096435546875,-2.7134389877319336,1.1822128295898438,-4.995790481567383
1751214594099090200,11.105090087890625,-3.3506202697753906,0.7487449645996094,-3.8688650131225586
1751214594109084200,11.115084228515625,-2.033710479736328,-0.1930074691772461,-2.4598400592803955
1751214594119078000,11.125077880859376,0.5529021620750427,-1.6793622970581055,-1.1700584888458252
1751214594129071600,11.135071533203124,3.3705315589904785,-3.2194747924804688,-0.06936311721801758
1751214594139065600,11.145065673828125,4.122649669647217,-4.459085464477539,0.5547394752502441
1751214594149059300,11.155059326171875,3.089214324951172,-5.392586708068848,0.8797345161437988
1751214594159053300,11.16505322265625,2.7286643981933594,-6.182490348815918,0.7851948738098145
1751214594169047300,11.17504736328125,3.208620071411133,-6.673647880554199,0.5946502685546875
1751214594179041300,11.185041259765624,3.7685775756835938,-6.780124664306641,0.21064186096191406
1751214594189035000,11.195034912109374,4.224371433258057,-6.419300079345703,1.0839264392852783
1751214594199029000,11.205029052734375,4.320680618286133,-6.118549346923828,3.1772539615631104
1751214594209023000,11.21502294921875,3.172795534133911,-6.4383697509765625,5.142987251281738
1751214594219016700,11.2250166015625,0.1727343201637268,-6.766476631164551,6.722823143005371
1751214594229010700,11.2350107421875,-2.83034086227417,-5.517427444458008,6.046152114868164
1751214594239004700,11.245004638671874,-2.5521552562713623,-3.1007604598999023,3.944196939468384
1751214594248998400,11.254998291015625,-0.8806345462799072,-1.1494255065917969,1.6462602615356445
1751214594258992400,11.264992431640625,-0.08292174339294434,-0.20922470092773438,0.09093642234802246
1751214594268986400,11.274986328125,-0.07310271263122559,0.35355663299560547,-0.44866204261779785
1751214594278980400,11.28498046875,-0.4517359733581543,0.8972501754760742,-0.25459861755371094
1751214594288974000,11.29497412109375,-1.1501144170761108,1.406290054321289,-0.04944014549255371
1751214594298968000,11.304968017578124,-1.8260822296142578,1.8610038757324219,-0.020889997482299805
1751214594308962000,11.314962158203125,-2.0016136169433594,1.9121856689453125,-0.22670698165893555
1751214594318955800,11.324955810546875,-1.7411911487579346,1.6467185020446777,-0.6740524768829346
1751214594328949800,11.33494970703125,-1.3172976970672607,1.3522491455078125,-1.0488314628601074
1751214594368925400,11.374925537109375,-0.40436339378356934,0.26064395904541016,-1.2534785270690918
1751214594378919200,11.384919189453125,0.1322174072265625,0.7223014831542969,-1.311704397201538
1751214594388913200,11.3949130859375,0.6922826170921326,1.4326896667480469,-1.594278335571289
1751214594398907100,11.4049072265625,1.040339469909668,1.8807530403137207,-1.6583771705627441
1751214594408901000,11.414901123046874,1.032280683517456,1.938408374786377,-1.65726900100708
1751214594418894800,11.424894775390625,0.6726527810096741,2.0895891189575195,-1.7508453130722046
1751214594428888800,11.434888916015625,0.30619972944259644,2.2486038208007812,-1.60249924659729
1751214594438882800,11.4448828125,0.07927209138870239,2.4109411239624023,-1.111572504043579
1751214594448876500,11.45487646484375,-0.24067085981369019,2.232785224914551,-0.30320078134536743
1751214594458870500,11.46487060546875,-0.44250959157943726,1.724381446838379,0.659677267074585
1751214594468864500,11.474864501953125,-0.6494967341423035,0.9099960327148438,1.454641580581665
1751214594478858200,11.484858154296875,-0.7915964722633362,0.3732337951660156,1.7262706756591797
1751214594488852200,11.494852294921875,-0.5422607064247131,0.7678718566894531,1.556467890739441
1751214594498846200,11.50484619140625,-0.0001882314682006836,0.8018922805786133,1.624635934829712
1751214594508840200,11.514840087890626,0.5702722072601318,0.5668411254882812,1.8174524307250977
1751214594518834000,11.524833984375,0.9338232278823853,0.24472808837890625,2.113790988922119
1751214594528828000,11.534827880859375,0.947664737701416,-0.15932750701904297,2.56998872756958
1751214594538822000,11.54482177734375,0.7570388317108154,-0.5109577178955078,2.8466670513153076
1751214594548815600,11.554815673828125,0.28685200214385986,-0.5472288131713867,2.8814189434051514
1751214594558809600,11.5648095703125,-0.36890411376953125,-0.3782958984375,2.7191872596740723
1751214594568803600,11.574803466796874,-1.0805697441101074,-0.2331981658935547,2.2201685905456543
1751214594578797300,11.58479736328125,-1.3283731937408447,-0.09707832336425781,1.7910709381103516
1751214594588791300,11.594791259765625,-0.7856351733207703,0.04439544677734375,1.7021448612213135
1751214594598785300,11.604785400390625,-0.3463221788406372,-0.12402153015136719,1.5157719850540161
1751214594608779300,11.614779296875,-0.5582298040390015,-0.3719348907470703,1.255584478378296
1751214594618773000,11.62477294921875,-1.00823175907135,-0.4596824645996094,0.8213793039321899
1751214594628767000,11.63476708984375,-1.010985255241394,-0.40673351287841797,0.47589367628097534
1751214594638761000,11.644760986328125,-0.8948944807052612,-0.3765125274658203,0.14685159921646118
1751214594648754700,11.654754638671875,-0.6298959255218506,-0.36957836151123047,0.11773031949996948
1751214594658748700,11.664748779296875,-0.20977294445037842,-0.3432769775390625,0.39124536514282227
1751214594668742700,11.67474267578125,0.07560551166534424,-0.3028421401977539,0.6747378706932068
1751214594678736400,11.684736328125,0.38664042949676514,-0.28673362731933594,1.06673002243042
1751214594688730400,11.69473046875,0.7152233123779297,-0.2330608367919922,1.454472303390503
1751214594698724400,11.704724365234375,0.7442487478256226,-0.10855865478515625,1.6687214374542236
1751214594708718000,11.714718017578125,0.6609405279159546,0.000629425048828125,1.6100244522094727
1751214594718712000,11.724712158203126,0.46103668212890625,0.13738536834716797,1.319451093673706
1751214594728706000,11.7347060546875,0.11770236492156982,0.17747879028320312,1.053090214729309
1751214594738700000,11.744699951171874,-0.3092435598373413,0.2264862060546875,0.8353037238121033
1751214594748693800,11.75469384765625,-0.8347435593605042,0.24192142486572266,0.46145808696746826
1751214594758687700,11.764687744140625,-1.2194472551345825,0.24363231658935547,0.14391577243804932
1751214594768681700,11.774681640625,-1.171068549156189,0.3322267532348633,0.0012674927711486816
1751214594778675500,11.784675537109376,-1.0491876602172852,0.3355398178100586,-0.11071163415908813
1751214594788669400,11.79466943359375,-1.0735465288162231,0.22037220001220703,-0.21123993396759033
1751214594798663400,11.804663330078125,-1.0676220655441284,0.07763385772705078,-0.304759681224823
1751214594808657200,11.8146572265625,-0.9892287254333496,-0.1168985366821289,-0.37364208698272705
1751214594818651100,11.824651123046875,-0.8161666989326477,-0.24881839752197266,-0.22599780559539795
1751214594828645000,11.83464501953125,-0.5786828994750977,-0.2275257110595703,0.05321305990219116
1751214594838639000,11.84463916015625,-0.3398292064666748,-0.3733978271484375,0.43292325735092163
1751214594848632800,11.8546328125,-0.11524176597595215,-0.6860752105712891,0.729794979095459
1751214594858626800,11.864626708984375,0.1932811737060547,-0.9075345993041992,0.7724218964576721
1751214594868620800,11.874620849609375,0.40955686569213867,-1.048232078552246,0.5726596117019653
1751214594878614500,11.884614501953125,0.393740177154541,-1.1136703491210938,0.25400739908218384
1751214594888608500,11.8946083984375,0.24335336685180664,-1.0659332275390625,0.03439575433731079
1751214594898602500,11.9046025390625,0.03440427780151367,-1.043313980102539,0.061113595962524414
1751214594908596200,11.91459619140625,-0.12316560745239258,-1.1501684188842773,0.1985129714012146
1751214594918590200,11.924590087890625,-0.025174975395202637,-1.409433364868164,0.39169782400131226
1751214594928584200,11.934584228515625,0.4143495559692383,-1.6771154403686523,0.6426249146461487
1751214594938578000,11.944577880859375,1.1920945644378662,-1.9054946899414062,0.9774869680404663
1751214594948572000,11.954572021484376,2.0336828231811523,-2.3909358978271484,1.4584194421768188
1751214594958566000,11.96456591796875,2.611163854598999,-2.956239700317383,1.8128993511199951
1751214594968559900,11.974559814453125,2.720520496368408,-3.438760757446289,1.8953287601470947
1751214594978553600,11.9845537109375,2.29217791557312,-3.6810054779052734,1.735946774482727
1751214594988547600,11.994547607421875,1.6044377088546753,-3.898287773132324,1.4620437622070312
1751214594998541600,12.00454150390625,0.9550094604492188,-4.214430809020996,1.2046446800231934
1751214595008535300,12.014535400390624,0.3538994789123535,-4.633477210998535,0.9839286804199219
1751214595018529300,12.024529296875,-0.14365839958190918,-5.092741012573242,0.8523839712142944
1751214595028523300,12.034523193359375,-0.5806085467338562,-5.305420875549316,0.7276894450187683
1751214595038517000,12.04451708984375,-1.11406672000885,-5.138428688049316,0.581455647945404
1751214595048511000,12.054510986328125,-1.7669081687927246,-4.626315116882324,0.4626755714416504
1751214595058505000,12.0645048828125,-2.6563186645507812,-3.851337432861328,0.46920037269592285
1751214595068499000,12.0744990234375,-3.8525052070617676,-2.985982894897461,0.5751466155052185
1751214595078492700,12.08449267578125,-5.60640287399292,-1.819803237915039,0.6785980463027954
1751214595088486700,12.094486572265625,-7.129117965698242,-0.6819610595703125,1.3766285181045532
1751214595098480600,12.104480712890625,-7.152799606323242,-0.02210235595703125,2.028141975402832
1751214595108474400,12.114474365234376,-5.808558464050293,0.47799015045166016,2.0356574058532715
1751214595118468400,12.12446826171875,-4.07537317276001,0.5298185348510742,1.9696345329284668
1751214595128462300,12.13446240234375,-2.468292236328125,0.11469650268554688,2.2226920127868652
1751214595138456000,12.1444560546875,-1.3178712129592896,-0.4410390853881836,2.6529364585876465
1751214595148450000,12.154449951171875,-0.5007555484771729,-1.2844820022583008,3.0778799057006836
1751214595158444000,12.164444091796875,0.24163338541984558,-2.27603816986084,3.495277166366577
1751214595168437800,12.174437744140626,1.510237216949463,-2.3647518157958984,3.5088045597076416
1751214595178431700,12.184431640625,3.09373140335083,-1.7349538803100586,2.8690643310546875
1751214595188425700,12.19442578125,4.967166900634766,-0.5320558547973633,2.116356372833252
1751214595198419700,12.204419677734375,6.040003299713135,1.075617790222168,0.7596599459648132
1751214595208413400,12.214413330078125,6.770483016967773,1.860260009765625,0.34307336807250977
1751214595218407400,12.224407470703126,6.683316707611084,2.153782367706299,-0.040511250495910645
1751214595228401400,12.2344013671875,6.614215850830078,2.0057625770568848,-0.6493442058563232
1751214595238395100,12.24439501953125,4.397308826446533,1.4886150360107422,-0.8087489008903503
1751214595248389000,12.25438916015625,2.072072982788086,1.1088457107543945,-1.0312840938568115
1751214595258383000,12.264383056640625,-0.20319420099258423,0.7079648971557617,-1.110780954360962
1751214595268376800,12.274376953125,-2.260209560394287,0.3617210388183594,-0.9665077924728394
1751214595278370800,12.284370849609376,-3.422588586807251,0.17461013793945312,-0.8918098211288452
1751214595288364800,12.29436474609375,-3.170924663543701,0.2276163101196289,-0.9218224287033081
1751214595298358800,12.30435888671875,-1.4716676473617554,0.24341678619384766,-1.096476674079895
1751214595308352500,12.3143525390625,0.7928967475891113,0.07501888275146484,-1.1864523887634277
1751214595318346500,12.324346435546875,2.7151196002960205,-0.056586265563964844,-0.8029367923736572
1751214595328340500,12.334340576171876,3.2393219470977783,-0.34294795989990234,-0.24621987342834473
1751214595338334200,12.344334228515624,2.650304079055786,-0.7466917037963867,0.3830549716949463
1751214595348328200,12.354328125,0.974135160446167,-1.039717674255371,0.9423604011535645
1751214595358322200,12.364322265625,-0.7026654481887817,-0.808197021484375,0.617572546005249
1751214595368316000,12.37431591796875,-0.8946619033813477,0.18154144287109375,-1.2095131874084473
1751214595378310000,12.384309814453125,-0.12461745738983154,0.5694065093994141,-2.59171199798584
1751214595388304000,12.394303955078126,0.9846320748329163,0.32504940032958984,-3.0881190299987793
1751214595398297900,12.4042978515625,1.444174885749817,-0.13823699951171875,-3.226127862930298
1751214595408291600,12.41429150390625,0.8350058794021606,-0.4990825653076172,-3.259737014770508
1751214595418285600,12.42428564453125,0.02096804976463318,-0.5863733291625977,-3.0816683769226074
1751214595428279600,12.434279541015625,-0.4092790484428406,-0.31632232666015625,-2.7961061000823975
1751214595438273300,12.444273193359376,-0.41281795501708984,-0.0691823959350586,-2.5169436931610107
1751214595448267300,12.454267333984374,0.08213847875595093,0.11593341827392578,-2.274320125579834
1751214595458261200,12.46426123046875,0.6361409425735474,0.09144306182861328,-2.134312152862549
1751214595468255000,12.4742548828125,0.918766975402832,-0.1749124526977539,-1.9571950435638428
1751214595478249000,12.4842490234375,0.7838677167892456,-0.5963764190673828,-1.8384122848510742
1751214595488243000,12.494242919921875,0.5185824632644653,-0.8045978546142578,-1.6722338199615479
1751214595498236700,12.504236572265626,0.5559676885604858,-0.7513217926025391,-1.6810994148254395
1751214595508230700,12.514230712890624,0.7189496755599976,-0.6313409805297852,-1.7755050659179688
1751214595518224600,12.524224609375,0.5689468383789062,-0.5876455307006836,-1.7777376174926758
1751214595528218600,12.534218505859375,0.31547942757606506,-0.4615516662597656,-1.9067573547363281
1751214595538212400,12.54421240234375,0.21458828449249268,0.08258628845214844,-2.337290048599243
1751214595548206300,12.554206298828126,0.2344963103532791,0.4003267288208008,-2.4892690181732178
1751214595558200300,12.564200439453124,0.28401291370391846,0.7140746116638184,-2.6860647201538086
1751214595568194000,12.574194091796874,0.05589944124221802,0.7650413513183594,-2.7146260738372803
1751214595578188000,12.58418798828125,0.002950996160507202,0.9462471008300781,-2.8378100395202637
1751214595588182000,12.59418212890625,0.08824756741523743,0.9902315139770508,-2.864245653152466
1751214595598175700,12.60417578125,0.12246158719062805,0.9639382362365723,-2.8568036556243896
1751214595608169700,12.614169677734376,0.19478356838226318,1.1060099601745605,-2.8736236095428467
1751214595618163700,12.624163818359374,0.3621639013290405,1.2962079048156738,-2.939546823501587
1751214595628157700,12.63415771484375,0.4322982132434845,1.5059480667114258,-3.121771812438965
1751214595638151400,12.6441513671875,0.387285977602005,1.6969552040100098,-3.22959566116333
1751214595648145400,12.6541455078125,0.34984126687049866,1.9167542457580566,-3.349987745285034
1751214595658139400,12.664139404296876,0.31344059109687805,2.0841851234436035,-3.402028799057007
1751214595668133000,12.674133056640626,0.2771027386188507,2.179830551147461,-3.4583938121795654
1751214595678127000,12.684127197265624,0.24989426136016846,2.2182860374450684,-3.4475367069244385
1751214595688121000,12.69412109375,0.29378288984298706,2.1850666999816895,-3.31276535987854
1751214595698114800,12.70411474609375,0.3550690710544586,2.1374049186706543,-3.0261876583099365
1751214595708108800,12.71410888671875,0.21400713920593262,1.988800048828125,-2.5935773849487305
1751214595718102800,12.724102783203126,-0.08483630418777466,1.7146072387695312,-2.0592575073242188
1751214595738090500,12.744090576171875,-0.3585924506187439,1.185807704925537,-1.3449392318725586
1751214595748084500,12.75408447265625,-0.3732650876045227,0.893740177154541,-1.215057373046875
1751214595758078500,12.764078369140625,-0.5523550510406494,0.5771269798278809,-1.0667271614074707
1751214595768072200,12.774072265625,-0.7917722463607788,0.33673763275146484,-1.0519018173217773
1751214595778066200,12.784066162109376,-0.8978358507156372,0.15862178802490234,-1.1118993759155273
1751214595788060200,12.79406005859375,-0.9934787154197693,-0.04738759994506836,-1.1593680381774902
1751214595798054000,12.804053955078125,-1.0524609088897705,-0.3579597473144531,-0.7836117744445801
1751214595808047900,12.8140478515625,-0.8979200124740601,-0.5893764495849609,0.015594959259033203
1751214595818041900,12.824041748046875,-0.33161383867263794,-0.835118293762207,0.6220474243164062
1751214595828035600,12.83403564453125,-0.07382071018218994,-1.3153777122497559,0.9541211128234863
1751214595838029600,12.844029541015624,-0.11725917458534241,-1.3942766189575195,0.9836645126342773
1751214595848023600,12.8540234375,-0.6847070455551147,-1.4479727745056152,0.5999178886413574
1751214595858017500,12.864017578125,-1.4459514617919922,-1.409346103668213,0.2584967613220215
1751214595868011300,12.87401123046875,-1.6099035739898682,-1.2532243728637695,-0.3484630584716797
1751214595878005200,12.884005126953125,-1.2074998617172241,-0.9822349548339844,-1.0970778465270996
1751214595887999200,12.893999267578126,-0.8972811698913574,-0.7523832321166992,-1.7931065559387207
1751214595897993000,12.903992919921874,-0.985551655292511,-0.6300373077392578,-2.387787103652954
1751214595907987000,12.913987060546875,-1.082653284072876,-0.7869806289672852,-3.047170639038086
1751214595917981000,12.92398095703125,-0.4619348645210266,-1.1367406845092773,-3.6880784034729004
