time,seconds_elapsed,z,y,x
1751214583135874300,0.141874267578125,7.732421398162842,-2.7072649002075195,5.389875411987305
1751214583145683200,0.15168310546875,7.7244873046875,-2.785855531692505,5.361127853393555
1751214583155503400,0.16150341796875,7.7280592918396,-2.851226329803467,5.321465015411377
1751214583165341000,0.1713408203125,7.719496726989746,-2.9195876121520996,5.296769142150879
1751214583175201800,0.181201904296875,7.696645259857178,-2.9923641681671143,5.289403438568115
1751214583185089800,0.19108984375,7.6573286056518555,-3.0762126445770264,5.2983598709106445
1751214583195008800,0.2010087890625,7.6016645431518555,-3.1829731464385986,5.315425872802734
1751214583204960000,0.2109599609375,7.528703212738037,-3.317380905151367,5.337039470672607
1751214583214944000,0.220944091796875,7.434167861938477,-3.4762420654296875,5.368359088897705
1751214583224960000,0.2309599609375,7.3204665184021,-3.6143760681152344,5.432997226715088
1751214583235005700,0.241005615234375,7.152040004730225,-3.764704465866089,5.553891181945801
1751214583245077800,0.251077880859375,6.938973903656006,-3.9573893547058105,5.688593864440918
1751214583255172400,0.26117236328125,6.741197109222412,-4.155402183532715,5.784399509429932
1751214583265284000,0.2712841796875,6.591733932495117,-4.343430995941162,5.818422317504883
1751214583275408000,0.281407958984375,6.487593173980713,-4.521834373474121,5.7995285987854
1751214583285538000,0.2915380859375,6.419366359710693,-4.680938243865967,5.748995780944824
1751214583295668700,0.301668701171875,6.381428241729736,-4.8085455894470215,5.6855645179748535
1751214583305677300,0.31167724609375,6.360476016998291,-4.912378311157227,5.619899272918701
1751214583315671300,0.32167138671875,6.315329074859619,-5.021211624145508,5.574446678161621
1751214583325665000,0.3316650390625,6.217756748199463,-5.158077239990234,5.559147834777832
1751214583335659000,0.341658935546875,6.072595119476318,-5.318356037139893,5.568579196929932
1751214583345652700,0.35165283203125,5.889061450958252,-5.4891037940979,5.599918365478516
1751214583355646700,0.361646728515625,5.675302028656006,-5.671665668487549,5.638576030731201
1751214583365640400,0.371640380859375,5.445786476135254,-5.858628749847412,5.673646450042725
1751214583375634400,0.381634521484375,5.2050957679748535,-6.043806552886963,5.705239295959473
1751214583385628200,0.391628173828125,4.951858043670654,-6.211057662963867,5.750847816467285
1751214583395622100,0.4016220703125,4.668675899505615,-6.341876029968262,5.844180583953857
1751214583405615900,0.411615966796875,4.328490257263184,-6.434771537780762,6.002356052398682
1751214583415609900,0.42160986328125,3.8886075019836426,-6.516754627227783,6.211362361907959
1751214583425603600,0.431603515625,3.2849202156066895,-6.584860801696777,6.482229232788086
1751214583435597600,0.44159765625,2.664482831954956,-6.572892189025879,6.772592544555664
1751214583445591300,0.45159130859375,2.239525079727173,-6.458093166351318,7.031923770904541
1751214583455585300,0.461585205078125,1.9943612813949585,-6.319469451904297,7.228915214538574
1751214583465579000,0.4715791015625,1.7966805696487427,-6.148522853851318,7.4254961013793945
1751214583475573000,0.481572998046875,1.6861943006515503,-5.933718681335449,7.623523712158203
1751214583485566700,0.491566650390625,1.6436837911605835,-5.722751617431641,7.792227268218994
1751214583495560700,0.501560791015625,1.6380258798599243,-5.531347751617432,7.930412292480469
1751214583505554400,0.511554443359375,1.661055564880371,-5.3690643310546875,8.036444664001465
1751214583515548400,0.52154833984375,1.6971549987792969,-5.227206707000732,8.121968269348145
1751214583525542100,0.531542236328125,1.7063065767288208,-5.088279724121094,8.207819938659668
1751214583535536000,0.5415361328125,1.679457426071167,-4.938381195068359,8.304348945617676
1751214583545529900,0.55152978515625,1.6323708295822144,-4.7678608894348145,8.412684440612793
1751214583555523800,0.56152392578125,1.573999285697937,-4.575686931610107,8.52971363067627
1751214583565517600,0.571517578125,1.5057381391525269,-4.383869647979736,8.642038345336914
1751214583575511600,0.581511474609375,1.4060152769088745,-4.219773292541504,8.739967346191406
1751214583585505300,0.59150537109375,1.3171424865722656,-4.084840297698975,8.817573547363281
1751214583595499300,0.601499267578125,1.2742884159088135,-3.989933729171753,8.8671875
1751214583605493000,0.611492919921875,1.2800391912460327,-3.9424469470977783,8.887575149536133
1751214583615487000,0.621487060546875,1.3236236572265625,-3.9453964233398438,8.879878997802734
1751214583625480700,0.631480712890625,1.401517629623413,-3.991945743560791,8.847062110900879
1751214583635474700,0.641474609375,1.4965344667434692,-4.078729152679443,8.791743278503418
1751214583645468400,0.651468505859375,1.5804427862167358,-4.208159923553467,8.715731620788574
1751214583655462400,0.66146240234375,1.6387220621109009,-4.379453659057617,8.62005615234375
1751214583665456000,0.6714560546875,1.668056607246399,-4.5860276222229,8.506251335144043
1751214583675450000,0.6814501953125,1.6685504913330078,-4.821819305419922,8.374746322631836
1751214583685444000,0.691444091796875,1.6476085186004639,-5.085395336151123,8.221589088439941
1751214583695437800,0.701437744140625,1.6235023736953735,-5.361103057861328,8.049422264099121
1751214583705431800,0.711431884765625,1.604583501815796,-5.61254358291626,7.880041599273682
1751214583715425800,0.72142578125,1.581899881362915,-5.811707973480225,7.738994598388672
1751214583725419500,0.73141943359375,1.5321255922317505,-5.973519325256348,7.624961853027344
1751214583735413500,0.74141357421875,1.4560129642486572,-6.129937171936035,7.514937877655029
1751214583745407500,0.751407470703125,1.3875958919525146,-6.297314167022705,7.388423442840576
1751214583755401200,0.761401123046875,1.3541933298110962,-6.473886013031006,7.24053430557251
1751214583765395200,0.771395263671875,1.3632248640060425,-6.650232315063477,7.077176570892334
1751214583775389200,0.78138916015625,1.3974241018295288,-6.816944599151611,6.909909725189209
1751214583785383200,0.791383056640625,1.4262802600860596,-6.973458290100098,6.7458882331848145
1751214583795377000,0.801376953125,1.4657111167907715,-7.124460697174072,6.577548980712891
1751214583805371000,0.811370849609375,1.511106014251709,-7.2652177810668945,6.411205768585205
1751214583815364900,0.82136474609375,1.5615808963775635,-7.384428977966309,6.261155128479004
1751214583825358600,0.831358642578125,1.612587809562683,-7.478262424468994,6.13559627532959
1751214583835352600,0.8413525390625,1.6542631387710571,-7.5551371574401855,6.0294036865234375
1751214583845346600,0.8513466796875,1.6873973608016968,-7.629220008850098,5.926050186157227
1751214583855340300,0.86134033203125,1.7203928232192993,-7.7093658447265625,5.81173849105835
1751214583865334300,0.871334228515625,1.7619235515594482,-7.79777193069458,5.679855823516846
1751214583875328300,0.881328369140625,1.8164236545562744,-7.892658233642578,5.529641151428223
1751214583885322000,0.891322021484375,1.882590413093567,-7.9932732582092285,5.36039400100708
1751214583895316000,0.90131591796875,1.953433632850647,-8.096896171569824,5.176365852355957
1751214583905310000,0.91131005859375,2.03281569480896,-8.194483757019043,4.98883581161499
1751214583915304000,0.921303955078125,2.1151747703552246,-8.275430679321289,4.818057537078857
1751214583925297700,0.931297607421875,2.196274995803833,-8.338821411132812,4.6702070236206055
1751214583935291600,0.941291748046875,2.2728421688079834,-8.389172554016113,4.5416259765625
1751214583945285600,0.95128564453125,2.3313522338867188,-8.430055618286133,4.435014247894287
1751214583955279400,0.961279296875,2.3550078868865967,-8.466967582702637,4.351413249969482
1751214583965273300,0.9712734375,2.3646328449249268,-8.496496200561523,4.288175106048584
1751214583975267300,0.981267333984375,2.4113197326660156,-8.502131462097168,4.250844955444336
1751214583985261000,0.991260986328125,2.5300989151000977,-8.455622673034668,4.274509429931641
1751214583995255000,1.001255126953125,2.600027322769165,-8.379228591918945,4.381641387939453
1751214584005249000,1.0112490234375,2.5796210765838623,-8.2977933883667,4.5456085205078125
1751214584015243000,1.021242919921875,2.5198161602020264,-8.21989631652832,4.717437744140625
1751214584025236700,1.03123681640625,2.468574285507202,-8.138920783996582,4.882058143615723
1751214584035230700,1.041230712890625,2.431870937347412,-8.050802230834961,5.043905258178711
1751214584045224700,1.051224609375,2.4098386764526367,-7.9558210372924805,5.202690124511719
1751214584055218400,1.061218505859375,2.3942689895629883,-7.8510942459106445,5.366393089294434
1751214584065212400,1.07121240234375,2.3663582801818848,-7.740267753601074,5.537057399749756
1751214584075206400,1.081206298828125,2.3168509006500244,-7.621647834777832,5.719534397125244
1751214584085200100,1.0912001953125,2.2452242374420166,-7.488265037536621,5.920746326446533
1751214584095194000,1.101194091796875,2.15537428855896,-7.334142208099365,6.142889976501465
1751214584105188000,1.11118798828125,2.076044797897339,-7.143177032470703,6.390261650085449
1751214584115181800,1.121181884765625,1.989588975906372,-6.941877365112305,6.634927749633789
1751214584125175800,1.13117578125,1.8951467275619507,-6.72997522354126,6.876499652862549
1751214584135169800,1.141169677734375,1.8119579553604126,-6.5053558349609375,7.111085891723633
1751214584145163800,1.151163818359375,1.7707619667053223,-6.264585494995117,7.3341498374938965
1751214584155157500,1.161157470703125,1.77191162109375,-6.029383659362793,7.5284295082092285
1751214584165151500,1.1711513671875,1.8014938831329346,-5.832070827484131,7.675412654876709
1751214584175145500,1.1811455078125,1.8408396244049072,-5.690338134765625,7.771855354309082
1751214584185139200,1.19113916015625,1.885177731513977,-5.597132682800293,7.828702926635742
1751214584195133200,1.20113330078125,1.883726954460144,-5.555999279022217,7.8582963943481445
1751214584205127200,1.211127197265625,1.8353559970855713,-5.568205833435059,7.861103534698486
1751214584215121000,1.221120849609375,1.7656071186065674,-5.626236915588379,7.835718631744385
1751214584225115000,1.231114990234375,1.6945205926895142,-5.723224639892578,7.780981540679932
1751214584235108900,1.24110888671875,1.6377553939819336,-5.85491418838501,7.694681644439697
1751214584245102800,1.251102783203125,1.6053663492202759,-6.0164713859558105,7.5759663581848145
1751214584255096600,1.2610966796875,1.6131031513214111,-6.197225570678711,7.427157878875732
1751214584265090600,1.271090576171875,1.65674889087677,-6.382135391235352,7.259057521820068
1751214584275084500,1.28108447265625,1.7157500982284546,-6.5578837394714355,7.086659908294678
1751214584285078300,1.291078369140625,1.7782975435256958,-6.716213226318359,6.9210205078125
1751214584295072300,1.301072265625,1.84394371509552,-6.857456684112549,6.76354455947876
1751214584305066200,1.311066162109375,1.8940414190292358,-6.989302158355713,6.613065242767334
1751214584315060000,1.32106005859375,1.9035682678222656,-7.117832660675049,6.471729278564453
1751214584325054000,1.331053955078125,1.9133741855621338,-7.252445220947266,6.317549228668213
1751214584335048000,1.3410478515625,1.9336891174316406,-7.39292573928833,6.146210670471191
1751214584345042000,1.3510419921875,1.9633907079696655,-7.531085968017578,5.966424942016602
1751214584355035600,1.36103564453125,2.005384922027588,-7.658334732055664,5.787807941436768
1751214584365029600,1.371029541015625,2.0498383045196533,-7.781296730041504,5.605352401733398
1751214584375023600,1.381023681640625,2.072239637374878,-7.925338268280029,5.39121675491333
1751214584385017300,1.391017333984375,2.0528528690338135,-8.092608451843262,5.1444993019104
1751214584395011300,1.40101123046875,1.9840267896652222,-8.274430274963379,4.8752264976501465
1751214584405005300,1.41100537109375,1.8666305541992188,-8.457144737243652,4.600302219390869
1751214584414999000,1.4209990234375,1.696727991104126,-8.63099193572998,4.335605621337891
1751214584424993000,1.430992919921875,1.478599190711975,-8.789463996887207,4.090167045593262
1751214584434987000,1.440987060546875,1.2264779806137085,-8.928955078125,3.8652148246765137
1751214584444980700,1.450980712890625,0.954092264175415,-9.047436714172363,3.661144256591797
1751214584454974700,1.460974609375,0.6822673082351685,-9.149340629577637,3.463303804397583
1751214584464968700,1.47096875,0.44765177369117737,-9.24230670928955,3.2480382919311523
1751214584474962700,1.480962646484375,0.29269737005233765,-9.328983306884766,3.0091168880462646
1751214584484956400,1.490956298828125,0.2698996365070343,-9.402708053588867,2.772477149963379
1751214584494950400,1.500950439453125,0.3719339370727539,-9.462959289550781,2.5464587211608887
1751214584504944400,1.5109443359375,0.5462952852249146,-9.510669708251953,2.3278968334198
1751214584514938000,1.520938232421875,0.7492214441299438,-9.547898292541504,2.1087193489074707
1751214584524932000,1.53093212890625,0.9519485235214233,-9.577672958374023,1.8794617652893066
1751214584534926000,1.540926025390625,1.1229965686798096,-9.604340553283691,1.6327635049819946
1751214584544919800,1.550919921875,1.2343254089355469,-9.631781578063965,1.3695281744003296
1751214584554913800,1.560913818359375,1.2481560707092285,-9.666008949279785,1.0866330862045288
1751214584564907800,1.57090771484375,1.1526187658309937,-9.707279205322266,0.7813912034034729
1751214584574901800,1.58090185546875,0.9944403171539307,-9.74562931060791,0.45186668634414673
1751214584584895500,1.5908955078125,0.9074945449829102,-9.763962745666504,0.10894295573234558
1751214584594889500,1.600889404296875,0.9329902529716492,-9.760343551635742,-0.18870706856250763
1751214584604883500,1.610883544921875,0.9900546073913574,-9.749009132385254,-0.38342925906181335
1751214584614877200,1.620877197265625,1.0502691268920898,-9.739546775817871,-0.4566665589809418
1751214584624871200,1.63087109375,1.1130489110946655,-9.733810424804688,-0.4294680058956146
1751214584634865200,1.640865234375,1.1755831241607666,-9.72935962677002,-0.3576807379722595
1751214584644859000,1.65085888671875,1.2332426309585571,-9.723862648010254,-0.3098195791244507
1751214584654852900,1.660852783203125,1.2762025594711304,-9.718367576599121,-0.3082803785800934
1751214584664846800,1.670846923828125,1.2981294393539429,-9.714630126953125,-0.3335060179233551
1751214584674840600,1.680840576171875,1.300086259841919,-9.713190078735352,-0.3662251830101013
1751214584684834600,1.69083447265625,1.2828154563903809,-9.714044570922852,-0.4026179611682892
1751214584694828300,1.700828369140625,1.2478396892547607,-9.7169189453125,-0.44134166836738586
1751214584704822300,1.710822265625,1.2016409635543823,-9.72099494934082,-0.4782400131225586
1751214584714816000,1.72081591796875,1.1502876281738281,-9.72564697265625,-0.5089374780654907
1751214584724810000,1.73081005859375,1.0982234477996826,-9.73045539855957,-0.531528651714325
1751214584734803700,1.7408037109375,1.0479835271835327,-9.735221862792969,-0.5455004572868347
1751214584744797700,1.750797607421875,1.0017297267913818,-9.73979377746582,-0.5507676005363464
1751214584754791400,1.76079150390625,0.9597898721694946,-9.744044303894043,-0.5502793788909912
1751214584764785400,1.770785400390625,0.91762375831604,-9.748208045959473,-0.5484386682510376
1751214584774779100,1.780779052734375,0.8745983242988586,-9.752300262451172,-0.5459916591644287
1751214584784772900,1.79077294921875,0.8338765501976013,-9.75615406036377,-0.5408279299736023
1751214584794766800,1.800766845703125,0.7981310486793518,-9.759570121765137,-0.533072829246521
1751214584804760600,1.810760498046875,0.767871618270874,-9.762423515319824,-0.5252218246459961
1751214584814754600,1.820754638671875,0.742932915687561,-9.764671325683594,-0.5192485451698303
1751214584824748300,1.830748291015625,0.7237390279769897,-9.766225814819336,-0.5171310305595398
1751214584834742300,1.8407421875,0.7108179926872253,-9.767041206359863,-0.5196423530578613
1751214584844736000,1.850736083984375,0.7035552263259888,-9.767277717590332,-0.5250697135925293
1751214584854730000,1.86072998046875,0.700042724609375,-9.76707935333252,-0.5333793759346008
1751214584864723700,1.8707236328125,0.700866162776947,-9.766378402709961,-0.5449997186660767
1751214584874717700,1.8807177734375,0.7073659896850586,-9.765218734741211,-0.5572504997253418
1751214584884711400,1.89071142578125,0.7193893194198608,-9.763795852661133,-0.5667106509208679
1751214584894705400,1.900705322265625,0.735124409198761,-9.762219429016113,-0.5736397504806519
1751214584904699100,1.91069921875,0.7535200119018555,-9.760519981384277,-0.5786482691764832
1751214584914693000,1.920693115234375,0.7727057933807373,-9.758785247802734,-0.5826011896133423
1751214584924686800,1.930686767578125,0.7915967106819153,-9.757023811340332,-0.5867206454277039
1751214584934680800,1.940680908203125,0.809397280216217,-9.755240440368652,-0.5920752286911011
1751214584944674600,1.950674560546875,0.825765073299408,-9.75345516204834,-0.5988291501998901
1751214584954668500,1.96066845703125,0.8390222787857056,-9.751876831054688,-0.6060689687728882
1751214584964662300,1.970662353515625,0.8482789397239685,-9.75064468383789,-0.6129836440086365
1751214584974656300,1.98065625,0.8525410294532776,-9.749895095825195,-0.6189507842063904
1751214584984650200,1.990650146484375,0.851762592792511,-9.749631881713867,-0.624141275882721
1751214584994644000,2.00064404296875,0.8470901250839233,-9.749709129333496,-0.6292769312858582
1751214585004638000,2.010637939453125,0.8407372236251831,-9.749927520751953,-0.6344046592712402
1751214585014632000,2.0206318359375,0.8345648050308228,-9.75012493133545,-0.6394742131233215
1751214585024626000,2.0306259765625,0.8286375999450684,-9.750299453735352,-0.6445172429084778
1751214585034619600,2.04061962890625,0.8235228657722473,-9.750407218933105,-0.6494335532188416
1751214585044613600,2.050613525390625,0.819000780582428,-9.750470161437988,-0.6541780829429626
1751214585054607600,2.060607666015625,0.8140507936477661,-9.750529289245605,-0.6594551801681519
1751214585064601300,2.070601318359375,0.8087335824966431,-9.750547409057617,-0.6657033562660217
1751214585074595300,2.08059521484375,0.8039164543151855,-9.750460624694824,-0.6727827787399292
1751214585084589300,2.09058935546875,0.8000608086585999,-9.750205993652344,-0.6810097098350525
1751214585094583000,2.1005830078125,0.7976704239845276,-9.749734878540039,-0.6904928088188171
1751214585104577000,2.110576904296875,0.7970713376998901,-9.74902629852295,-0.7011034488677979
1751214585114571000,2.120571044921875,0.7975276112556458,-9.748187065124512,-0.7121585011482239
1751214585124565000,2.13056494140625,0.7992216348648071,-9.747259140014648,-0.7228960394859314
1751214585134558700,2.140558837890625,0.8014919757843018,-9.746310234069824,-0.7330965995788574
1751214585144552700,2.150552734375,0.8030721545219421,-9.745455741882324,-0.7426642775535583
1751214585164540400,2.17054052734375,0.8020795583724976,-9.744278907775879,-0.7590025067329407
1751214585174534400,2.180534423828125,0.7993280291557312,-9.743955612182617,-0.7660130858421326
1751214585184528400,2.1905283203125,0.796021044254303,-9.743734359741211,-0.772259533405304
1751214585194522000,2.200522216796875,0.7928834557533264,-9.743562698364258,-0.7776280045509338
1751214585204516000,2.21051611328125,0.7904146313667297,-9.743368148803711,-0.7825583815574646
1751214585214510000,2.220510009765625,0.7888444066047668,-9.74313735961914,-0.7870111465454102
1751214585224503800,2.23050390625,0.7886865139007568,-9.74291706085205,-0.7898917198181152
1751214585234497800,2.240497802734375,0.7912119030952454,-9.743146896362305,-0.7845163941383362
1751214585244491800,2.25049169921875,0.7956519722938538,-9.74343204498291,-0.7764445543289185
1751214585254485800,2.26048583984375,0.8014053106307983,-9.74387264251709,-0.7649087905883789
1751214585264479500,2.2704794921875,0.8072811961174011,-9.744559288024902,-0.74983149766922
1751214585274473500,2.280473388671875,0.8106724619865417,-9.745742797851562,-0.7305321097373962
1751214585284467500,2.290467529296875,0.810114324092865,-9.747474670410156,-0.7076987028121948
1751214585294461200,2.300461181640625,0.8041402101516724,-9.74979305267334,-0.6821202635765076
1751214585304455200,2.310455078125,0.7904573678970337,-9.752964973449707,-0.6521023511886597
1751214585314449200,2.32044921875,0.7836031317710876,-9.755003929138184,-0.6294772624969482
1751214585324443000,2.33044287109375,0.7677465081214905,-9.757957458496094,-0.6026831269264221
1751214585334436900,2.340436767578125,0.7408768534660339,-9.761898040771484,-0.5716882944107056
1751214585344430800,2.350430908203125,0.7007158994674683,-9.766850471496582,-0.5366710424423218
1751214585354424800,2.3604248046875,0.6465083360671997,-9.772612571716309,-0.49844855070114136
1751214585364418600,2.37041845703125,0.5782322287559509,-9.778914451599121,-0.45702093839645386
1751214585374412500,2.38041259765625,0.4956107437610626,-9.785469055175781,-0.4115246832370758
1751214585384406500,2.390406494140625,0.3987448215484619,-9.791834831237793,-0.3624425232410431
1751214585394400300,2.400400146484375,0.2880772352218628,-9.797667503356934,-0.30514252185821533
1751214585404394200,2.410394287109375,0.16716638207435608,-9.802279472351074,-0.24032436311244965
1751214585414388200,2.42038818359375,0.04388725012540817,-9.805017471313477,-0.17349845170974731
1751214585424382000,2.4303818359375,-0.07354344427585602,-9.8058443069458,-0.10195579379796982
1751214585434376000,2.4403759765625,-0.1804632693529129,-9.804944038391113,-0.030025357380509377
1751214585444370000,2.450369873046875,-0.27490541338920593,-9.802708625793457,0.041324496269226074
1751214585454363600,2.46036376953125,-0.3564552068710327,-9.799534797668457,0.11159653961658478
1751214585464357600,2.470357666015625,-0.4293573796749115,-9.79552173614502,0.183754101395607
1751214585474351600,2.4803515625,-0.49955448508262634,-9.7904691696167,0.259909451007843
1751214585484345600,2.490345703125,-0.5688798427581787,-9.784323692321777,0.3373414874076843
1751214585494339300,2.50033935546875,-0.6362700462341309,-9.777098655700684,0.4170047640800476
1751214585504333300,2.510333251953125,-0.7011511325836182,-9.768474578857422,0.5056480765342712
1751214585514327300,2.520327392578125,-0.7637612223625183,-9.757781028747559,0.6105371117591858
1751214585524321000,2.530321044921875,-0.8273909687995911,-9.743926048278809,0.7360212206840515
1751214585534315000,2.54031494140625,-0.8966161608695984,-9.725544929504395,0.883315920829773
1751214585544309000,2.55030908203125,-0.9718299508094788,-9.701839447021484,1.048929214477539
1751214585554302700,2.560302734375,-1.053032636642456,-9.673032760620117,1.2222760915756226
1751214585564296700,2.570296630859375,-1.1347640752792358,-9.639973640441895,1.3977142572402954
1751214585574290700,2.580290771484375,-1.2138303518295288,-9.604405403137207,1.5660055875778198
1751214585584284700,2.59028466796875,-1.2911478281021118,-9.56773567199707,1.7209807634353638
1751214585594278400,2.6002783203125,-1.3672494888305664,-9.530549049377441,1.862701416015625
1751214585604272400,2.6102724609375,-1.4373416900634766,-9.493790626525879,1.9930814504623413
1751214585614266400,2.620266357421875,-1.4985716342926025,-9.457042694091797,2.1187267303466797
1751214585624260000,2.630260009765625,-1.553436517715454,-9.418646812438965,2.24639892578125
1751214585634254000,2.640254150390625,-1.600446343421936,-9.377153396606445,2.382845640182495
1751214585644248000,2.650248046875,-1.6249247789382935,-9.331753730773926,2.5393662452697754
1751214585654241800,2.66024169921875,-1.6258569955825806,-9.280462265014648,2.720294237136841
1751214585664235800,2.67023583984375,-1.6188788414001465,-9.219620704650879,2.923734426498413
1751214585674229800,2.680229736328125,-1.6334688663482666,-9.146756172180176,3.136721134185791
1751214585694217500,2.700217529296875,-1.7536773681640625,-8.97811508178711,3.53389835357666
1751214585704211500,2.71021142578125,-1.8464559316635132,-8.895378112792969,3.692319869995117
1751214585714205400,2.720205322265625,-1.9390429258346558,-8.81387996673584,3.8374507427215576
1751214585724199200,2.73019921875,-2.014514923095703,-8.734384536743164,3.9777681827545166
1751214585734193200,2.740193115234375,-2.072638750076294,-8.662385940551758,4.103369235992432
1751214585744187100,2.750187255859375,-2.1216328144073486,-8.596944808959961,4.214451313018799
1751214585754180900,2.760180908203125,-2.170166015625,-8.534038543701172,4.31635856628418
1751214585764174800,2.7701748046875,-2.2248919010162354,-8.471632957458496,4.410406112670898
1751214585774168800,2.7801689453125,-2.2865183353424072,-8.410819053649902,4.494479656219482
1751214585784162600,2.79016259765625,-2.3506710529327393,-8.353777885437012,4.567178726196289
1751214585794156500,2.800156494140625,-2.4103341102600098,-8.302490234375,4.629183769226074
1751214585804150500,2.810150634765625,-2.4613089561462402,-8.258977890014648,4.67991828918457
1751214585814144500,2.82014453125,-2.503847122192383,-8.223947525024414,4.718880653381348
1751214585824138200,2.83013818359375,-2.5406653881073,-8.197819709777832,4.74459171295166
1751214585834132200,2.84013232421875,-2.572333574295044,-8.180645942687988,4.7571539878845215
1751214585844126200,2.850126220703125,-2.5967161655426025,-8.172024726867676,4.758724689483643
1751214585854120000,2.860119873046875,-2.6094014644622803,-8.171266555786133,4.7530837059021
1751214585864114000,2.870114013671875,-2.6087281703948975,-8.177228927612305,4.743188858032227
1751214585874108000,2.88010791015625,-2.6016788482666016,-8.188394546508789,4.727774143218994
1751214585884101600,2.8901015625,-2.596538543701172,-8.203485488891602,4.704381465911865
1751214585894095600,2.900095703125,-2.592419147491455,-8.22266674041748,4.673059940338135
1751214585904089600,2.910089599609375,-2.583833932876587,-8.24627685546875,4.6360650062561035
1751214585914083600,2.92008349609375,-2.5670549869537354,-8.27463150024414,4.594680309295654
1751214585924077300,2.930077392578125,-2.5413646697998047,-8.308445930480957,4.547698497772217
1751214585934071300,2.9400712890625,-2.50746750831604,-8.348731994628906,4.492400646209717
1751214585944065300,2.950065185546875,-2.4654033184051514,-8.395956993103027,4.427198886871338
1751214585954059000,2.96005908203125,-2.4130735397338867,-8.450276374816895,4.352045059204102
1751214585964053000,2.970052978515625,-2.3445801734924316,-8.512332916259766,4.267731189727783
1751214585974047000,2.980046875,-2.253885269165039,-8.583538055419922,4.1729207038879395
1751214585984040700,2.990040771484375,-2.1395046710968018,-8.663872718811035,4.065736293792725
1751214585994034700,3.00003466796875,-2.001047134399414,-8.751662254333496,3.946465492248535
1751214586004028700,3.010028564453125,-1.8339122533798218,-8.843900680541992,3.8200223445892334
1751214586014022400,3.0200224609375,-1.643280267715454,-8.927334785461426,3.7111611366271973
1751214586024016400,3.030016357421875,-1.4423319101333618,-8.982386589050293,3.661526918411255
1751214586034010400,3.04001025390625,-1.2628684043884277,-9.004427909851074,3.6736655235290527
1751214586044004400,3.05000439453125,-1.1376683712005615,-9.01583480834961,3.686574697494507
1751214586053998000,3.059998046875,-1.01907217502594,-9.0449857711792,3.649672508239746
1751214586063992000,3.069991943359375,-0.8928250670433044,-9.084534645080566,3.5839197635650635
1751214586073986000,3.079986083984375,-0.7622411251068115,-9.118125915527344,3.528337001800537
1751214586083979800,3.089979736328125,-0.6389409899711609,-9.148138999938965,3.4747226238250732
1751214586093973800,3.099973876953125,-0.5243073105812073,-9.182817459106445,3.4016683101654053
1751214586103967700,3.1099677734375,-0.4159757196903229,-9.22192668914795,3.309595823287964
1751214586113961500,3.11996142578125,-0.30927062034606934,-9.264884948730469,3.199477195739746
1751214586123955500,3.12995556640625,-0.21059969067573547,-9.311066627502441,3.0708439350128174
1751214586133949400,3.139949462890625,-0.12224860489368439,-9.35743522644043,2.9315268993377686
1751214586143943400,3.149943359375,-0.03817889839410782,-9.401226043701172,2.79032039642334
1751214586153937200,3.159937255859375,0.0463377870619297,-9.441102027893066,2.652134656906128
1751214586163931100,3.16993115234375,0.1312030404806137,-9.475397109985352,2.523890733718872
1751214586173925000,3.179925048828125,0.20841145515441895,-9.50381088256836,2.4092562198638916
1751214586183918800,3.1899189453125,0.26942622661590576,-9.52830696105957,2.304163932800293
1751214586193912800,3.199912841796875,0.31268084049224854,-9.550448417663574,2.204892873764038
1751214586203906800,3.20990673828125,0.34105291962623596,-9.570898056030273,2.109971761703491
1751214586213900500,3.219900634765625,0.3590133488178253,-9.590456008911133,2.016097068786621
1751214586223894500,3.22989453125,0.37057429552078247,-9.609525680541992,1.920959234237671
1751214586233888500,3.239888427734375,0.38015374541282654,-9.627968788146973,1.8243074417114258
1751214586243882200,3.24988232421875,0.391897052526474,-9.645663261413574,1.7256851196289062
1751214586253876200,3.259876220703125,0.40974321961402893,-9.662464141845703,1.6245858669281006
1751214586263870200,3.2698701171875,0.4365161657333374,-9.678140640258789,1.5209954977035522
1751214586273864200,3.2798642578125,0.4718421995639801,-9.692831039428711,1.4130746126174927
1751214586283858000,3.28985791015625,0.5120376348495483,-9.706404685974121,1.301503300666809
1751214586293852000,3.299851806640625,0.5542126893997192,-9.718583106994629,1.188429355621338
1751214586303846000,3.309845947265625,0.5965524911880493,-9.729161262512207,1.0760763883590698
1751214586313839600,3.319839599609375,0.6370916366577148,-9.73808479309082,0.9665451049804688
1751214586323833600,3.32983349609375,0.6744153499603271,-9.74528980255127,0.8630618453025818
1751214586333827600,3.33982763671875,0.7098333239555359,-9.750728607177734,0.7679917216300964
1751214586373803300,3.37980322265625,0.8466787338256836,-9.757898330688477,0.4867525100708008
1751214586383797000,3.389796875,0.876014769077301,-9.75798225402832,0.42984524369239807
1751214586393791000,3.399791015625,0.9002445936203003,-9.758131980895996,0.3725838363170624
1751214586403785000,3.409784912109375,0.9184829592704773,-9.7584810256958,0.314384788274765
1751214586413778700,3.41977880859375,0.9305325746536255,-9.759072303771973,0.25494900345802307
1751214586423772700,3.429772705078125,0.9367521405220032,-9.759866714477539,0.19460046291351318
1751214586433766700,3.4397666015625,0.938011109828949,-9.760754585266113,0.13485753536224365
1751214586443760400,3.449760498046875,0.9367156028747559,-9.761512756347656,0.0761740580201149
1751214586453754400,3.45975439453125,0.9356499910354614,-9.761896133422852,0.018295448273420334
1751214586463748400,3.469748291015625,0.9372453689575195,-9.761687278747559,-0.037691108882427216
1751214586473742300,3.479742431640625,0.9431166648864746,-9.760766983032227,-0.09141093492507935
1751214586483736000,3.489736083984375,0.953759491443634,-9.759132385253906,-0.14167223870754242
1751214586493730000,3.49972998046875,0.9711112976074219,-9.756682395935059,-0.1856679916381836
1751214586503724000,3.50972412109375,0.9954369068145752,-9.753460884094238,-0.22246673703193665
1751214586513717800,3.5197177734375,1.0256876945495605,-9.749637603759766,-0.25082507729530334
1751214586523711700,3.529711669921875,1.0596668720245361,-9.745437622070312,-0.271900475025177
1751214586533705700,3.539705810546875,1.0968207120895386,-9.740917205810547,-0.28616103529930115
1751214586543699500,3.549699462890625,1.1355628967285156,-9.736218452453613,-0.29483023285865784
1751214586553693400,3.559693359375,1.171230435371399,-9.731826782226562,-0.3002540171146393
1751214586563687400,3.5696875,1.1967415809631348,-9.72851276397705,-0.30697306990623474
1751214586573681200,3.57968115234375,1.2078704833984375,-9.726798057556152,-0.31754636764526367
1751214586583675100,3.589675048828125,1.2061426639556885,-9.726490020751953,-0.33317506313323975
1751214586593668900,3.5996689453125,1.1961904764175415,-9.72693920135498,-0.35519570112228394
1751214586603662800,3.609662841796875,1.1832833290100098,-9.727465629577637,-0.3829520344734192
1751214586613656600,3.619656494140625,1.1678944826126099,-9.728022575378418,-0.41470977663993835
1751214586623650600,3.629650634765625,1.146756649017334,-9.728999137878418,-0.449339359998703
1751214586633644300,3.639644287109375,1.1163204908370972,-9.730857849121094,-0.4843757748603821
1751214586643638300,3.64963818359375,1.0787240266799927,-9.733370780944824,-0.5179204940795898
1751214586653632000,3.659632080078125,1.0387318134307861,-9.736013412475586,-0.5490694046020508
1751214586663626000,3.6696259765625,1.0014902353286743,-9.738397598266602,-0.5753480195999146
1751214586673619700,3.67961962890625,0.9696173071861267,-9.740345001220703,-0.5965822339057922
1751214586683613700,3.68961376953125,0.9451523423194885,-9.741584777832031,-0.6152951717376709
1751214586693607400,3.699607421875,0.9262918829917908,-9.742044448852539,-0.6363430023193359
1751214586703601400,3.709601318359375,0.9096338748931885,-9.741769790649414,-0.6639827489852905
1751214586713595100,3.71959521484375,0.8932323455810547,-9.740812301635742,-0.6993593573570251
1751214586723589000,3.729589111328125,0.8787974715232849,-9.739080429077148,-0.7405515313148499
1751214586733582800,3.739582763671875,0.8685863614082336,-9.736446380615234,-0.7858455777168274
1751214586743576800,3.749576904296875,0.8650452494621277,-9.732725143432617,-0.8343616724014282
1751214586753570600,3.759570556640625,0.8734495639801025,-9.727855682373047,-0.8810861110687256
1751214586763564500,3.769564453125,0.8984508514404297,-9.721663475036621,-0.9232752323150635
1751214586773558300,3.779558349609375,0.9399979710578918,-9.713945388793945,-0.9623165130615234
1751214586783552300,3.78955224609375,0.9908000230789185,-9.704960823059082,-1.001220464706421
1751214586793546000,3.7995458984375,1.0419793128967285,-9.695433616638184,-1.0407837629318237
1751214586803540000,3.8095400390625,1.086078405380249,-9.686245918273926,-1.0804877281188965
1751214586813533700,3.81953369140625,1.1187446117401123,-9.67838191986084,-1.11701238155365
1751214586823527700,3.829527587890625,1.1377309560775757,-9.672755241394043,-1.146199107170105
1751214586833521400,3.839521484375,1.142620325088501,-9.669900894165039,-1.16525137424469
1751214586853509000,3.859509033203125,1.1136022806167603,-9.674042701721191,-1.1589570045471191
1751214586863503000,3.869503173828125,1.0798313617706299,-9.681321144104004,-1.1297637224197388
1751214586873497000,3.8794970703125,1.0285862684249878,-9.691987991333008,-1.085253119468689
1751214586883490800,3.88949072265625,0.9534513354301453,-9.706648826599121,-1.020920753479004
1751214586893484800,3.89948486328125,0.8483121991157532,-9.725510597229004,-0.9301511645317078
1751214586903478800,3.909478759765625,0.7094435095787048,-9.747373580932617,-0.809805154800415
1751214586913472500,3.919472412109375,0.5365468263626099,-9.769749641418457,-0.6591593027114868
1751214586923466500,3.929466552734375,0.33540135622024536,-9.789276123046875,-0.4774685502052307
1751214586933460500,3.93946044921875,0.11752912402153015,-9.802356719970703,-0.2652772068977356
1751214586943454500,3.949454345703125,-0.09793607890605927,-9.806129455566406,-0.025153448805212975
1751214586953448200,3.9594482421875,-0.29119014739990234,-9.799466133117676,0.23675280809402466
1751214586963442200,3.969442138671875,-0.4566947817802429,-9.78280258178711,0.5085260272026062
1751214586973436200,3.979436279296875,-0.59343421459198,-9.757725715637207,0.7778362035751343
1751214586983430000,3.989429931640625,-0.700143039226532,-9.726829528808594,1.0339082479476929
1751214586993424000,3.999423828125,-0.7748164534568787,-9.692960739135742,1.2714418172836304
1751214587003417900,4.00941796875,-0.8180866241455078,-9.658791542053223,1.4862287044525146
1751214587013411600,4.01941162109375,-0.835776150226593,-9.625880241394043,1.6775891780853271
1751214587023405600,4.029405517578125,-0.8372736573219299,-9.594171524047852,1.8496557474136353
1751214587033399600,4.039399658203125,-0.828369677066803,-9.563773155212402,2.004603147506714
1751214587043393300,4.049393310546875,-0.8212603330612183,-9.533854484558105,2.1451163291931152
1751214587053387300,4.05938720703125,-0.8353350162506104,-9.502948760986328,2.2730114459991455
1751214587063381200,4.06938134765625,-0.8856179118156433,-9.469881057739258,2.3890187740325928
1751214587073375200,4.079375244140625,-0.9702818393707275,-9.433664321899414,2.496981382369995
1751214587083369000,4.089368896484375,-1.0768436193466187,-9.392721176147461,2.6052987575531006
1751214587093363000,4.099363037109375,-1.1886582374572754,-9.347058296203613,2.7184529304504395
1751214587103357000,4.10935693359375,-1.291237235069275,-9.29714298248291,2.8401122093200684
1751214587113350700,4.1193505859375,-1.3754680156707764,-9.244405746459961,2.969754219055176
1751214587123344600,4.1293447265625,-1.4353654384613037,-9.190847396850586,3.1045849323272705
1751214587133338600,4.139338623046875,-1.4698480367660522,-9.136398315429688,3.245943784713745
1751214587143332400,4.149332275390625,-1.4861699342727661,-9.078011512756348,3.3987345695495605
1751214587153326300,4.159326416015625,-1.5000330209732056,-9.011519432067871,3.5655009746551514
1751214587163320300,4.1693203125,-1.5232057571411133,-8.936766624450684,3.739575147628784
1751214587173314300,4.179314208984375,-1.5573453903198242,-8.85802936553955,3.90901255607605
1751214587183308000,4.18930810546875,-1.5997740030288696,-8.777331352233887,4.070573806762695
1751214587193302000,4.199302001953125,-1.6456893682479858,-8.694782257080078,4.226446628570557
1751214587203296000,4.2092958984375,-1.6911324262619019,-8.610380172729492,4.378561019897461
1751214587213289700,4.219289794921875,-1.734275460243225,-8.52359676361084,4.528904914855957
1751214587223283700,4.22928369140625,-1.7730395793914795,-8.434036254882812,4.679075717926025
1751214587233277700,4.239277587890625,-1.8035438060760498,-8.341642379760742,4.830592632293701
1751214587243271400,4.249271484375,-1.8277881145477295,-8.24599838256836,4.983279705047607
1751214587253265400,4.259265380859375,-1.8546079397201538,-8.148604393005371,5.131380081176758
1751214587263259400,4.26925927734375,-1.8891584873199463,-8.05148983001709,5.270198822021484
1751214587273253400,4.27925341796875,-1.928344488143921,-7.957491397857666,5.397241592407227
1751214587283247000,4.2892470703125,-1.9677183628082275,-7.868195533752441,5.512709617614746
1751214587293241000,4.299240966796875,-2.0050482749938965,-7.785445690155029,5.615781307220459
1751214587303235000,4.309235107421875,-2.0406882762908936,-7.711156368255615,5.704739093780518
1751214587313228800,4.319228759765625,-2.073286533355713,-7.643647193908691,5.783298015594482
1751214587323222800,4.329222900390625,-2.104832649230957,-7.584085941314697,5.8499321937561035
1751214587333216800,4.339216796875,-2.1410164833068848,-7.535780906677246,5.899019241333008
1751214587343210500,4.34921044921875,-2.1818788051605225,-7.496457576751709,5.934047222137451
1751214587353204500,4.35920458984375,-2.2286410331726074,-7.463740348815918,5.95786190032959
1751214587363198500,4.369198486328125,-2.2797210216522217,-7.43641471862793,5.972686767578125
1751214587373192200,4.379192138671875,-2.3313963413238525,-7.414436340332031,5.980060577392578
1751214587383186200,4.389186279296875,-2.3798234462738037,-7.39810037612915,5.98121452331543
1751214587393180200,4.39918017578125,-2.423391103744507,-7.386649131774902,5.977874279022217
1751214587403174100,4.409174072265625,-2.459831953048706,-7.380040645599365,5.9711480140686035
1751214587413167900,4.41916796875,-2.4852135181427,-7.378369331359863,5.962697505950928
1751214587423161900,4.429161865234375,-2.496006488800049,-7.382684707641602,5.952840328216553
1751214587433155800,4.43915576171875,-2.4915242195129395,-7.3932013511657715,5.941656112670898
1751214587443149600,4.449149658203125,-2.474228620529175,-7.409709453582764,5.92830228805542
1751214587453143600,4.4591435546875,-2.446666717529297,-7.4314470291137695,5.912513732910156
1751214587463137500,4.469137451171875,-2.4116854667663574,-7.457740306854248,5.893747329711914
1751214587473131300,4.47913134765625,-2.370030641555786,-7.488128662109375,5.872074604034424
1751214587483125200,4.489125244140625,-2.322253465652466,-7.524195671081543,5.844998359680176
1751214587493119200,4.499119140625,-2.2703304290771484,-7.567668914794922,5.809162616729736
1751214587503113200,4.50911328125,-2.2195611000061035,-7.619067192077637,5.761402130126953
1751214587513107000,4.51910693359375,-2.177363157272339,-7.677943706512451,5.699005126953125
1751214587523101000,4.529100830078125,-2.154843330383301,-7.741302490234375,5.621323108673096
1751214587533095000,4.539094970703125,-2.1625773906707764,-7.804253101348877,5.530576705932617
1751214587543088600,4.549088623046875,-2.1947453022003174,-7.8645806312561035,5.43156099319458
1751214587553082600,4.55908251953125,-2.225970983505249,-7.9266438484191895,5.327640056610107
1751214587563076600,4.56907666015625,-2.2213494777679443,-7.997769832611084,5.22222900390625
1751214587573070300,4.5790703125,-2.149040460586548,-8.082289695739746,5.121386528015137
1751214587583064300,4.589064208984375,-2.00115966796875,-8.17834758758545,5.027960300445557
1751214587593058300,4.599058349609375,-1.799948811531067,-8.27991771697998,4.93695592880249
1751214587603052000,4.609052001953125,-1.5719596147537231,-8.383225440979004,4.839511394500732
1751214587613046000,4.6190458984375,-1.335408091545105,-8.48633098602295,4.729615211486816
1751214587623040000,4.6290400390625,-1.1029179096221924,-8.586862564086914,4.6064910888671875
1751214587633034000,4.639033935546875,-0.8835781812667847,-8.682007789611816,4.47352409362793
1751214587643027700,4.64902783203125,-0.6831982731819153,-8.766805648803711,4.341284275054932
1751214587653021700,4.659021728515625,-0.5051991939544678,-8.837223052978516,4.2212138175964355
1751214587663015700,4.669015625,-0.3509739935398102,-8.8945894241333,4.115032196044922
1751214587673009400,4.679009521484375,-0.2171926498413086,-8.945425987243652,4.012801647186279
1751214587683003400,4.68900341796875,-0.09895233809947968,-8.99583911895752,3.903266668319702
1751214587692997400,4.698997314453125,0.006148078013211489,-9.047082901000977,3.784262180328369
1751214587702991000,4.7089912109375,0.09820444136857986,-9.098369598388672,3.6579246520996094
1751214587712985000,4.718985107421875,0.17371772229671478,-9.148130416870117,3.528726577758789
1751214587722979000,4.72897900390625,0.2336152046918869,-9.196300506591797,3.3976261615753174
1751214587732973000,4.73897314453125,0.27686700224876404,-9.24264907836914,3.2660629749298096
1751214587742966800,4.748966796875,0.30408841371536255,-9.286429405212402,3.136901617050171
1751214587752960800,4.758960693359375,0.31930986046791077,-9.327157020568848,3.0120747089385986
1751214587762954800,4.768954833984375,0.32767730951309204,-9.364076614379883,2.894320249557495
1751214587772948500,4.778948486328125,0.33590278029441833,-9.397049903869629,2.7844231128692627
1751214587782942500,4.7889423828125,0.3505989611148834,-9.426340103149414,2.6817123889923096
1751214587792936400,4.7989365234375,0.37260037660598755,-9.452446937561035,2.5851080417633057
1751214587802930200,4.80893017578125,0.40112653374671936,-9.476363182067871,2.4915904998779297
1751214587812924200,4.818924072265625,0.4338950514793396,-9.499016761779785,2.3980813026428223
1751214587822918100,4.828918212890625,0.4679040312767029,-9.521177291870117,2.3018786907196045
1751214587832912100,4.838912109375,0.5016770958900452,-9.543272972106934,2.2010579109191895
1751214587842905900,4.84890576171875,0.5360824465751648,-9.565413475036621,2.0942466259002686
1751214587852899800,4.85889990234375,0.5728151202201843,-9.587615966796875,1.979871392250061
1751214587862893800,4.868893798828125,0.6135512590408325,-9.609366416931152,1.8584957122802734
1751214587872887600,4.878887451171875,0.6585081219673157,-9.630009651184082,1.7319598197937012
1751214587882881500,4.888881591796875,0.7068953514099121,-9.648554801940918,1.6050173044204712
1751214587892875500,4.89887548828125,0.7567137479782104,-9.664580345153809,1.4811038970947266
1751214587902869200,4.908869140625,0.8071308732032776,-9.677962303161621,1.3623428344726562
1751214587912863200,4.91886328125,0.8575067520141602,-9.688826560974121,1.2496825456619263
1751214587922857200,4.928857177734375,0.9082814455032349,-9.69733715057373,1.1432631015777588
1751214587932851000,4.938850830078125,0.9598934054374695,-9.703849792480469,1.0412923097610474
1751214587942845000,4.948844970703125,1.0115489959716797,-9.708694458007812,0.9425541162490845
1751214587952839000,4.9588388671875,1.0609662532806396,-9.712250709533691,0.8467168807983398
1751214587962833000,4.9688330078125,1.1071888208389282,-9.71475887298584,0.7536526918411255
1751214587972826600,4.97882666015625,1.1487222909927368,-9.716458320617676,0.6642854809761047
1751214587982820600,4.988820556640625,1.1844390630722046,-9.717535972595215,0.5805022120475769
1751214587992814600,4.998814697265625,1.213018536567688,-9.718306541442871,0.5034864544868469
1751214588002808300,5.008808349609375,1.2333122491836548,-9.719108581542969,0.4338940382003784
1751214588012802300,5.01880224609375,1.2483091354370117,-9.719758033752441,0.37205588817596436
1751214588022796300,5.02879638671875,1.260690450668335,-9.720108985900879,0.31707605719566345
1751214588032790000,5.0387900390625,1.2710390090942383,-9.720245361328125,0.2677440047264099
1751214588042784000,5.048783935546875,1.280307650566101,-9.720165252685547,0.222685307264328
1751214588052778000,5.058778076171875,1.2900447845458984,-9.719770431518555,0.17956781387329102
1751214588062772000,5.06877197265625,1.3019553422927856,-9.71889591217041,0.1354777216911316
1751214588072765700,5.078765625,1.316855788230896,-9.717411994934082,0.09049496799707413
1751214588082759700,5.088759765625,1.3362644910812378,-9.715068817138672,0.046884313225746155
1751214588092753700,5.098753662109375,1.3611253499984741,-9.711729049682617,0.0061886729672551155
1751214588102747400,5.108747314453125,1.3895217180252075,-9.707650184631348,-0.03356017917394638
1751214588112741400,5.118741455078125,1.4181770086288452,-9.703303337097168,-0.07124342769384384
1751214588122735400,5.1287353515625,1.4444373846054077,-9.699109077453613,-0.10623687505722046
1751214588132729000,5.13872900390625,1.4667038917541504,-9.69534683227539,-0.1393740177154541
1751214588142723000,5.14872314453125,1.4846680164337158,-9.692102432250977,-0.17117714881896973
1751214588152717000,5.158717041015625,1.4985519647598267,-9.68936538696289,-0.20234031975269318
1751214588162710800,5.168710693359375,1.505639910697937,-9.687570571899414,-0.2332773655653
1751214588172704800,5.178704833984375,1.507194995880127,-9.686546325683594,-0.26376691460609436
1751214588182698800,5.18869873046875,1.5066516399383545,-9.685784339904785,-0.29319649934768677
1751214588192692700,5.198692626953125,1.5063817501068115,-9.684919357299805,-0.32179173827171326
1751214588202686500,5.2086865234375,1.5069637298583984,-9.683860778808594,-0.3496919572353363
1751214588212680400,5.218680419921875,1.5085680484771729,-9.682577133178711,-0.377254843711853
1751214588222674400,5.22867431640625,1.5092271566390991,-9.681317329406738,-0.4058561623096466
1751214588232668200,5.238668212890625,1.5054131746292114,-9.680562019348145,-0.4368424415588379
1751214588242662100,5.248662109375,1.4938610792160034,-9.680834770202637,-0.4692629277706146
1751214588252656000,5.25865625,1.4741158485412598,-9.682296752929688,-0.5004928708076477
1751214588262649900,5.26864990234375,1.4506738185882568,-9.684346199035645,-0.528547465801239
1751214588272643800,5.278643798828125,1.4297749996185303,-9.68604564666748,-0.5537503361701965
1751214588282637800,5.288637939453125,1.4147286415100098,-9.68678092956543,-0.5789822340011597
1751214588292631800,5.2986318359375,1.4048901796340942,-9.68651008605957,-0.6067945957183838
1751214588302625500,5.30862548828125,1.3978416919708252,-9.68562126159668,-0.6365317106246948
1751214588312619500,5.31861962890625,1.3919190168380737,-9.684465408325195,-0.6663728356361389
1751214588322613500,5.328613525390625,1.3866500854492188,-9.683216094970703,-0.6949141025543213
1751214588332607200,5.338607177734375,1.3812401294708252,-9.681999206542969,-0.7221158742904663
1751214588372583000,5.3785830078125,1.3129428625106812,-9.68389892578125,-0.8177165985107422
1751214588382577000,5.388576904296875,1.2727142572402954,-9.687556266784668,-0.8377589583396912
1751214588392570600,5.398570556640625,1.221924901008606,-9.692655563354492,-0.8542364239692688
1751214588402564600,5.408564697265625,1.1663237810134888,-9.698527336120605,-0.8652409911155701
1751214588412558600,5.41855859375,1.1126631498336792,-9.704306602478027,-0.8710927963256836
1751214588422552600,5.428552490234375,1.0636155605316162,-9.709818840026855,-0.8709417581558228
1751214588432546300,5.43854638671875,1.0177154541015625,-9.7152738571167,-0.8649192452430725
1751214588442540300,5.448540283203125,0.9721776843070984,-9.721101760864258,-0.851734459400177
1751214588452534300,5.4585341796875,0.9250049591064453,-9.727591514587402,-0.8298934102058411
1751214588462528000,5.468528076171875,0.8763757348060608,-9.734746932983398,-0.7981616854667664
1751214588472522000,5.47852197265625,0.8251428008079529,-9.742648124694824,-0.7552035450935364
1751214588482516000,5.488515869140625,0.764544665813446,-9.751718521118164,-0.6998960971832275
1751214588492509700,5.498509765625,0.6854507327079773,-9.7622652053833,-0.6314514875411987
1751214588502503700,5.508503662109375,0.5822365880012512,-9.773893356323242,-0.549910843372345
1751214588512497700,5.51849755859375,0.4532679319381714,-9.78551197052002,-0.456817090511322
1751214588522491600,5.52849169921875,0.29941967129707336,-9.795636177062988,-0.35529419779777527
1751214588532485400,5.5384853515625,0.12648867070674896,-9.802696228027344,-0.24807921051979065
1751214588542479400,5.548479248046875,-0.0542026050388813,-9.805567741394043,-0.13525834679603577
1751214588552473300,5.558473388671875,-0.2280934751033783,-9.803988456726074,-0.013810846954584122
1751214588562467000,5.568467041015625,-0.3811129629611969,-9.798506736755371,0.1199636235833168
1751214588572461000,5.5784609375,-0.5029188990592957,-9.790048599243164,0.26905831694602966
1751214588602442800,5.60844287109375,-0.6868243217468262,-9.748313903808594,0.8179447650909424
1751214588612436700,5.618436767578125,-0.7180708646774292,-9.726229667663574,1.0272445678710938
1751214588622430700,5.6284306640625,-0.7450575232505798,-9.699470520019531,1.2391736507415771
1751214588632424400,5.638424560546875,-0.7663745284080505,-9.668729782104492,1.4486908912658691
1751214588642418400,5.64841845703125,-0.7801821827888489,-9.634767532348633,1.6531654596328735
1751214588652412400,5.658412353515625,-0.7888518571853638,-9.598475456237793,1.8486168384552002
1751214588662406100,5.66840625,-0.799734890460968,-9.560192108154297,2.0331063270568848
1751214588672400100,5.678400146484375,-0.8224309682846069,-9.519012451171875,2.2096164226531982
1751214588682394000,5.68839404296875,-0.8603687882423401,-9.47435474395752,2.3804943561553955
1751214588692387800,5.698387939453125,-0.91221684217453,-9.425721168518066,2.5483367443084717
1751214588702381800,5.7083818359375,-0.9722197651863098,-9.372766494750977,2.715956449508667
1751214588712375800,5.718375732421875,-1.0342462062835693,-9.315409660339355,2.8851125240325928
1751214588722369500,5.72836962890625,-1.0874146223068237,-9.2548828125,3.055332660675049
1751214588732363500,5.738363525390625,-1.1223353147506714,-9.1934232711792,3.2236180305480957
1751214588742357500,5.748357421875,-1.1392912864685059,-9.132054328918457,3.38791823387146
1751214588752351500,5.7583515625,-1.1433109045028687,-9.070693016052246,3.547642230987549
1751214588762345200,5.76834521484375,-1.1442068815231323,-9.008344650268555,3.702824115753174
1751214588772339200,5.778339111328125,-1.1531925201416016,-8.942806243896484,3.855743169784546
1751214588782333200,5.788333251953125,-1.1756877899169922,-8.872733116149902,4.00783634185791
1751214588792327000,5.798326904296875,-1.2065746784210205,-8.797446250915527,4.161670684814453
1751214588802321000,5.80832080078125,-1.2400015592575073,-8.717961311340332,4.316239356994629
1751214588812315000,5.81831494140625,-1.2700181007385254,-8.636336326599121,4.468909740447998
1751214588822308600,5.82830859375,-1.2936699390411377,-8.55284595489502,4.620133399963379
1751214588832302600,5.838302490234375,-1.3147138357162476,-8.468982696533203,4.7663655281066895
1751214588842296600,5.848296630859375,-1.3363606929779053,-8.384771347045898,4.9071526527404785
1751214588852290600,5.85829052734375,-1.3642021417617798,-8.301227569580078,5.039738655090332
1751214588862284300,5.8682841796875,-1.4004602432250977,-8.217636108398438,5.165225982666016
1751214588872278300,5.8782783203125,-1.4444141387939453,-8.135415077209473,5.281957626342773
1751214588882272300,5.888272216796875,-1.4916486740112305,-8.055875778198242,5.389639854431152
1751214588892266000,5.898265869140625,-1.5373737812042236,-7.980991363525391,5.487316608428955
1751214588902260000,5.908260009765625,-1.5791939496994019,-7.91085958480835,5.576274871826172
1751214588912254000,5.91825390625,-1.6184295415878296,-7.84448766708374,5.658187389373779
1751214588922247700,5.92824755859375,-1.6565619707107544,-7.783337116241455,5.7311296463012695
1751214588932241700,5.93824169921875,-1.6918962001800537,-7.725917339324951,5.7981085777282715
1751214588942235600,5.948235595703125,-1.7239118814468384,-7.674800395965576,5.856276512145996
1751214588952229400,5.9582294921875,-1.75156831741333,-7.6298980712890625,5.9065260887146
1751214588962223400,5.968223388671875,-1.7784134149551392,-7.591192722320557,5.948228359222412
1751214588972217300,5.97821728515625,-1.8089898824691772,-7.559922218322754,5.978755474090576
1751214588982211300,5.98821142578125,-1.8424067497253418,-7.535421848297119,5.99944543838501
1751214588992205000,5.998205078125,-1.875643253326416,-7.517020225524902,6.012217998504639
1751214589002199000,6.008198974609375,-1.9048973321914673,-7.504770755767822,6.018318176269531
1751214589012193000,6.018193115234375,-1.927668809890747,-7.49783992767334,6.01970911026001
1751214589022186800,6.028186767578125,-1.9416173696517944,-7.495278835296631,6.0184125900268555
1751214589032180700,6.0381806640625,-1.9456255435943604,-7.4971137046813965,6.014832496643066
1751214589042174700,6.0481748046875,-1.9403045177459717,-7.503171443939209,6.008995532989502
1751214589052168400,6.05816845703125,-1.9263041019439697,-7.513241291046143,6.000913143157959
1751214589062162400,6.068162353515625,-1.9049383401870728,-7.528242588043213,5.988920211791992
1751214589072156400,6.078156494140625,-1.87887704372406,-7.549646854400635,5.970179557800293
1751214589082150400,6.088150390625,-1.8500221967697144,-7.578587532043457,5.9424591064453125
1751214589092144000,6.09814404296875,-1.819749116897583,-7.615486145019531,5.904513359069824
1751214589102138000,6.10813818359375,-1.7887409925460815,-7.661731243133545,5.853945255279541
1751214589112132000,6.118132080078125,-1.7567057609558105,-7.718957424163818,5.788096904754639
1751214589122125800,6.128125732421875,-1.727162480354309,-7.785642147064209,5.707106590270996
1751214589132119800,6.138119873046875,-1.7044198513031006,-7.858023643493652,5.613983631134033
1751214589142113800,6.14811376953125,-1.6819082498550415,-7.934465408325195,5.512333869934082
1751214589152107500,6.158107421875,-1.6437962055206299,-8.016141891479492,5.404608726501465
1751214589162101500,6.1681015625,-1.5800721645355225,-8.105448722839355,5.289184093475342
1751214589172095500,6.178095458984375,-1.4846770763397217,-8.204485893249512,5.162608623504639
1751214589182089500,6.18808935546875,-1.360174536705017,-8.312047004699707,5.02296781539917
1751214589192083200,6.198083251953125,-1.2160683870315552,-8.426032066345215,4.8676018714904785
1751214589202077200,6.2080771484375,-1.0631028413772583,-8.54312515258789,4.696298122406006
1751214589212071200,6.2180712890625,-0.9120253324508667,-8.659762382507324,4.510778903961182
1751214589222065000,6.22806494140625,-0.7704728841781616,-8.772650718688965,4.314783573150635
1751214589232059000,6.238058837890625,-0.6391063928604126,-8.880584716796875,4.110613822937012
1751214589242052900,6.248052978515625,-0.5122333765029907,-8.983495712280273,3.8993356227874756
1751214589252046600,6.258046630859375,-0.380372554063797,-9.080595970153809,3.6835434436798096
1751214589262040600,6.26804052734375,-0.233698308467865,-9.169694900512695,3.468785047531128
1751214589272034600,6.27803466796875,-0.0647040382027626,-9.248017311096191,3.2619564533233643
1751214589282028300,6.2880283203125,0.12532684206962585,-9.312783241271973,3.070300340652466
1751214589292022300,6.298022216796875,0.3184957206249237,-9.360030174255371,2.908395528793335
1751214589302016300,6.308016357421875,0.48671087622642517,-9.390381813049316,2.784642219543457
1751214589312010200,6.31801025390625,0.6192926168441772,-9.411091804504395,2.6866745948791504
1751214589322004000,6.32800390625,0.7127857804298401,-9.429229736328125,2.598451852798462
1751214589331998000,6.337998046875,0.7679975032806396,-9.447827339172363,2.5137875080108643
1751214589341992000,6.347991943359375,0.7958226203918457,-9.467597007751465,2.429333209991455
1751214589361979600,6.367979736328125,0.7978247404098511,-9.512312889099121,2.247166872024536
1751214589371973600,6.3779736328125,0.7760245203971863,-9.536827087402344,2.1487417221069336
1751214589381967400,6.38796728515625,0.7415540218353271,-9.561784744262695,2.0476253032684326
1751214589391961300,6.39796142578125,0.7014816403388977,-9.586008071899414,1.945959448814392
1751214589401955300,6.407955322265625,0.6612024307250977,-9.609167098999023,1.8431237936019897
1751214589411949300,6.41794921875,0.6255449652671814,-9.630823135375977,1.739635705947876
1751214589421943000,6.427943115234375,0.5998329520225525,-9.650532722473145,1.6364028453826904
1751214589431937000,6.43793701171875,0.5862225890159607,-9.668195724487305,1.5338579416275024
1751214589441931000,6.447930908203125,0.5858727097511292,-9.683948516845703,1.4311789274215698
1751214589451924700,6.4579248046875,0.598231315612793,-9.697824478149414,1.3284199237823486
1751214589461918700,6.467918701171875,0.6216500997543335,-9.709895133972168,1.2255080938339233
1751214589471912700,6.47791259765625,0.6536838412284851,-9.720251083374023,1.1224133968353271
1751214589481906400,6.487906494140625,0.6917225122451782,-9.729146957397461,1.017649531364441
1751214589491900400,6.497900390625,0.7349616885185242,-9.73670768737793,0.9092594981193542
1751214589501894400,6.507894287109375,0.7818311452865601,-9.742940902709961,0.7963908314704895
1751214589511888100,6.51788818359375,0.8326523303985596,-9.747538566589355,0.6801157593727112
1751214589521882000,6.527882080078125,0.886797308921814,-9.750310897827148,0.5616103410720825
1751214589531876000,6.5378759765625,0.9444512128829956,-9.751066207885742,0.44171833992004395
1751214589541870000,6.5478701171875,1.0047661066055298,-9.749732971191406,0.32176634669303894
1751214589551863800,6.55786376953125,1.0662450790405273,-9.746392250061035,0.20333684980869293
1751214589561857800,6.56785791015625,1.1261307001113892,-9.741379737854004,0.0879092589020729
1751214589571851800,6.577851806640625,1.1812622547149658,-9.735221862792969,-0.021562915295362473
1751214589581845500,6.587845458984375,1.228181004524231,-9.728660583496094,-0.12298000603914261
1751214589591839500,6.597839599609375,1.265423059463501,-9.722297668457031,-0.2145651876926422
1751214589601833500,6.60783349609375,1.2936105728149414,-9.71643352508545,-0.2964610457420349
1751214589611827200,6.6178271484375,1.3149440288543701,-9.711159706115723,-0.36698776483535767
1751214589621821200,6.6278212890625,1.3313037157058716,-9.706535339355469,-0.42564690113067627
1751214589631815200,6.637815185546875,1.3440338373184204,-9.70256519317627,-0.47348588705062866
1751214589641809200,6.64780908203125,1.3550360202789307,-9.699151992797852,-0.51060950756073
1751214589651803000,6.657802978515625,1.3664422035217285,-9.696114540100098,-0.5372012853622437
1751214589661796900,6.667796875,1.3794089555740356,-9.693278312683105,-0.5549637675285339
1751214589671790800,6.677790771484375,1.3938496112823486,-9.69055461883545,-0.5663293600082397
1751214589681784600,6.68778466796875,1.4095107316970825,-9.68780517578125,-0.574544370174408
1751214589691778600,6.697778564453125,1.423991322517395,-9.685197830200195,-0.582738995552063
1751214589701772500,6.7077724609375,1.4354820251464844,-9.682914733886719,-0.5924012064933777
1751214589711766300,6.717766357421875,1.4431660175323486,-9.6809663772583,-0.6054418683052063
1751214589721760300,6.72776025390625,1.4446302652359009,-9.679559707641602,-0.6241496801376343
1751214589731754200,6.737754150390625,1.4379310607910156,-9.67894458770752,-0.6486770510673523
1751214589741748000,6.747748046875,1.4243561029434204,-9.678988456726074,-0.6773234009742737
1751214589751742000,6.757741943359375,1.4077129364013672,-9.67912483215332,-0.709424614906311
1751214589761736000,6.76773583984375,1.3910698890686035,-9.678871154785156,-0.7448148131370544
1751214589771730000,6.77772998046875,1.3773943185806274,-9.677762031555176,-0.783636212348938
1751214589781723600,6.7877236328125,1.366220474243164,-9.675868034362793,-0.8254834413528442
1751214589791717600,6.797717529296875,1.3548115491867065,-9.673657417297363,-0.8690410256385803
1751214589801711600,6.807711669921875,1.3407191038131714,-9.671648979187012,-0.9121803641319275
1751214589811705300,6.817705322265625,1.3224122524261475,-9.67026138305664,-0.9527167677879333
1751214589821699300,6.82769921875,1.2998820543289185,-9.66972827911377,-0.9884625673294067
1751214589831693300,6.837693359375,1.275294303894043,-9.669870376586914,-1.0186429023742676
1751214589851681000,6.857680908203125,1.2283991575241089,-9.670968055725098,-1.0647963285446167
1751214589861675000,6.867675048828125,1.2073951959609985,-9.6713228225708,-1.0854040384292603
1751214589871669000,6.8776689453125,1.1888169050216675,-9.671242713928223,-1.1064181327819824
1751214589881662700,6.887662841796875,1.1733945608139038,-9.670588493347168,-1.1283845901489258
1751214589891656700,6.89765673828125,1.162765622138977,-9.66875171661377,-1.15481436252594
1751214589901650700,6.907650634765625,1.1583631038665771,-9.665470123291016,-1.1862872838974
1751214589911644400,6.91764453125,1.1599712371826172,-9.661091804504395,-1.2199022769927979
1751214589921638400,6.927638427734375,1.1668074131011963,-9.65595531463623,-1.2535839080810547
1751214589931632400,6.93763232421875,1.1783461570739746,-9.650396347045898,-1.285201072692871
1751214589941626000,6.947626220703125,1.194091796875,-9.644927024841309,-1.3114619255065918
1751214589951620000,6.9576201171875,1.2109676599502563,-9.640174865722656,-1.3307759761810303
1751214589961614000,6.967614013671875,1.2234232425689697,-9.636870384216309,-1.343260407447815
1751214589971608000,6.977608154296875,1.2267639636993408,-9.635746002197266,-1.3482731580734253
1751214589981601800,6.987601806640625,1.218094825744629,-9.637296676635742,-1.3450435400009155
1751214589991595800,6.997595703125,1.1956615447998047,-9.641766548156738,-1.3330892324447632
1751214590001589800,7.00758984375,1.1580607891082764,-9.649116516113281,-1.3129489421844482
1751214590011583500,7.01758349609375,1.1061409711837769,-9.659083366394043,-1.2841086387634277
1751214590021577500,7.027577392578125,1.041042685508728,-9.671279907226562,-1.246178388595581
1751214590031571500,7.037571533203125,0.9637653231620789,-9.685165405273438,-1.19962739944458
1751214590041565200,7.047565185546875,0.8765959143638611,-9.700081825256348,-1.144713282585144
1751214590051559200,7.05755908203125,0.7829923629760742,-9.71535587310791,-1.0812740325927734
1751214590061553200,7.06755322265625,0.687928318977356,-9.730263710021973,-1.0095170736312866
1751214590071547000,7.077546875,0.5946183800697327,-9.744282722473145,-0.9304700493812561
1751214590081540900,7.087540771484375,0.5052713751792908,-9.757055282592773,-0.8455566167831421
1751214590091534800,7.097534912109375,0.4209297299385071,-9.768400192260742,-0.7560226321220398
1751214590101528800,7.10752880859375,0.3409988582134247,-9.778375625610352,-0.6614083647727966
1751214590111522600,7.1175224609375,0.26506656408309937,-9.786947250366211,-0.561946451663971
1751214590121516500,7.1275166015625,0.1939304918050766,-9.794041633605957,-0.457715779542923
1751214590131510500,7.137510498046875,0.12923255562782288,-9.799517631530762,-0.35090237855911255
1751214590141504300,7.147504150390625,0.06942538917064667,-9.803360939025879,-0.24431219696998596
1751214590151498200,7.157498291015625,0.011205827817320824,-9.805643081665039,-0.1401655226945877
1751214590161492200,7.1674921875,-0.047957029193639755,-9.806450843811035,-0.04000013321638107
1751214590171486000,7.17748583984375,-0.10849408060312271,-9.805883407592773,0.05720679834485054
1751214590181480000,7.18747998046875,-0.1704649180173874,-9.803979873657227,0.15268869698047638
1751214590191474000,7.197473876953125,-0.23475094139575958,-9.800708770751953,0.24778418242931366
1751214590201468000,7.207468017578125,-0.3052036166191101,-9.795853614807129,0.34420445561408997
1751214590211461600,7.217461669921875,-0.38411659002304077,-9.789092063903809,0.4433075189590454
1751214590221455600,7.22745556640625,-0.46779683232307434,-9.78010368347168,0.5487409830093384
1751214590231449600,7.23744970703125,-0.5497258305549622,-9.768622398376465,0.6649779677391052
1751214590241443300,7.247443359375,-0.6204083561897278,-9.754534721374512,0.7965735197067261
1751214590251437300,7.257437255859375,-0.6709297299385071,-9.737874984741211,0.9455393552780151
1751214590261431300,7.267431396484375,-0.6965879201889038,-9.718605041503906,1.1108022928237915
1751214590271425000,7.277425048828125,-0.7032335996627808,-9.696273803710938,1.2876790761947632
1751214590281419000,7.2874189453125,-0.6991196870803833,-9.670255661010742,1.4723342657089233
1751214590291413000,7.2974130859375,-0.6928761005401611,-9.639656066894531,1.6635308265686035
1751214590301406700,7.30740673828125,-0.6924242377281189,-9.604201316833496,1.8574860095977783
1751214590311400700,7.317400634765625,-0.7019429206848145,-9.564842224121094,2.0473060607910156
1751214590321394700,7.327394775390625,-0.722191333770752,-9.522676467895508,2.2287824153900146
1751214590331388700,7.337388671875,-0.7498757839202881,-9.478452682495117,2.401460886001587
1751214590381358000,7.387358154296875,-0.823552668094635,-9.236564636230469,3.1903018951416016
1751214590391352000,7.39735205078125,-0.8179665803909302,-9.17794418334961,3.3565828800201416
1751214590401345800,7.407345703125,-0.8156629800796509,-9.113396644592285,3.528608798980713
1751214590411339800,7.41733984375,-0.8145702481269836,-9.042494773864746,3.7067694664001465
1751214590421333800,7.427333740234375,-0.8122474551200867,-8.966085433959961,3.888437271118164
1751214590431327700,7.43732763671875,-0.8063461184501648,-8.885604858398438,4.070159912109375
1751214590441321500,7.447321533203125,-0.7955740690231323,-8.802923202514648,4.248058319091797
1751214590451315500,7.4573154296875,-0.782434344291687,-8.719300270080566,4.419500827789307
1751214590461309400,7.467309326171875,-0.7724896669387817,-8.636134147644043,4.581576824188232
1751214590471303200,7.47730322265625,-0.7712067365646362,-8.554287910461426,4.732839584350586
1751214590481297200,7.487297119140625,-0.7852718234062195,-8.475072860717773,4.871023178100586
1751214590491291100,7.497291015625,-0.8211955428123474,-8.397970199584961,4.997011661529541
1751214590501284900,7.507284912109375,-0.8765531778335571,-8.323324203491211,5.1111955642700195
1751214590511278800,7.51727880859375,-0.9381913542747498,-8.250631332397461,5.21701717376709
1751214590521272800,7.52727294921875,-0.9950098395347595,-8.181764602661133,5.314045429229736
1751214590531266600,7.5372666015625,-1.0392675399780273,-8.119550704956055,5.400297164916992
1751214590541260500,7.547260498046875,-1.071385145187378,-8.065134048461914,5.475048542022705
1751214590551254500,7.557254638671875,-1.0953904390335083,-8.017483711242676,5.539896011352539
1751214590561248500,7.56724853515625,-1.1174002885818481,-7.976498126983643,5.594396591186523
1751214590571242200,7.5772421875,-1.13929283618927,-7.941215991973877,5.63999080657959
1751214590581236200,7.587236328125,-1.1596596240997314,-7.911141395568848,5.677976131439209
1751214590591230200,7.597230224609375,-1.1760860681533813,-7.886045455932617,5.709422588348389
1751214590601224000,7.607223876953125,-1.1853954792022705,-7.864981651306152,5.736486434936523
1751214590611218000,7.617218017578125,-1.187610387802124,-7.851563930511475,5.754382133483887
1751214590621212000,7.6272119140625,-1.1825507879257202,-7.843613147735596,5.766254425048828
1751214590631205600,7.63720556640625,-1.1714138984680176,-7.842129707336426,5.770543098449707
1751214590641199600,7.64719970703125,-1.156185269355774,-7.847610950469971,5.766161918640137
1751214590651193600,7.657193603515625,-1.139275074005127,-7.860782623291016,5.75156831741333
1751214590661187600,7.6671875,-1.1214443445205688,-7.882483005523682,5.725313186645508
1751214590671181300,7.677181396484375,-1.1027494668960571,-7.913459777832031,5.68607759475708
1751214590681175300,7.68717529296875,-1.0829333066940308,-7.954725742340088,5.632050037384033
1751214590691169300,7.697169189453125,-1.0620191097259521,-8.00713062286377,5.5613274574279785
1751214590701163000,7.7071630859375,-1.0400567054748535,-8.071988105773926,5.470984935760498
1751214590711157000,7.717156982421875,-1.0172024965286255,-8.148918151855469,5.360113143920898
1751214590721151000,7.72715087890625,-0.9981777667999268,-8.235366821289062,5.229987144470215
1751214590731144700,7.737144775390625,-0.9882405996322632,-8.32641887664795,5.08571720123291
1751214590741138700,7.747138671875,-0.9776586890220642,-8.41904354095459,4.932979583740234
1751214590751132700,7.757132568359375,-0.9418885111808777,-8.512614250183105,4.776886463165283
1751214590761126700,7.767126708984375,-0.8582746982574463,-8.60853385925293,4.618105411529541
1751214590771120400,7.777120361328125,-0.7177724838256836,-8.705076217651367,4.458344459533691
1751214590781114400,7.7871142578125,-0.5298691391944885,-8.798406600952148,4.2985663414001465
1751214590791108400,7.7971083984375,-0.30554959177970886,-8.885709762573242,4.137775421142578
1751214590801102000,7.80710205078125,-0.05449121445417404,-8.966320037841797,3.9714622497558594
1751214590811096000,7.817095947265625,0.1899062693119049,-9.03458309173584,3.80928373336792
1751214590821090000,7.827090087890625,0.38958877325057983,-9.082761764526367,3.6772336959838867
1751214590831083800,7.837083740234375,0.5262284874916077,-9.117934226989746,3.571659803390503
1751214590841077800,7.847077880859375,0.6140435934066772,-9.153318405151367,3.4655604362487793
1751214590851071700,7.85707177734375,0.6889553070068359,-9.192054748535156,3.346917152404785
1751214590861065500,7.8670654296875,0.7698714733123779,-9.234333038330078,3.210106134414673
1751214590871059500,7.8770595703125,0.8562067747116089,-9.279427528381348,3.0544285774230957
1751214590881053400,7.887053466796875,0.9373836517333984,-9.326286315917969,2.8830676078796387
1751214590891047400,7.89704736328125,0.9987867474555969,-9.372468948364258,2.7073311805725098
1751214590901041200,7.907041259765625,1.029200553894043,-9.415764808654785,2.540572166442871
1751214590911035100,7.91703515625,1.0261032581329346,-9.456527709960938,2.3857011795043945
1751214590921029000,7.927029052734375,0.9952582120895386,-9.495523452758789,2.239393472671509
1751214590931022800,7.93702294921875,0.943740725517273,-9.532785415649414,2.0989840030670166
1751214590941016800,7.947016845703125,0.87762850522995,-9.567570686340332,1.9651379585266113
1751214590951010800,7.9570107421875,0.8036791682243347,-9.598912239074707,1.8399379253387451
1751214590961004500,7.967004638671875,0.7280586957931519,-9.626179695129395,1.7253926992416382
1751214590970998500,7.97699853515625,0.6569305062294006,-9.649142265319824,1.622619390487671
1751214590980992500,7.986992431640625,0.5940604209899902,-9.668339729309082,1.5299313068389893
1751214590990986500,7.996986572265625,0.5420206189155579,-9.684748649597168,1.4429991245269775
1751214591000980200,8.006980224609375,0.5023241639137268,-9.699135780334473,1.3582468032836914
1751214591010974200,8.01697412109375,0.4763808846473694,-9.712076187133789,1.2724089622497559
1751214591020968200,8.02696826171875,0.4637106955051422,-9.723958969116211,1.183213472366333
1751214591030962000,8.0369619140625,0.46454373002052307,-9.73490047454834,1.0891799926757812
1751214591040956000,8.046955810546875,0.4783334732055664,-9.744828224182129,0.9899114966392517
1751214591050950000,8.056949951171875,0.5047056078910828,-9.753494262695312,0.886013388633728
1751214591060943600,8.066943603515625,0.5419920682907104,-9.76068115234375,0.7782921195030212
1751214591070937600,8.0769375,0.5867599844932556,-9.766182899475098,0.669147789478302
1751214591080931600,8.086931640625,0.6355955004692078,-9.769988059997559,0.5601329207420349
1751214591090925300,8.09692529296875,0.6859290599822998,-9.7722806930542,0.4499146342277527
1751214591100919300,8.106919189453125,0.7375016212463379,-9.773077011108398,0.33683761954307556
1751214591110913300,8.116913330078125,0.7907012104988098,-9.772218704223633,0.2211865484714508
1751214591120907300,8.1269072265625,0.8466173410415649,-9.769471168518066,0.10519818216562271
1751214591130901000,8.13690087890625,0.9035767912864685,-9.76492977142334,-0.009228565730154514
1751214591140895000,8.14689501953125,0.9595292210578918,-9.758857727050781,-0.11990451067686081
1751214591150889000,8.156888916015625,1.0121554136276245,-9.751690864562988,-0.2246256321668625
1751214591160882700,8.166882568359375,1.0592470169067383,-9.74395751953125,-0.32197752594947815
1751214591170876700,8.176876708984375,1.0991735458374023,-9.736132621765137,-0.41220757365226746
1751214591180870700,8.18687060546875,1.1315277814865112,-9.728499412536621,-0.49631792306900024
1751214591190864400,8.196864501953126,1.1566591262817383,-9.721317291259766,-0.5731490254402161
1751214591200858400,8.2068583984375,1.1759296655654907,-9.714838027954102,-0.6399314403533936
1751214591210852400,8.216852294921875,1.1882789134979248,-9.709442138671875,-0.6964945197105408
1751214591220846300,8.226846435546875,1.1931904554367065,-9.705336570739746,-0.7437224984169006
1751214591230840000,8.236840087890625,1.1911484003067017,-9.702672958374023,-0.7808316349983215
1751214591240834000,8.246833984375,1.183586597442627,-9.701386451721191,-0.8078495264053345
1751214591250828000,8.256828125,1.1713396310806274,-9.701316833496094,-0.8263128995895386
1751214591260821800,8.26682177734375,1.155874490737915,-9.702105522155762,-0.838746190071106
1751214591270815700,8.276815673828125,1.1410330533981323,-9.703167915344238,-0.8467354774475098
1751214591280809700,8.286809814453125,1.1296348571777344,-9.704090118408203,-0.851435124874115
1751214591290803500,8.296803466796876,1.1215801239013672,-9.704915046691895,-0.8526899218559265
1751214591300797400,8.30679736328125,1.1162850856781006,-9.70557689666748,-0.8521090745925903
1751214591310791400,8.31679150390625,1.1138445138931274,-9.705977439880371,-0.8507209420204163
1751214591320785400,8.326785400390625,1.1149041652679443,-9.706077575683594,-0.8482056856155396
1751214591330779100,8.336779052734375,1.118996024131775,-9.705795288085938,-0.8460288643836975
1751214591340773000,8.346773193359375,1.1233774423599243,-9.705345153808594,-0.8453860878944397
1751214591350767000,8.35676708984375,1.12514328956604,-9.705142974853516,-0.845363974571228
1751214591360760800,8.3667607421875,1.12132728099823,-9.70543384552002,-0.8470884561538696
1751214591370754800,8.3767548828125,1.112255334854126,-9.706143379211426,-0.8509106040000916
1751214591380748800,8.386748779296875,1.0997213125228882,-9.707118034362793,-0.8560665249824524
1751214591390742500,8.396742431640625,1.0856032371520996,-9.708134651184082,-0.8625380992889404
1751214591400736500,8.406736572265626,1.0707416534423828,-9.70905590057373,-0.8707075119018555
1751214591410730500,8.41673046875,1.0557550191879272,-9.709741592407227,-0.8812960982322693
1751214591420724200,8.42672412109375,1.0400344133377075,-9.710370063781738,-0.8929833769798279
1751214591430718200,8.43671826171875,1.0221294164657593,-9.711264610290527,-0.9038650393486023
1751214591440712200,8.446712158203125,1.0001118183135986,-9.712800025939941,-0.91197270154953
1751214591450706200,8.4567060546875,0.9736684560775757,-9.714947700500488,-0.9176813364028931
1751214591460700000,8.466699951171876,0.9435762763023376,-9.717458724975586,-0.9225181937217712
1751214591470694000,8.47669384765625,0.9116736650466919,-9.71980094909668,-0.929891049861908
1751214591480687900,8.48668798828125,0.8798100352287292,-9.721598625183105,-0.9417191743850708
1751214591490681600,8.496681640625,0.850020706653595,-9.7227144241333,-0.9574311971664429
1751214591500675600,8.506675537109375,0.8253758549690247,-9.723106384277344,-0.9748561978340149
1751214591510669600,8.516669677734376,0.8099134564399719,-9.722718238830566,-0.9915623664855957
1751214591520663300,8.526663330078126,0.8089265823364258,-9.72127914428711,-1.0063645839691162
1751214591530657300,8.5366572265625,0.8257338404655457,-9.718194961547852,-1.0223771333694458
1751214591540651300,8.5466513671875,0.8588881492614746,-9.71292495727539,-1.0448884963989258
1751214591550645200,8.556645263671875,0.90041184425354,-9.705893516540527,-1.0748438835144043
1751214591560639000,8.566638916015625,0.9414381980895996,-9.698357582092285,-1.1072214841842651
1751214591570633000,8.576633056640626,0.9778582453727722,-9.691033363342285,-1.139329433441162
1751214591580627000,8.586626953125,1.0104007720947266,-9.683656692504883,-1.1731419563293457
1751214591590620700,8.59662060546875,1.0439213514328003,-9.675539016723633,-1.210188865661621
1751214591600614700,8.60661474609375,1.0837148427963257,-9.66657829284668,-1.2462797164916992
1751214591610608600,8.616608642578125,1.1306084394454956,-9.657449722290039,-1.2750544548034668
1751214591620602400,8.626602294921875,1.1774460077285767,-9.64898681640625,-1.2965574264526367
1751214591630596400,8.636596435546876,1.2111685276031494,-9.642480850219727,-1.3137776851654053
1751214591640590300,8.64659033203125,1.2211683988571167,-9.63963794708252,-1.325338363647461
1751214591650584000,8.656583984375,1.2056045532226562,-9.641176223754883,-1.3283969163894653
1751214591660578000,8.666578125,1.1664340496063232,-9.646825790405273,-1.3223403692245483
1751214591670572000,8.676572021484375,1.1061792373657227,-9.655794143676758,-1.308589220046997
1751214591680566000,8.68656591796875,1.0270317792892456,-9.667238235473633,-1.2884443998336792
1751214591690559700,8.696559814453124,0.9310171008110046,-9.680632591247559,-1.26053786277771
1751214591700553700,8.7065537109375,0.8202601075172424,-9.69528865814209,-1.2243045568466187
1751214591710547700,8.716547607421875,0.6977490782737732,-9.710529327392578,-1.1786208152770996
1751214591720541400,8.72654150390625,0.5687900185585022,-9.725679397583008,-1.1216204166412354
1751214591730535400,8.736535400390625,0.4392143487930298,-9.739928245544434,-1.054166555404663
1751214591740529400,8.746529296875,0.31366610527038574,-9.752809524536133,-0.9770885705947876
1751214591750523100,8.756523193359374,0.19567792117595673,-9.764264106750488,-0.8895199298858643
1751214591760517000,8.76651708984375,0.08608037978410721,-9.774402618408203,-0.7899627685546875
1751214591770511000,8.776510986328125,-0.01623937301337719,-9.783135414123535,-0.6785100102424622
1751214591780505000,8.786505126953125,-0.11297659575939178,-9.790355682373047,-0.5536718368530273
1751214591790498800,8.796498779296876,-0.20472881197929382,-9.795877456665039,-0.4113909602165222
1751214591800492800,8.806492919921874,-0.2904577851295471,-9.799059867858887,-0.2538890242576599
1751214591810486800,8.81648681640625,-0.3688189685344696,-9.799342155456543,-0.08523118495941162
1751214591820480500,8.82648046875,-0.44025349617004395,-9.796342849731445,0.0907718688249588
1751214591830474500,8.836474609375,-0.5059911012649536,-9.789892196655273,0.26900342106819153
1751214591840468500,8.846468505859375,-0.5661004781723022,-9.780129432678223,0.446073442697525
1751214591850462200,8.856462158203126,-0.6214483976364136,-9.767443656921387,0.6174448728561401
1751214591860456200,8.866456298828124,-0.6728924512863159,-9.752250671386719,0.7817932963371277
1751214591870450200,8.8764501953125,-0.7180147171020508,-9.734910011291504,0.9414680600166321
1751214591880444000,8.88644384765625,-0.7529796361923218,-9.716230392456055,1.0946617126464844
1751214591890438000,8.89643798828125,-0.7727057933807373,-9.696856498718262,1.2426985502243042
1751214591900432000,8.906431884765626,-0.7773836255073547,-9.676628112792969,1.3888657093048096
1751214591910425900,8.91642578125,-0.7746005654335022,-9.654809951782227,1.534611463546753
1751214591920419600,8.926419677734375,-0.773152768611908,-9.630708694458008,1.6799001693725586
1751214591930413600,8.93641357421875,-0.7788752913475037,-9.603225708007812,1.828057885169983
1751214591940407600,8.946407470703125,-0.7931306958198547,-9.571452140808105,1.9820739030838013
1751214591950401300,8.9564013671875,-0.8139603734016418,-9.53457260131836,2.1447107791900635
1751214591960395300,8.966395263671876,-0.8301907777786255,-9.492942810058594,2.3162906169891357
1751214591970389200,8.97638916015625,-0.8312236666679382,-9.447733879089355,2.493945837020874
1751214591980383000,8.986383056640625,-0.8160274624824524,-9.399901390075684,2.6732640266418457
1751214591990377000,8.996376953125,-0.7913988828659058,-9.349255561828613,2.852280378341675
1751214592000371000,9.006370849609375,-0.7637303471565247,-9.29532527923584,3.0305161476135254
1751214592010365000,9.016364990234376,-0.739208996295929,-9.237991333007812,3.2067861557006836
1751214592020358700,9.026358642578124,-0.7206514477729797,-9.177281379699707,3.3806166648864746
1751214592030352600,9.0363525390625,-0.7044905424118042,-9.113489151000977,3.552236318588257
1751214592040346600,9.0463466796875,-0.6870664358139038,-9.047290802001953,3.7208681106567383
1751214592050340400,9.05634033203125,-0.6684379577636719,-8.978860855102539,3.8863396644592285
1751214592060334300,9.066334228515625,-0.6500353813171387,-8.90831470489502,4.048427581787109
1751214592070328300,9.076328369140626,-0.6339086294174194,-8.835241317749023,4.207976818084717
1751214592080322000,9.086322021484374,-0.6227357387542725,-8.759100914001465,4.365860939025879
1751214592090316000,9.09631591796875,-0.6177225708961487,-8.679789543151855,4.522175312042236
1751214592100310000,9.10631005859375,-0.6155585050582886,-8.597757339477539,4.67654275894165
1751214592110304000,9.116303955078125,-0.6148079633712769,-8.514612197875977,4.826361656188965
1751214592120297700,9.126297607421876,-0.6157005429267883,-8.433408737182617,4.966780185699463
1751214592130291700,9.136291748046874,-0.6188330054283142,-8.357667922973633,5.0928215980529785
1751214592140285700,9.14628564453125,-0.6243881583213806,-8.286370277404785,5.2073588371276855
1751214592150279400,9.156279541015625,-0.6326483488082886,-8.214231491088867,5.319448947906494
1751214592160273400,9.1662734375,-0.6471400260925293,-8.141140937805176,5.4289422035217285
1751214592170267400,9.176267333984375,-0.6684924960136414,-8.068704605102539,5.533488750457764
1751214592180261000,9.18626123046875,-0.6960077285766602,-7.997133731842041,5.6331000328063965
1751214592190255000,9.196255126953124,-0.7286820411682129,-7.928229808807373,5.725608825683594
1751214592200249000,9.2062490234375,-0.7650663256645203,-7.862941265106201,5.810267925262451
1751214592210242800,9.216242919921875,-0.8041815757751465,-7.802521228790283,5.885944366455078
1751214592220236800,9.22623681640625,-0.8451427221298218,-7.7486443519592285,5.951018333435059
1751214592230230800,9.236230712890626,-0.8860962986946106,-7.701956748962402,6.005420684814453
1751214592240224800,9.246224853515624,-0.9251701235771179,-7.662495136260986,6.049844741821289
1751214592250218500,9.256218505859374,-0.9627693891525269,-7.629551410675049,6.085506916046143
1751214592260212500,9.26621240234375,-0.997569739818573,-7.602926731109619,6.113162040710449
1751214592270206500,9.27620654296875,-1.0261205434799194,-7.582431316375732,6.133855819702148
1751214592280200200,9.2862001953125,-1.0449949502944946,-7.567725658416748,6.148813724517822
1751214592290194200,9.296194091796876,-1.0540204048156738,-7.558877468109131,6.158149242401123
1751214592300188200,9.306188232421874,-1.0547720193862915,-7.555586814880371,6.162057399749756
1751214592310182000,9.316181884765625,-1.0482103824615479,-7.557516574859619,6.160810470581055
1751214592320175900,9.32617578125,-1.034486174583435,-7.564631938934326,6.154394626617432
1751214592330169900,9.336169921875,-1.0130465030670166,-7.577096462249756,6.142615795135498
1751214592370145500,9.3761455078125,-0.875105082988739,-7.678898334503174,6.036480903625488
1751214592380139300,9.38613916015625,-0.8393864035606384,-7.717073440551758,5.992710590362549
1751214592390133200,9.39613330078125,-0.809224009513855,-7.759202003479004,5.942248821258545
1751214592400127200,9.406127197265626,-0.7887667417526245,-7.8008952140808105,5.890183925628662
1751214592410121000,9.416120849609374,-0.7761805057525635,-7.84052848815918,5.839011192321777
1751214592420115000,9.426114990234375,-0.7629879713058472,-7.877951145172119,5.790173530578613
1751214592430109000,9.43610888671875,-0.741572380065918,-7.915210723876953,5.741942405700684
1751214592440102700,9.4461025390625,-0.70721435546875,-7.956441879272461,5.6890482902526855
1751214592450096600,9.4560966796875,-0.6587429046630859,-8.003914833068848,5.6279473304748535
1751214592460090600,9.466090576171876,-0.5971754193305969,-8.056694030761719,5.559088230133057
1751214592470084600,9.476084716796874,-0.5227150917053223,-8.113113403320312,5.484025955200195
1751214592480078300,9.486078369140625,-0.4370010197162628,-8.17170238494873,5.403951644897461
1751214592490072300,9.496072265625,-0.3443651497364044,-8.231712341308594,5.318901062011719
1751214592500066300,9.50606640625,-0.2539544701576233,-8.293553352355957,5.227128982543945
1751214592510060000,9.51606005859375,-0.17121432721614838,-8.357264518737793,5.128079891204834
1751214592520054000,9.526053955078124,-0.09565851837396622,-8.422073364257812,5.022937297821045
1751214592530048000,9.536048095703125,-0.02099132351577282,-8.48729419708252,4.9128193855285645
1751214592540041700,9.546041748046875,0.05876150727272034,-8.553210258483887,4.796825408935547
1751214592550035700,9.55603564453125,0.1438715159893036,-8.618846893310547,4.676022052764893
1751214592560029700,9.56602978515625,0.22716067731380463,-8.68110466003418,4.5560078620910645
1751214592570023700,9.576023681640624,0.30064043402671814,-8.740348815917969,4.436924457550049
1751214592580017400,9.586017333984374,0.3612433075904846,-8.800256729125977,4.312235355377197
1751214592590011400,9.596011474609375,0.4120304584503174,-8.86046028137207,4.182445526123047
1751214592600005400,9.60600537109375,0.45687180757522583,-8.918713569641113,4.051938056945801
1751214592609999000,9.6159990234375,0.4987979829311371,-8.975059509277344,3.9204466342926025
1751214592619993000,9.6259931640625,0.5376883149147034,-9.03084945678711,3.7848455905914307
1751214592629987000,9.635987060546874,0.5724654793739319,-9.086234092712402,3.6445865631103516
1751214592639980800,9.645980712890625,0.6023722290992737,-9.140702247619629,3.5007283687591553
1751214592649974800,9.655974853515625,0.6263634562492371,-9.19382381439209,3.3543472290039062
1751214592659968800,9.66596875,0.6438668966293335,-9.245002746582031,3.2071380615234375
1751214592669962800,9.675962646484376,0.6553889513015747,-9.293421745300293,3.0615622997283936
1751214592679956500,9.68595654296875,0.6627973318099976,-9.337749481201172,2.921903371810913
1751214592689950500,9.695950439453124,0.6679514050483704,-9.377847671508789,2.7893004417419434
1751214592699944400,9.7059443359375,0.673139214515686,-9.414458274841309,2.661811590194702
1751214592709938200,9.715938232421875,0.6791983842849731,-9.448528289794922,2.5366098880767822
1751214592719932200,9.72593212890625,0.6855709552764893,-9.480788230895996,2.4114365577697754
1751214592729926100,9.735926025390626,0.6936400532722473,-9.510899543762207,2.287365198135376
1751214592739920000,9.745919921875,0.7042164206504822,-9.53919792175293,2.162907600402832
1751214592749913900,9.755913818359375,0.7186106443405151,-9.56592082977295,2.03645396232605
1751214592759907800,9.765907958984375,0.7398897409439087,-9.590530395507812,1.909104347229004
1751214592769901600,9.775901611328125,0.770171582698822,-9.612284660339355,1.7835938930511475
1751214592779895600,9.7858955078125,0.8099991679191589,-9.630946159362793,1.6610682010650635
1751214592789889500,9.7958896484375,0.8579461574554443,-9.647555351257324,1.535902738571167
1751214592799883500,9.805883544921874,0.9109832644462585,-9.662284851074219,1.407390832901001
1751214592809877200,9.815877197265625,0.96583092212677,-9.67490291595459,1.2782137393951416
1751214592819871200,9.825871337890625,1.0193593502044678,-9.68535041809082,1.1512013673782349
1751214592829865200,9.835865234375,1.0695205926895142,-9.69392204284668,1.0268328189849854
1751214592839859000,9.84585888671875,1.1145631074905396,-9.70081615447998,0.9068154692649841
1751214592849853000,9.85585302734375,1.1538188457489014,-9.70620346069336,0.7929039001464844
1751214592859847000,9.865846923828125,1.1870148181915283,-9.710310935974121,0.6864688992500305
1751214592869840600,9.875840576171875,1.2123770713806152,-9.713706016540527,0.5869008302688599
1751214592879834600,9.885834716796875,1.2285646200180054,-9.716917037963867,0.49247077107429504
1751214592889828600,9.89582861328125,1.2353466749191284,-9.720215797424316,0.4021296501159668
1751214592899822600,9.905822509765626,1.2317434549331665,-9.723868370056152,0.3155572712421417
1751214592909816300,9.91581640625,1.2166192531585693,-9.728087425231934,0.2335394322872162
1751214592919810300,9.925810302734375,1.1900089979171753,-9.732916831970215,0.15682712197303772
1751214592929804300,9.93580419921875,1.1525557041168213,-9.738298416137695,0.08689858764410019
1751214592939798000,9.945798095703125,1.1054645776748657,-9.744111061096191,0.025161389261484146
1751214592949792000,9.9557919921875,1.0504255294799805,-9.750189781188965,-0.027989240363240242
1751214592959786000,9.965785888671874,0.9898338317871094,-9.756278991699219,-0.0750267282128334
1751214592969779700,9.97577978515625,0.925273597240448,-9.762150764465332,-0.12113876640796661
1751214592979773700,9.985773681640625,0.8627996444702148,-9.767335891723633,-0.15850001573562622
1751214592989767700,9.995767578125,0.8071404695510864,-9.771659851074219,-0.1832348108291626
1751214592999761400,10.005761474609375,0.7642490267753601,-9.774866104125977,-0.19571910798549652
1751214593009755400,10.01575537109375,0.7383222579956055,-9.776714324951172,-0.20281103253364563
1751214593019749400,10.025749267578124,0.733447253704071,-9.776954650878906,-0.2087952345609665
1751214593029743400,10.035743408203125,0.7524877786636353,-9.775546073913574,-0.20701071619987488
1751214593039737000,10.045737060546875,0.79598069190979,-9.772255897521973,-0.19952929019927979
1751214593049731000,10.05573095703125,0.862149178981781,-9.766827583312988,-0.19015488028526306
1751214593059725000,10.06572509765625,0.9474688768386841,-9.75911808013916,-0.1797308623790741
1751214593069718800,10.07571875,1.0509982109069824,-9.748743057250977,-0.16671547293663025
1751214593079712800,10.085712646484374,1.1662609577178955,-9.735779762268066,-0.15749536454677582
1751214593089706800,10.095706787109375,1.2840335369110107,-9.720976829528809,-0.15572188794612885
1751214593099700500,10.105700439453125,1.3993873596191406,-9.704967498779297,-0.16030843555927277
1751214593109694500,10.115694580078125,1.5068553686141968,-9.688697814941406,-0.17005115747451782
1751214593119688400,10.1256884765625,1.5953439474105835,-9.674281120300293,-0.18315543234348297
1751214593129682400,10.135682373046874,1.651976466178894,-9.664468765258789,-0.19851408898830414
1751214593139676200,10.14567626953125,1.671249270439148,-9.66084098815918,-0.21323509514331818
1751214593149670100,10.155670166015625,1.6577457189559937,-9.662896156311035,-0.22518230974674225
1751214593159664000,10.1656640625,1.6232439279556274,-9.668563842773438,-0.23309776186943054
1751214593169657900,10.175657958984376,1.5799469947814941,-9.675577163696289,-0.23949135839939117
1751214593179651800,10.18565185546875,1.535944938659668,-9.682456016540527,-0.24761532247066498
1751214593189645800,10.195645751953125,1.4972723722457886,-9.688230514526367,-0.2583668529987335
1751214593199639600,10.2056396484375,1.4684653282165527,-9.692258834838867,-0.27221739292144775
1751214593209633500,10.215633544921875,1.4503673315048218,-9.694453239440918,-0.290499210357666
1751214593219627500,10.22562744140625,1.4418516159057617,-9.695003509521484,-0.31360822916030884
1751214593229621200,10.235621337890626,1.4416342973709106,-9.69418716430664,-0.33884647488594055
1751214593239615200,10.245615234375,1.4482015371322632,-9.692344665527344,-0.3627189099788666
1751214593249609200,10.255609130859375,1.4579222202301025,-9.690027236938477,-0.3849961757659912
1751214593259603200,10.265603271484375,1.4659401178359985,-9.687856674194336,-0.40847495198249817
1751214593269597000,10.275596923828125,1.4663679599761963,-9.686680793762207,-0.4339994788169861
1751214593279591000,10.2855908203125,1.4553955793380737,-9.687153816223145,-0.459640771150589
1751214593289585000,10.2955849609375,1.430267333984375,-9.689698219299316,-0.48422759771347046
1751214593299578600,10.30557861328125,1.389459490776062,-9.69448184967041,-0.5067645311355591
1751214593309572600,10.315572509765625,1.3347378969192505,-9.701080322265625,-0.527151882648468
1751214593319566600,10.325566650390625,1.2677034139633179,-9.708995819091797,-0.5465449094772339
1751214593329560300,10.335560302734375,1.19092857837677,-9.717484474182129,-0.5679515600204468
1751214593339554300,10.34555419921875,1.1102180480957031,-9.7253999710083,-0.5953127145767212
1751214593349548300,10.35554833984375,1.0327562093734741,-9.731589317321777,-0.632439374923706
1751214593359542300,10.365542236328125,0.9675277471542358,-9.735084533691406,-0.6800172924995422
1751214593369536000,10.375535888671875,0.924056887626648,-9.735569953918457,-0.731565535068512
1751214593379530000,10.385530029296875,0.9144073724746704,-9.732848167419434,-0.7783985137939453
1751214593389524000,10.39552392578125,0.9418932795524597,-9.727449417114258,-0.812373697757721
1751214593399517700,10.405517578125,0.9990190863609314,-9.720173835754395,-0.8310134410858154
1751214593409511700,10.41551171875,1.0758658647537231,-9.711742401123047,-0.8336438536643982
1751214593419505700,10.425505615234375,1.158656120300293,-9.703198432922363,-0.8220951557159424
1751214593429499400,10.43549951171875,1.2292242050170898,-9.696088790893555,-0.8032752275466919
1751214593439493400,10.445493408203125,1.267548680305481,-9.69272518157959,-0.7840874791145325
1751214593449487400,10.4554873046875,1.257026195526123,-9.695700645446777,-0.7639853954315186
1751214593459481300,10.4654814453125,1.189961552619934,-9.706083297729492,-0.7391434907913208
1751214593469475000,10.47547509765625,1.0727978944778442,-9.722098350524902,-0.7073280215263367
1751214593479469000,10.485468994140625,0.9204294681549072,-9.740548133850098,-0.6670404672622681
1751214593499456800,10.505456787109376,0.5797521471977234,-9.773621559143066,-0.5573203563690186
1751214593519444700,10.52544482421875,0.2752766013145447,-9.794855117797852,-0.3942335546016693
1751214593529438500,10.5354384765625,0.1504124253988266,-9.801451683044434,-0.28162774443626404
1751214593539432400,10.545432373046875,0.0474819652736187,-9.805459976196289,-0.14521081745624542
1751214593549426400,10.555426513671875,-0.03383908048272133,-9.806580543518066,0.014691289514303207
1751214593559420200,10.565420166015626,-0.09677501022815704,-9.804218292236328,0.1957632154226303
1751214593569414100,10.5754140625,-0.14787928760051727,-9.79776668548584,0.3902624249458313
1751214593579408100,10.585408203125,-0.1933310329914093,-9.786937713623047,0.5906449556350708
1751214593589402000,10.595402099609375,-0.23553389310836792,-9.771669387817383,0.7933415174484253
1751214593599395800,10.605395751953125,-0.2785036265850067,-9.751626014709473,0.9993026852607727
1751214593609389800,10.615389892578126,-0.3244774341583252,-9.726365089416504,1.2095201015472412
1751214593619383800,10.6253837890625,-0.37378570437431335,-9.6961030960083,1.4199447631835938
1751214593629377500,10.63537744140625,-0.42738133668899536,-9.661355972290039,1.6266379356384277
1751214593639371500,10.64537158203125,-0.4839645028114319,-9.622575759887695,1.828170895576477
1751214593649365500,10.655365478515625,-0.5416566729545593,-9.580652236938477,2.021904230117798
1751214593659359200,10.665359130859375,-0.6003426313400269,-9.536843299865723,2.204221248626709
1751214593669353200,10.675353271484376,-0.6621301174163818,-9.491872787475586,2.374096155166626
1751214593679347200,10.68534716796875,-0.7295569181442261,-9.445361137390137,2.5344223976135254
1751214593689341200,10.695341064453125,-0.8043009638786316,-9.39641284942627,2.6890342235565186
1751214593699335000,10.7053349609375,-0.8804876804351807,-9.344579696655273,2.841470241546631
1751214593709329000,10.715328857421875,-0.9472227096557617,-9.290085792541504,2.99456787109375
1751214593719323000,10.725322998046876,-0.9974448680877686,-9.233359336853027,3.1496939659118652
1751214593729316600,10.735316650390626,-1.0314342975616455,-9.174970626831055,3.3055167198181152
1751214593739310600,10.745310546875,-1.0514851808547974,-9.114739418029785,3.4621243476867676
1751214593749304600,10.7553046875,-1.0610003471374512,-9.052127838134766,3.6198980808258057
1751214593759298300,10.76529833984375,-1.064724326133728,-8.986418724060059,3.779024124145508
1751214593769292300,10.775292236328125,-1.0642621517181396,-8.916441917419434,3.9414210319519043
1751214593779286300,10.785286376953126,-1.0593297481536865,-8.841340065002441,4.108395099639893
1751214593789280000,10.795280029296874,-1.0507394075393677,-8.760138511657715,4.280925273895264
1751214593799274000,10.80527392578125,-1.0408939123153687,-8.673134803771973,4.45686674118042
1751214593809268000,10.81526806640625,-1.0287493467330933,-8.58064079284668,4.635153770446777
1751214593819262000,10.825261962890625,-1.0166817903518677,-8.4840087890625,4.812312126159668
1751214593829255700,10.835255615234376,-1.0056215524673462,-8.385233879089355,4.984673500061035
1751214593839249700,10.845249755859374,-0.9961087107658386,-8.286105155944824,5.149621486663818
1751214593849243600,10.85524365234375,-0.9847132563591003,-8.18985652923584,5.303487300872803
1751214593859237400,10.8652373046875,-0.9711904525756836,-8.098769187927246,5.443997383117676
1751214593869231400,10.8752314453125,-0.9563939571380615,-8.013790130615234,5.570894718170166
1751214593879225300,10.885225341796875,-0.9428442716598511,-7.935614585876465,5.683963298797607
1751214593889219000,10.895218994140626,-0.9342771768569946,-7.864948749542236,5.782740116119385
1751214593899213000,10.905213134765624,-0.9356001019477844,-7.801753520965576,5.8675103187561035
1751214593909207000,10.91520703125,-0.9501590132713318,-7.746297836303711,5.938220024108887
1751214593919200800,10.92520068359375,-0.9781064391136169,-7.698692798614502,5.995316982269287
1751214593929194800,10.93519482421875,-1.0159454345703125,-7.659461975097656,6.039111614227295
1751214593939188500,10.9451884765625,-1.0589183568954468,-7.628639221191406,6.070664405822754
1751214593949182500,10.955182373046876,-1.1046222448349,-7.605590343475342,6.091403961181641
1751214593959176200,10.96517626953125,-1.1526731252670288,-7.589546203613281,6.102502346038818
1751214593969170200,10.975170166015625,-1.2024755477905273,-7.579456806182861,6.105429172515869
1751214593979164000,10.985163818359375,-1.2508280277252197,-7.575519561767578,6.10059928894043
1751214593989158000,10.995157958984375,-1.2949928045272827,-7.577434539794922,6.088995456695557
1751214593999151600,11.005151611328126,-1.3324311971664429,-7.585085868835449,6.071364879608154
1751214594009145600,11.0151455078125,-1.3591885566711426,-7.598749160766602,6.048306941986084
1751214594019139300,11.025139404296874,-1.3709481954574585,-7.619137763977051,6.019936561584473
1751214594029133300,11.03513330078125,-1.3657362461090088,-7.647160053253174,5.985490322113037
1751214594039127000,11.045126953125,-1.3432281017303467,-7.683996677398682,5.9432573318481445
1751214594049121000,11.05512109375,-1.3034038543701172,-7.73009729385376,5.892124652862549
1751214594059114800,11.06511474609375,-1.2496716976165771,-7.786431312561035,5.829253196716309
1751214594069108700,11.075108642578124,-1.1890312433242798,-7.8532586097717285,5.75177526473999
1751214594079102500,11.0851025390625,-1.1304805278778076,-7.93038272857666,5.656980037689209
1751214594089096400,11.095096435546875,-1.0875288248062134,-8.016048431396484,5.543522357940674
1751214594099090200,11.105090087890625,-1.0733667612075806,-8.105500221252441,5.414715766906738
1751214594109084200,11.115084228515625,-1.0833996534347534,-8.196104049682617,5.274515151977539
1751214594119078000,11.125077880859376,-1.0840747356414795,-8.289273262023926,5.126707077026367
1751214594129071600,11.135071533203124,-1.0371531248092651,-8.38748836517334,4.974410533905029
1751214594139065600,11.145065673828125,-0.9254459142684937,-8.49104118347168,4.818316459655762
1751214594149059300,11.155059326171875,-0.7563692331314087,-8.596292495727539,4.6585469245910645
1751214594159053300,11.16505322265625,-0.561233401298523,-8.69947624206543,4.49160623550415
1751214594169047300,11.17504736328125,-0.3691706359386444,-8.798430442810059,4.315288066864014
1751214594179041300,11.185041259765624,-0.19550466537475586,-8.893811225891113,4.127020359039307
1751214594189035000,11.195034912109374,-0.03794386610388756,-8.981821060180664,3.936474561691284
1751214594199029000,11.205029052734375,0.11466161161661148,-9.055931091308594,3.7612972259521484
1751214594209023000,11.21502294921875,0.26587048172950745,-9.114947319030762,3.6079676151275635
1751214594219016700,11.2250166015625,0.4059292674064636,-9.158966064453125,3.481226921081543
1751214594229010700,11.2350107421875,0.5200561285018921,-9.194052696228027,3.3718438148498535
1751214594239004700,11.245004638671874,0.6093140244483948,-9.225848197937012,3.2684617042541504
1751214594248998400,11.254998291015625,0.6799305081367493,-9.257884979248047,3.1622231006622314
1751214594258992400,11.264992431640625,0.7340527176856995,-9.292261123657227,3.04719877243042
1751214594268986400,11.274986328125,0.771888256072998,-9.329137802124023,2.9226295948028564
1751214594278980400,11.28498046875,0.7914221882820129,-9.367253303527832,2.792600154876709
1751214594288974000,11.29497412109375,0.7909913659095764,-9.405426025390625,2.6613309383392334
1751214594298968000,11.304968017578124,0.7731636166572571,-9.44315242767334,2.5297188758850098
1751214594308962000,11.314962158203125,0.7434016466140747,-9.47989273071289,2.3977832794189453
1751214594318955800,11.324955810546875,0.7086107134819031,-9.51563549041748,2.2629456520080566
1751214594328949800,11.33494970703125,0.6730830073356628,-9.550548553466797,2.122349739074707
1751214594368925400,11.374925537109375,0.613319993019104,-9.66300106048584,1.5558366775512695
1751214594378919200,11.384919189453125,0.6322421431541443,-9.681458473205566,1.4282917976379395
1751214594388913200,11.3949130859375,0.666043758392334,-9.696586608886719,1.3049793243408203
1751214594398907100,11.4049072265625,0.7107971906661987,-9.708992958068848,1.183474063873291
1751214594408901000,11.414901123046874,0.7621421813964844,-9.718955993652344,1.0636789798736572
1751214594418894800,11.424894775390625,0.8155838847160339,-9.727100372314453,0.9427197575569153
1751214594428888800,11.434888916015625,0.8663738369941711,-9.73389720916748,0.8191614747047424
1751214594438882800,11.4448828125,0.9118130803108215,-9.739553451538086,0.692878246307373
1751214594448876500,11.45487646484375,0.949725866317749,-9.744187355041504,0.5649975538253784
1751214594458870500,11.46487060546875,0.9795827269554138,-9.747657775878906,0.4404187500476837
1751214594468864500,11.474864501953125,1.0048317909240723,-9.749600410461426,0.32555723190307617
1751214594478858200,11.484858154296875,1.027321457862854,-9.750173568725586,0.22158706188201904
1751214594488852200,11.494852294921875,1.0511332750320435,-9.749374389648438,0.12329334020614624
1751214594498846200,11.50484619140625,1.079097032546997,-9.747063636779785,0.026408599689602852
1751214594508840200,11.514840087890626,1.1121246814727783,-9.74312973022461,-0.07066027075052261
1751214594518834000,11.524833984375,1.1508594751358032,-9.737473487854004,-0.16591660678386688
1751214594528828000,11.534827880859375,1.1944283246994019,-9.730339050292969,-0.2534191608428955
1751214594538822000,11.54482177734375,1.2412525415420532,-9.72221565246582,-0.32895997166633606
1751214594548815600,11.554815673828125,1.2899123430252075,-9.713522911071777,-0.3924027383327484
1751214594558809600,11.5648095703125,1.337472677230835,-9.704790115356445,-0.4456259608268738
1751214594568803600,11.574803466796874,1.378771185874939,-9.696743965148926,-0.49248674511909485
1751214594578797300,11.58479736328125,1.41116464138031,-9.689691543579102,-0.5374651551246643
1751214594588791300,11.594791259765625,1.4383420944213867,-9.683368682861328,-0.5778642296791077
1751214594598785300,11.604785400390625,1.4635145664215088,-9.677814483642578,-0.6069750189781189
1751214594608779300,11.614779296875,1.4838107824325562,-9.673608779907227,-0.6244838833808899
1751214594618773000,11.62477294921875,1.493186116218567,-9.6714448928833,-0.6355604529380798
1751214594628767000,11.63476708984375,1.491068959236145,-9.671187400817871,-0.6443806886672974
1751214594638761000,11.644760986328125,1.480238437652588,-9.672119140625,-0.6552762985229492
1751214594648754700,11.654754638671875,1.4641412496566772,-9.673615455627441,-0.669203519821167
1751214594658748700,11.664748779296875,1.4461445808410645,-9.675281524658203,-0.6840924024581909
1751214594668742700,11.67474267578125,1.4288263320922852,-9.676761627197266,-0.699383020401001
1751214594678736400,11.684736328125,1.4145828485488892,-9.6778564453125,-0.7130386233329773
1751214594688730400,11.69473046875,1.4067457914352417,-9.678301811218262,-0.7224515676498413
1751214594698724400,11.704724365234375,1.406418800354004,-9.678084373474121,-0.7259926795959473
1751214594708718000,11.714718017578125,1.4131181240081787,-9.677201271057129,-0.7247616052627563
1751214594718712000,11.724712158203126,1.4263278245925903,-9.675504684448242,-0.7215247750282288
1751214594728706000,11.7347060546875,1.4441289901733398,-9.67308235168457,-0.7185704708099365
1751214594738700000,11.744699951171874,1.4641762971878052,-9.670236587524414,-0.7163235545158386
1751214594748693800,11.75469384765625,1.4822505712509155,-9.667501449584961,-0.7160462737083435
1751214594758687700,11.764687744140625,1.4936230182647705,-9.665501594543457,-0.7194065451622009
1751214594768681700,11.774681640625,1.498110055923462,-9.664368629455566,-0.7252920269966125
1751214594778675500,11.784675537109376,1.4961239099502563,-9.664085388183594,-0.7331136465072632
1751214594788669400,11.79466943359375,1.4871008396148682,-9.664738655090332,-0.7427891492843628
1751214594798663400,11.804663330078125,1.471676230430603,-9.666180610656738,-0.7546582818031311
1751214594808657200,11.8146572265625,1.4507383108139038,-9.667978286743164,-0.7719727754592896
1751214594818651100,11.824651123046875,1.4260567426681519,-9.66977596282959,-0.7950958013534546
1751214594828645000,11.83464501953125,1.399206519126892,-9.671575546264648,-0.8204991221427917
1751214594838639000,11.84463916015625,1.3709371089935303,-9.673444747924805,-0.8458119034767151
1751214594848632800,11.8546328125,1.3424650430679321,-9.675326347351074,-0.8696156740188599
1751214594858626800,11.864626708984375,1.3161718845367432,-9.67681884765625,-0.8928948044776917
1751214594868620800,11.874620849609375,1.295882225036621,-9.677212715148926,-0.917939305305481
1751214594878614500,11.884614501953125,1.2826060056686401,-9.676030158996582,-0.9485529065132141
1751214594888608500,11.8946083984375,1.274630069732666,-9.673215866088867,-0.9872128367424011
1751214594898602500,11.9046025390625,1.2677754163742065,-9.669360160827637,-1.0327656269073486
1751214594908596200,11.91459619140625,1.2574125528335571,-9.66514778137207,-1.0836037397384644
1751214594918590200,11.924590087890625,1.2404268980026245,-9.661155700683594,-1.137449860572815
1751214594928584200,11.934584228515625,1.2170336246490479,-9.657622337341309,-1.1914535760879517
1751214594938578000,11.944577880859375,1.1905531883239746,-9.654415130615234,-1.2430760860443115
1751214594948572000,11.954572021484376,1.1671314239501953,-9.651473045349121,-1.2873482704162598
1751214594958566000,11.96456591796875,1.153851866722107,-9.648674011230469,-1.3198907375335693
1751214594968559900,11.974559814453125,1.1536146402359009,-9.646095275878906,-1.3388137817382812
1751214594978553600,11.9845537109375,1.1642252206802368,-9.643856048583984,-1.3457344770431519
1751214594988547600,11.994547607421875,1.1803385019302368,-9.642212867736816,-1.3434706926345825
1751214594998541600,12.00454150390625,1.1963331699371338,-9.641592979431152,-1.3337405920028687
1751214595008535300,12.014535400390624,1.2070057392120361,-9.642488479614258,-1.317552089691162
1751214595018529300,12.024529296875,1.209823727607727,-9.645224571228027,-1.2947357892990112
1751214595028523300,12.034523193359375,1.2047374248504639,-9.649873733520508,-1.2644912004470825
1751214595038517000,12.04451708984375,1.1910020112991333,-9.656376838684082,-1.2273050546646118
1751214595048511000,12.054510986328125,1.1676996946334839,-9.66457748413086,-1.1843963861465454
1751214595058505000,12.0645048828125,1.1324493885040283,-9.67435359954834,-1.137903094291687
1751214595068499000,12.0744990234375,1.078983187675476,-9.685901641845703,-1.090640902519226
1751214595078492700,12.08449267578125,0.9951453804969788,-9.699787139892578,-1.0460375547409058
1751214595088486700,12.094486572265625,0.8726162910461426,-9.717127799987793,-0.993153989315033
1751214595098480600,12.104480712890625,0.7169316411018372,-9.736767768859863,-0.922895610332489
1751214595108474400,12.114474365234376,0.5439053773880005,-9.755377769470215,-0.8409249186515808
1751214595118468400,12.12446826171875,0.36971399188041687,-9.770745277404785,-0.7524828314781189
1751214595128462300,12.13446240234375,0.2064395695924759,-9.7824068069458,-0.6574834585189819
1751214595138456000,12.1444560546875,0.05901804938912392,-9.79086971282959,-0.5529660582542419
1751214595148450000,12.154449951171875,-0.07135551422834396,-9.796794891357422,-0.433714896440506
1751214595158444000,12.164444091796875,-0.18460869789123535,-9.800537109375,-0.2928865849971771
1751214595168437800,12.174437744140626,-0.27838873863220215,-9.801875114440918,-0.1270393431186676
1751214595178431700,12.184431640625,-0.3474545478820801,-9.800312995910645,0.05946812406182289
1751214595188425700,12.19442578125,-0.3862333595752716,-9.79564094543457,0.2581014335155487
1751214595198419700,12.204419677734375,-0.39600682258605957,-9.788182258605957,0.4528180956840515
1751214595208413400,12.214413330078125,-0.3799688518047333,-9.778573036193848,0.636812150478363
1751214595218407400,12.224407470703126,-0.3415202498435974,-9.76699447631836,0.8121393918991089
1751214595228401400,12.2344013671875,-0.2830743193626404,-9.7540864944458,0.9736835956573486
1751214595238395100,12.24439501953125,-0.21724538505077362,-9.739313125610352,1.1264772415161133
1751214595248389000,12.25438916015625,-0.1578458547592163,-9.722076416015625,1.2754175662994385
1751214595258383000,12.264383056640625,-0.11461900174617767,-9.701900482177734,1.4249120950698853
1751214595268376800,12.274376953125,-0.09299162775278091,-9.678034782409668,1.5803148746490479
1751214595278370800,12.284370849609376,-0.0941852405667305,-9.650069236755371,1.7428975105285645
1751214595288364800,12.29436474609375,-0.11571715772151947,-9.618227005004883,1.9096342325210571
1751214595298358800,12.30435888671875,-0.14817872643470764,-9.582941055297852,2.077421188354492
1751214595308352500,12.3143525390625,-0.18091537058353424,-9.545221328735352,2.2419633865356445
1751214595318346500,12.324346435546875,-0.20659175515174866,-9.505620002746582,2.4022676944732666
1751214595328340500,12.334340576171876,-0.2229902744293213,-9.463574409484863,2.561527729034424
1751214595338334200,12.344334228515624,-0.232350155711174,-9.417755126953125,2.72438383102417
1751214595348328200,12.354328125,-0.24149629473686218,-9.366658210754395,2.8944358825683594
1751214595358322200,12.364322265625,-0.2594718933105469,-9.309354782104492,3.0722928047180176
1751214595368316000,12.37431591796875,-0.2921023666858673,-9.247817993164062,3.2500674724578857
1751214595378310000,12.384309814453125,-0.3338380753993988,-9.185042381286621,3.41964054107666
1751214595388304000,12.394303955078126,-0.3748459815979004,-9.122150421142578,3.5799801349639893
1751214595398297900,12.4042978515625,-0.40789633989334106,-9.059829711914062,3.731419563293457
1751214595408291600,12.41429150390625,-0.43059274554252625,-8.99866771697998,3.8741393089294434
1751214595418285600,12.42428564453125,-0.44484663009643555,-8.937771797180176,4.011075973510742
1751214595428279600,12.434279541015625,-0.4551037847995758,-8.875423431396484,4.146099090576172
1751214595438273300,12.444273193359376,-0.46591559052467346,-8.809646606445312,4.282924175262451
1751214595448267300,12.454267333984374,-0.47724220156669617,-8.739582061767578,4.4229326248168945
1751214595458261200,12.46426123046875,-0.48540595173835754,-8.665755271911621,4.565025329589844
1751214595468255000,12.4742548828125,-0.4856169819831848,-8.588874816894531,4.7080559730529785
1751214595478249000,12.4842490234375,-0.47538629174232483,-8.50924015045166,4.851518154144287
1751214595488243000,12.494242919921875,-0.45456838607788086,-8.426855087280273,4.995184421539307
1751214595498236700,12.504236572265626,-0.42527735233306885,-8.342788696289062,5.136866092681885
1751214595508230700,12.514230712890624,-0.39235177636146545,-8.258772850036621,5.273436546325684
1751214595518224600,12.524224609375,-0.3624405264854431,-8.17518424987793,5.404202461242676
1751214595528218600,12.534218505859375,-0.33913472294807434,-8.0929536819458,5.52806282043457
1751214595538212400,12.54421240234375,-0.32470932602882385,-8.013580322265625,5.643356800079346
1751214595548206300,12.554206298828126,-0.32086262106895447,-7.938307285308838,5.74897575378418
1751214595558200300,12.564200439453124,-0.3274006247520447,-7.8692779541015625,5.842744827270508
1751214595568194000,12.574194091796874,-0.3435404300689697,-7.805629253387451,5.9265947341918945
1751214595578188000,12.58418798828125,-0.3672286868095398,-7.748057842254639,6.000259876251221
1751214595588182000,12.59418212890625,-0.3998439610004425,-7.696929454803467,6.063645362854004
1751214595598175700,12.60417578125,-0.44358959794044495,-7.652003765106201,6.117227077484131
1751214595608169700,12.614169677734376,-0.49672722816467285,-7.6128034591674805,6.16188907623291
1751214595618163700,12.624163818359374,-0.5540221333503723,-7.57895040512085,6.198625564575195
1751214595628157700,12.63415771484375,-0.6099748611450195,-7.550753116607666,6.227715492248535
1751214595638151400,12.6441513671875,-0.6610609889030457,-7.52811861038208,6.249865531921387
1751214595648145400,12.6541455078125,-0.7055022716522217,-7.510751724243164,6.2658820152282715
1751214595658139400,12.664139404296876,-0.7415407299995422,-7.498742580413818,6.276095390319824
1751214595668133000,12.674133056640626,-0.768165647983551,-7.491739273071289,6.281253337860107
1751214595678127000,12.684127197265624,-0.7848234176635742,-7.489821910858154,6.281481742858887
1751214595688121000,12.69412109375,-0.7911760807037354,-7.492635250091553,6.277327060699463
1751214595698114800,12.70411474609375,-0.7861424684524536,-7.499761581420898,6.269445419311523
1751214595708108800,12.71410888671875,-0.7701773047447205,-7.510538578033447,6.25851583480835
1751214595718102800,12.724102783203126,-0.7447019219398499,-7.523938179016113,6.2454915046691895
1751214595738090500,12.744090576171875,-0.672472357749939,-7.5581254959106445,6.212319850921631
1751214595748084500,12.75408447265625,-0.6291095018386841,-7.5801777839660645,6.189952850341797
1751214595758078500,12.764078369140625,-0.5840426087379456,-7.605772495269775,6.162913799285889
1751214595768072200,12.774072265625,-0.5408535599708557,-7.635392189025879,6.130141735076904
1751214595778066200,12.784066162109376,-0.5017206072807312,-7.66965389251709,6.090571880340576
1751214595788060200,12.79406005859375,-0.4682196378707886,-7.709310531616211,6.042985916137695
1751214595798054000,12.804053955078125,-0.4426293969154358,-7.753622531890869,5.98797082901001
1751214595808047900,12.8140478515625,-0.42462989687919617,-7.799159526824951,5.929853916168213
1751214595818041900,12.824041748046875,-0.4065416157245636,-7.843645095825195,5.87216854095459
1751214595828035600,12.83403564453125,-0.3863406479358673,-7.887058258056641,5.815105438232422
1751214595838029600,12.844029541015624,-0.36177903413772583,-7.929398059844971,5.7588324546813965
1751214595848023600,12.8540234375,-0.335171103477478,-7.973294734954834,5.699528694152832
1751214595858017500,12.864017578125,-0.31113752722740173,-8.0189208984375,5.636531829833984
1751214595868011300,12.87401123046875,-0.2955022156238556,-8.068060874938965,5.5668182373046875
1751214595878005200,12.884005126953125,-0.2860536277294159,-8.123275756835938,5.486434459686279
1751214595887999200,12.893999267578126,-0.2706319987773895,-8.186445236206055,5.392519950866699
1751214595897993000,12.903992919921874,-0.23976051807403564,-8.257911682128906,5.283918857574463
1751214595907987000,12.913987060546875,-0.19521453976631165,-8.337839126586914,5.158753395080566
1751214595917981000,12.92398095703125,-0.14539684355258942,-8.42611312866211,5.014963626861572
1751214595927974700,12.933974609375,-0.09761426597833633,-8.521212577819824,4.852814197540283
1751214595937968600,12.94396875,-0.05526290833950043,-8.621147155761719,4.673665523529053
1751214595947962600,12.953962646484374,-0.0170456450432539,-8.723845481872559,4.4793548583984375
1751214595957956600,12.96395654296875,0.020494945347309113,-8.827619552612305,4.27119255065918
1751214595967950300,12.973950439453125,0.0697430744767189,-8.92884349822998,4.054785251617432
1751214595977944300,12.9839443359375,0.14359259605407715,-9.023131370544434,3.838340997695923
1751214595987938300,12.993938232421876,0.2547268867492676,-9.104068756103516,3.636131525039673
1751214595997932000,13.00393212890625,0.39713969826698303,-9.165846824645996,3.4640860557556152
1751214596007926000,13.013926025390624,0.5565786361694336,-9.211670875549316,3.3174867630004883
1751214596017920000,13.023919921875,0.7175614237785339,-9.246305465698242,3.187685966491699
1751214596027913700,13.033913818359375,0.863824188709259,-9.274663925170898,3.0667262077331543
1751214596037907700,13.04390771484375,0.9827068448066711,-9.300776481628418,2.949615240097046
1751214596047901700,13.053901611328126,1.068896770477295,-9.32833194732666,2.8302037715911865
1751214596057895400,13.0638955078125,1.1215941905975342,-9.359061241149902,2.7056214809417725
1751214596067889400,13.073889404296875,1.1401071548461914,-9.393133163452148,2.5767414569854736
1751214596077883400,13.08388330078125,1.1266119480133057,-9.42934513092041,2.4471564292907715
1751214596087877400,13.09387744140625,1.0866928100585938,-9.466413497924805,2.3187239170074463
1751214596097871000,13.10387109375,1.0294091701507568,-9.50283145904541,2.1924664974212646
