time,seconds_elapsed,z,y,x
1751214583135874300,0.141874267578125,1.0101362466812134,-0.06644582003355026,-1.2034815549850464
1751214583145683200,0.15168310546875,0.9291762113571167,-0.14088112115859985,-1.163001537322998
1751214583155503400,0.16150341796875,0.8769782781600952,-0.37097805738449097,-1.0596710443496704
1751214583165341000,0.1713408203125,0.8428898453712463,-0.7246456146240234,-0.9552751779556274
1751214583175201800,0.181201904296875,0.8524772524833679,-1.1049447059631348,-0.8551403880119324
1751214583185089800,0.19108984375,0.9355677962303162,-1.4660691022872925,-0.7858982682228088
1751214583195008800,0.2010087890625,1.0623341798782349,-1.8495639562606812,-0.7475487589836121
1751214583204960000,0.2109599609375,1.2274500131607056,-2.3204104900360107,-0.6825676560401917
1751214583214944000,0.220944091796875,1.4618080854415894,-2.750777006149292,-0.6197171211242676
1751214583224960000,0.2309599609375,1.761147141456604,-2.9627645015716553,-0.6186518669128418
1751214583235005700,0.241005615234375,1.9997661113739014,-2.9265456199645996,-0.7049382328987122
1751214583245077800,0.251077880859375,2.065812587738037,-2.561160087585449,-0.8221172094345093
1751214583255172400,0.26117236328125,2.0551598072052,-2.027462959289551,-0.8934898972511292
1751214583265284000,0.2712841796875,2.0636820793151855,-1.582182765007019,-0.9147951602935791
1751214583275408000,0.281407958984375,2.1137492656707764,-1.3755216598510742,-0.8540751338005066
1751214583285538000,0.2915380859375,2.1670124530792236,-1.4575469493865967,-0.6921550631523132
1751214583295668700,0.301668701171875,2.2479724884033203,-1.929458737373352,-0.38109806180000305
1751214583305677300,0.31167724609375,2.447176933288574,-2.7646255493164062,0.0684431865811348
1751214583315671300,0.32167138671875,2.790191888809204,-3.7404069900512695,0.5605949759483337
1751214583325665000,0.3316650390625,3.210970878601074,-4.592617988586426,1.0026793479919434
1751214583335659000,0.341658935546875,3.6509249210357666,-5.239233016967773,1.3744564056396484
1751214583345652700,0.35165283203125,4.026962757110596,-5.687708854675293,1.7089492082595825
1751214583355646700,0.361646728515625,4.325236797332764,-5.987048149108887,2.025332450866699
1751214583365640400,0.371640380859375,4.555333614349365,-6.252298831939697,2.3161494731903076
1751214583375634400,0.381634521484375,4.726840972900391,-6.5132880210876465,2.627206563949585
1751214583385628200,0.391628173828125,4.784365177154541,-6.823279857635498,2.955307722091675
1751214583395622100,0.4016220703125,4.674643039703369,-7.143924236297607,3.2354719638824463
1751214583405615900,0.411615966796875,4.347607135772705,-7.115162372589111,3.351585626602173
1751214583415609900,0.42160986328125,3.8011269569396973,-6.416349411010742,3.0671603679656982
1751214583425603600,0.431603515625,3.0000486373901367,-4.822714805603027,2.031723976135254
1751214583435597600,0.44159765625,1.9784609079360962,-2.711362361907959,0.5211802124977112
1751214583445591300,0.45159130859375,0.7928224802017212,-1.1347720623016357,-0.5515402555465698
1751214583455585300,0.461585205078125,-0.09880319982767105,-0.19307903945446014,-0.99468994140625
1751214583465579000,0.4715791015625,-1.019191026687622,0.4438154697418213,-1.3430311679840088
1751214583475573000,0.481572998046875,-1.9694061279296875,0.8315714001655579,-1.506016492843628
1751214583485566700,0.491566650390625,-2.4466443061828613,1.1788474321365356,-1.4740585088729858
1751214583495560700,0.501560791015625,-2.645848512649536,1.4270538091659546,-1.4868416786193848
1751214583505554400,0.511554443359375,-2.6021728515625,1.4824475049972534,-1.4879069328308105
1751214583515548400,0.52154833984375,-2.433861017227173,1.2001526355743408,-1.4154690504074097
1751214583525542100,0.531542236328125,-2.2857894897460938,0.5322323441505432,-1.2684626579284668
1751214583535536000,0.5415361328125,-2.2335915565490723,-0.3368896245956421,-1.0234520435333252
1751214583545529900,0.55152978515625,-2.2634189128875732,-1.2263847589492798,-0.5472791790962219
1751214583555523800,0.56152392578125,-2.348639965057373,-1.8389114141464233,0.015180006623268127
1751214583565517600,0.571517578125,-2.3379874229431152,-1.983787178993225,0.4593949317932129
1751214583575511600,0.581511474609375,-2.1494357585906982,-1.723862886428833,0.5147886276245117
1751214583585505300,0.59150537109375,-1.8863155841827393,-1.0857700109481812,0.31025803089141846
1751214583595499300,0.601499267578125,-1.5081470012664795,-0.33369383215904236,0.0354200154542923
1751214583605493000,0.611492919921875,-1.086302638053894,0.19028271734714508,-0.22450430691242218
1751214583615487000,0.621487060546875,-0.6815024018287659,0.42783650755882263,-0.3789675533771515
1751214583625480700,0.631480712890625,-0.26391905546188354,0.5215796828269958,-0.3502054214477539
1751214583635474700,0.641474609375,0.16857796907424927,0.4853607416152954,-0.1669800728559494
1751214583645468400,0.651468505859375,0.6330329179763794,0.30852699279785156,0.015180006623268127
1751214583655462400,0.66146240234375,1.120923638343811,0.11251847445964813,0.14620743691921234
1751214583665456000,0.6714560546875,1.572595477104187,-0.04301001876592636,0.2239716798067093
1751214583675450000,0.6814501953125,1.9518293142318726,-0.18029586970806122,0.2793653905391693
1751214583685444000,0.691444091796875,2.2479724884033203,-0.26338642835617065,0.31025803089141846
1751214583695437800,0.701437744140625,2.482330560684204,-0.30067065358161926,0.34221595525741577
1751214583705431800,0.711431884765625,2.502570629119873,-0.4881570637226105,0.45193809270858765
1751214583715425800,0.72142578125,2.2287979125976562,-0.9483509659767151,0.696948766708374
1751214583725419500,0.73141943359375,1.882587194442749,-1.396826982498169,0.9334372878074646
1751214583735413500,0.74141357421875,1.6919050216674805,-1.4905701875686646,0.9717867374420166
1751214583745407500,0.751407470703125,1.673795461654663,-1.2434289455413818,0.8418245911598206
1751214583755401200,0.761401123046875,1.7568860054016113,-0.8556730151176453,0.6958834528923035
1751214583765395200,0.771395263671875,1.8357155323028564,-0.45619916915893555,0.6383592486381531
1751214583775389200,0.78138916015625,1.858086109161377,-0.1249021589756012,0.6309024095535278
1751214583785383200,0.791383056640625,1.8389114141464233,0.23928484320640564,0.5158539414405823
1751214583795377000,0.801376953125,1.841041922569275,0.5258407592773438,0.34328120946884155
1751214583805371000,0.811370849609375,1.8026924133300781,0.6781734824180603,0.21651484072208405
1751214583815364900,0.82136474609375,1.6748607158660889,0.7165229320526123,0.16005586087703705
1751214583825358600,0.831358642578125,1.460742712020874,0.600409209728241,0.1898832470178604
1751214583835352600,0.8413525390625,1.238102674484253,0.45127230882644653,0.2186453640460968
1751214583845346600,0.8513466796875,1.116662621498108,0.4022701680660248,0.19627483189105988
1751214583855340300,0.86134033203125,1.1145321130752563,0.44594597816467285,0.13342426717281342
1751214583865334300,0.871334228515625,1.205079436302185,0.5226449966430664,0.09294424951076508
1751214583875328300,0.881328369140625,1.3552817106246948,0.5556681752204895,0.105727419257164
1751214583885322000,0.891322021484375,1.5534206628799438,0.47364285588264465,0.1909485012292862
1751214583895316000,0.90131591796875,1.7579513788223267,0.30426591634750366,0.30493173003196716
1751214583905310000,0.91131005859375,1.91987144947052,0.059255290776491165,0.4881570637226105
1751214583915304000,0.921303955078125,1.966742992401123,-0.29747486114501953,0.718254029750824
1751214583925297700,0.931297607421875,1.9241324663162231,-0.6543381810188293,0.9419593811035156
1751214583935291600,0.941291748046875,1.8719345331192017,-0.9014793634414673,1.111336350440979
1751214583945285600,0.95128564453125,1.7941702604293823,-0.9536772966384888,1.1464899778366089
1751214583955279400,0.961279296875,1.6578165292739868,-0.6309024095535278,0.9291762113571167
1751214583965273300,0.9712734375,1.468199610710144,-0.1813611388206482,0.6042708158493042
1751214583975267300,0.981267333984375,1.2093405723571777,-0.009986846707761288,0.5510076284408569
1751214583985261000,0.991260986328125,0.7459508776664734,-0.4764391779899597,1.0783131122589111
1751214583995255000,1.001255126953125,0.05459476262331009,-0.680969774723053,1.3307806253433228
1751214584005249000,1.0112490234375,-0.601607620716095,-0.29640960693359375,0.8354330062866211
1751214584015243000,1.021242919921875,-1.0522141456604004,0.411857545375824,0.08016108721494675
1751214584025236700,1.03123681640625,-1.347292184829712,0.9988178014755249,-0.40346860885620117
1751214584035230700,1.041230712890625,-1.6061512231826782,1.2257189750671387,-0.6783066391944885
1751214584045224700,1.051224609375,-1.76594078540802,1.164999008178711,-0.7443529963493347
1751214584055218400,1.061218505859375,-1.8479660749435425,0.9657946228981018,-0.6719150543212891
1751214584065212400,1.07121240234375,-1.9289261102676392,0.7729819416999817,-0.6442182064056396
1751214584075206400,1.081206298828125,-2.050366163253784,0.6281060576438904,-0.7550055980682373
1751214584085200100,1.0912001953125,-2.2410483360290527,0.41718387603759766,-0.9052077531814575
1751214584095194000,1.101194091796875,-2.4903199672698975,0.25206801295280457,-1.0564751625061035
1751214584105188000,1.11118798828125,-2.8365306854248047,0.08908267319202423,-1.0479531288146973
1751214584115181800,1.121181884765625,-3.014429807662964,0.052863709628582,-1.0692583322525024
1751214584125175800,1.13117578125,-3.177415132522583,0.1945437788963318,-1.2290478944778442
1751214584135169800,1.141169677734375,-3.336139440536499,0.4810996949672699,-1.4293174743652344
1751214584145163800,1.151163818359375,-3.484210968017578,0.676042914390564,-1.4463616609573364
1751214584155157500,1.161157470703125,-3.41603422164917,0.8305061459541321,-1.2929637432098389
1751214584165151500,1.1711513671875,-3.0602362155914307,0.8922914862632751,-1.0937594175338745
1751214584175145500,1.1811455078125,-2.4455790519714355,0.7697861194610596,-0.9371656775474548
1751214584185139200,1.19113916015625,-1.8074860572814941,0.22543641924858093,-0.5270391702651978
1751214584195133200,1.20113330078125,-1.158740520477295,-0.5350286364555359,-0.14993585646152496
1751214584205127200,1.211127197265625,-0.448209673166275,-1.1370357275009155,0.08442214131355286
1751214584215121000,1.221120849609375,0.16964323818683624,-1.430915355682373,0.24101589620113373
1751214584225115000,1.231114990234375,0.7171887755393982,-1.4554164409637451,0.35712963342666626
1751214584235108900,1.24110888671875,1.212536334991455,-1.1741868257522583,0.39547911286354065
1751214584245102800,1.251102783203125,1.6130754947662354,-0.5307676196098328,0.2793653905391693
1751214584255096600,1.2610966796875,1.925197720527649,0.28509119153022766,0.06524740159511566
1751214584265090600,1.271090576171875,2.0924441814422607,0.9338367581367493,-0.12543480098247528
1751214584275084500,1.28108447265625,2.095639944076538,1.2640684843063354,-0.28309381008148193
1751214584285078300,1.291078369140625,1.9560903310775757,1.4526201486587524,-0.4024033546447754
1751214584295072300,1.301072265625,1.7877787351608276,1.6337149143218994,-0.4950812757015228
1751214584305066200,1.311066162109375,1.649294376373291,1.6326496601104736,-0.6665887236595154
1751214584315060000,1.32106005859375,1.559812307357788,1.3056137561798096,-0.9265130758285522
1751214584325054000,1.331053955078125,1.6578165292739868,1.471794843673706,-0.9978857040405273
1751214584335048000,1.3410478515625,1.7387765645980835,1.8702034950256348,-1.0873678922653198
1751214584345042000,1.3510419921875,1.7249281406402588,2.2973742485046387,-1.2365047931671143
1751214584355035600,1.36103564453125,1.61946702003479,2.6499764919281006,-1.3600753545761108
1751214584365029600,1.371029541015625,1.6333154439926147,2.7192184925079346,-1.4570143222808838
1751214584375023600,1.381023681640625,2.0487682819366455,2.498708963394165,-1.6040207147598267
1751214584385017300,1.391017333984375,2.5057663917541504,2.1003003120422363,-1.7670060396194458
1751214584395011300,1.40101123046875,2.8519771099090576,1.559146523475647,-1.9459702968597412
1751214584405005300,1.41100537109375,3.063964605331421,0.8603335618972778,-2.0897810459136963
1751214584414999000,1.4209990234375,3.1459898948669434,0.03688475489616394,-2.239983081817627
1751214584424993000,1.430992919921875,3.092726707458496,-0.9078709483146667,-2.3411831855773926
1751214584434987000,1.440987060546875,2.924415111541748,-1.773930311203003,-2.3156168460845947
1751214584444980700,1.450980712890625,2.69112229347229,-2.463155746459961,-2.2186777591705322
1751214584454974700,1.460974609375,2.5238759517669678,-2.8658254146575928,-2.040778875350952
1751214584464968700,1.47096875,2.552638053894043,-2.860499143600464,-1.6402397155761719
1751214584474962700,1.480962646484375,2.6996443271636963,-2.43332839012146,-0.9723193645477295
1751214584484956400,1.490956298828125,2.6580991744995117,-1.6876438856124878,0.13022847473621368
1751214584494950400,1.500950439453125,2.5015053749084473,-0.8088014125823975,1.1848394870758057
1751214584504944400,1.5109443359375,2.3651516437530518,-0.06737792491912842,1.7803218364715576
1751214584514938000,1.520938232421875,2.294844150543213,0.5641902685165405,1.9678082466125488
1751214584524932000,1.53093212890625,2.300170421600342,1.1596726179122925,1.8836524486541748
1751214584534926000,1.540926025390625,2.393913745880127,1.5559507608413696,1.542768120765686
1751214584544919800,1.550919921875,2.532397985458374,1.5580812692642212,0.9781783223152161
1751214584554913800,1.560913818359375,2.7624950408935547,1.0382325649261475,0.1430116444826126
1751214584564907800,1.57090771484375,3.049050807952881,0.44488072395324707,-0.8242477178573608
1751214584574901800,1.58090185546875,3.321758270263672,0.1849564015865326,-1.4868416786193848
1751214584594889500,1.600889404296875,3.1939268112182617,-1.2093405723571777,0.052464235574007034
1751214584604883500,1.610883544921875,2.274604082107544,-1.4234585762023926,0.5265065431594849
1751214584614877200,1.620877197265625,1.0452899932861328,-1.4000227451324463,0.6170539855957031
1751214584624871200,1.63087109375,-0.07430213689804077,-1.1837742328643799,0.6831002831459045
1751214584634865200,1.640865234375,-0.7209171652793884,-0.9078709483146667,0.7001445293426514
1751214584644859000,1.65085888671875,-0.6665887236595154,-0.7406245470046997,0.6564686894416809
1751214584654852900,1.660852783203125,-0.25859275460243225,-0.6585992574691772,0.5339633822441101
1751214584664846800,1.670846923828125,0.05033370852470398,-0.5510076284408569,0.3518033027648926
1751214584674840600,1.680840576171875,0.18455693125724792,-0.4593949317932129,0.15472954511642456
1751214584684834600,1.69083447265625,0.27403905987739563,-0.4018706977367401,-0.05086633935570717
1751214584694828300,1.700828369140625,0.3549990952014923,-0.41358861327171326,-0.26285380125045776
1751214584704822300,1.710822265625,0.4029359817504883,-0.5105276107788086,-0.4205128252506256
1751214584714816000,1.72081591796875,0.3965443968772888,-0.5893571376800537,-0.5014728307723999
1751214584724810000,1.73081005859375,0.3454117476940155,-0.5787044763565063,-0.5217128396034241
1751214584734803700,1.7408037109375,0.2655169665813446,-0.4530033767223358,-0.5004075765609741
1751214584744797700,1.750797607421875,0.16325165331363678,-0.22716747224330902,-0.4535360038280487
1751214584754791400,1.76079150390625,0.07590003311634064,0.013448953628540039,-0.4077296555042267
1751214584764785400,1.770785400390625,0.03328948840498924,0.13062795996665955,-0.42370861768722534
1751214584774779100,1.780779052734375,0.019441060721874237,0.06564687192440033,-0.4641886353492737
1751214584784772900,1.79077294921875,-0.0050600022077560425,-0.07283740490674973,-0.4684496819972992
1751214584794766800,1.800766845703125,-0.03701791167259216,-0.18881797790527344,-0.42903491854667664
1751214584804760600,1.810760498046875,-0.05725792050361633,-0.23462431132793427,-0.3693801760673523
1751214584814754600,1.820754638671875,-0.06258423626422882,-0.19627483189105988,-0.3033338189125061
1751214584824748300,1.830748291015625,-0.048735812306404114,-0.08562056720256805,-0.23089589178562164
1751214584834742300,1.8407421875,-0.019973693415522575,0.06564687192440033,-0.15632744133472443
1751214584844736000,1.850736083984375,0.0023968431632965803,0.212653249502182,-0.08815056830644608
1751214584854730000,1.86072998046875,0.02263685315847397,0.34581121802330017,-0.04340949282050133
1751214584864723700,1.8707236328125,0.05779055133461952,0.38522595167160034,-0.012516847811639309
1751214584874717700,1.8807177734375,0.08548741042613983,0.3063964545726776,0.023702116683125496
1751214584884711400,1.89071142578125,0.08335687965154648,0.1657816469669342,0.07057371735572815
1751214584894705400,1.900705322265625,0.07376950979232788,0.02197106182575226,0.10892320424318314
1751214584904699100,1.91069921875,0.06205160543322563,-0.08135951310396194,0.14727269113063812
1751214584914693000,1.920693115234375,0.05033370852470398,-0.10359688848257065,0.1771000772714615
1751214584924686800,1.930686767578125,0.04287686198949814,-0.04407528415322304,0.19734008610248566
1751214584934680800,1.940680908203125,0.04287686198949814,0.047537390142679214,0.2047969400882721
1751214584944674600,1.950674560546875,0.048203181475400925,0.13701952993869781,0.20160114765167236
1751214584954668500,1.96066845703125,0.05033370852470398,0.1892174482345581,0.1760348230600357
1751214584964662300,1.970662353515625,0.05139897018671036,0.17856481671333313,0.13235901296138763
1751214584974656300,1.98065625,0.0492684431374073,0.12317110598087311,0.07590003311634064
1751214584984650200,1.990650146484375,0.04607265070080757,0.0762995108962059,0.02157158963382244
1751214584994644000,2.00064404296875,0.04607265070080757,0.07097318768501282,-0.019973693415522575
1751214585004638000,2.010637939453125,0.04500738903880119,0.0997353047132492,-0.040213704109191895
1751214585014632000,2.0206318359375,0.03968106955289841,0.1423458606004715,-0.04127896577119827
1751214585024626000,2.0306259765625,0.03328948840498924,0.18282587826251984,-0.04234423115849495
1751214585034619600,2.04061962890625,0.027963170781731606,0.19773955643177032,-0.040213704109191895
1751214585044613600,2.050613525390625,0.02263685315847397,0.1849564015865326,-0.03914843872189522
1751214585054607600,2.060607666015625,0.023702116683125496,0.17110797762870789,-0.04554001986980438
1751214585064601300,2.070601318359375,0.031158961355686188,0.15939007699489594,-0.05299686640501022
1751214585074595300,2.08059521484375,0.03861580789089203,0.14447638392448425,-0.05299686640501022
1751214585084589300,2.09058935546875,0.05139897018671036,0.11571425944566727,-0.048735812306404114
1751214585094583000,2.1005830078125,0.0684431865811348,0.07310371845960617,-0.03914843872189522
1751214585104577000,2.110576904296875,0.08655267208814621,0.034754227846860886,-0.021038956940174103
1751214585114571000,2.120571044921875,0.09933583438396454,0.010253162123262882,-0.007190529722720385
1751214585124565000,2.13056494140625,0.10359688848257065,-0.006791055668145418,0.008788425475358963
1751214585134558700,2.140558837890625,0.10253162682056427,-0.007856319658458233,0.02157158963382244
1751214585144552700,2.150552734375,0.09933583438396454,0.012383690103888512,0.02263685315847397
1751214585154546700,2.160546630859375,0.0918789878487587,0.04008054360747337,0.015180006623268127
1751214585164540400,2.17054052734375,0.08335687965154648,0.04860265180468559,-0.0007989477599039674
1751214585174534400,2.180534423828125,0.07803056389093399,0.047537390142679214,-0.015712639316916466
1751214585184528400,2.1905283203125,0.0727042406797409,0.059255290776491165,-0.021038956940174103
1751214585194522000,2.200522216796875,0.06418213248252869,0.0858868807554245,-0.018908429890871048
1751214585204516000,2.21051611328125,0.0588558167219162,0.10506162792444229,-0.012516847811639309
1751214585214510000,2.220510009765625,0.056725289672613144,0.11251847445964813,-0.0050600022077560425
1751214585224503800,2.23050390625,0.04394212365150452,0.11677952855825424,0.007723161485046148
1751214585234497800,2.240497802734375,0.032224226742982864,0.11571425944566727,0.027963170781731606
1751214585244491800,2.25049169921875,0.020506324246525764,0.11677952855825424,0.05459476262331009
1751214585254485800,2.26048583984375,0.0002663159102667123,0.12530162930488586,0.08548741042613983
1751214585264479500,2.2704794921875,-0.023169483989477158,0.13701952993869781,0.11105373501777649
1751214585274473500,2.280473388671875,-0.056192658841609955,0.15299849212169647,0.12277163565158844
1751214585284467500,2.290467529296875,-0.0913463607430458,0.15939007699489594,0.11744531989097595
1751214585294461200,2.300461181640625,-0.11904320865869522,0.1423458606004715,0.09294424951076508
1751214585304455200,2.310455078125,-0.1531316488981247,0.09121319651603699,0.0492684431374073
1751214585314449200,2.32044921875,-0.1904158741235733,0.0294279083609581,-0.007190529722720385
1751214585324443000,2.33044287109375,-0.22983063757419586,-0.0003994738799519837,-0.08495477586984634
1751214585334436900,2.340436767578125,-0.27350643277168274,0.01771000772714615,-0.18189376592636108
1751214585344430800,2.350430908203125,-0.3171822428703308,0.06351634114980698,-0.30652961134910583
1751214585354424800,2.3604248046875,-0.35340121388435364,0.11358373612165451,-0.4460791349411011
1751214585364418600,2.37041845703125,-0.38535910844802856,0.12956269085407257,-0.5973466038703918
1751214585374412500,2.38041259765625,-0.42264336347579956,0.10612688958644867,-0.7528750896453857
1751214585384406500,2.390406494140625,-0.45566651225090027,0.07736477255821228,-0.9073383212089539
1751214585394400300,2.400400146484375,-0.5366265773773193,0.12423637509346008,-1.0522141456604004
1751214585404394200,2.410394287109375,-0.626108705997467,0.27763432264328003,-1.166197419166565
1751214585414388200,2.42038818359375,-0.6612623929977417,0.44168493151664734,-1.2183952331542969
1751214585424382000,2.4303818359375,-0.7102645039558411,0.54181969165802,-1.196024775505066
1751214585434376000,2.4403759765625,-0.7251782417297363,0.4917523264884949,-1.1257174015045166
1751214585444370000,2.450369873046875,-0.7294392585754395,0.3074617087841034,-1.0298435688018799
1751214585454363600,2.46036376953125,-0.7337003350257874,-0.0270310640335083,-0.9158604145050049
1751214585464357600,2.470357666015625,-0.7624624371528625,-0.31132328510284424,-0.8093340396881104
1751214585474351600,2.4803515625,-0.8072035312652588,-0.3869570195674896,-0.7411571741104126
1751214585484345600,2.490345703125,-0.8125298619270325,-0.29747486114501953,-0.6996119022369385
1751214585494339300,2.50033935546875,-0.806138277053833,-0.06964161247015,-0.6527402997016907
1751214585504333300,2.510333251953125,-0.8487488031387329,0.2829606533050537,-0.6048034429550171
1751214585514327300,2.520327392578125,-0.957405686378479,0.7271755933761597,-0.5771065950393677
1751214585524321000,2.530321044921875,-1.1129342317581177,1.1681947708129883,-0.6058686971664429
1751214585534315000,2.54031494140625,-1.2929637432098389,1.5783212184906006,-0.7102645039558411
1751214585544309000,2.55030908203125,-1.4655364751815796,1.8829866647720337,-0.8551403880119324
1751214585554302700,2.560302734375,-1.584846019744873,1.852094054222107,-1.0053426027297974
1751214585564296700,2.570296630859375,-1.6551533937454224,1.6337149143218994,-1.078845739364624
1751214585574290700,2.580290771484375,-1.6381092071533203,1.3247884511947632,-1.0799109935760498
1751214585584284700,2.59028466796875,-1.5518227815628052,1.0094704627990723,-1.0436919927597046
1751214585594278400,2.6002783203125,-1.4378396272659302,0.8251798748970032,-1.0021467208862305
1751214585604272400,2.6102724609375,-1.3238563537597656,0.7559376955032349,-0.936100423336029
1751214585614266400,2.620266357421875,-1.2663321495056152,0.6771082282066345,-0.8551403880119324
1751214585624260000,2.630260009765625,-1.2855068445205688,0.48323023319244385,-0.7869635224342346
1751214585634254000,2.640254150390625,-1.3749890327453613,0.23928484320640564,-0.6974813938140869
1751214585644248000,2.650248046875,-1.543300747871399,0.146606907248497,-0.4684496819972992
1751214585654241800,2.66024169921875,-1.7947028875350952,0.12743216753005981,-0.18402428925037384
1751214585664235800,2.67023583984375,-2.080193519592285,0.09227846562862396,-0.013582111336290836
1751214585674229800,2.680229736328125,-2.268745183944702,0.012383690103888512,-0.12650005519390106
1751214585684223500,2.690223388671875,-2.319877862930298,-0.13662005960941315,-0.4013380706310272
1751214585704211500,2.71021142578125,-2.0088210105895996,-0.7970834970474243,-0.7379614114761353
1751214585714205400,2.720205322265625,-1.9150776863098145,-0.8705866932868958,-0.7123950719833374
1751214585724199200,2.73019921875,-1.8554229736328125,-0.7012097835540771,-0.5909550189971924
1751214585734193200,2.740193115234375,-1.6700670719146729,-0.5787044763565063,-0.4407528340816498
1751214585744187100,2.750187255859375,-1.4953638315200806,-0.5115928649902344,-0.3352917432785034
1751214585754180900,2.760180908203125,-1.3803153038024902,-0.4348938763141632,-0.32463908195495605
1751214585764174800,2.7701748046875,-1.2897679805755615,-0.3880222737789154,-0.3960117697715759
1751214585774168800,2.7801689453125,-1.196024775505066,-0.41891491413116455,-0.4673844277858734
1751214585784162600,2.79016259765625,-1.0937594175338745,-0.47111284732818604,-0.4865591824054718
1751214585794156500,2.800156494140625,-0.9851025342941284,-0.4721781015396118,-0.4460791349411011
1751214585804150500,2.810150634765625,-0.8530098795890808,-0.4295675754547119,-0.37151068449020386
1751214585814144500,2.82014453125,-0.7060034871101379,-0.38056543469429016,-0.2937464416027069
1751214585824138200,2.83013818359375,-0.5472791790962219,-0.360325425863266,-0.22556957602500916
1751214585834132200,2.84013232421875,-0.3821633458137512,-0.33795487880706787,-0.1669800728559494
1751214585844126200,2.850126220703125,-0.22130851447582245,-0.27190855145454407,-0.11584742367267609
1751214585854120000,2.860119873046875,-0.07856319099664688,-0.13768532872200012,-0.06151897460222244
1751214585864114000,2.870114013671875,0.04181159660220146,0.02090579830110073,-0.007190529722720385
1751214585874108000,2.88010791015625,0.1483379602432251,0.08056056499481201,0.023702116683125496
1751214585884101600,2.8901015625,0.24634221196174622,0.04008054360747337,0.02263685315847397
1751214585894095600,2.900095703125,0.34221595525741577,0.0006657897611148655,0.029028434306383133
1751214585904089600,2.910089599609375,0.42317599058151245,0.002796316985040903,0.0727042406797409
1751214585914083600,2.92008349609375,0.492418110370636,0.03795001655817032,0.14194637537002563
1751214585924077300,2.930077392578125,0.5637907981872559,0.05819002538919449,0.23142851889133453
1751214585934071300,2.9400712890625,0.6490118503570557,0.035819489508867264,0.3411506712436676
1751214585944065300,2.950065185546875,0.7448856234550476,-0.011052110232412815,0.4647212624549866
1751214585954059000,2.96005908203125,0.8471509218215942,-0.03448791056871414,0.6032055616378784
1751214585964053000,2.970052978515625,0.9685909748077393,0.052863709628582,0.7491466403007507
1751214585974047000,2.980046875,1.1241194009780884,0.22117535769939423,0.9110667109489441
1751214585984040700,2.990040771484375,1.3041490316390991,0.4235754609107971,1.0719215869903564
1751214585994034700,3.00003466796875,1.4863090515136719,0.6408892273902893,1.225319504737854
1751214586004028700,3.010028564453125,1.607749104499817,0.6813692450523376,1.5097448825836182
1751214586014022400,3.0200224609375,1.4969617128372192,0.9700556993484497,1.895370364189148
1751214586024016400,3.030016357421875,1.053812026977539,2.097104549407959,1.7014923095703125
1751214586034010400,3.04001025390625,0.3933486044406891,2.4124226570129395,1.0431593656539917
1751214586044004400,3.05000439453125,0.2143843024969101,2.2888519763946533,0.48922231793403625
1751214586053998000,3.059998046875,0.5691171288490295,1.8361150026321411,0.48070022463798523
1751214586063992000,3.069991943359375,0.8066709041595459,1.4110748767852783,0.7235803008079529
1751214586073986000,3.079986083984375,0.6660560965538025,1.157542109489441,0.8918919563293457
1751214586083979800,3.089979736328125,0.5904223918914795,0.8656598925590515,0.945155143737793
1751214586093973800,3.099973876953125,0.7374287843704224,0.5364934206008911,0.9675257205963135
1751214586103967700,3.1099677734375,0.9121319651603699,0.2563290596008301,1.0112015008926392
1751214586113961500,3.11996142578125,1.08363938331604,0.14021532237529755,1.0346373319625854
1751214586123955500,3.12995556640625,1.2594079971313477,-0.061119500547647476,1.0218541622161865
1751214586133949400,3.139949462890625,1.3797826766967773,-0.23675484955310822,0.9835046529769897
1751214586143943400,3.149943359375,1.42665433883667,-0.3262369930744171,0.9739173054695129
1751214586153937200,3.159937255859375,1.4255890846252441,-0.34221595525741577,0.9920267462730408
1751214586163931100,3.16993115234375,1.3584774732589722,-0.3123885691165924,0.9952225685119629
1751214586173925000,3.179925048828125,1.2476900815963745,-0.2793653905391693,0.9270457029342651
1751214586183918800,3.1899189453125,1.1518163681030273,-0.24847275018692017,0.772582471370697
1751214586193912800,3.199912841796875,1.0719215869903564,-0.24634221196174622,0.5872265696525574
1751214586203906800,3.20990673828125,1.0037447214126587,-0.27830013632774353,0.4210454523563385
1751214586213900500,3.219900634765625,0.969656229019165,-0.35393384099006653,0.3028011918067932
1751214586223894500,3.22989453125,0.9653951525688171,-0.425306499004364,0.22716747224330902
1751214586233888500,3.239888427734375,0.969656229019165,-0.45619916915893555,0.19201377034187317
1751214586243882200,3.24988232421875,0.9792435765266418,-0.42850229144096375,0.19201377034187317
1751214586253876200,3.259876220703125,0.9952225685119629,-0.35393384099006653,0.228232741355896
1751214586263870200,3.2698701171875,1.0133320093154907,-0.22077588737010956,0.29108327627182007
1751214586273864200,3.2798642578125,1.053812026977539,-0.11105373501777649,0.3560643792152405
1751214586283858000,3.28985791015625,1.09855318069458,-0.05352949723601341,0.3976096510887146
1751214586293852000,3.299851806640625,1.1294457912445068,-0.024900536984205246,0.4157191216945648
1751214586303846000,3.309845947265625,1.1400984525680542,-0.0153131652623415,0.416784405708313
1751214586313839600,3.319839599609375,1.1305110454559326,-0.01957421936094761,0.4018706977367401
1751214586323833600,3.32983349609375,1.0889657735824585,-0.03555317223072052,0.37204334139823914
1751214586333827600,3.33982763671875,1.0207889080047607,-0.07496792823076248,0.3549990952014923
1751214586373803300,3.37980322265625,0.6490118503570557,-0.2005358785390854,0.35712963342666626
1751214586383797000,3.389796875,0.613858163356781,-0.12703268229961395,0.3273022472858429
1751214586393791000,3.399791015625,0.6032055616378784,-0.05472791939973831,0.27403905987739563
1751214586403785000,3.409784912109375,0.6021402478218079,-0.0025300011038780212,0.21012325584888458
1751214586413778700,3.41977880859375,0.6085318326950073,0.026232117787003517,0.14194637537002563
1751214586423772700,3.429772705078125,0.6191844940185547,0.014514217153191566,0.07590003311634064
1751214586433766700,3.4397666015625,0.6213150024414062,-0.0366184376180172,0.017310533672571182
1751214586443760400,3.449760498046875,0.6181192398071289,-0.08335687965154648,-0.013582111336290836
1751214586453754400,3.45975439453125,0.6149234175682068,-0.10892320424318314,-0.016777902841567993
1751214586463748400,3.469748291015625,0.6032055616378784,-0.12809795141220093,0.004527370445430279
1751214586473742300,3.479742431640625,0.58403080701828,-0.13022847473621368,0.04500738903880119
1751214586483736000,3.489736083984375,0.5499423742294312,-0.08135951310396194,0.09614004194736481
1751214586493730000,3.49972998046875,0.4860265254974365,-0.0153131652623415,0.16325165331363678
1751214586503724000,3.50972412109375,0.4114580750465393,0.02516685426235199,0.23888537287712097
1751214586513717800,3.5197177734375,0.32410645484924316,0.052863709628582,0.3091927766799927
1751214586523711700,3.529711669921875,0.2420811653137207,0.08801741153001785,0.3592601716518402
1751214586533705700,3.539705810546875,0.1664474457502365,0.09760478138923645,0.3965443968772888
1751214586543699500,3.549699462890625,0.10679268091917038,0.05712476372718811,0.41784965991973877
1751214586553693400,3.559693359375,0.07163897901773453,-0.0003994738799519837,0.39547911286354065
1751214586563687400,3.5696875,0.07483477145433426,-0.006791055668145418,0.3070622384548187
1751214586573681200,3.57968115234375,0.10146636515855789,0.03688475489616394,0.16964323818683624
1751214586583675100,3.589675048828125,0.14407691359519958,0.06884266436100006,0.03435475379228592
1751214586593668900,3.5996689453125,0.2090579867362976,0.050733182579278946,-0.06258423626422882
1751214586603662800,3.609662841796875,0.2761695981025696,0.003861580742523074,-0.10412952303886414
1751214586613656600,3.619656494140625,0.32943278551101685,-0.025965800508856773,-0.13182637095451355
1751214586623650600,3.629650634765625,0.3699128031730652,-0.024900536984205246,-0.18935060501098633
1751214586633644300,3.639644287109375,0.3869570195674896,-0.028096329420804977,-0.2905506491661072
1751214586643638300,3.64963818359375,0.3848264813423157,-0.0588558167219162,-0.3789675533771515
1751214586653632000,3.659632080078125,0.3731085956096649,-0.1261005848646164,-0.4215780794620514
1751214586663626000,3.6696259765625,0.33369383215904236,-0.18668745458126068,-0.40453386306762695
1751214586673619700,3.67961962890625,0.2836264371871948,-0.2143843024969101,-0.3544664680957794
1751214586683613700,3.68961376953125,0.24953800439834595,-0.1813611388206482,-0.2788327634334564
1751214586693607400,3.699607421875,0.25486433506011963,-0.05685844644904137,-0.21172115206718445
1751214586703601400,3.709601318359375,0.2942790687084198,0.17217323184013367,-0.16911059617996216
1751214586713595100,3.71959521484375,0.33902016282081604,0.5013396739959717,-0.14034847915172577
1751214586723589000,3.729589111328125,0.3613906800746918,0.8827040791511536,-0.09347688406705856
1751214586733582800,3.739582763671875,0.3635212182998657,1.2470242977142334,-0.02636527456343174
1751214586743576800,3.749576904296875,0.36245596408843994,1.529319167137146,0.05779055133461952
1751214586753570600,3.759570556640625,0.32410645484924316,1.673129677772522,0.18242639303207397
1751214586763564500,3.769564453125,0.2697780132293701,1.6166707277297974,0.3400854170322418
1751214586773558300,3.779558349609375,0.24847275018692017,1.3183969259262085,0.48389601707458496
1751214586783552300,3.78955224609375,0.284691721200943,0.8358324766159058,0.5478118062019348
1751214586793546000,3.7995458984375,0.35286858677864075,0.28189539909362793,0.5201149582862854
1751214586803540000,3.8095400390625,0.4316980838775635,-0.23568958044052124,0.4157191216945648
1751214586813533700,3.81953369140625,0.47963494062423706,-0.689491868019104,0.2665822207927704
1751214586823527700,3.829527587890625,0.47430863976478577,-1.0688588619232178,0.09720530360937119
1751214586843515400,3.849515380859375,0.32410645484924316,-1.6002923250198364,-0.2191779911518097
1751214586853509000,3.859509033203125,0.17070849239826202,-1.748363971710205,-0.34381383657455444
1751214586863503000,3.869503173828125,-0.015712639316916466,-1.7472987174987793,-0.4354265034198761
1751214586873497000,3.8794970703125,-0.20852535963058472,-1.510810136795044,-0.5323655009269714
1751214586883490800,3.88949072265625,-0.4673844277858734,-0.9675257205963135,-0.6676539778709412
1751214586893484800,3.89948486328125,-0.8050730228424072,-0.2239716798067093,-0.8679235577583313
1751214586903478800,3.909478759765625,-1.1683279275894165,0.5407544374465942,-1.1374351978302002
1751214586913472500,3.919472412109375,-1.5187996625900269,1.3056137561798096,-1.4495575428009033
1751214586923466500,3.929466552734375,-1.8490313291549683,2.1045615673065186,-1.7435702085494995
1751214586933460500,3.93946044921875,-2.1419789791107178,2.7213492393493652,-1.9853850603103638
1751214586943454500,3.949454345703125,-2.3923158645629883,2.965294599533081,-2.090846300125122
1751214586953448200,3.9594482421875,-2.58725905418396,2.9876649379730225,-2.005625009536743
1751214586963442200,3.969442138671875,-2.681002378463745,2.8033745288848877,-1.845835566520691
1751214586973436200,3.979436279296875,-2.6639580726623535,2.539189100265503,-1.651957631111145
1751214586983430000,3.989429931640625,-2.5510401725769043,2.1791298389434814,-1.409077525138855
1751214586993424000,3.999423828125,-2.3805978298187256,1.995904564857483,-1.1235867738723755
1751214587003417900,4.00941796875,-2.1686105728149414,1.839310884475708,-0.8370308876037598
1751214587013411600,4.01941162109375,-1.9534271955490112,1.5325149297714233,-0.5749760270118713
1751214587023405600,4.029405517578125,-1.7808544635772705,1.1138663291931152,-0.35340121388435364
1751214587033399600,4.039399658203125,-1.6359785795211792,0.6270408034324646,-0.14460954070091248
1751214587043393300,4.049393310546875,-1.5294523239135742,0.06990792602300644,-0.018908429890871048
1751214587053387300,4.05938720703125,-1.4527533054351807,-0.5446160435676575,-0.056192658841609955
1751214587063381200,4.06938134765625,-1.376054286956787,-1.061268925666809,-0.2575274705886841
1751214587073375200,4.079375244140625,-1.310007929801941,-1.2711257934570312,-0.5217128396034241
1751214587083369000,4.089368896484375,-1.2961595058441162,-1.1475552320480347,-0.768854022026062
1751214587093363000,4.099363037109375,-1.3323785066604614,-0.9568730592727661,-0.9126646518707275
1751214587103357000,4.10935693359375,-1.4239912033081055,-0.8961530327796936,-0.9009467363357544
1751214587113350700,4.1193505859375,-1.5411701202392578,-1.0294440984725952,-0.7177214026451111
1751214587123344600,4.1293447265625,-1.631717562675476,-1.1273152828216553,-0.42370861768722534
1751214587133338600,4.139338623046875,-1.7041555643081665,-1.04329252243042,-0.12863057851791382
1751214587143332400,4.149332275390625,-1.797898769378662,-0.7885614037513733,0.05459476262331009
1751214587153326300,4.159326416015625,-1.9140124320983887,-0.43276336789131165,0.024767380207777023
1751214587163320300,4.1693203125,-1.986450433731079,-0.16112112998962402,-0.16484954953193665
1751214587173314300,4.179314208984375,-1.9726018905639648,-0.12290479242801666,-0.3352917432785034
1751214587183308000,4.18930810546875,-1.949166178703308,-0.31558436155319214,-0.3874896466732025
1751214587193302000,4.199302001953125,-1.9523619413375854,-0.5510076284408569,-0.3278348743915558
1751214587203296000,4.2092958984375,-1.9555577039718628,-0.668186604976654,-0.24154852330684662
1751214587213289700,4.219289794921875,-1.9512966871261597,-0.6277065873146057,-0.2000032514333725
1751214587223283700,4.22928369140625,-1.9481009244918823,-0.5179844498634338,-0.19148114323616028
1751214587233277700,4.239277587890625,-1.9576882123947144,-0.40080544352531433,-0.1627190262079239
1751214587243271400,4.249271484375,-1.9736672639846802,-0.33475908637046814,-0.12756532430648804
1751214587253265400,4.259265380859375,-1.9385135173797607,-0.34754225611686707,-0.14034847915172577
1751214587263259400,4.26925927734375,-1.8671408891677856,-0.45193809270858765,-0.1627190262079239
1751214587273253400,4.27925341796875,-1.7702018022537231,-0.5829655528068542,-0.13076111674308777
1751214587283247000,4.2892470703125,-1.6658060550689697,-0.6564686894416809,-0.06578002870082855
1751214587293241000,4.299240966796875,-1.530517578125,-0.6713824272155762,-0.014647374860942364
1751214587303235000,4.309235107421875,-1.3739237785339355,-0.6873613595962524,0.032224226742982864
1751214587313228800,4.319228759765625,-1.2492879629135132,-0.6649908423423767,0.07057371735572815
1751214587323222800,4.329222900390625,-1.1076078414916992,-0.6799045205116272,0.10040109604597092
1751214587333216800,4.339216796875,-0.9094688296318054,-0.7661908864974976,0.11744531989097595
1751214587343210500,4.34921044921875,-0.7443529963493347,-0.8056056499481201,0.10359688848257065
1751214587353204500,4.35920458984375,-0.6154560446739197,-0.8524772524833679,0.07376950979232788
1751214587363198500,4.369198486328125,-0.5089297294616699,-0.8876309394836426,0.04500738903880119
1751214587373192200,4.379192138671875,-0.4109254479408264,-0.8876309394836426,0.03328948840498924
1751214587383186200,4.389186279296875,-0.31505173444747925,-0.8428898453712463,0.04181159660220146
1751214587393180200,4.39918017578125,-0.22983063757419586,-0.7640603184700012,0.05033370852470398
1751214587403174100,4.409174072265625,-0.15206637978553772,-0.6532729268074036,0.06418213248252869
1751214587413167900,4.41916796875,-0.0870852991938591,-0.5169191956520081,0.10040109604597092
1751214587423161900,4.429161865234375,-0.024234747514128685,-0.3741738498210907,0.17390428483486176
1751214587433155800,4.43915576171875,0.03435475379228592,-0.24314641952514648,0.2655169665813446
1751214587443149600,4.449149658203125,0.09933583438396454,-0.12703268229961395,0.34221595525741577
1751214587453143600,4.4591435546875,0.1675127148628235,-0.017443692311644554,0.39121806621551514
1751214587463137500,4.469137451171875,0.23995064198970795,0.08375635743141174,0.40932756662368774
1751214587473131300,4.47913134765625,0.3123885691165924,0.18282587826251984,0.4157191216945648
1751214587483125200,4.489125244140625,0.4029359817504883,0.25206801295280457,0.43808966875076294
1751214587493119200,4.499119140625,0.5147886276245117,0.2648511826992035,0.4785696864128113
1751214587503113200,4.50911328125,0.6426202654838562,0.212653249502182,0.5052012801170349
1751214587513107000,4.51910693359375,0.7832350730895996,0.09014793485403061,0.4966791868209839
1751214587523101000,4.529100830078125,0.9163930416107178,-0.10146636515855789,0.4125233590602875
1751214587533095000,4.539094970703125,1.0112015008926392,-0.34328120946884155,0.22929799556732178
1751214587543088600,4.549088623046875,1.0633994340896606,-0.5115928649902344,0.036485280841588974
1751214587553082600,4.55908251953125,1.120923638343811,-0.49880969524383545,-0.003994738683104515
1751214587563076600,4.56907666015625,1.212536334991455,-0.22716747224330902,0.20160114765167236
1751214587573070300,4.5790703125,1.3158669471740723,0.3884217441082001,0.6127929091453552
1751214587583064300,4.589064208984375,1.3957617282867432,1.157542109489441,1.0527467727661133
1751214587593058300,4.599058349609375,1.4479596614837646,1.7391760349273682,1.3478248119354248
1751214587603052000,4.609052001953125,1.5140058994293213,2.082190990447998,1.488439679145813
1751214587613046000,4.6190458984375,1.6066838502883911,2.271807909011841,1.4820480346679688
1751214587623040000,4.6290400390625,1.6759259700775146,2.2142837047576904,1.4287848472595215
1751214587633034000,4.639033935546875,1.6972312927246094,1.9490330219268799,1.4234585762023926
1751214587643027700,4.64902783203125,1.6279891729354858,1.6709991693496704,1.408544898033142
1751214587653021700,4.659021728515625,1.4618080854415894,1.4409022331237793,1.3307806253433228
1751214587663015700,4.669015625,1.284974217414856,1.187369465827942,1.205079436302185
1751214587673009400,4.679009521484375,1.2072100639343262,0.9945567846298218,1.0591384172439575
1751214587683003400,4.68900341796875,1.2508858442306519,0.8528767228126526,0.9345025420188904
1751214587692997400,4.698997314453125,1.3286501169204712,0.6707166433334351,0.8620645999908447
1751214587702991000,4.7089912109375,1.393631100654602,0.46938177943229675,0.8077361583709717
1751214587712985000,4.718985107421875,1.4117406606674194,0.2275669425725937,0.7321024537086487
1751214587722979000,4.72897900390625,1.4330458641052246,0.009187898598611355,0.6500771641731262
1751214587732973000,4.73897314453125,1.4468942880630493,-0.2090579867362976,0.5499423742294312
1751214587742966800,4.748966796875,1.4298501014709473,-0.3880222737789154,0.43702441453933716
1751214587752960800,4.758960693359375,1.3861743211746216,-0.529702365398407,0.34434646368026733
1751214587762954800,4.768954833984375,1.309475302696228,-0.6085318326950073,0.284691721200943
1751214587772948500,4.778948486328125,1.2189279794692993,-0.6255760788917542,0.27190855145454407
1751214587782942500,4.7889423828125,1.1315762996673584,-0.5520728826522827,0.31132328510284424
1751214587792936400,4.7989365234375,1.0506162643432617,-0.4263717830181122,0.3507380485534668
1751214587802930200,4.80893017578125,0.9952225685119629,-0.284691721200943,0.38163068890571594
1751214587812924200,4.818924072265625,0.9717867374420166,-0.1664474457502365,0.3933486044406891
1751214587822918100,4.828918212890625,0.9803088903427124,-0.11438268423080444,0.3869570195674896
1751214587832912100,4.838912109375,1.0143972635269165,-0.09840372949838638,0.37204334139823914
1751214587842905900,4.84890576171875,1.066595196723938,-0.08029424399137497,0.3688475489616394
1751214587852899800,4.85889990234375,1.1379679441452026,-0.012117373757064342,0.3784348964691162
1751214587862893800,4.868893798828125,1.2072100639343262,0.1093226820230484,0.3965443968772888
1751214587872887600,4.878887451171875,1.2615385055541992,0.23076273500919342,0.41891491413116455
1751214587882881500,4.888881591796875,1.272191047668457,0.3127880394458771,0.4402202069759369
1751214587892875500,4.89887548828125,1.249820590019226,0.3490070104598999,0.4498075842857361
1751214587902869200,4.908869140625,1.2029489278793335,0.37031227350234985,0.45726442337036133
1751214587912863200,4.91886328125,1.14116370677948,0.4022701680660248,0.4583296775817871
1751214587922857200,4.928857177734375,1.0729868412017822,0.4427502155303955,0.4625907242298126
1751214587932851000,4.938850830078125,1.0186583995819092,0.4938828647136688,0.47111284732818604
1751214587942845000,4.948844970703125,0.9813741445541382,0.5077312588691711,0.47430863976478577
1751214587952839000,4.9588388671875,0.9568730592727661,0.447011262178421,0.46152547001838684
1751214587962833000,4.9688330078125,0.9366330504417419,0.3777691125869751,0.44235071539878845
1751214587972826600,4.97882666015625,0.9110667109489441,0.30533120036125183,0.406131774187088
1751214587982820600,4.988820556640625,0.8684561848640442,0.22543641924858093,0.3592601716518402
1751214587992814600,4.998814697265625,0.8130624890327454,0.1380847990512848,0.29640960693359375
1751214588002808300,5.008808349609375,0.748081386089325,0.06458161026239395,0.21758009493350983
1751214588012802300,5.01880224609375,0.6767086982727051,-0.009986846707761288,0.16112112998962402
1751214588022796300,5.02879638671875,0.6127929091453552,-0.0918789878487587,0.13235901296138763
1751214588032790000,5.0387900390625,0.5627255439758301,-0.17923060059547424,0.11211899667978287
1751214588042784000,5.048783935546875,0.5190497040748596,-0.2239716798067093,0.10359688848257065
1751214588052778000,5.058778076171875,0.492418110370636,-0.21971063315868378,0.10892320424318314
1751214588062772000,5.06877197265625,0.49348339438438416,-0.1813611388206482,0.13022847473621368
1751214588072765700,5.078765625,0.4956139028072357,-0.11957584321498871,0.15899059176445007
1751214588082759700,5.088759765625,0.4785696864128113,-0.06325002759695053,0.20266640186309814
1751214588092753700,5.098753662109375,0.4455465078353882,-0.03235738351941109,0.2569948434829712
1751214588102747400,5.108747314453125,0.4306328296661377,-0.025965800508856773,0.29534435272216797
1751214588112741400,5.118741455078125,0.40932756662368774,-0.00892158318310976,0.3070622384548187
1751214588122735400,5.1287353515625,0.37630438804626465,0.043276336044073105,0.2900180220603943
1751214588132729000,5.13872900390625,0.3507380485534668,0.09014793485403061,0.25379905104637146
1751214588142723000,5.14872314453125,0.3273022472858429,0.146606907248497,0.21331904828548431
1751214588152717000,5.158717041015625,0.3134538233280182,0.1934785097837448,0.17283903062343597
1751214588162710800,5.168710693359375,0.30067065358161926,0.26272064447402954,0.10785794258117676
1751214588172704800,5.178704833984375,0.2889527678489685,0.3298322558403015,0.04500738903880119
1751214588182698800,5.18869873046875,0.26871275901794434,0.3958786129951477,0.015180006623268127
1751214588192692700,5.198692626953125,0.2527337968349457,0.43635863065719604,0.013049479573965073
1751214588202686500,5.2086865234375,0.24314641952514648,0.4342280924320221,0.01837579719722271
1751214588212680400,5.218680419921875,0.24314641952514648,0.3916175365447998,0.026897907257080078
1751214588222674400,5.22867431640625,0.2601906359195709,0.32450592517852783,0.020506324246525764
1751214588232668200,5.238668212890625,0.29108327627182007,0.27763432264328003,-0.01784316636621952
1751214588242662100,5.248662109375,0.31025803089141846,0.2872216999530792,-0.09028109163045883
1751214588252656000,5.25865625,0.29747486114501953,0.3585943877696991,-0.17337165772914886
1751214588262649900,5.26864990234375,0.25912538170814514,0.4565986394882202,-0.21598219871520996
1751214588272643800,5.278643798828125,0.22077588737010956,0.5451486706733704,-0.19467693567276
1751214588282637800,5.288637939453125,0.2090579867362976,0.6121271252632141,-0.13502216339111328
1751214588292631800,5.2986318359375,0.228232741355896,0.6494113206863403,-0.07856319099664688
1751214588302625500,5.30862548828125,0.24847275018692017,0.646215558052063,-0.04767054691910744
1751214588312619500,5.31861962890625,0.2569948434829712,0.5950828790664673,-0.03701791167259216
1751214588322613500,5.328613525390625,0.25806012749671936,0.4853607416152954,-0.035952646285295486
1751214588332607200,5.338607177734375,0.25912538170814514,0.33728909492492676,-0.044474758207798004
1751214588372583000,5.3785830078125,0.23568958044052124,-0.016378428786993027,-0.2841590642929077
1751214588382577000,5.388576904296875,0.22077588737010956,-0.025965800508856773,-0.3981422781944275
1751214588392570600,5.398570556640625,0.19307903945446014,-0.03981423005461693,-0.5121254920959473
1751214588402564600,5.408564697265625,0.1483379602432251,-0.07070687413215637,-0.5771065950393677
1751214588412558600,5.41855859375,0.10679268091917038,-0.1069258376955986,-0.571780264377594
1751214588422552600,5.428552490234375,0.060986343771219254,-0.14514216780662537,-0.5281044244766235
1751214588432546300,5.43854638671875,0.013049479573965073,-0.1621863842010498,-0.4865591824054718
1751214588442540300,5.448540283203125,-0.04660528525710106,-0.16964323818683624,-0.469514936208725
1751214588452534300,5.4585341796875,-0.12223900109529495,-0.1898832470178604,-0.47484126687049866
1751214588462528000,5.468528076171875,-0.21172115206718445,-0.24953800439834595,-0.48336338996887207
1751214588472522000,5.47852197265625,-0.31505173444747925,-0.36671701073646545,-0.5014728307723999
1751214588482516000,5.488515869140625,-0.43755704164505005,-0.47111284732818604,-0.5739107728004456
1751214588492509700,5.498509765625,-0.5771065950393677,-0.508397102355957,-0.7326350808143616
1751214588502503700,5.508503662109375,-0.72304767370224,-0.4913528561592102,-0.9542099237442017
1751214588512497700,5.51849755859375,-0.8583361506462097,-0.45087283849716187,-1.2024163007736206
1751214588522491600,5.52849169921875,-0.9669930934906006,-0.3688475489616394,-1.4463616609573364
1751214588532485400,5.5384853515625,-1.0458226203918457,-0.20266640186309814,-1.6413049697875977
1751214588542479400,5.548479248046875,-1.1129342317581177,0.10612688958644867,-1.7339829206466675
1751214588552473300,5.558473388671875,-1.1928290128707886,0.5801692008972168,-1.694568157196045
1751214588562467000,5.568467041015625,-1.2929637432098389,1.1245189905166626,-1.5326480865478516
1751214588572461000,5.5784609375,-1.4144037961959839,1.5783212184906006,-1.2855068445205688
1751214588602442800,5.60844287109375,-1.9097514152526855,1.7200013399124146,-0.617586612701416
1751214588612436700,5.618436767578125,-2.0524966716766357,1.4771212339401245,-0.5483444333076477
1751214588622430700,5.6284306640625,-2.1196084022521973,1.2896348237991333,-0.5099949836730957
1751214588632424400,5.638424560546875,-2.125999927520752,1.1245189905166626,-0.45566651225090027
1751214588642418400,5.64841845703125,-2.096172571182251,0.9498156905174255,-0.3736412227153778
1751214588652412400,5.658412353515625,-2.0354526042938232,0.6494113206863403,-0.2852243483066559
1751214588662406100,5.66840625,-1.9587534666061401,0.2701774835586548,-0.2234390527009964
1751214588672400100,5.678400146484375,-1.900164008140564,0.051798444241285324,-0.261788547039032
1751214588682394000,5.68839404296875,-1.8479660749435425,0.0017310534603893757,-0.38109806180000305
1751214588692387800,5.698387939453125,-1.80855131149292,0.04966791719198227,-0.5302349925041199
1751214588702381800,5.7083818359375,-1.798964023590088,0.13382373750209808,-0.6495444774627686
1751214588712375800,5.718375732421875,-1.8138777017593384,0.19241324067115784,-0.7134603261947632
1751214588722369500,5.72836962890625,-1.8287913799285889,0.2456764280796051,-0.6740455627441406
1751214588732363500,5.738363525390625,-1.8181387186050415,0.27230802178382874,-0.5270391702651978
1751214588742357500,5.748357421875,-1.7968333959579468,0.18815219402313232,-0.3310306668281555
1751214588752351500,5.7583515625,-1.7851155996322632,-0.025965800508856773,-0.12650005519390106
1751214588762345200,5.76834521484375,-1.7819197177886963,-0.3262369930744171,0.031158961355686188
1751214588772339200,5.778339111328125,-1.803225040435791,-0.6213150024414062,0.09614004194736481
1751214588782333200,5.788333251953125,-1.827726125717163,-0.7906919121742249,0.0684431865811348
1751214588792327000,5.798326904296875,-1.8607492446899414,-0.7757782340049744,0.005592633970081806
1751214588802321000,5.80832080078125,-1.875662922859192,-0.6522076725959778,-0.06151897460222244
1751214588812315000,5.81831494140625,-1.8564882278442383,-0.5126581192016602,-0.09347688406705856
1751214588822308600,5.82830859375,-1.8490313291549683,-0.4402202069759369,-0.07217161357402802
1751214588832302600,5.838302490234375,-1.8213344812393188,-0.47324338555336,-0.02636527456343174
1751214588842296600,5.848296630859375,-1.795768141746521,-0.5435507893562317,0.0141147430986166
1751214588852290600,5.85829052734375,-1.7478313446044922,-0.6585992574691772,0.026897907257080078
1751214588862284300,5.8682841796875,-1.7052208185195923,-0.7544729709625244,0.005592633970081806
1751214588872278300,5.8782783203125,-1.6423702239990234,-0.8599340915679932,-0.013582111336290836
1751214588882272300,5.888272216796875,-1.5656712055206299,-0.9206541180610657,-0.008255792781710625
1751214588892266000,5.898265869140625,-1.463405966758728,-0.9185235500335693,0.020506324246525764
1751214588902260000,5.908260009765625,-1.3632711172103882,-0.8897614479064941,0.06524740159511566
1751214588912254000,5.91825390625,-1.2780500650405884,-0.8407593369483948,0.09081372618675232
1751214588922247700,5.92824755859375,-1.1693931818008423,-0.8119972348213196,0.10146636515855789
1751214588932241700,5.93824169921875,-1.0980205535888672,-0.7874961495399475,0.12383689731359482
1751214588942235600,5.948235595703125,-0.9893636107444763,-0.7587340474128723,0.15366427600383759
1751214588952229400,5.9582294921875,-0.8828372359275818,-0.7107971906661987,0.1813611388206482
1751214588962223400,5.968223388671875,-0.7752456068992615,-0.696948766708374,0.19201377034187317
1751214588972217300,5.97821728515625,-0.6399571299552917,-0.7416898012161255,0.18775272369384766
1751214588982211300,5.98821142578125,-0.5142560005187988,-0.7651256322860718,0.1813611388206482
1751214588992205000,5.998205078125,-0.40453386306762695,-0.7587340474128723,0.17816534638404846
1751214589002199000,6.008198974609375,-0.3022685647010803,-0.7225150465965271,0.19734008610248566
1751214589012193000,6.018193115234375,-0.21278640627861023,-0.6447508335113525,0.22184115648269653
1751214589022186800,6.028186767578125,-0.14141374826431274,-0.5243760347366333,0.24527695775032043
1751214589032180700,6.0381806640625,-0.07536740601062775,-0.3922833502292633,0.27403905987739563
1751214589042174700,6.0481748046875,-0.013582111336290836,-0.27190855145454407,0.30599698424339294
1751214589052168400,6.05816845703125,0.04500738903880119,-0.15579481422901154,0.33475908637046814
1751214589062162400,6.068162353515625,0.11638005077838898,-0.061119500547647476,0.3592601716518402
1751214589072156400,6.078156494140625,0.21225377917289734,-0.0153131652623415,0.3837612271308899
1751214589082150400,6.088150390625,0.3315632939338684,0.005992108024656773,0.40506649017333984
1751214589092144000,6.09814404296875,0.46578651666641235,0.027297381311655045,0.40932756662368774
1751214589102138000,6.10813818359375,0.6266413331031799,0.04966791719198227,0.40080544352531433
1751214589112132000,6.118132080078125,0.818388819694519,0.08801741153001785,0.3880222737789154
1751214589122125800,6.128125732421875,1.0101362466812134,0.11784479022026062,0.34434646368026733
1751214589132119800,6.138119873046875,1.1550121307373047,0.08269108831882477,0.29214856028556824
1751214589142113800,6.14811376953125,1.2668647766113281,0.13169321417808533,0.2527337968349457
1751214589152107500,6.158107421875,1.3723258972167969,0.30426591634750366,0.29534435272216797
1751214589162101500,6.1681015625,1.4916354417800903,0.5162534117698669,0.43808966875076294
1751214589172095500,6.178095458984375,1.6514250040054321,0.8699209094047546,0.6042708158493042
1751214589182089500,6.18808935546875,1.8165408372879028,1.2406326532363892,0.726776123046875
1751214589192083200,6.198083251953125,1.9710040092468262,1.4153358936309814,0.8407593369483948
1751214589202077200,6.2080771484375,2.10522723197937,1.4579464197158813,0.923849880695343
1751214589212071200,6.2180712890625,2.2064273357391357,1.3610074520111084,0.9547425508499146
1751214589222065000,6.22806494140625,2.2628862857818604,1.1341062784194946,0.9579383134841919
1751214589232059000,6.238058837890625,2.2916483879089355,0.8166577219963074,0.9898962378501892
1751214589242052900,6.248052978515625,2.315084218978882,0.5524723529815674,1.0623341798782349
1751214589252046600,6.258046630859375,2.328932523727417,0.41824913024902344,1.1731215715408325
1751214589262040600,6.26804052734375,2.3065621852874756,0.3724428117275238,1.3510205745697021
1751214589272034600,6.27803466796875,2.2330589294433594,0.38096490502357483,1.5939006805419922
1751214589282028300,6.2880283203125,2.1041619777679443,0.39481332898139954,1.8261282444000244
1751214589292022300,6.298022216796875,1.832519769668579,0.325571209192276,1.9283934831619263
1751214589302016300,6.308016357421875,1.460742712020874,0.37137752771377563,1.7494292259216309
1751214589312010200,6.31801025390625,1.1731215715408325,0.5375586748123169,1.3819133043289185
1751214589322004000,6.32800390625,1.0282456874847412,0.39907440543174744,0.9941573143005371
1751214589331998000,6.337998046875,0.9558078050613403,-0.01850895583629608,0.6660560965538025
1751214589341992000,6.347991943359375,0.9345025420188904,-0.34434646368026733,0.43702441453933716
1751214589361979600,6.367979736328125,1.0229194164276123,-0.748081386089325,0.15579481422901154
1751214589371973600,6.3779736328125,1.0761826038360596,-0.8354330062866211,0.023702116683125496
1751214589381967400,6.38796728515625,1.0974878072738647,-0.8269109129905701,-0.11478215456008911
1751214589391961300,6.39796142578125,1.086835265159607,-0.7512772083282471,-0.21065588295459747
1751214589401955300,6.407955322265625,1.0804436206817627,-0.6490118503570557,-0.25859275460243225
1751214589411949300,6.41794921875,1.0708563327789307,-0.5350286364555359,-0.25859275460243225
1751214589421943000,6.427943115234375,1.0516815185546875,-0.3890875577926636,-0.204264298081398
1751214589431937000,6.43793701171875,1.0282456874847412,-0.2047969400882721,-0.12543480098247528
1751214589441931000,6.447930908203125,1.0143972635269165,0.0070573715493083,-0.03169159218668938
1751214589451924700,6.4579248046875,1.0037447214126587,0.21478378772735596,0.06205160543322563
1751214589461918700,6.467918701171875,0.9952225685119629,0.3884217441082001,0.15046848356723785
1751214589471912700,6.47791259765625,0.9898962378501892,0.5141228437423706,0.2239716798067093
1751214589481906400,6.487906494140625,1.0026793479919434,0.5695165991783142,0.28149592876434326
1751214589491900400,6.497900390625,1.0399636030197144,0.5588639378547668,0.3400854170322418
1751214589501894400,6.507894287109375,1.0942920446395874,0.5066660046577454,0.39015281200408936
1751214589511888100,6.51788818359375,1.1432942152023315,0.44594597816467285,0.4455465078353882
1751214589521882000,6.527882080078125,1.1805784702301025,0.3873564898967743,0.4956139028072357
1751214589531876000,6.5378759765625,1.208275318145752,0.34261542558670044,0.5456812977790833
1751214589541870000,6.5478701171875,1.2221237421035767,0.30852699279785156,0.5861613154411316
1751214589551863800,6.55786376953125,1.219993233680725,0.2786996066570282,0.6106624007225037
1751214589561857800,6.56785791015625,1.2018836736679077,0.2605901062488556,0.6074665784835815
1751214589571851800,6.577851806640625,1.1518163681030273,0.2595248520374298,0.5723128914833069
1751214589581845500,6.587845458984375,1.0783131122589111,0.25845959782600403,0.500940203666687
1751214589591839500,6.597839599609375,0.9856351613998413,0.23502379655838013,0.40932756662368774
1751214589601833500,6.60783349609375,0.8908267021179199,0.19560903310775757,0.31878015398979187
1751214589611827200,6.6178271484375,0.781104564666748,0.1380847990512848,0.24527695775032043
1751214589621821200,6.6278212890625,0.6703171730041504,0.035819489508867264,0.1856221854686737
1751214589631815200,6.637815185546875,0.5744433999061584,-0.09507478028535843,0.13768532872200012
1751214589641809200,6.64780908203125,0.4785696864128113,-0.2143843024969101,0.10998847335577011
1751214589651803000,6.657802978515625,0.38056543469429016,-0.3166496157646179,0.105727419257164
1751214589661796900,6.667796875,0.29214856028556824,-0.3837612271308899,0.11851058155298233
1751214589671790800,6.677790771484375,0.21758009493350983,-0.3933486044406891,0.13555480539798737
1751214589681784600,6.68778466796875,0.1664474457502365,-0.34860754013061523,0.15366427600383759
1751214589691778600,6.697778564453125,0.13981585204601288,-0.25060325860977173,0.15686006844043732
1751214589701772500,6.7077724609375,0.13129374384880066,-0.15366427600383759,0.13555480539798737
1751214589711766300,6.717766357421875,0.14620743691921234,-0.09733846783638,0.10359688848257065
1751214589721760300,6.72776025390625,0.1909485012292862,-0.06218476593494415,0.04607265070080757
1751214589731754200,6.737754150390625,0.2420811653137207,-0.006791055668145418,-0.03382211923599243
1751214589741748000,6.747748046875,0.2751043438911438,0.07949529588222504,-0.10626004636287689
1751214589751742000,6.757741943359375,0.30067065358161926,0.17749954760074615,-0.14247901737689972
1751214589761736000,6.76773583984375,0.32836753129959106,0.24461115896701813,-0.14993585646152496
1751214589771730000,6.77772998046875,0.3656517565250397,0.25845959782600403,-0.12756532430648804
1751214589781723600,6.7877236328125,0.4071970283985138,0.23289325833320618,-0.10412952303886414
1751214589791717600,6.797717529296875,0.4391549229621887,0.21584904193878174,-0.10199899226427078
1751214589801711600,6.807711669921875,0.4487423002719879,0.22330589592456818,-0.12330426275730133
1751214589811705300,6.817705322265625,0.4316980838775635,0.24993747472763062,-0.16165375709533691
1751214589821699300,6.82769921875,0.3869570195674896,0.30000486969947815,-0.20213377475738525
1751214589831693300,6.837693359375,0.32836753129959106,0.3735080659389496,-0.22024326026439667
1751214589841687000,6.84768701171875,0.2644517123699188,0.457663893699646,-0.21065588295459747
1751214589851681000,6.857680908203125,0.21225377917289734,0.554602861404419,-0.18508955836296082
1751214589861675000,6.867675048828125,0.18029586970806122,0.654737651348114,-0.1531316488981247
1751214589871669000,6.8776689453125,0.1621863842010498,0.7314366698265076,-0.11691268533468246
1751214589881662700,6.887662841796875,0.1525990217924118,0.7484808564186096,-0.08175898343324661
1751214589891656700,6.89765673828125,0.1898832470178604,0.676042914390564,-0.04340949282050133
1751214589901650700,6.907650634765625,0.25379905104637146,0.4949481189250946,-0.0050600022077560425
1751214589911644400,6.91764453125,0.303866446018219,0.24354590475559235,0.024767380207777023
1751214589921638400,6.927638427734375,0.33795487880706787,-0.014247900806367397,0.048203181475400925
1751214589931632400,6.93763232421875,0.3507380485534668,-0.22929799556732178,0.0727042406797409
1751214589941626000,6.947626220703125,0.3273022472858429,-0.3784348964691162,0.10146636515855789
1751214589951620000,6.9576201171875,0.2761695981025696,-0.4530033767223358,0.11424952745437622
1751214589961614000,6.967614013671875,0.2143843024969101,-0.45619916915893555,0.08548741042613983
1751214589971608000,6.977608154296875,0.1387505829334259,-0.4029359817504883,0.016245270147919655
1751214589981601800,6.987601806640625,0.05033370852470398,-0.3273022472858429,-0.08282424509525299
1751214589991595800,6.997595703125,-0.04767054691910744,-0.25060325860977173,-0.20319904386997223
1751214590001589800,7.00758984375,-0.1392832249403,-0.18775272369384766,-0.34381383657455444
1751214590011583500,7.01758349609375,-0.23622220754623413,-0.12929637730121613,-0.48016759753227234
1751214590021577500,7.027577392578125,-0.33848753571510315,-0.06644582003355026,-0.6079992055892944
1751214590031571500,7.037571533203125,-0.4343612492084503,-0.005725792143493891,-0.7305045127868652
1751214590041565200,7.047565185546875,-0.5270391702651978,0.06671213358640671,-0.8317046165466309
1751214590051559200,7.05755908203125,-0.6207823753356934,0.15832480788230896,-0.8998814821243286
1751214590061553200,7.06755322265625,-0.7134603261947632,0.26272064447402954,-0.9169256687164307
1751214590071547000,7.077546875,-0.7986814379692078,0.3969438672065735,-0.8924246430397034
1751214590081540900,7.087540771484375,-0.8711193203926086,0.5918871164321899,-0.8349003791809082
1751214590091534800,7.097534912109375,-0.927578330039978,0.8230493068695068,-0.7656582593917847
1751214590101528800,7.10752880859375,-0.9829720258712769,1.0350368022918701,-0.7113298177719116
1751214590111522600,7.1175224609375,-1.0330394506454468,1.1809779405593872,-0.6761760711669922
1751214590121516500,7.1275166015625,-1.0831067562103271,1.2406326532363892,-0.6452834606170654
1751214590131510500,7.137510498046875,-1.1139994859695435,1.2129358053207397,-0.6048034429550171
1751214590141504300,7.147504150390625,-1.116129994392395,1.1010831594467163,-0.5781718492507935
1751214590151498200,7.157498291015625,-1.0948246717453003,0.9380977749824524,-0.5813676118850708
1751214590161492200,7.1674921875,-1.0532793998718262,0.7559376955032349,-0.6090644598007202
1751214590171486000,7.17748583984375,-1.0181257724761963,0.554602861404419,-0.638891875743866
1751214590181480000,7.18747998046875,-0.9957551956176758,0.32237541675567627,-0.6623276472091675
1751214590191474000,7.197473876953125,-0.9882983565330505,0.06564687192440033,-0.684698224067688
1751214590201468000,7.207468017578125,-0.9978857040405273,-0.13981585204601288,-0.7283740043640137
1751214590211461600,7.217461669921875,-1.0159951448440552,-0.1675127148628235,-0.7965508699417114
1751214590221455600,7.22745556640625,-1.0586057901382446,-0.04301001876592636,-0.844487726688385
1751214590231449600,7.23744970703125,-1.1427615880966187,0.16791218519210815,-0.844487726688385
1751214590241443300,7.247443359375,-1.2684626579284668,0.44168493151664734,-0.7645930051803589
1751214590251437300,7.257437255859375,-1.4207954406738281,0.7282408475875854,-0.6037381887435913
1751214590261431300,7.267431396484375,-1.5763238668441772,0.918923020362854,-0.393881231546402
1751214590271425000,7.277425048828125,-1.7105470895767212,0.9327715039253235,-0.2181127369403839
1751214590281419000,7.2874189453125,-1.8223997354507446,0.7910913825035095,-0.10199899226427078
1751214590291413000,7.2974130859375,-1.9289261102676392,0.5354281663894653,-0.048735812306404114
1751214590301406700,7.30740673828125,-2.006690502166748,0.24035011231899261,-0.05938844755291939
1751214590311400700,7.317400634765625,-2.01627779006958,-0.040879491716623306,-0.10945583879947662
1751214590321394700,7.327394775390625,-1.9704713821411133,-0.28149592876434326,-0.16911059617996216
1751214590331388700,7.337388671875,-1.9065556526184082,-0.44661179184913635,-0.20532956719398499
1751214590381358000,7.387358154296875,-1.7275912761688232,0.050733182579278946,0.02583264373242855
1751214590391352000,7.39735205078125,-1.80855131149292,0.030493171885609627,0.05139897018671036
1751214590401345800,7.407345703125,-1.8937724828720093,-0.04620581120252609,0.04287686198949814
1751214590411339800,7.41733984375,-1.9853850603103638,-0.10359688848257065,0.04607265070080757
1751214590421333800,7.427333740234375,-2.0524966716766357,-0.14407691359519958,0.06950845569372177
1751214590431327700,7.43732763671875,-2.0844545364379883,-0.18455693125724792,0.11851058155298233
1751214590441321500,7.447321533203125,-2.0748672485351562,-0.22610220313072205,0.1909485012292862
1751214590451315500,7.4573154296875,-2.032256603240967,-0.2559295892715454,0.24527695775032043
1751214590461309400,7.467309326171875,-1.954492449760437,-0.29108327627182007,0.24314641952514648
1751214590471303200,7.47730322265625,-1.857553482055664,-0.35819488763809204,0.19414429366588593
1751214590481297200,7.487297119140625,-1.7393091917037964,-0.4881570637226105,0.10359688848257065
1751214590491291100,7.497291015625,-1.6338480710983276,-0.6884266138076782,-0.027430538088083267
1751214590501284900,7.507284912109375,-1.5283869504928589,-0.8716519474983215,-0.14034847915172577
1751214590511278800,7.51727880859375,-1.4463616609573364,-0.8993488550186157,-0.19254639744758606
1751214590521272800,7.52727294921875,-1.351553201675415,-0.823715090751648,-0.17763271927833557
1751214590531266600,7.5372666015625,-1.217329978942871,-0.6831002831459045,-0.110521100461483
1751214590541260500,7.547260498046875,-1.0692583322525024,-0.5424855351448059,-0.04234423115849495
1751214590551254500,7.557254638671875,-0.940361499786377,-0.4338286221027374,-0.003994738683104515
1751214590561248500,7.56724853515625,-0.8135951161384583,-0.41358861327171326,0.011984216049313545
1751214590571242200,7.5772421875,-0.7070687413215637,-0.44767704606056213,0.036485280841588974
1751214590581236200,7.587236328125,-0.6133255362510681,-0.47537389397621155,0.07590003311634064
1751214590591230200,7.597230224609375,-0.5281044244766235,-0.4721781015396118,0.1249021589756012
1751214590601224000,7.607223876953125,-0.4631233811378479,-0.4295675754547119,0.18881797790527344
1751214590611218000,7.617218017578125,-0.3310306668281555,-0.35819488763809204,0.2420811653137207
1751214590621212000,7.6272119140625,-0.23941799998283386,-0.2793653905391693,0.284691721200943
1751214590631205600,7.63720556640625,-0.13502216339111328,-0.22503694891929626,0.32517173886299133
1751214590641199600,7.64719970703125,-0.01784316636621952,-0.1856221854686737,0.35393384099006653
1751214590651193600,7.657193603515625,0.1153147891163826,-0.15899059176445007,0.3613906800746918
1751214590661187600,7.6671875,0.2665822207927704,-0.11638005077838898,0.34754225611686707
1751214590671181300,7.677181396484375,0.43276336789131165,-0.05579318478703499,0.31984540820121765
1751214590681175300,7.68717529296875,0.6181192398071289,0.01664474420249462,0.2857569754123688
1751214590691169300,7.697169189453125,0.8215845823287964,0.09014793485403061,0.2474074810743332
1751214590701163000,7.7071630859375,1.0559425354003906,0.17323850095272064,0.20160114765167236
1751214590711157000,7.717156982421875,1.3030837774276733,0.27550381422042847,0.14620743691921234
1751214590721151000,7.72715087890625,1.5374417304992676,0.3436806797981262,0.06524740159511566
1751214590731144700,7.737144775390625,1.7142754793167114,0.3596596419811249,-0.040213704109191895
1751214590741138700,7.747138671875,1.828258752822876,0.4906870722770691,-0.10306425392627716
1751214590751132700,7.757132568359375,1.8921746015548706,0.7804387807846069,-0.025300011038780212
1751214590761126700,7.767126708984375,1.9358503818511963,1.1809779405593872,0.25379905104637146
1751214590771120400,7.777120361328125,1.9528945684432983,1.807352900505066,0.5872265696525574
1751214590781114400,7.7871142578125,1.9358503818511963,2.418814182281494,0.8322372436523438
1751214590791108400,7.7971083984375,1.9028271436691284,2.688325881958008,1.0889657735824585
1751214590801102000,7.80710205078125,1.9006966352462769,2.573277473449707,1.438372254371643
1751214590811096000,7.817095947265625,1.8176060914993286,2.092843532562256,1.6631428003311157
1751214590821090000,7.827090087890625,1.5065491199493408,1.6241276264190674,1.5470291376113892
1751214590831083800,7.837083740234375,1.2210584878921509,1.2331758737564087,1.1358373165130615
1751214590841077800,7.847077880859375,1.178447961807251,0.8518114686012268,0.7161234617233276
1751214590851071700,7.85707177734375,1.2487553358078003,0.5407544374465942,0.5850960612297058
1751214590861065500,7.8670654296875,1.4053490161895752,0.2659164369106293,0.6980140209197998
1751214590871059500,7.8770595703125,1.615206003189087,0.034754227846860886,0.8535425066947937
1751214590881053400,7.887053466796875,1.8165408372879028,-0.10892320424318314,0.8982835412025452
1751214590891047400,7.89704736328125,1.9273282289505005,-0.2612559199333191,0.7747129797935486
1751214590901041200,7.907041259765625,1.9006966352462769,-0.5254412889480591,0.5265065431594849
1751214590911035100,7.91703515625,1.8144103288650513,-0.8673909306526184,0.24101589620113373
1751214590921029000,7.927029052734375,1.7302544116973877,-1.2018836736679077,0.005592633970081806
1751214590931022800,7.93702294921875,1.6652734279632568,-1.4426332712173462,-0.17337165772914886
1751214590941016800,7.947016845703125,1.5875091552734375,-1.5811175107955933,-0.31505173444747925
1751214590951010800,7.9570107421875,1.4788522720336914,-1.639707088470459,-0.4119907021522522
1751214590961004500,7.967004638671875,1.3435637950897217,-1.6386418342590332,-0.4631233811378479
1751214590970998500,7.97699853515625,1.1912310123443604,-1.5736607313156128,-0.45673179626464844
1751214590980992500,7.986992431640625,1.0527467727661133,-1.4586122035980225,-0.4173170328140259
1751214590990986500,7.996986572265625,0.9568730592727661,-1.292431116104126,-0.35233595967292786
1751214591000980200,8.006980224609375,0.9025446176528931,-1.1017489433288574,-0.2713759243488312
1751214591010974200,8.01697412109375,0.8886961936950684,-0.8982835412025452,-0.1723063886165619
1751214591020968200,8.02696826171875,0.9046751260757446,-0.6852308511734009,-0.07217161357402802
1751214591030962000,8.0369619140625,0.9408941268920898,-0.45193809270858765,0.0354200154542923
1751214591040956000,8.046955810546875,0.9867004752159119,-0.2047969400882721,0.14088112115859985
1751214591050950000,8.056949951171875,1.0271804332733154,0.059255290776491165,0.24527695775032043
1751214591060943600,8.066943603515625,1.061268925666809,0.2882869839668274,0.3400854170322418
1751214591070937600,8.0769375,1.0729868412017822,0.44488072395324707,0.40932756662368774
1751214591080931600,8.086931640625,1.0687257051467896,0.5556681752204895,0.45193809270858765
1751214591090925300,8.09692529296875,1.0772478580474854,0.646215558052063,0.47111284732818604
1751214591100919300,8.106919189453125,1.103879451751709,0.7143924236297607,0.4881570637226105
1751214591110913300,8.116913330078125,1.128380537033081,0.7633945345878601,0.5094623565673828
1751214591120907300,8.1269072265625,1.1326415538787842,0.8060051202774048,0.5424855351448059
1751214591130901000,8.13690087890625,1.1219888925552368,0.8070703744888306,0.5616602301597595
1751214591140895000,8.14689501953125,1.0921615362167358,0.7633945345878601,0.5627255439758301
1751214591150889000,8.156888916015625,1.042094111442566,0.6866955757141113,0.5403549671173096
1751214591160882700,8.166882568359375,0.9803088903427124,0.5822997093200684,0.49348339438438416
1751214591170876700,8.176876708984375,0.9185235500335693,0.47896915674209595,0.42850229144096375
1751214591180870700,8.18687060546875,0.8663256764411926,0.3724428117275238,0.3549990952014923
1751214591190864400,8.196864501953126,0.8077361583709717,0.2414153665304184,0.27830013632774353
1751214591200858400,8.2068583984375,0.7331677079200745,0.031558435410261154,0.20586219429969788
1751214591210852400,8.216852294921875,0.659664511680603,-0.21651484072208405,0.12170637398958206
1751214591220846300,8.226846435546875,0.5893571376800537,-0.4029359817504883,0.036485280841588974
1751214591230840000,8.236840087890625,0.5030707716941833,-0.5158539414405823,-0.04234423115849495
1751214591240834000,8.246833984375,0.40932756662368774,-0.5946834087371826,-0.10732531547546387
1751214591250828000,8.256828125,0.3219759464263916,-0.6383592486381531,-0.16165375709533691
1751214591260821800,8.26682177734375,0.2516685426235199,-0.6436855792999268,-0.20106850564479828
1751214591270815700,8.276815673828125,0.1952095627784729,-0.6234455704689026,-0.2000032514333725
1751214591280809700,8.286809814453125,0.1483379602432251,-0.5819002389907837,-0.16484954953193665
1751214591290803500,8.296803466796876,0.10892320424318314,-0.5733781456947327,-0.13289164006710052
1751214591300797400,8.30679736328125,0.08761793375015259,-0.596813976764679,-0.10732531547546387
1751214591310791400,8.31679150390625,0.08122635632753372,-0.6362286806106567,-0.08282424509525299
1751214591320785400,8.326785400390625,0.07376950979232788,-0.672447681427002,-0.05086633935570717
1751214591330779100,8.336779052734375,0.07909582555294037,-0.7076013684272766,-0.018908429890871048
1751214591340773000,8.346773193359375,0.09294424951076508,-0.6958834528923035,-0.00612526573240757
1751214591350767000,8.35676708984375,0.08974846452474594,-0.622380256652832,-0.01784316636621952
1751214591360760800,8.3667607421875,0.08761793375015259,-0.4828307330608368,-0.05938844755291939
1751214591370754800,8.3767548828125,0.09614004194736481,-0.3837612271308899,-0.11158636957406998
1751214591380748800,8.386748779296875,0.10359688848257065,-0.3464770019054413,-0.15206637978553772
1751214591390742500,8.396742431640625,0.11638005077838898,-0.3454117476940155,-0.1723063886165619
1751214591400736500,8.406736572265626,0.13555480539798737,-0.35393384099006653,-0.18189376592636108
1751214591410730500,8.41673046875,0.16538217663764954,-0.3731085956096649,-0.1861548274755478
1751214591420724200,8.42672412109375,0.18455693125724792,-0.39015281200408936,-0.19680745899677277
1751214591430718200,8.43671826171875,0.17923060059547424,-0.36778226494789124,-0.2181127369403839
1751214591440712200,8.446712158203125,0.1430116444826126,-0.2900180220603943,-0.25326642394065857
1751214591450706200,8.4567060546875,0.09827057272195816,-0.13235901296138763,-0.28309381008148193
1751214591460700000,8.466699951171876,0.05459476262331009,0.15512901544570923,-0.29161593317985535
1751214591470694000,8.47669384765625,0.04181159660220146,0.511992335319519,-0.2788327634334564
1751214591480687900,8.48668798828125,0.05779055133461952,0.8305061459541321,-0.2553969621658325
1751214591490681600,8.496681640625,0.08016108721494675,1.0584726333618164,-0.22130851447582245
1751214591500675600,8.506675537109375,0.09081372618675232,1.1671295166015625,-0.16804534196853638
1751214591510669600,8.516669677734376,0.08442214131355286,1.1458241939544678,-0.08602003753185272
1751214591520663300,8.526663330078126,0.06950845569372177,1.0084052085876465,0.03968106955289841
1751214591530657300,8.5366572265625,0.08868319541215897,0.7687208652496338,0.19201377034187317
1751214591540651300,8.5466513671875,0.1675127148628235,0.46405547857284546,0.3315632939338684
1751214591550645200,8.556645263671875,0.2697780132293701,0.146606907248497,0.39441385865211487
1751214591560639000,8.566638916015625,0.3358243703842163,-0.16112112998962402,0.3645864725112915
1751214591570633000,8.576633056640626,0.37204334139823914,-0.4199801981449127,0.2942790687084198
1751214591580627000,8.586626953125,0.41784965991973877,-0.6032055616378784,0.237820103764534
1751214591590620700,8.59662060546875,0.47324338555336,-0.7299718856811523,0.23568958044052124
1751214591600614700,8.60661474609375,0.4902876019477844,-0.8599340915679932,0.29108327627182007
1751214591610608600,8.616608642578125,0.44235071539878845,-0.999483585357666,0.3635212182998657
1751214591620602400,8.626602294921875,0.3848264813423157,-1.1060099601745605,0.37736964225769043
1751214591630596400,8.636596435546876,0.34860754013061523,-1.1315762996673584,0.27190855145454407
1751214591640590300,8.64659033203125,0.29108327627182007,-1.049551010131836,0.06524740159511566
1751214591650584000,8.656583984375,0.1952095627784729,-0.9025446176528931,-0.16484954953193665
1751214591660578000,8.666578125,0.08548741042613983,-0.7587340474128723,-0.3842938542366028
1751214591670572000,8.676572021484375,-0.015712639316916466,-0.6117276549339294,-0.580302357673645
1751214591680566000,8.68656591796875,-0.09986846894025803,-0.47430863976478577,-0.7582014203071594
1751214591690559700,8.696559814453124,-0.19254639744758606,-0.3411506712436676,-0.9147951602935791
1751214591700553700,8.7065537109375,-0.28628960251808167,-0.25486433506011963,-1.0596710443496704
1751214591710547700,8.716547607421875,-0.39068543910980225,-0.19307903945446014,-1.1789805889129639
1751214591720541400,8.72654150390625,-0.5153213143348694,-0.10586057603359222,-1.2460922002792358
1751214591730535400,8.736535400390625,-0.6325002908706665,0.028362644836306572,-1.2514184713363647
1751214591740529400,8.746529296875,-0.7379614114761353,0.22330589592456818,-1.2024163007736206
1751214591750523100,8.756523193359374,-0.8498140573501587,0.5151881575584412,-1.1076078414916992
1751214591760517000,8.76651708984375,-0.9744499325752258,0.9008135795593262,-0.9989509582519531
1751214591770511000,8.776510986328125,-1.0937594175338745,1.3684643507003784,-0.9020119905471802
1751214591780505000,8.786505126953125,-1.2162647247314453,1.873399257659912,-0.8338351249694824
1751214591790498800,8.796498779296876,-1.3728585243225098,2.3325278759002686,-0.7954856157302856
1751214591800492800,8.806492919921874,-1.510277509689331,2.622279644012451,-0.7805719375610352
1751214591810486800,8.81648681640625,-1.6125428676605225,2.6648900508880615,-0.7741803526878357
1751214591820480500,8.82648046875,-1.6860460042953491,2.508296489715576,-0.7677887678146362
1751214591830474500,8.836474609375,-1.7169386148452759,2.200435161590576,-0.7624624371528625
1751214591840468500,8.846468505859375,-1.7233302593231201,1.7636771202087402,-0.7411571741104126
1751214591850462200,8.856462158203126,-1.698829174041748,1.2693947553634644,-0.7038729786872864
1751214591860456200,8.866456298828124,-1.661544919013977,0.8187882900238037,-0.6548708081245422
1751214591870450200,8.8764501953125,-1.6423702239990234,0.48323023319244385,-0.5749760270118713
1751214591880444000,8.88644384765625,-1.6050859689712524,0.20626167953014374,-0.4588623046875
1751214591890438000,8.89643798828125,-1.5699323415756226,0.019840534776449203,-0.28309381008148193
1751214591900432000,8.906431884765626,-1.5507575273513794,-0.006791055668145418,-0.10306425392627716
1751214591910425900,8.91642578125,-1.5454312562942505,-0.00892158318310976,-0.0007989477599039674
1751214591920419600,8.926419677734375,-1.5347785949707031,0.027297381311655045,0.008788425475358963
1751214591930413600,8.93641357421875,-1.5507575273513794,0.118910051882267,-0.06151897460222244
1751214591940407600,8.946407470703125,-1.5965639352798462,0.19667430222034454,-0.16484954953193665
1751214591950401300,8.9564013671875,-1.6785892248153687,0.22543641924858093,-0.2607232630252838
1751214591960395300,8.966395263671876,-1.7755281925201416,0.19987009465694427,-0.24580958485603333
1751214591970389200,8.97638916015625,-1.857553482055664,0.15406376123428345,-0.10732531547546387
1751214591980383000,8.986383056640625,-1.8990987539291382,0.07097318768501282,0.07590003311634064
1751214591990377000,8.996376953125,-1.9182734489440918,0.0070573715493083,0.2143843024969101
1751214592000371000,9.006370849609375,-1.9257303476333618,0.039015281945466995,0.26871275901794434
1751214592010365000,9.016364990234376,-1.9214693307876587,0.11251847445964813,0.23568958044052124
1751214592020358700,9.026358642578124,-1.9161429405212402,0.1700427085161209,0.15686006844043732
1751214592030352600,9.0363525390625,-1.9150776863098145,0.18176060914993286,0.11424952745437622
1751214592040346600,9.0463466796875,-1.9108166694641113,0.13062795996665955,0.13129374384880066
1751214592050340400,9.05634033203125,-1.904425024986267,0.050733182579278946,0.16857796907424927
1751214592060334300,9.066334228515625,-1.8895113468170166,-0.016378428786993027,0.19627483189105988
1751214592070328300,9.076328369140626,-1.8735324144363403,-0.03874896466732025,0.1898832470178604
1751214592080322000,9.086322021484374,-1.8618144989013672,-0.04727107286453247,0.14620743691921234
1751214592090316000,9.09631591796875,-1.850096583366394,-0.05259739235043526,0.08335687965154648
1751214592100310000,9.10631005859375,-1.8341176509857178,-0.03768370300531387,0.03968106955289841
1751214592110304000,9.116303955078125,-1.7968333959579468,-0.04620581120252609,0.019441060721874237
1751214592120297700,9.126297607421876,-1.706286072731018,-0.0739026665687561,0.011984216049313545
1751214592130291700,9.136291748046874,-1.5539532899856567,-0.1153147891163826,0.011984216049313545
1751214592140285700,9.14628564453125,-1.4293174743652344,-0.15686006844043732,0.017310533672571182
1751214592150279400,9.156279541015625,-1.4112080335617065,-0.21118851006031036,0.023702116683125496
1751214592160273400,9.1662734375,-1.4005553722381592,-0.3166496157646179,0.02157158963382244
1751214592170267400,9.176267333984375,-1.3632711172103882,-0.43702441453933716,0.02157158963382244
1751214592180261000,9.18626123046875,-1.3270522356033325,-0.5499423742294312,0.02583264373242855
1751214592190255000,9.196255126953124,-1.262071132659912,-0.6149234175682068,0.01837579719722271
1751214592200249000,9.2062490234375,-1.1821763515472412,-0.6447508335113525,0.004527370445430279
1751214592210242800,9.216242919921875,-1.0831067562103271,-0.6735129356384277,-0.002929474925622344
1751214592220236800,9.22623681640625,-0.9627320170402527,-0.718254029750824,0.008788425475358963
1751214592230230800,9.236230712890626,-0.835965633392334,-0.7587340474128723,0.040746334940195084
1751214592240224800,9.246224853515624,-0.7081339955329895,-0.7608645558357239,0.07590003311634064
1751214592250218500,9.256218505859374,-0.5909550189971924,-0.7406245470046997,0.09294424951076508
1751214592260212500,9.26621240234375,-0.4822981059551239,-0.7065361142158508,0.10892320424318314
1751214592270206500,9.27620654296875,-0.383228600025177,-0.6447508335113525,0.14088112115859985
1751214592280200200,9.2862001953125,-0.2937464416027069,-0.5510076284408569,0.1909485012292862
1751214592290194200,9.296194091796876,-0.20639483630657196,-0.44767704606056213,0.23888537287712097
1751214592300188200,9.306188232421874,-0.12117373943328857,-0.34221595525741577,0.26871275901794434
1751214592310182000,9.316181884765625,-0.03808317333459854,-0.23568958044052124,0.2857569754123688
1751214592320175900,9.32617578125,0.04181159660220146,-0.1525990217924118,0.3134538233280182
1751214592330169900,9.336169921875,0.11957584321498871,-0.09294424951076508,0.360325425863266
1751214592370145500,9.3761455078125,0.44128546118736267,-0.030226856470108032,0.5147886276245117
1751214592380139300,9.38613916015625,0.5328981280326843,-0.06218476593494415,0.5179844498634338
1751214592390133200,9.39613330078125,0.6159886717796326,-0.11318425834178925,0.49880969524383545
1751214592400127200,9.406127197265626,0.6426202654838562,-0.17283903062343597,0.44767704606056213
1751214592410121000,9.416120849609374,0.629837155342102,-0.22290641069412231,0.3869570195674896
1751214592420115000,9.426114990234375,0.5957486629486084,-0.24527695775032043,0.38163068890571594
1751214592430109000,9.43610888671875,0.5850960612297058,-0.15686006844043732,0.4018706977367401
1751214592440102700,9.4461025390625,0.6372939944267273,-0.02277000993490219,0.4487423002719879
1751214592450096600,9.4560966796875,0.7384940385818481,0.16258586943149567,0.4913528561592102
1751214592460090600,9.466090576171876,0.8460856676101685,0.401204913854599,0.4902876019477844
1751214592470084600,9.476084716796874,0.9376983046531677,0.6142576336860657,0.4966791868209839
1751214592480078300,9.486078369140625,1.006940484046936,0.7740471959114075,0.5307676196098328
1751214592490072300,9.496072265625,1.0591384172439575,0.8816388249397278,0.5637907981872559
1751214592500066300,9.50606640625,1.1155973672866821,0.872051477432251,0.5531381368637085
1751214592510060000,9.51606005859375,1.170991063117981,0.7058703303337097,0.5499423742294312
1751214592520054000,9.526053955078124,1.219993233680725,0.48429548740386963,0.5787044763565063
1751214592530048000,9.536048095703125,1.262603759765625,0.29893961548805237,0.6522076725959778
1751214592540041700,9.546041748046875,1.3179974555969238,0.1796300858259201,0.7693866491317749
1751214592550035700,9.55603564453125,1.371260643005371,0.19134798645973206,0.8535425066947937
1751214592560029700,9.56602978515625,1.3691301345825195,0.2275669425725937,0.8407593369483948
1751214592570023700,9.576023681640624,1.3499553203582764,0.1806953400373459,0.7629950642585754
1751214592580017400,9.586017333984374,1.3925658464431763,0.06777740269899368,0.6713824272155762
1751214592590011400,9.596011474609375,1.4458290338516235,-0.08668582886457443,0.6181192398071289
1751214592600005400,9.60600537109375,1.456481695175171,-0.23888537287712097,0.6042708158493042
1751214592609999000,9.6159990234375,1.4618080854415894,-0.3464770019054413,0.6170539855957031
1751214592619993000,9.6259931640625,1.493765950202942,-0.38056543469429016,0.6074665784835815
1751214592629987000,9.635987060546874,1.5385069847106934,-0.3976096510887146,0.5691171288490295
1751214592639980800,9.645980712890625,1.572595477104187,-0.4444812536239624,0.5190497040748596
1751214592649974800,9.655974853515625,1.6045533418655396,-0.5584644675254822,0.4775044322013855
1751214592659968800,9.66596875,1.6258586645126343,-0.7235803008079529,0.44767704606056213
1751214592669962800,9.675962646484376,1.6215975284576416,-0.8673909306526184,0.42424124479293823
1751214592679956500,9.68595654296875,1.5683343410491943,-0.9430246353149414,0.3976096510887146
1751214592689950500,9.695950439453124,1.4873743057250977,-0.915327787399292,0.3635212182998657
1751214592699944400,9.7059443359375,1.4128059148788452,-0.793887734413147,0.3219759464263916
1751214592709938200,9.715938232421875,1.3616732358932495,-0.6522076725959778,0.2804306447505951
1751214592719932200,9.72593212890625,1.3361068964004517,-0.5105276107788086,0.23355905711650848
1751214592729926100,9.735926025390626,1.3030837774276733,-0.34221595525741577,0.19840535521507263
1751214592739920000,9.745919921875,1.2881700992584229,-0.17496955394744873,0.17283903062343597
1751214592749913900,9.755913818359375,1.2945616245269775,-0.014247900806367397,0.16431692242622375
1751214592759907800,9.765907958984375,1.292431116104126,0.1284974217414856,0.19201377034187317
1751214592769901600,9.775901611328125,1.2647342681884766,0.24035011231899261,0.2559295892715454
1751214592779895600,9.7858955078125,1.225319504737854,0.33728909492492676,0.3368896245956421
1751214592789889500,9.7958896484375,1.238102674484253,0.4342280924320221,0.4114580750465393
1751214592799883500,9.805883544921874,1.2647342681884766,0.5313002467155457,0.46046021580696106
1751214592809877200,9.815877197265625,1.2668647766113281,0.6238450407981873,0.47963494062423706
1751214592819871200,9.825871337890625,1.2391679286956787,0.713327169418335,0.4668518006801605
1751214592829865200,9.835865234375,1.205079436302185,0.788960874080658,0.4338286221027374
1751214592839859000,9.84585888671875,1.158207893371582,0.8294408917427063,0.3848264813423157
1751214592849853000,9.85585302734375,1.096422553062439,0.8390282988548279,0.3304980397224426
1751214592859847000,9.865846923828125,1.019723653793335,0.8411588072776794,0.2761695981025696
1751214592869840600,9.875840576171875,0.9526119828224182,0.8060051202774048,0.20586219429969788
1751214592879834600,9.885834716796875,0.9078709483146667,0.7250450849533081,0.12383689731359482
1751214592899822600,9.905822509765626,0.856738269329071,0.511992335319519,-0.056192658841609955
1751214592909816300,9.91581640625,0.8364982604980469,0.35113751888275146,-0.16591481864452362
1751214592919810300,9.925810302734375,0.8088014125823975,0.18815219402313232,-0.2788327634334564
1751214592929804300,9.93580419921875,0.7629950642585754,0.04008054360747337,-0.38642439246177673
1751214592939798000,9.945798095703125,0.696948766708374,-0.08668582886457443,-0.48442864418029785
1751214592949792000,9.9557919921875,0.6202497482299805,-0.1760348230600357,-0.5653886795043945
1751214592959786000,9.965785888671874,0.5584644675254822,-0.2143843024969101,-0.6250434517860413
1751214592969779700,9.97577978515625,0.5510076284408569,-0.2420811653137207,-0.6687192320823669
1751214592979773700,9.985773681640625,0.46152547001838684,-0.19201377034187317,-0.6516750454902649
1751214592989767700,9.995767578125,0.3326285779476166,-0.1346226930618286,-0.588824450969696
1751214592999761400,10.005761474609375,0.20160114765167236,-0.0918789878487587,-0.47058022022247314
1751214593009755400,10.01575537109375,0.1387505829334259,-0.08668582886457443,-0.30972540378570557
1751214593019749400,10.025749267578124,0.12170637398958206,-0.07816372066736221,-0.10306425392627716
1751214593029743400,10.035743408203125,0.05566002428531647,-0.14194637537002563,0.13022847473621368
1751214593039737000,10.045737060546875,-0.0018642114009708166,-0.2239716798067093,0.38163068890571594
1751214593049731000,10.05573095703125,-0.03169159218668938,-0.22716747224330902,0.6266413331031799
1751214593059725000,10.06572509765625,-0.05086633935570717,-0.14407691359519958,0.8407593369483948
1751214593069718800,10.07571875,-0.1009337306022644,0.06032055243849754,1.049551010131836
1751214593079712800,10.085712646484374,-0.11265163123607635,0.3543333113193512,1.195492148399353
1751214593089706800,10.095706787109375,-0.09241162240505219,0.6749776601791382,1.2455594539642334
1751214593099700500,10.105700439453125,-0.07856319099664688,0.8954872488975525,1.238102674484253
1751214593109694500,10.115694580078125,-0.04767054691910744,0.9008135795593262,1.1773825883865356
1751214593119688400,10.1256884765625,-0.016777902841567993,0.81346195936203,1.0080057382583618
1751214593129682400,10.135682373046874,0.032224226742982864,0.5940176248550415,0.6916224360466003
1751214593139676200,10.14567626953125,0.06418213248252869,0.36498594284057617,0.2996053993701935
1751214593149670100,10.155670166015625,0.06631266325712204,0.23289325833320618,-0.060453712940216064
1751214593159664000,10.1656640625,0.04181159660220146,0.18602167069911957,-0.3075948655605316
1751214593169657900,10.175657958984376,0.03435475379228592,0.16045533120632172,-0.42903491854667664
1751214593179651800,10.18565185546875,0.06311687082052231,0.11358373612165451,-0.46205809712409973
1751214593189645800,10.195645751953125,0.10466215014457703,0.056059498339891434,-0.4269044101238251
1751214593199639600,10.2056396484375,0.14940322935581207,0.003861580742523074,-0.3406180441379547
1751214593209633500,10.215633544921875,0.20586219429969788,-0.04194475710391998,-0.23835274577140808
1751214593219627500,10.22562744140625,0.26764747500419617,-0.08029424399137497,-0.14141374826431274
1751214593229621200,10.235621337890626,0.3028011918067932,-0.10586057603359222,-0.05193160101771355
1751214593239615200,10.245615234375,0.2996053993701935,-0.11957584321498871,0.026897907257080078
1751214593249609200,10.255609130859375,0.28256118297576904,-0.1069258376955986,0.07483477145433426
1751214593259603200,10.265603271484375,0.2804306447505951,-0.04407528415322304,0.08016108721494675
1751214593269597000,10.275596923828125,0.2804306447505951,0.06032055243849754,0.027963170781731606
1751214593279591000,10.2855908203125,0.2623211741447449,0.16258586943149567,-0.06897582113742828
1751214593289585000,10.2955849609375,0.24101589620113373,0.18708692491054535,-0.204264298081398
1751214593299578600,10.30557861328125,0.21971063315868378,0.14021532237529755,-0.36618438363075256
1751214593309572600,10.315572509765625,0.20160114765167236,0.07736477255821228,-0.5195823311805725
1751214593319566600,10.325566650390625,0.1909485012292862,0.07097318768501282,-0.6548708081245422
1751214593329560300,10.335560302734375,0.2090579867362976,0.15086796879768372,-0.760331928730011
1751214593339554300,10.34555419921875,0.2623211741447449,0.2637858986854553,-0.8135951161384583
1751214593349548300,10.35554833984375,0.34860754013061523,0.4097270369529724,-0.7944203615188599
1751214593359542300,10.365542236328125,0.44767704606056213,0.504668653011322,-0.6889592409133911
1751214593369536000,10.375535888671875,0.5030707716941833,0.4257059693336487,-0.49827706813812256
1751214593379530000,10.385530029296875,0.4870918095111847,0.21052272617816925,-0.18935060501098633
1751214593389524000,10.39552392578125,0.4018706977367401,-0.14727269113063812,0.16005586087703705
1751214593399517700,10.405517578125,0.3028011918067932,-0.6500771641731262,0.44767704606056213
1751214593409511700,10.41551171875,0.20373167097568512,-1.1837742328643799,0.6522076725959778
1751214593419505700,10.425505615234375,0.11318425834178925,-1.5864439010620117,0.7448856234550476
1751214593429499400,10.43549951171875,0.06631266325712204,-1.7494292259216309,0.680969774723053
1751214593439493400,10.445493408203125,0.056725289672613144,-1.6034880876541138,0.43702441453933716
1751214593449487400,10.4554873046875,0.016245270147919655,-1.2412984371185303,0.01837579719722271
1751214593459481300,10.4654814453125,-0.07962846010923386,-0.7896266579627991,-0.5078644156455994
1751214593469475000,10.47547509765625,-0.20106850564479828,-0.3613906800746918,-1.007473111152649
1751214593479469000,10.485468994140625,-0.32463908195495605,-0.016378428786993027,-1.3803153038024902
1751214593489463000,10.495463134765625,-0.4439486265182495,0.2744385600090027,-1.5795196294784546
1751214593499456800,10.505456787109376,-0.5600623488426208,0.5631250143051147,-1.6125428676605225
1751214593519444700,10.52544482421875,-0.8551403880119324,1.1969568729400635,-1.3824459314346313
1751214593529438500,10.5354384765625,-1.0681930780410767,1.5580812692642212,-1.2120037078857422
1751214593539432400,10.545432373046875,-1.2982900142669678,1.8712687492370605,-1.0309089422225952
1751214593549426400,10.555426513671875,-1.5283869504928589,2.053428888320923,-0.8625972270965576
1751214593559420200,10.565420166015626,-1.7457008361816406,2.077929973602295,-0.7283740043640137
1751214593569414100,10.5754140625,-1.8969682455062866,1.9469025135040283,-0.6516750454902649
1751214593579408100,10.585408203125,-1.971536636352539,1.6624770164489746,-0.6282392144203186
1751214593589402000,10.595402099609375,-2.0152125358581543,1.271525263786316,-0.6048034429550171
1751214593599395800,10.605395751953125,-2.071671485900879,0.926379919052124,-0.5962813496589661
1751214593609389800,10.615389892578126,-2.1366524696350098,0.5641902685165405,-0.6026729345321655
1751214593619383800,10.6253837890625,-2.1771326065063477,0.16365112364292145,-0.5973466038703918
1751214593629377500,10.63537744140625,-2.181393623352051,-0.23888537287712097,-0.5824328660964966
1751214593639371500,10.64537158203125,-2.1675450801849365,-0.5755086541175842,-0.5430181622505188
1751214593649365500,10.655365478515625,-2.125999927520752,-0.823715090751648,-0.48442864418029785
1751214593659359200,10.665359130859375,-2.0439746379852295,-1.0186583995819092,-0.4258391261100769
1751214593669353200,10.675353271484376,-1.9406440258026123,-1.1400984525680542,-0.393881231546402
1751214593679347200,10.68534716796875,-1.8543577194213867,-1.128380537033081,-0.41518649458885193
1751214593689341200,10.695341064453125,-1.7925723791122437,-0.9590035676956177,-0.5057339072227478
1751214593699335000,10.7053349609375,-1.7520923614501953,-0.668186604976654,-0.601607620716095
1751214593709329000,10.715328857421875,-1.741439700126648,-0.406131774187088,-0.6101297736167908
1751214593719323000,10.725322998046876,-1.761679768562317,-0.29108327627182007,-0.5036033987998962
1751214593729316600,10.735316650390626,-1.7883113622665405,-0.3560643792152405,-0.32676962018013
1751214593739310600,10.745310546875,-1.8234649896621704,-0.47324338555336,-0.12650005519390106
1751214593749304600,10.7553046875,-1.8522272109985352,-0.4828307330608368,0.02583264373242855
1751214593759298300,10.76529833984375,-1.862879753112793,-0.33902016282081604,0.08122635632753372
1751214593769292300,10.775292236328125,-1.8788588047027588,-0.09414267539978027,0.05352949723601341
1751214593779286300,10.785286376953126,-1.912947177886963,0.09760478138923645,0.01837579719722271
1751214593789280000,10.795280029296874,-1.9800587892532349,0.15086796879768372,0.016245270147919655
1751214593799274000,10.80527392578125,-2.041844129562378,0.11038794368505478,0.03861580789089203
1751214593809268000,10.81526806640625,-2.095107316970825,0.10719215124845505,0.06524740159511566
1751214593819262000,10.825261962890625,-2.1132166385650635,0.11464899778366089,0.060986343771219254
1751214593829255700,10.835255615234376,-2.090846300125122,0.12423637509346008,0.04181159660220146
1751214593839249700,10.845249755859374,-2.041844129562378,0.08695214241743088,0.0354200154542923
1751214593849243600,10.85524365234375,-1.9470356702804565,0.04966791719198227,0.07909582555294037
1751214593859237400,10.8652373046875,-1.8128124475479126,0.008122635073959827,0.13555480539798737
1751214593869231400,10.8752314453125,-1.6658060550689697,-0.03981423005461693,0.18455693125724792
1751214593879225300,10.885225341796875,-1.5124080181121826,-0.11744531989097595,0.22503694891929626
1751214593889219000,10.895218994140626,-1.3494226932525635,-0.21012325584888458,0.24101589620113373
1751214593899213000,10.905213134765624,-1.188567876815796,-0.3518033027648926,0.23036326467990875
1751214593909207000,10.91520703125,-1.0309089422225952,-0.5179844498634338,0.1994706094264984
1751214593919200800,10.92520068359375,-0.8796414732933044,-0.696948766708374,0.17070849239826202
1751214593929194800,10.93519482421875,-0.7294392585754395,-0.8354330062866211,0.15579481422901154
1751214593939188500,10.9451884765625,-0.5834981799125671,-0.8961530327796936,0.14407691359519958
1751214593949182500,10.955182373046876,-0.44714441895484924,-0.8972182869911194,0.12064110487699509
1751214593959176200,10.96517626953125,-0.32037803530693054,-0.8727172613143921,0.08122635632753372
1751214593969170200,10.975170166015625,-0.21065588295459747,-0.8471509218215942,0.04181159660220146
1751214593979164000,10.985163818359375,-0.10199899226427078,-0.7896266579627991,0.015180006623268127
1751214593989158000,10.995157958984375,-0.0007989477599039674,-0.7012097835540771,0.004527370445430279
1751214593999151600,11.005151611328126,0.09507478028535843,-0.5904223918914795,0.010918952524662018
1751214594009145600,11.0151455078125,0.18775272369384766,-0.45193809270858765,0.040746334940195084
1751214594019139300,11.025139404296874,0.28256118297576904,-0.2761695981025696,0.09614004194736481
1751214594029133300,11.03513330078125,0.39015281200408936,-0.07070687413215637,0.15046848356723785
1751214594039127000,11.045126953125,0.5211802124977112,0.16258586943149567,0.19307903945446014
1751214594049121000,11.05512109375,0.6703171730041504,0.4235754609107971,0.21971063315868378
1751214594059114800,11.06511474609375,0.8428898453712463,0.6440850496292114,0.23675484955310822
1751214594069108700,11.075108642578124,1.0303763151168823,0.7729819416999817,0.24101589620113373
1751214594079102500,11.0851025390625,1.2274500131607056,0.7921566963195801,0.2239716798067093
1751214594089096400,11.095096435546875,1.4255890846252441,0.7016092538833618,0.14407691359519958
1751214594099090200,11.105090087890625,1.5736607313156128,0.40866175293922424,0.010918952524662018
1751214594109084200,11.115084228515625,1.66207754611969,0.011318426579236984,-0.06471476703882217
1751214594119078000,11.125077880859376,1.7345155477523804,-0.0918789878487587,0.03009369783103466
1751214594129071600,11.135071533203124,1.8144103288650513,0.19560903310775757,0.33475908637046814
1751214594139065600,11.145065673828125,1.9060230255126953,0.7996135354042053,0.726776123046875
1751214594149059300,11.155059326171875,1.9827219247817993,1.5612770318984985,1.012266755104065
1751214594159053300,11.16505322265625,2.0338547229766846,2.028927803039551,1.0953572988510132
1751214594169047300,11.17504736328125,2.0647473335266113,2.023601531982422,1.0783131122589111
1751214594179041300,11.185041259765624,2.116945266723633,1.6848475933074951,1.0484857559204102
1751214594189035000,11.195034912109374,2.110553503036499,1.2811126708984375,1.0655299425125122
1751214594199029000,11.205029052734375,1.95502507686615,0.9178577661514282,1.182708978652954
1751214594209023000,11.21502294921875,1.736646056175232,0.6408892273902893,1.3233237266540527
1751214594219016700,11.2250166015625,1.4692648649215698,0.4864259958267212,1.3499553203582764
1751214594229010700,11.2350107421875,1.2636690139770508,0.5249086618423462,1.1358373165130615
1751214594239004700,11.245004638671874,1.163534164428711,0.4768386483192444,0.8737825155258179
1751214594248998400,11.254998291015625,1.165664792060852,0.22117535769939423,0.7139929533004761
1751214594258992400,11.264992431640625,1.2508858442306519,-0.12064110487699509,0.6266413331031799
1751214594268986400,11.274986328125,1.3680648803710938,-0.46152547001838684,0.5552686452865601
1751214594278980400,11.28498046875,1.460742712020874,-0.8151929974555969,0.4679170548915863
1751214594288974000,11.29497412109375,1.5044186115264893,-1.13370680809021,0.3518033027648926
1751214594298968000,11.304968017578124,1.5214627981185913,-1.3371721506118774,0.22290641069412231
1751214594308962000,11.314962158203125,1.5172017812728882,-1.4245238304138184,0.10466215014457703
1751214594318955800,11.324955810546875,1.5257238149642944,-1.4532859325408936,0.032224226742982864
1751214594328949800,11.33494970703125,1.5640733242034912,-1.4660691022872925,-0.003994738683104515
1751214594368925400,11.374925537109375,1.4117406606674194,-0.435959130525589,0.10892320424318314
1751214594378919200,11.384919189453125,1.2892353534698486,-0.004660528618842363,0.19201377034187317
1751214594388913200,11.3949130859375,1.2189279794692993,0.28189539909362793,0.2889527678489685
1751214594398907100,11.4049072265625,1.188035249710083,0.4022701680660248,0.3795001804828644
1751214594408901000,11.414901123046874,1.1667300462722778,0.4001396596431732,0.45193809270858765
1751214594418894800,11.424894775390625,1.1773825883865356,0.3436806797981262,0.492418110370636
1751214594428888800,11.434888916015625,1.2136015892028809,0.2414153665304184,0.4870918095111847
1751214594438882800,11.4448828125,1.2668647766113281,0.07523424178361893,0.4530033767223358
1751214594448876500,11.45487646484375,1.3126710653305054,-0.03768370300531387,0.3922833502292633
1751214594458870500,11.46487060546875,1.3041490316390991,-0.06218476593494415,0.3166496157646179
1751214594468864500,11.474864501953125,1.2157320976257324,0.013448953628540039,0.27297380566596985
1751214594478858200,11.484858154296875,1.0889657735824585,0.2169143110513687,0.24421168863773346
1751214594488852200,11.494852294921875,0.9941573143005371,0.5141228437423706,0.2474074810743332
1751214594498846200,11.50484619140625,0.9536772966384888,0.7559376955032349,0.2793653905391693
1751214594508840200,11.514840087890626,0.9472857117652893,0.8550072312355042,0.32517173886299133
1751214594518834000,11.524833984375,0.9355677962303162,0.8390282988548279,0.3837612271308899
1751214594528828000,11.534827880859375,0.8769782781600952,0.7388935089111328,0.4402202069759369
1751214594538822000,11.54482177734375,0.772582471370697,0.6270408034324646,0.4828307330608368
1751214594548815600,11.554815673828125,0.6564686894416809,0.5503418445587158,0.5158539414405823
1751214594558809600,11.5648095703125,0.5478118062019348,0.5258407592773438,0.5233107805252075
1751214594568803600,11.574803466796874,0.45726442337036133,0.5950828790664673,0.4828307330608368
1751214594578797300,11.58479736328125,0.3933486044406891,0.8113313913345337,0.4114580750465393
1751214594588791300,11.594791259765625,0.32943278551101685,0.8933567404747009,0.3518033027648926
1751214594598785300,11.604785400390625,0.2655169665813446,0.49814391136169434,0.2996053993701935
1751214594608779300,11.614779296875,0.2090579867362976,0.03262370079755783,0.22716747224330902
1751214594618773000,11.62477294921875,0.1771000772714615,-0.2644517123699188,0.10679268091917038
1751214594628767000,11.63476708984375,0.17496955394744873,-0.4593949317932129,-0.025300011038780212
1751214594638761000,11.644760986328125,0.20266640186309814,-0.5573992133140564,-0.12543480098247528
1751214594648754700,11.654754638671875,0.23462431132793427,-0.5712476372718811,-0.18828535079956055
1751214594658748700,11.664748779296875,0.2474074810743332,-0.5499423742294312,-0.2181127369403839
1751214594668742700,11.67474267578125,0.24847275018692017,-0.4870918095111847,-0.21491694450378418
1751214594678736400,11.684736328125,0.22929799556732178,-0.4082622826099396,-0.1861548274755478
1751214594688730400,11.69473046875,0.18775272369384766,-0.3592601716518402,-0.12543480098247528
1751214594698724400,11.704724365234375,0.1249021589756012,-0.3091927766799927,-0.04554001986980438
1751214594708718000,11.714718017578125,0.06524740159511566,-0.24953800439834595,0.03328948840498924
1751214594718712000,11.724712158203126,0.023702116683125496,-0.15899059176445007,0.11211899667978287
1751214594728706000,11.7347060546875,0.0002663159102667123,-0.0270310640335083,0.17816534638404846
1751214594738700000,11.744699951171874,-0.019973693415522575,0.11784479022026062,0.22290641069412231
1751214594748693800,11.75469384765625,-0.028495801612734795,0.2414153665304184,0.22503694891929626
1751214594758687700,11.764687744140625,-0.014647374860942364,0.3394196331501007,0.17283903062343597
1751214594768681700,11.774681640625,-0.0018642114009708166,0.39907440543174744,0.10466215014457703
1751214594778675500,11.784675537109376,0.0141147430986166,0.4065312445163727,0.0354200154542923
1751214594788669400,11.79466943359375,0.03328948840498924,0.392682820558548,-0.03701791167259216
1751214594798663400,11.804663330078125,0.05566002428531647,0.38416069746017456,-0.10306425392627716
1751214594808657200,11.8146572265625,0.11105373501777649,0.3862912356853485,-0.16058848798274994
1751214594818651100,11.824651123046875,0.171773761510849,0.4161186218261719,-0.2000032514333725
1751214594828645000,11.83464501953125,0.19840535521507263,0.4523375630378723,-0.22450430691242218
1751214594838639000,11.84463916015625,0.20373167097568512,0.48855653405189514,-0.24048326909542084
1751214594848632800,11.8546328125,0.1909485012292862,0.5386239290237427,-0.24154852330684662
1751214594858626800,11.864626708984375,0.18029586970806122,0.600409209728241,-0.2191779911518097
1751214594868620800,11.874620849609375,0.18455693125724792,0.6803039908409119,-0.1531316488981247
1751214594878614500,11.884614501953125,0.22290641069412231,0.7740471959114075,-0.06897582113742828
1751214594888608500,11.8946083984375,0.29214856028556824,0.843289315700531,-0.0007989477599039674
1751214594898602500,11.9046025390625,0.36245596408843994,0.8613988161087036,0.02157158963382244
1751214594908596200,11.91459619140625,0.42317599058151245,0.8518114686012268,-0.007190529722720385
1751214594918590200,11.924590087890625,0.4679170548915863,0.8028092980384827,-0.07856319099664688
1751214594928584200,11.934584228515625,0.4913528561592102,0.7058703303337097,-0.1627190262079239
1751214594938578000,11.944577880859375,0.500940203666687,0.5258407592773438,-0.2330264151096344
1751214594948572000,11.954572021484376,0.47537389397621155,0.2414153665304184,-0.2564622163772583
1751214594958566000,11.96456591796875,0.4082622826099396,-0.11318425834178925,-0.21172115206718445
1751214594968559900,11.974559814453125,0.31451907753944397,-0.4785696864128113,-0.12863057851791382
1751214594978553600,11.9845537109375,0.22290641069412231,-0.7779088020324707,-0.04660528525710106
1751214594988547600,11.994547607421875,0.14620743691921234,-0.9749825596809387,0.001331579522229731
1751214594998541600,12.00454150390625,0.07803056389093399,-1.0837725400924683,0.0034621069207787514
1751214595008535300,12.014535400390624,0.0141147430986166,-1.1326415538787842,-0.040213704109191895
1751214595018529300,12.024529296875,-0.05512739345431328,-1.1400984525680542,-0.10626004636287689
1751214595028523300,12.034523193359375,-0.1392832249403,-1.108140468597412,-0.16911059617996216
1751214595038517000,12.04451708984375,-0.2287653684616089,-1.0145304203033447,-0.22983063757419586
1751214595048511000,12.054510986328125,-0.3139864504337311,-0.8599340915679932,-0.2905506491661072
1751214595058505000,12.0645048828125,-0.3789675533771515,-0.6692518591880798,-0.36724963784217834
1751214595068499000,12.0744990234375,-0.40879490971565247,-0.5052012801170349,-0.5057339072227478
1751214595078492700,12.08449267578125,-0.40027281641960144,-0.36778226494789124,-0.760331928730011
1751214595088486700,12.094486572265625,-0.49827706813812256,-0.12170637398958206,-1.0948246717453003
1751214595098480600,12.104480712890625,-0.6910898089408875,0.22330589592456818,-1.3994901180267334
1751214595108474400,12.114474365234376,-0.8242477178573608,0.4949481189250946,-1.5859112739562988
1751214595118468400,12.12446826171875,-0.8913593292236328,0.7058703303337097,-1.6253260374069214
1751214595128462300,12.13446240234375,-0.9446225166320801,0.9519461989402771,-1.540104866027832
1751214595138456000,12.1444560546875,-1.019191026687622,1.3556811809539795,-1.3899027109146118
1751214595148450000,12.154449951171875,-1.1374351978302002,1.936249852180481,-1.2215911149978638
1751214595158444000,12.164444091796875,-1.3132038116455078,2.607365846633911,-1.066062569618225
1751214595168437800,12.174437744140626,-1.527321696281433,3.1804778575897217,-0.927578330039978
1751214595178431700,12.184431640625,-1.719069242477417,3.471294641494751,-0.7709845304489136
1751214595188425700,12.19442578125,-1.8479660749435425,3.332810401916504,-0.5739107728004456
1751214595198419700,12.204419677734375,-1.8522272109985352,2.8598334789276123,-0.35340121388435364
1751214595208413400,12.214413330078125,-1.782984972000122,2.132258415222168,-0.12223900109529495
1751214595218407400,12.224407470703126,-1.7403744459152222,1.3354411125183105,0.1291632205247879
1751214595228401400,12.2344013671875,-1.6508923768997192,0.47470811009407043,0.39121806621551514
1751214595238395100,12.24439501953125,-1.5880417823791504,-0.15579481422901154,0.5829655528068542
1751214595248389000,12.25438916015625,-1.5635406970977783,-0.5201149582862854,0.6234455704689026
1751214595258383000,12.264383056640625,-1.5741933584213257,-0.6426202654838562,0.5403549671173096
1751214595268376800,12.274376953125,-1.6327828168869019,-0.5254412889480591,0.36245596408843994
1751214595278370800,12.284370849609376,-1.7073513269424438,-0.27830013632774353,0.12277163565158844
1751214595288364800,12.29436474609375,-1.7542228698730469,-0.06737792491912842,-0.1296958476305008
1751214595298358800,12.30435888671875,-1.7744629383087158,0.003861580742523074,-0.30120328068733215
1751214595308352500,12.3143525390625,-1.7520923614501953,-0.11638005077838898,-0.3363569974899292
1751214595318346500,12.324346435546875,-1.7126775979995728,-0.43702441453933716,-0.2330264151096344
1751214595328340500,12.334340576171876,-1.706286072731018,-0.7917572259902954,-0.04980107396841049
1751214595338334200,12.344334228515624,-1.7467660903930664,-1.0261151790618896,0.11851058155298233
1751214595348328200,12.354328125,-1.8234649896621704,-1.0633994340896606,0.19414429366588593
1751214595358322200,12.364322265625,-1.9225345849990845,-0.9387635588645935,0.1249021589756012
1751214595368316000,12.37431591796875,-1.9694061279296875,-0.8439550995826721,-0.040213704109191895
1751214595378310000,12.384309814453125,-1.924665093421936,-0.8098666667938232,-0.15526217222213745
1751214595388304000,12.394303955078126,-1.853292465209961,-0.8088014125823975,-0.16378428041934967
1751214595398297900,12.4042978515625,-1.7765934467315674,-0.7789740562438965,-0.08815056830644608
1751214595408291600,12.41429150390625,-1.6913723945617676,-0.6340981721878052,-0.00612526573240757
1751214595418285600,12.42428564453125,-1.6263912916183472,-0.4391549229621887,0.03435475379228592
1751214595428279600,12.434279541015625,-1.5997596979141235,-0.30173593759536743,0.0354200154542923
1751214595438273300,12.444273193359376,-1.619999647140503,-0.25912538170814514,0.0141147430986166
1751214595448267300,12.454267333984374,-1.661544919013977,-0.2793653905391693,0.008788425475358963
1751214595458261200,12.46426123046875,-1.6966986656188965,-0.30067065358161926,0.04500738903880119
1751214595468255000,12.4742548828125,-1.719069242477417,-0.2697780132293701,0.11744531989097595
1751214595478249000,12.4842490234375,-1.736113429069519,-0.17070849239826202,0.19307903945446014
1751214595488243000,12.494242919921875,-1.7457008361816406,-0.030226856470108032,0.24847275018692017
1751214595498236700,12.504236572265626,-1.7329176664352417,0.06990792602300644,0.29108327627182007
1751214595508230700,12.514230712890624,-1.6881765127182007,0.08269108831882477,0.32410645484924316
1751214595518224600,12.524224609375,-1.6359785795211792,0.03795001655817032,0.3230412006378174
1751214595528218600,12.534218505859375,-1.5709975957870483,-0.025965800508856773,0.29534435272216797
1751214595538212400,12.54421240234375,-1.4836459159851074,-0.09933583438396454,0.24314641952514648
1751214595548206300,12.554206298828126,-1.3781847953796387,-0.20266640186309814,0.18775272369384766
1751214595558200300,12.564200439453124,-1.2439615726470947,-0.32091066241264343,0.14620743691921234
1751214595568194000,12.574194091796874,-1.1310436725616455,-0.4082622826099396,0.10146636515855789
1751214595578188000,12.58418798828125,-1.011734127998352,-0.47430863976478577,0.06205160543322563
1751214595588182000,12.59418212890625,-0.8913593292236328,-0.5744433999061584,0.026897907257080078
1751214595598175700,12.60417578125,-0.7784414291381836,-0.7001445293426514,-0.014647374860942364
1751214595608169700,12.614169677734376,-0.6740455627441406,-0.8034750819206238,-0.05193160101771355
1751214595618163700,12.624163818359374,-0.580302357673645,-0.860999345779419,-0.060453712940216064
1751214595628157700,12.63415771484375,-0.4876244366168976,-0.8599340915679932,-0.04127896577119827
1751214595638151400,12.6441513671875,-0.3981422781944275,-0.8141277432441711,-0.009321057237684727
1751214595648145400,12.6541455078125,-0.31505173444747925,-0.7448856234550476,0.02583264373242855
1751214595658139400,12.664139404296876,-0.23196116089820862,-0.6564686894416809,0.06737792491912842
1751214595668133000,12.674133056640626,-0.1573926955461502,-0.5605949759483337,0.1153147891163826
1751214595678127000,12.684127197265624,-0.08175898343324661,-0.45726442337036133,0.16325165331363678
1751214595688121000,12.69412109375,-0.010386320762336254,-0.34860754013061523,0.20799273252487183
1751214595698114800,12.70411474609375,0.056725289672613144,-0.22929799556732178,0.2569948434829712
1751214595708108800,12.71410888671875,0.11638005077838898,-0.10359688848257065,0.30067065358161926
1751214595718102800,12.724102783203126,0.16325165331363678,0.0294279083609581,0.32410645484924316
1751214595728096500,12.734096435546874,0.20586219429969788,0.14980269968509674,0.3326285779476166
1751214595738090500,12.744090576171875,0.25379905104637146,0.23928484320640564,0.3358243703842163
1751214595748084500,12.75408447265625,0.31132328510284424,0.3021354079246521,0.3411506712436676
1751214595758078500,12.764078369140625,0.37097805738449097,0.3436806797981262,0.33475908637046814
1751214595768072200,12.774072265625,0.4402202069759369,0.36072489619255066,0.303866446018219
1751214595778066200,12.784066162109376,0.5201149582862854,0.34687647223472595,0.2655169665813446
1751214595788060200,12.79406005859375,0.6127929091453552,0.29893961548805237,0.23355905711650848
