time,seconds_elapsed,z,y,x
1751214583135874300,0.141874267578125,1.0065410137176514,-0.0708400309085846,-1.2096068859100342
1751214583145683200,0.15168310546875,0.9255809187889099,-0.1454084813594818,-1.1691268682479858
1751214583155503400,0.16150341796875,0.8733830451965332,-0.3755054473876953,-1.0657962560653687
1751214583165341000,0.1713408203125,0.8392946124076843,-0.729172945022583,-0.9614004492759705
1751214583175201800,0.181201904296875,0.8488819599151611,-1.1094720363616943,-0.8612656593322754
1751214583185089800,0.19108984375,0.9319725036621094,-1.470596432685852,-0.7920235395431519
1751214583195008800,0.2010087890625,1.0587389469146729,-1.8540914058685303,-0.7536740303039551
1751214583204960000,0.2109599609375,1.2238547801971436,-2.3249378204345703,-0.6886929273605347
1751214583214944000,0.220944091796875,1.4582127332687378,-2.7553043365478516,-0.6258423924446106
1751214583224960000,0.2309599609375,1.757551908493042,-2.967291831970215,-0.6247771382331848
1751214583235005700,0.241005615234375,1.9961708784103394,-2.931072950363159,-0.7110635042190552
1751214583245077800,0.251077880859375,2.0622172355651855,-2.565687417984009,-0.8282424807548523
1751214583255172400,0.26117236328125,2.0515646934509277,-2.0319902896881104,-0.8996151685714722
1751214583265284000,0.2712841796875,2.060086727142334,-1.5867102146148682,-0.9209204316139221
1751214583275408000,0.281407958984375,2.110154151916504,-1.3800489902496338,-0.8602004051208496
1751214583285538000,0.2915380859375,2.163417339324951,-1.4620743989944458,-0.6982803344726562
1751214583295668700,0.301668701171875,2.244377374649048,-1.9339861869812012,-0.38722333312034607
1751214583305677300,0.31167724609375,2.4435815811157227,-2.769152879714966,0.062317922711372375
1751214583315671300,0.32167138671875,2.7865965366363525,-3.744934320449829,0.5544697046279907
1751214583325665000,0.3316650390625,3.2073757648468018,-4.597145080566406,0.9965541362762451
1751214583335659000,0.341658935546875,3.647329568862915,-5.243760108947754,1.3683311939239502
1751214583345652700,0.35165283203125,4.023367404937744,-5.692236423492432,1.7028238773345947
1751214583355646700,0.361646728515625,4.321641445159912,-5.991575241088867,2.019207239151001
1751214583365640400,0.371640380859375,4.551738262176514,-6.256825923919678,2.3100242614746094
1751214583375634400,0.381634521484375,4.723245620727539,-6.517815589904785,2.6210811138153076
1751214583385628200,0.391628173828125,4.7807698249816895,-6.827807426452637,2.9491822719573975
1751214583395622100,0.4016220703125,4.671047687530518,-7.148451805114746,3.229346752166748
1751214583405615900,0.411615966796875,4.3440117835998535,-7.119689464569092,3.3454604148864746
1751214583415609900,0.42160986328125,3.7975316047668457,-6.420876502990723,3.06103515625
1751214583425603600,0.431603515625,2.9964535236358643,-4.827242374420166,2.0255987644195557
1751214583435597600,0.44159765625,1.9748656749725342,-2.7158896923065186,0.5150549411773682
1751214583445591300,0.45159130859375,0.7892271876335144,-1.1392995119094849,-0.5576655268669128
1751214583455585300,0.461585205078125,-0.10239847004413605,-0.1976063996553421,-1.0008151531219482
1751214583465579000,0.4715791015625,-1.022786259651184,0.43942126631736755,-1.349156379699707
1751214583475573000,0.481572998046875,-1.973001480102539,0.8271772265434265,-1.5121417045593262
1751214583485566700,0.491566650390625,-2.450239419937134,1.1744531393051147,-1.4801838397979736
1751214583495560700,0.501560791015625,-2.6494438648223877,1.4226596355438232,-1.4929670095443726
1751214583505554400,0.511554443359375,-2.6057679653167725,1.478053331375122,-1.4940322637557983
1751214583515548400,0.52154833984375,-2.4374563694000244,1.1957584619522095,-1.4215943813323975
1751214583525542100,0.531542236328125,-2.289384603500366,0.5278381109237671,-1.2745879888534546
1751214583535536000,0.5415361328125,-2.237186908721924,-0.34141698479652405,-1.0295772552490234
1751214583545529900,0.55152978515625,-2.267014265060425,-1.2309120893478394,-0.5534044504165649
1751214583555523800,0.56152392578125,-2.3522353172302246,-1.843438744544983,0.009054740890860558
1751214583565517600,0.571517578125,-2.3415825366973877,-1.9883146286010742,0.45326969027519226
1751214583575511600,0.581511474609375,-2.1530308723449707,-1.7283902168273926,0.5086634159088135
1751214583585505300,0.59150537109375,-1.8899108171463013,-1.0902973413467407,0.30413275957107544
1751214583595499300,0.601499267578125,-1.5117422342300415,-0.3382211923599243,0.029294749721884727
1751214583605493000,0.611492919921875,-1.089897871017456,0.18588849902153015,-0.2306295782327652
1751214583615487000,0.621487060546875,-0.6850976943969727,0.4234423041343689,-0.3850927948951721
1751214583625480700,0.631480712890625,-0.26751431822776794,0.5171855092048645,-0.3563306927680969
1751214583635474700,0.641474609375,0.16498270630836487,0.4809665381908417,-0.17310534417629242
1751214583645468400,0.651468505859375,0.6294376254081726,0.30413275957107544,0.009054740890860558
1751214583655462400,0.66146240234375,1.117328405380249,0.1081242561340332,0.14008216559886932
1751214583665456000,0.6714560546875,1.569000244140625,-0.04740423336625099,0.21784640848636627
1751214583675450000,0.6814501953125,1.9482340812683105,-0.18482324481010437,0.2732401192188263
1751214583685444000,0.691444091796875,2.244377374649048,-0.267913818359375,0.30413275957107544
1751214583695437800,0.701437744140625,2.4787354469299316,-0.3051980435848236,0.33609068393707275
1751214583705431800,0.711431884765625,2.4989752769470215,-0.49268442392349243,0.44581282138824463
1751214583715425800,0.72142578125,2.2252025604248047,-0.9528783559799194,0.690823495388031
1751214583725419500,0.73141943359375,1.878991961479187,-1.4013543128967285,0.9273120164871216
1751214583735413500,0.74141357421875,1.688309669494629,-1.4950975179672241,0.9656614661216736
1751214583745407500,0.751407470703125,1.670200228691101,-1.247956395149231,0.8356993198394775
1751214583755401200,0.761401123046875,1.7532907724380493,-0.8602004051208496,0.6897581815719604
1751214583765395200,0.771395263671875,1.8321202993392944,-0.4607265293598175,0.6322339773178101
1751214583775389200,0.78138916015625,1.854490876197815,-0.12942953407764435,0.6247771382331848
1751214583785383200,0.791383056640625,1.8353160619735718,0.2348906397819519,0.5097286701202393
1751214583795377000,0.801376953125,1.8374465703964233,0.5214465260505676,0.33715593814849854
1751214583805371000,0.811370849609375,1.7990971803665161,0.6737792491912842,0.21038956940174103
1751214583815364900,0.82136474609375,1.6712654829025269,0.712128758430481,0.15393058955669403
1751214583825358600,0.831358642578125,1.457147479057312,0.5960150361061096,0.1837579756975174
1751214583835352600,0.8413525390625,1.234507441520691,0.4468781054019928,0.21252009272575378
1751214583845346600,0.8513466796875,1.113067388534546,0.39787596464157104,0.19014956057071686
1751214583855340300,0.86134033203125,1.1109367609024048,0.4415517747402191,0.1272990107536316
1751214583865334300,0.871334228515625,1.201484203338623,0.5182507634162903,0.08681898564100266
1751214583875328300,0.881328369140625,1.3516863584518433,0.5512739419937134,0.09960214793682098
1751214583885322000,0.891322021484375,1.5498254299163818,0.46924862265586853,0.18482324481010437
1751214583895316000,0.90131591796875,1.754356026649475,0.2998717129230499,0.29880645871162415
1751214583905310000,0.91131005859375,1.9162760972976685,0.054861076176166534,0.48203179240226746
1751214583915304000,0.921303955078125,1.963147759437561,-0.3020022511482239,0.712128758430481
1751214583925297700,0.931297607421875,1.9205372333526611,-0.6588655710220337,0.9358341097831726
1751214583935291600,0.941291748046875,1.8683393001556396,-0.9060067534446716,1.1052110195159912
1751214583945285600,0.95128564453125,1.7905750274658203,-0.9582046270370483,1.1403647661209106
1751214583955279400,0.961279296875,1.6542212963104248,-0.6354297399520874,0.9230509400367737
1751214583965273300,0.9712734375,1.464604377746582,-0.18588849902153015,0.5981455445289612
1751214583975267300,0.981267333984375,1.2057453393936157,-0.01438105944544077,0.5448823571205139
1751214583985261000,0.991260986328125,0.7423555850982666,-0.4809665381908417,1.072187900543213
1751214583995255000,1.001255126953125,0.05099949613213539,-0.6854971647262573,1.324655294418335
1751214584005249000,1.0112490234375,-0.6052029132843018,-0.3009369671344757,0.8293077349662781
1751214584015243000,1.021242919921875,-1.0558093786239624,0.40746334195137024,0.07403582334518433
1751214584025236700,1.03123681640625,-1.350887417793274,0.9944236278533936,-0.4095938801765442
1751214584035230700,1.041230712890625,-1.6097465753555298,1.2213248014450073,-0.6844319105148315
1751214584045224700,1.051224609375,-1.769536018371582,1.16060471534729,-0.750478208065033
1751214584055218400,1.061218505859375,-1.8515613079071045,0.9614004492759705,-0.6780403256416321
1751214584065212400,1.07121240234375,-1.9325214624404907,0.7685877084732056,-0.6503434777259827
1751214584075206400,1.081206298828125,-2.0539615154266357,0.623711884021759,-0.7611308693885803
1751214584085200100,1.0912001953125,-2.2446436882019043,0.4127896726131439,-0.9113330245018005
1751214584095194000,1.101194091796875,-2.493915319442749,0.24767379462718964,-1.0626004934310913
1751214584105188000,1.11118798828125,-2.8401260375976562,0.0846884623169899,-1.0540783405303955
1751214584115181800,1.121181884765625,-3.0180251598358154,0.04846949502825737,-1.0753836631774902
1751214584125175800,1.13117578125,-3.1810104846954346,0.19014956057071686,-1.235173225402832
1751214584135169800,1.141169677734375,-3.3397345542907715,0.47670549154281616,-1.4354428052902222
1751214584145163800,1.151163818359375,-3.4878063201904297,0.6716487407684326,-1.4524869918823242
1751214584155157500,1.161157470703125,-3.4196293354034424,0.8261119723320007,-1.299088954925537
1751214584165151500,1.1711513671875,-3.063831329345703,0.887897253036499,-1.0998847484588623
1751214584175145500,1.1811455078125,-2.449174165725708,0.7653919458389282,-0.9432909488677979
1751214584185139200,1.19113916015625,-1.8110812902450562,0.221042200922966,-0.5331644415855408
1751214584195133200,1.20113330078125,-1.162335753440857,-0.5395560264587402,-0.15606112778186798
1751214584205127200,1.211127197265625,-0.4518049359321594,-1.1414300203323364,0.07829687744379044
1751214584215121000,1.221120849609375,0.16604797542095184,-1.4354428052902222,0.2348906397819519
1751214584225115000,1.231114990234375,0.7135934829711914,-1.4599437713623047,0.35100436210632324
1751214584235108900,1.24110888671875,1.208941102027893,-1.1787142753601074,0.38935387134552
1751214584245102800,1.251102783203125,1.6094802618026733,-0.5352949500083923,0.2732401192188263
1751214584255096600,1.2610966796875,1.921602487564087,0.28069695830345154,0.059122130274772644
1751214584265090600,1.271090576171875,2.088848829269409,0.9294425249099731,-0.1315600574016571
1751214584275084500,1.28108447265625,2.0920445919036865,1.259674310684204,-0.28921908140182495
1751214584285078300,1.291078369140625,1.9524950981140137,1.448225975036621,-0.408528596162796
1751214584295072300,1.301072265625,1.784183382987976,1.629320740699768,-0.5012065172195435
1751214584305066200,1.311066162109375,1.645699143409729,1.6282554864883423,-0.6727139949798584
1751214584315060000,1.32106005859375,1.556217074394226,1.3012195825576782,-0.9326383471488953
1751214584325054000,1.331053955078125,1.6542212963104248,1.4674006700515747,-1.0040110349655151
1751214584335048000,1.3410478515625,1.7351813316345215,1.8658093214035034,-1.093493103981018
1751214584345042000,1.3510419921875,1.7213329076766968,2.2929799556732178,-1.2426300048828125
1751214584355035600,1.36103564453125,1.615871787071228,2.6455821990966797,-1.366200566291809
1751214584365029600,1.371029541015625,1.6297202110290527,2.7148244380950928,-1.4631396532058716
1751214584375023600,1.381023681640625,2.045172929763794,2.4943149089813232,-1.6101460456848145
1751214584385017300,1.391017333984375,2.502171039581299,2.0959062576293945,-1.7731313705444336
1751214584395011300,1.40101123046875,2.848381757736206,1.554752230644226,-1.952095627784729
1751214584405005300,1.41100537109375,3.0603692531585693,0.8559393286705017,-2.0959062576293945
1751214584414999000,1.4209990234375,3.142394542694092,0.03249054029583931,-2.246108293533325
1751214584424993000,1.430992919921875,3.0891313552856445,-0.9123983383178711,-2.347308397293091
1751214584434987000,1.440987060546875,2.9208197593688965,-1.7784576416015625,-2.321742057800293
1751214584444980700,1.450980712890625,2.6875269412994385,-2.4676833152770996,-2.2248032093048096
1751214584454974700,1.460974609375,2.520280599594116,-2.8703529834747314,-2.0469040870666504
1751214584464968700,1.47096875,2.5490427017211914,-2.8650264739990234,-1.6463649272918701
1751214584474962700,1.480962646484375,2.696049213409424,-2.4378559589385986,-0.9784446358680725
1751214584484956400,1.490956298828125,2.65450382232666,-1.692171335220337,0.12410321086645126
1751214584494950400,1.500950439453125,2.4979100227355957,-0.8133288025856018,1.1787142753601074
1751214584504944400,1.5109443359375,2.3615562915802,-0.07190529257059097,1.7741966247558594
1751214584514938000,1.520938232421875,2.2912490367889404,0.5597960352897644,1.9616830348968506
1751214584524932000,1.53093212890625,2.2965753078460693,1.1552784442901611,1.877527117729187
1751214584534926000,1.540926025390625,2.3903183937072754,1.5515564680099487,1.5366427898406982
1751214584544919800,1.550919921875,2.5288026332855225,1.5536869764328003,0.972053050994873
1751214584554913800,1.560913818359375,2.758899688720703,1.0338383913040161,0.1368863731622696
1751214584564907800,1.57090771484375,3.0454556941986084,0.44048652052879333,-0.8303729891777039
1751214584574901800,1.58090185546875,3.3181631565093994,0.18056218326091766,-1.4929670095443726
1751214584584895500,1.5908955078125,3.5067148208618164,-0.40639808773994446,-1.0977542400360107
1751214584594889500,1.600889404296875,3.19033145904541,-1.2138679027557373,0.046338967978954315
1751214584604883500,1.610883544921875,2.2710089683532715,-1.4279859066009521,0.5203812718391418
1751214584614877200,1.620877197265625,1.0416946411132812,-1.4045500755310059,0.6109287142753601
1751214584624871200,1.63087109375,-0.07789740711450577,-1.1883015632629395,0.6769750714302063
1751214584634865200,1.640865234375,-0.7245124578475952,-0.9123983383178711,0.6940192580223083
1751214584644859000,1.65085888671875,-0.6701840162277222,-0.745151937007904,0.6503434777259827
1751214584654852900,1.660852783203125,-0.26218801736831665,-0.6631265878677368,0.5278381109237671
1751214584664846800,1.670846923828125,0.04673844203352928,-0.5555350184440613,0.34567806124687195
1751214584674840600,1.680840576171875,0.18096165359020233,-0.46392232179641724,0.14860427379608154
1751214584684834600,1.69083447265625,0.27044379711151123,-0.40639808773994446,-0.05699160322546959
1751214584694828300,1.700828369140625,0.3514038324356079,-0.4181159734725952,-0.2689790725708008
1751214584704822300,1.710822265625,0.3993407189846039,-0.5150549411773682,-0.42663809657096863
1751214584714816000,1.72081591796875,0.3929491341114044,-0.5938844680786133,-0.5075981020927429
1751214584724810000,1.73081005859375,0.3418164849281311,-0.5832318663597107,-0.5278381109237671
1751214584734803700,1.7408037109375,0.2619217038154602,-0.4575307369232178,-0.5065328478813171
1751214584744797700,1.750797607421875,0.15965639054775238,-0.23169484734535217,-0.4596612751483917
1751214584754791400,1.76079150390625,0.07230477035045624,0.009054740890860558,-0.4138549268245697
1751214584764785400,1.770785400390625,0.029694223776459694,0.12623374164104462,-0.42983388900756836
1751214584774779100,1.780779052734375,0.01584579609334469,0.061252661049366,-0.4703139066696167
1751214584784772900,1.79077294921875,-0.008655266836285591,-0.07723161578178406,-0.4745749533176422
1751214584794766800,1.800766845703125,-0.04061317816376686,-0.1933453530073166,-0.43516018986701965
1751214584804760600,1.810760498046875,-0.06085318699479103,-0.23915168642997742,-0.3755054473876953
1751214584814754600,1.820754638671875,-0.06617950648069382,-0.20080219209194183,-0.3094590902328491
1751214584824748300,1.830748291015625,-0.05233107507228851,-0.09001477807760239,-0.23702116310596466
1751214584834742300,1.8407421875,-0.023568958044052124,0.061252661049366,-0.16245271265506744
1751214584844736000,1.850736083984375,-0.0011984215816482902,0.20825904607772827,-0.0942758321762085
1751214584854730000,1.86072998046875,0.01904158666729927,0.34141698479652405,-0.04953476041555405
1751214584864723700,1.8707236328125,0.05419528856873512,0.3808317482471466,-0.018642114475369453
1751214584874717700,1.8807177734375,0.08189214020967484,0.3020022511482239,0.017576850950717926
1751214584884711400,1.89071142578125,0.07976161688566208,0.16138744354248047,0.06444845348596573
1751214584894705400,1.900705322265625,0.07017423957586288,0.017576850950717926,0.10279794037342072
1751214584904699100,1.91069921875,0.05845634266734123,-0.08575372397899628,0.1411474347114563
1751214584914693000,1.920693115234375,0.04673844203352928,-0.1081242561340332,0.17097482085227966
1751214584924686800,1.930686767578125,0.03928159549832344,-0.04846949502825737,0.19121482968330383
1751214584934680800,1.940680908203125,0.03928159549832344,0.04314317926764488,0.19867166876792908
1751214584944674600,1.950674560546875,0.04460791498422623,0.13262532651424408,0.19547587633132935
1751214584954668500,1.96066845703125,0.04673844203352928,0.18482324481010437,0.1699095517396927
1751214584964662300,1.970662353515625,0.04780370742082596,0.1741705983877182,0.12623374164104462
1751214584974656300,1.98065625,0.0456731803715229,0.11877689510583878,0.06977476924657822
1751214584984650200,1.990650146484375,0.04247738793492317,0.07190529257059097,0.015446322970092297
1751214584994644000,2.00064404296875,0.04247738793492317,0.06657897680997849,-0.026098959147930145
1751214585004638000,2.010637939453125,0.041412122547626495,0.09534109383821487,-0.046338967978954315
1751214585014632000,2.0206318359375,0.03608580678701401,0.13795164227485657,-0.04740423336625099
1751214585024626000,2.0306259765625,0.029694223776459694,0.1784316599369049,-0.04846949502825737
1751214585034619600,2.04061962890625,0.024367906153202057,0.1933453530073166,-0.046338967978954315
1751214585044613600,2.050613525390625,0.01904158666729927,0.18056218326091766,-0.04527370631694794
1751214585054607600,2.060607666015625,0.020106852054595947,0.16671375930309296,-0.0516652874648571
1751214585064601300,2.070601318359375,0.02756369672715664,0.154995858669281,-0.059122130274772644
1751214585074595300,2.08059521484375,0.03502054139971733,0.14008216559886932,-0.059122130274772644
1751214585084589300,2.09058935546875,0.04780370742082596,0.11132004857063293,-0.054861076176166534
1751214585094583000,2.1005830078125,0.0648479238152504,0.06870950758457184,-0.04527370631694794
1751214585104577000,2.110576904296875,0.08295740932226181,0.030360013246536255,-0.027164222672581673
1751214585114571000,2.120571044921875,0.09574057161808014,0.005858949851244688,-0.013315795920789242
1751214585124565000,2.13056494140625,0.10000162571668625,-0.011185267940163612,0.002663159044459462
1751214585134558700,2.140558837890625,0.09893636405467987,-0.01225053146481514,0.015446322970092297
1751214585144552700,2.150552734375,0.09574057161808014,0.00798947736620903,0.01651158556342125
1751214585154546700,2.160546630859375,0.0882837250828743,0.03568633273243904,0.009054740890860558
1751214585164540400,2.17054052734375,0.07976161688566208,0.04420844092965126,-0.006924213841557503
1751214585174534400,2.180534423828125,0.074435293674469,0.04314317926764488,-0.021837905049324036
1751214585184528400,2.1905283203125,0.0691089779138565,0.054861076176166534,-0.027164222672581673
1751214585194522000,2.200522216796875,0.06058686971664429,0.08149266988039017,-0.025033695623278618
1751214585204516000,2.21051611328125,0.0552605502307415,0.10066741704940796,-0.018642114475369453
1751214585214510000,2.220510009765625,0.053130023181438446,0.1081242561340332,-0.011185267940163612
1751214585224503800,2.23050390625,0.04034686088562012,0.11238531768321991,0.0015978955198079348
1751214585234497800,2.240497802734375,0.028628960251808167,0.11132004857063293,0.021837905049324036
1751214585244491800,2.25049169921875,0.016911059617996216,0.11238531768321991,0.04846949502825737
1751214585254485800,2.26048583984375,-0.0033289489801973104,0.12090742588043213,0.07936213910579681
1751214585264479500,2.2704794921875,-0.026764748618006706,0.13262532651424408,0.10492847114801407
1751214585274473500,2.280473388671875,-0.059787921607494354,0.14860427379608154,0.11664637178182602
1751214585284467500,2.290467529296875,-0.0949416235089302,0.154995858669281,0.11132004857063293
1751214585294461200,2.300461181640625,-0.12263847887516022,0.13795164227485657,0.08681898564100266
1751214585304455200,2.310455078125,-0.1567269116640091,0.08681898564100266,0.04314317926764488
1751214585314449200,2.32044921875,-0.1940111368894577,0.025033695623278618,-0.013315795920789242
1751214585324443000,2.33044287109375,-0.23342590034008026,-0.004793686326593161,-0.09108003973960876
1751214585334436900,2.340436767578125,-0.27710169553756714,0.013315795920789242,-0.1880190372467041
1751214585344430800,2.350430908203125,-0.3207775056362152,0.059122130274772644,-0.31265488266944885
1751214585354424800,2.3604248046875,-0.35699647665023804,0.10918952524662018,-0.4522044062614441
1751214585364418600,2.37041845703125,-0.38895440101623535,0.12516847252845764,-0.6034718751907349
1751214585374412500,2.38041259765625,-0.42623862624168396,0.10173267871141434,-0.7590003609657288
1751214585384406500,2.390406494140625,-0.45926177501678467,0.07297056168317795,-0.9134635925292969
1751214585394400300,2.400400146484375,-0.5402218103408813,0.11984215676784515,-1.0583394765853882
1751214585404394200,2.410394287109375,-0.6297039985656738,0.2732401192188263,-1.1723226308822632
1751214585414388200,2.42038818359375,-0.6648576855659485,0.4372907280921936,-1.2245205640792847
1751214585424382000,2.4303818359375,-0.7138597965240479,0.5374255180358887,-1.2021499872207642
1751214585434376000,2.4403759765625,-0.7287734746932983,0.48735812306404114,-1.1318426132202148
1751214585444370000,2.450369873046875,-0.7330345511436462,0.30306750535964966,-1.0359688997268677
1751214585454363600,2.46036376953125,-0.7372955679893494,-0.03142527863383293,-0.9219856858253479
1751214585464357600,2.470357666015625,-0.7660577297210693,-0.3158506751060486,-0.8154593110084534
1751214585474351600,2.4803515625,-0.8107987642288208,-0.3914843797683716,-0.7472824454307556
1751214585484345600,2.490345703125,-0.8161250948905945,-0.3020022511482239,-0.7057371735572815
1751214585494339300,2.50033935546875,-0.809733510017395,-0.07403582334518433,-0.6588655710220337
1751214585504333300,2.510333251953125,-0.8523440957069397,0.2785664498806,-0.6109287142753601
1751214585514327300,2.520327392578125,-0.9610009789466858,0.7227813601493835,-0.5832318663597107
1751214585524321000,2.530321044921875,-1.1165294647216797,1.1638004779815674,-0.6119939684867859
1751214585534315000,2.54031494140625,-1.2965589761734009,1.5739270448684692,-0.7163897752761841
1751214585544309000,2.55030908203125,-1.4691317081451416,1.8785923719406128,-0.8612656593322754
1751214585554302700,2.560302734375,-1.588441252708435,1.847699761390686,-1.0114678144454956
1751214585564296700,2.570296630859375,-1.6587486267089844,1.629320740699768,-1.0849710702896118
1751214585574290700,2.580290771484375,-1.6417044401168823,1.3203942775726318,-1.0860363245010376
1751214585584284700,2.59028466796875,-1.5554180145263672,1.005076289176941,-1.0498173236846924
1751214585594278400,2.6002783203125,-1.4414348602294922,0.820785641670227,-1.0082720518112183
1751214585604272400,2.6102724609375,-1.3274517059326172,0.7515435218811035,-0.9422256946563721
1751214585614266400,2.620266357421875,-1.2699273824691772,0.6727139949798584,-0.8612656593322754
1751214585624260000,2.630260009765625,-1.2891021966934204,0.4788359999656677,-0.7930887937545776
1751214585634254000,2.640254150390625,-1.3785842657089233,0.2348906397819519,-0.7036066055297852
1751214585644248000,2.650248046875,-1.546895980834961,0.14221268892288208,-0.4745749533176422
1751214585654241800,2.66024169921875,-1.7982982397079468,0.12303794920444489,-0.19014956057071686
1751214585664235800,2.67023583984375,-2.0837888717651367,0.08788424730300903,-0.01970737800002098
1751214585674229800,2.680229736328125,-2.2723405361175537,0.00798947736620903,-0.13262532651424408
1751214585684223500,2.690223388671875,-2.3234732151031494,-0.1411474347114563,-0.40746334195137024
1751214585694217500,2.700217529296875,-2.235056161880493,-0.4426170289516449,-0.6322339773178101
1751214585714205400,2.720205322265625,-1.9186729192733765,-0.8751140832901001,-0.7185203433036804
1751214585724199200,2.73019921875,-1.8590182065963745,-0.7057371735572815,-0.5970802903175354
1751214585734193200,2.740193115234375,-1.6736623048782349,-0.5832318663597107,-0.4468781054019928
1751214585744187100,2.750187255859375,-1.4989590644836426,-0.5161202549934387,-0.34141698479652405
1751214585754180900,2.760180908203125,-1.3839106559753418,-0.43942126631736755,-0.3307643532752991
1751214585764174800,2.7701748046875,-1.2933632135391235,-0.39254966378211975,-0.40213701128959656
1751214585774168800,2.7801689453125,-1.199620008468628,-0.4234423041343689,-0.47350969910621643
1751214585784162600,2.79016259765625,-1.0973546504974365,-0.475640207529068,-0.49268442392349243
1751214585794156500,2.800156494140625,-0.9886978268623352,-0.47670549154281616,-0.4522044062614441
1751214585804150500,2.810150634765625,-0.8566051125526428,-0.43409493565559387,-0.3776359558105469
1751214585814144500,2.82014453125,-0.7095987200737,-0.3850927948951721,-0.2998717129230499
1751214585824138200,2.83013818359375,-0.5508744716644287,-0.36485278606414795,-0.23169484734535217
1751214585834132200,2.84013232421875,-0.3857586085796356,-0.3424822688102722,-0.17310534417629242
1751214585844126200,2.850126220703125,-0.22490379214286804,-0.276435911655426,-0.12197268754243851
1751214585854120000,2.860119873046875,-0.08215846121311188,-0.14221268892288208,-0.06764423847198486
1751214585864114000,2.870114013671875,0.03821633383631706,0.01651158556342125,-0.013315795920789242
1751214585874108000,2.88010791015625,0.1447426974773407,0.07616634666919708,0.017576850950717926
1751214585884101600,2.8901015625,0.24274694919586182,0.03568633273243904,0.01651158556342125
1751214585894095600,2.900095703125,0.33862069249153137,-0.0037284228019416332,0.022903168573975563
1751214585904089600,2.910089599609375,0.41958072781562805,-0.0015978955198079348,0.06657897680997849
1751214585914083600,2.92008349609375,0.4888228476047516,0.033555805683135986,0.1358211189508438
1751214585924077300,2.930077392578125,0.5601955056190491,0.053795814514160156,0.2253032624721527
1751214585934071300,2.9400712890625,0.6454166173934937,0.03142527863383293,0.335025429725647
1751214585944065300,2.950065185546875,0.7412903308868408,-0.015446322970092297,0.45859599113464355
1751214585954059000,2.96005908203125,0.8435556292533875,-0.038882121443748474,0.5970802903175354
1751214585964053000,2.970052978515625,0.9649956822395325,0.04846949502825737,0.7430213689804077
1751214585974047000,2.980046875,1.1205241680145264,0.2167811542749405,0.9049414396286011
1751214585984040700,2.990040771484375,1.300553798675537,0.4191812574863434,1.0657962560653687
1751214585994034700,3.00003466796875,1.4827138185501099,0.636495053768158,1.2191942930221558
1751214586004028700,3.010028564453125,1.6041538715362549,0.6769750714302063,1.50361967086792
1751214586014022400,3.0200224609375,1.4933664798736572,0.9656614661216736,1.8892450332641602
1751214586024016400,3.030016357421875,1.050216794013977,2.092710494995117,1.6953670978546143
1751214586034010400,3.04001025390625,0.3897533416748047,2.4080283641815186,1.0370341539382935
1751214586044004400,3.05000439453125,0.2107890397310257,2.2844579219818115,0.48309704661369324
1751214586053998000,3.059998046875,0.5655218362808228,1.8317208290100098,0.4745749533176422
1751214586063992000,3.069991943359375,0.8030756115913391,1.4066805839538574,0.7174550890922546
1751214586073986000,3.079986083984375,0.6624608039855957,1.1531479358673096,0.8857667446136475
1751214586083979800,3.089979736328125,0.5868270993232727,0.8612656593322754,0.93902987241745
1751214586093973800,3.099973876953125,0.7338334918022156,0.532099187374115,0.9614004492759705
1751214586103967700,3.1099677734375,0.9085367321968079,0.25193485617637634,1.005076289176941
1751214586113961500,3.11996142578125,1.080044150352478,0.1358211189508438,1.0285120010375977
1751214586123955500,3.12995556640625,1.255812644958496,-0.0655137151479721,1.0157288312911987
1751214586133949400,3.139949462890625,1.3761874437332153,-0.24128220975399017,0.9773793816566467
1751214586143943400,3.149943359375,1.423059105873108,-0.3307643532752991,0.9677920341491699
1751214586153937200,3.159937255859375,1.4219938516616821,-0.34674331545829773,0.9859014749526978
1751214586163931100,3.16993115234375,1.3548822402954102,-0.31691592931747437,0.9890972971916199
1751214586173925000,3.179925048828125,1.244094729423523,-0.28389275074005127,0.9209204316139221
1751214586183918800,3.1899189453125,1.1482210159301758,-0.2530001103878021,0.766457200050354
1751214586193912800,3.199912841796875,1.0683262348175049,-0.25086960196495056,0.5811012983322144
1751214586203906800,3.20990673828125,1.0001493692398071,-0.2828274965286255,0.4149201810359955
1751214586213900500,3.219900634765625,0.9660609364509583,-0.3584612011909485,0.2966759204864502
1751214586223894500,3.22989453125,0.9617999196052551,-0.42983388900756836,0.221042200922966
1751214586233888500,3.239888427734375,0.9660609364509583,-0.4607265293598175,0.18588849902153015
1751214586243882200,3.24988232421875,0.9756483435630798,-0.4330296814441681,0.18588849902153015
1751214586253876200,3.259876220703125,0.9916272759437561,-0.3584612011909485,0.22210747003555298
1751214586263870200,3.2698701171875,1.0097367763519287,-0.2253032624721527,0.28495803475379944
1751214586273864200,3.2798642578125,1.050216794013977,-0.11558110266923904,0.34993910789489746
1751214586283858000,3.28985791015625,1.0949578285217285,-0.058056868612766266,0.3914843797683716
1751214586293852000,3.299851806640625,1.1258505582809448,-0.029294749721884727,0.4095938801765442
1751214586303846000,3.309845947265625,1.1365031003952026,-0.01970737800002098,0.41065913438796997
1751214586313839600,3.319839599609375,1.1269158124923706,-0.02396843209862709,0.3957454562187195
1751214586323833600,3.32983349609375,1.0853705406188965,-0.03994738683104515,0.3659180700778961
1751214586333827600,3.33982763671875,1.0171936750411987,-0.07936213910579681,0.3488738536834717
1751214586373803300,3.37980322265625,0.6454166173934937,-0.20506325364112854,0.35100436210632324
1751214586383797000,3.389796875,0.610262930393219,-0.1315600574016571,0.3211769759654999
1751214586393791000,3.399791015625,0.5996102690696716,-0.059122130274772644,0.267913818359375
1751214586403785000,3.409784912109375,0.5985450148582458,-0.006924213841557503,0.20399798452854156
1751214586413778700,3.41977880859375,0.6049365997314453,0.021837905049324036,0.1358211189508438
1751214586423772700,3.429772705078125,0.6155892014503479,0.010120004415512085,0.06977476924657822
1751214586433766700,3.4397666015625,0.6177197694778442,-0.04101264849305153,0.011185267940163612
1751214586443760400,3.449760498046875,0.6145239472389221,-0.08788424730300903,-0.01970737800002098
1751214586453754400,3.45975439453125,0.6113281846046448,-0.11345057934522629,-0.022903168573975563
1751214586463748400,3.469748291015625,0.5996102690696716,-0.13262532651424408,-0.0015978955198079348
1751214586473742300,3.479742431640625,0.5804355144500732,-0.13475584983825684,0.038882121443748474
1751214586483736000,3.489736083984375,0.5463470816612244,-0.08575372397899628,0.09001477807760239
1751214586493730000,3.49972998046875,0.4824312627315521,-0.01970737800002098,0.15712638199329376
1751214586503724000,3.50972412109375,0.4078628122806549,0.020772641524672508,0.23276010155677795
1751214586513717800,3.5197177734375,0.32051119208335876,0.04846949502825737,0.30306750535964966
1751214586523711700,3.529711669921875,0.2384859025478363,0.08362319320440292,0.3531349003314972
1751214586533705700,3.539705810546875,0.1628521829843521,0.09321057051420212,0.3904191255569458
1751214586543699500,3.549699462890625,0.10319741815328598,0.05273054912686348,0.41172438859939575
1751214586553693400,3.559693359375,0.06804371625185013,-0.004793686326593161,0.38935387134552
1751214586563687400,3.5696875,0.07123950868844986,-0.011185267940163612,0.3009369671344757
1751214586573681200,3.57968115234375,0.0978710949420929,0.03249054029583931,0.16351796686649323
1751214586583675100,3.589675048828125,0.140481635928154,0.06444845348596573,0.0282294861972332
1751214586593668900,3.5996689453125,0.2054627239704132,0.046338967978954315,-0.06870950758457184
1751214586603662800,3.609662841796875,0.2725743353366852,-0.0005326318205334246,-0.11025478690862656
1751214586613656600,3.619656494140625,0.32583752274513245,-0.030360013246536255,-0.13795164227485657
1751214586623650600,3.629650634765625,0.3663175404071808,-0.029294749721884727,-0.19547587633132935
1751214586633644300,3.639644287109375,0.3833617568016052,-0.03249054029583931,-0.2966759204864502
1751214586643638300,3.64963818359375,0.3812312185764313,-0.06338318437337875,-0.3850927948951721
1751214586653632000,3.659632080078125,0.3695133328437805,-0.13049480319023132,-0.4277033507823944
1751214586663626000,3.6696259765625,0.33009856939315796,-0.19121482968330383,-0.41065913438796997
1751214586673619700,3.67961962890625,0.2800311744213104,-0.21891167759895325,-0.36059173941612244
1751214586683613700,3.68961376953125,0.24594274163246155,-0.18588849902153015,-0.28495803475379944
1751214586693607400,3.699607421875,0.25126907229423523,-0.061252661049366,-0.21784640848636627
1751214586703601400,3.709601318359375,0.2906838059425354,0.16777902841567993,-0.17523586750030518
1751214586713595100,3.71959521484375,0.33542490005493164,0.49694550037384033,-0.1464737504720688
1751214586723589000,3.729589111328125,0.3577954173088074,0.8783098459243774,-0.09960214793682098
1751214586733582800,3.739582763671875,0.3599259555339813,1.2426300048828125,-0.03249054029583931
1751214586743576800,3.749576904296875,0.35886070132255554,1.524924874305725,0.0516652874648571
1751214586753570600,3.759570556640625,0.32051119208335876,1.6687355041503906,0.17630113661289215
1751214586763564500,3.769564453125,0.2661827504634857,1.612276554107666,0.3339601457118988
1751214586773558300,3.779558349609375,0.24487747251987457,1.3140027523040771,0.47777074575424194
1751214586783552300,3.78955224609375,0.2810964286327362,0.8314382433891296,0.5416865348815918
1751214586793546000,3.7995458984375,0.34927332401275635,0.2775011658668518,0.5139896869659424
1751214586803540000,3.8095400390625,0.4281028211116791,-0.2402169555425644,0.4095938801765442
1751214586813533700,3.81953369140625,0.47603967785835266,-0.6940192580223083,0.26045694947242737
1751214586823527700,3.829527587890625,0.47071337699890137,-1.0732531547546387,0.09108003973960876
1751214586833521400,3.839521484375,0.42064598202705383,-1.3704617023468018,-0.07723161578178406
1751214586843515400,3.849515380859375,0.32051119208335876,-1.604819655418396,-0.2253032624721527
1751214586853509000,3.859509033203125,0.16711322963237762,-1.7528913021087646,-0.34993910789489746
1751214586863503000,3.869503173828125,-0.019307903945446014,-1.7518260478973389,-0.4415517747402191
1751214586873497000,3.8794970703125,-0.21212062239646912,-1.515337586402893,-0.5384907722473145
1751214586883490800,3.88949072265625,-0.4709796905517578,-0.972053050994873,-0.6737792491912842
1751214586893484800,3.89948486328125,-0.8086682558059692,-0.22849905490875244,-0.8740488290786743
1751214586903478800,3.909478759765625,-1.1719231605529785,0.5363602638244629,-1.143560528755188
1751214586913472500,3.919472412109375,-1.5223948955535889,1.3012195825576782,-1.4556827545166016
1751214586923466500,3.929466552734375,-1.8526266813278198,2.1001672744750977,-1.7496955394744873
1751214586933460500,3.93946044921875,-2.1455740928649902,2.7169549465179443,-1.9915103912353516
1751214586943454500,3.949454345703125,-2.3959109783172607,2.96090030670166,-2.0969715118408203
1751214586953448200,3.9594482421875,-2.5908544063568115,2.9832708835601807,-2.0117504596710205
1751214586963442200,3.969442138671875,-2.6845974922180176,2.798980236053467,-1.8519608974456787
1751214586973436200,3.979436279296875,-2.667553424835205,2.534794807434082,-1.6580828428268433
1751214586983430000,3.989429931640625,-2.5546352863311768,2.1747357845306396,-1.4152027368545532
1751214586993424000,3.999423828125,-2.384193181991577,1.9915103912353516,-1.1297121047973633
1751214587003417900,4.00941796875,-2.172205686569214,1.834916591644287,-0.8431561589241028
1751214587013411600,4.01941162109375,-1.9570224285125732,1.5281206369400024,-0.5811012983322144
1751214587023405600,4.029405517578125,-1.784449815750122,1.1094720363616943,-0.35952648520469666
1751214587033399600,4.039399658203125,-1.6395739316940308,0.6226465702056885,-0.1507348120212555
1751214587043393300,4.049393310546875,-1.5330475568771362,0.0655137151479721,-0.025033695623278618
1751214587053387300,4.05938720703125,-1.4563485383987427,-0.5491434335708618,-0.062317922711372375
1751214587063381200,4.06938134765625,-1.3796495199203491,-1.0657962560653687,-0.2636527419090271
1751214587073375200,4.079375244140625,-1.3136032819747925,-1.2756532430648804,-0.5278381109237671
1751214587083369000,4.089368896484375,-1.2997548580169678,-1.1520826816558838,-0.774979293346405
1751214587093363000,4.099363037109375,-1.3359737396240234,-0.9614004492759705,-0.9187898635864258
1751214587103357000,4.10935693359375,-1.4275864362716675,-0.900680422782898,-0.9070720076560974
1751214587113350700,4.1193505859375,-1.5447654724121094,-1.0338383913040161,-0.7238466143608093
1751214587123344600,4.1293447265625,-1.635312795639038,-1.1318426132202148,-0.42983388900756836
1751214587133338600,4.139338623046875,-1.7077507972717285,-1.0476868152618408,-0.13475584983825684
1751214587143332400,4.149332275390625,-1.8014940023422241,-0.7930887937545776,0.04846949502825737
1751214587153326300,4.159326416015625,-1.9176076650619507,-0.4372907280921936,0.018642114475369453
1751214587163320300,4.1693203125,-1.9900456666946411,-0.16564849019050598,-0.17097482085227966
1751214587173314300,4.179314208984375,-1.9761972427368164,-0.1272990107536316,-0.34141698479652405
1751214587183308000,4.18930810546875,-1.9527614116668701,-0.3201117217540741,-0.39361491799354553
1751214587193302000,4.199302001953125,-1.9559571743011475,-0.5555350184440613,-0.3339601457118988
1751214587203296000,4.2092958984375,-1.9591529369354248,-0.6727139949798584,-0.24767379462718964
1751214587213289700,4.219289794921875,-1.9548919200897217,-0.6322339773178101,-0.20612850785255432
1751214587223283700,4.22928369140625,-1.9516961574554443,-0.5225118398666382,-0.1976063996553421
1751214587233277700,4.239277587890625,-1.961283564567566,-0.4053328037261963,-0.1688442826271057
1751214587243271400,4.249271484375,-1.9772624969482422,-0.3392864763736725,-0.13369058072566986
1751214587253265400,4.259265380859375,-1.9421087503433228,-0.3520696461200714,-0.1464737504720688
1751214587263259400,4.26925927734375,-1.8707361221313477,-0.456465482711792,-0.1688442826271057
1751214587273253400,4.27925341796875,-1.7737971544265747,-0.5874928832054138,-0.1368863731622696
1751214587283247000,4.2892470703125,-1.6694012880325317,-0.6609960794448853,-0.07190529257059097
1751214587293241000,4.299240966796875,-1.534112811088562,-0.6759097576141357,-0.020772641524672508
1751214587303235000,4.309235107421875,-1.3775190114974976,-0.6918887495994568,0.026098959147930145
1751214587313228800,4.319228759765625,-1.2528831958770752,-0.6695181727409363,0.06444845348596573
1751214587323222800,4.329222900390625,-1.1112031936645508,-0.6844319105148315,0.0942758321762085
1751214587333216800,4.339216796875,-0.9130641222000122,-0.7707182168960571,0.11132004857063293
1751214587343210500,4.34921044921875,-0.7479482293128967,-0.8101329803466797,0.09747162461280823
1751214587353204500,4.35920458984375,-0.6190513372421265,-0.8570045828819275,0.06764423847198486
1751214587363198500,4.369198486328125,-0.5125249624252319,-0.8921582698822021,0.038882121443748474
1751214587373192200,4.379192138671875,-0.4145207107067108,-0.8921582698822021,0.027164222672581673
1751214587383186200,4.389186279296875,-0.31864699721336365,-0.8474172353744507,0.03568633273243904
1751214587393180200,4.39918017578125,-0.23342590034008026,-0.7685877084732056,0.04420844092965126
1751214587403174100,4.409174072265625,-0.15566164255142212,-0.6578003168106079,0.058056868612766266
1751214587413167900,4.41916796875,-0.0906805694103241,-0.5214465260505676,0.0942758321762085
1751214587423161900,4.429161865234375,-0.027830012142658234,-0.37870121002197266,0.16777902841567993
1751214587433155800,4.43915576171875,0.03075948730111122,-0.24767379462718964,0.2593916952610016
1751214587443149600,4.449149658203125,0.09574057161808014,-0.1315600574016571,0.33609068393707275
1751214587453143600,4.4591435546875,0.1639174371957779,-0.021837905049324036,0.3850927948951721
1751214587463137500,4.469137451171875,0.23635536432266235,0.07936213910579681,0.4032022953033447
1751214587473131300,4.47913134765625,0.308793306350708,0.1784316599369049,0.4095938801765442
1751214587483125200,4.489125244140625,0.3993407189846039,0.24767379462718964,0.4319643974304199
1751214587493119200,4.499119140625,0.5111933946609497,0.26045694947242737,0.47244441509246826
1751214587503113200,4.50911328125,0.6390250325202942,0.20825904607772827,0.4990760087966919
1751214587513107000,4.51910693359375,0.7796398401260376,0.08575372397899628,0.49055391550064087
1751214587523101000,4.529100830078125,0.9127978086471558,-0.10599373281002045,0.40639808773994446
1751214587533095000,4.539094970703125,1.0076062679290771,-0.3478085696697235,0.22317273914813995
1751214587543088600,4.549088623046875,1.0598042011260986,-0.5161202549934387,0.030360013246536255
1751214587553082600,4.55908251953125,1.117328405380249,-0.5033370852470398,-0.010120004415512085
1751214587563076600,4.56907666015625,1.208941102027893,-0.23169484734535217,0.19547587633132935
1751214587573070300,4.5790703125,1.3122715950012207,0.38402754068374634,0.6066676378250122
1751214587583064300,4.589064208984375,1.3921663761138916,1.1531479358673096,1.046621561050415
1751214587593058300,4.599058349609375,1.444364309310913,1.7347818613052368,1.3416996002197266
1751214587603052000,4.609052001953125,1.5104106664657593,2.077796697616577,1.4823143482208252
1751214587613046000,4.6190458984375,1.603088617324829,2.26741361618042,1.4759228229522705
1751214587623040000,4.6290400390625,1.6723307371139526,2.2098894119262695,1.4226596355438232
1751214587633034000,4.639033935546875,1.6936360597610474,1.944638729095459,1.4173332452774048
1751214587643027700,4.64902783203125,1.6243939399719238,1.666604995727539,1.4024195671081543
1751214587653021700,4.659021728515625,1.4582127332687378,1.436508059501648,1.324655294418335
1751214587663015700,4.669015625,1.281378984451294,1.1829752922058105,1.1989542245864868
1751214587673009400,4.679009521484375,1.2036147117614746,0.9901625514030457,1.0530130863189697
1751214587683003400,4.68900341796875,1.2472906112670898,0.8484824895858765,0.9283772706985474
1751214587692997400,4.698997314453125,1.3250547647476196,0.6663224101066589,0.8559393286705017
1751214587702991000,4.7089912109375,1.39003586769104,0.464987576007843,0.8016108870506287
1751214587712985000,4.718985107421875,1.4081454277038574,0.22317273914813995,0.7259771823883057
1751214587722979000,4.72897900390625,1.4294506311416626,0.004793686326593161,0.6439518928527832
1751214587732973000,4.73897314453125,1.4432990550994873,-0.21358536183834076,0.5438171029090881
1751214587742966800,4.748966796875,1.4262548685073853,-0.39254966378211975,0.43089914321899414
1751214587752960800,4.758960693359375,1.3825790882110596,-0.5342296957969666,0.3382211923599243
1751214587762954800,4.768954833984375,1.305880069732666,-0.6130592226982117,0.2785664498806
1751214587772948500,4.778948486328125,1.2153326272964478,-0.6301034688949585,0.26578328013420105
1751214587782942500,4.7889423828125,1.1279810667037964,-0.5566002726554871,0.3051980435848236
1751214587792936400,4.7989365234375,1.0470210313796997,-0.43089914321899414,0.3446127772331238
1751214587802930200,4.80893017578125,0.9916272759437561,-0.28921908140182495,0.3755054473876953
1751214587812924200,4.818924072265625,0.9681915044784546,-0.17097482085227966,0.38722333312034607
1751214587822918100,4.828918212890625,0.9767135977745056,-0.11877689510583878,0.3808317482471466
1751214587832912100,4.838912109375,1.0108020305633545,-0.10279794037342072,0.3659180700778961
1751214587842905900,4.84890576171875,1.062999963760376,-0.0846884623169899,0.3627222776412964
1751214587852899800,4.85889990234375,1.134372591972351,-0.01651158556342125,0.3723096549510956
1751214587862893800,4.868893798828125,1.2036147117614746,0.10492847114801407,0.3904191255569458
1751214587872887600,4.878887451171875,1.2579431533813477,0.2263685166835785,0.4127896726131439
1751214587882881500,4.888881591796875,1.268595814704895,0.30839383602142334,0.43409493565559387
1751214587892875500,4.89887548828125,1.246225357055664,0.3446127772331238,0.44368231296539307
1751214587902869200,4.908869140625,1.1993536949157715,0.3659180700778961,0.4511391520500183
1751214587912863200,4.91886328125,1.1375683546066284,0.39787596464157104,0.4522044062614441
1751214587922857200,4.928857177734375,1.0693914890289307,0.4383559823036194,0.456465482711792
1751214587932851000,4.938850830078125,1.0150630474090576,0.4894886314868927,0.464987576007843
1751214587942845000,4.948844970703125,0.9777788519859314,0.5033370852470398,0.46818336844444275
1751214587952839000,4.9588388671875,0.9532778263092041,0.4426170289516449,0.4554001986980438
1751214587962833000,4.9688330078125,0.9330378174781799,0.37337490916252136,0.4362254738807678
1751214587972826600,4.97882666015625,0.9074714779853821,0.3009369671344757,0.400006502866745
1751214587982820600,4.988820556640625,0.8648608922958374,0.221042200922966,0.3531349003314972
1751214587992814600,4.998814697265625,0.8094671964645386,0.13369058072566986,0.29028433561325073
1751214588002808300,5.008808349609375,0.7444861531257629,0.06018739566206932,0.211454838514328
1751214588012802300,5.01880224609375,0.6731134653091431,-0.01438105944544077,0.154995858669281
1751214588022796300,5.02879638671875,0.6091976165771484,-0.09640636295080185,0.12623374164104462
1751214588032790000,5.0387900390625,0.5591302514076233,-0.1837579756975174,0.10599373281002045
1751214588042784000,5.048783935546875,0.5154544711112976,-0.22849905490875244,0.09747162461280823
1751214588052778000,5.058778076171875,0.4888228476047516,-0.22423799335956573,0.10279794037342072
1751214588062772000,5.06877197265625,0.48988813161849976,-0.18588849902153015,0.12410321086645126
1751214588072765700,5.078765625,0.4920186400413513,-0.12410321086645126,0.15286533534526825
1751214588082759700,5.088759765625,0.4749744236469269,-0.06764423847198486,0.19654114544391632
1751214588092753700,5.098753662109375,0.4419512450695038,-0.03675159439444542,0.25086960196495056
1751214588102747400,5.108747314453125,0.4270375669002533,-0.030360013246536255,0.28921908140182495
1751214588112741400,5.118741455078125,0.40573230385780334,-0.013315795920789242,0.3009369671344757
1751214588122735400,5.1287353515625,0.37270912528038025,0.038882121443748474,0.28389275074005127
1751214588132729000,5.13872900390625,0.3471427857875824,0.08575372397899628,0.24767379462718964
1751214588142723000,5.14872314453125,0.3237069845199585,0.14221268892288208,0.2071937769651413
1751214588152717000,5.158717041015625,0.3098585605621338,0.18908429145812988,0.16671375930309296
1751214588162710800,5.168710693359375,0.29707539081573486,0.2583264410495758,0.10173267871141434
1751214588172704800,5.178704833984375,0.2853575050830841,0.3254380524158478,0.038882121443748474
1751214588182698800,5.18869873046875,0.26511749625205994,0.3914843797683716,0.009054740890860558
1751214588192692700,5.198692626953125,0.24913853406906128,0.4319643974304199,0.006924213841557503
1751214588202686500,5.2086865234375,0.23955115675926208,0.42983388900756836,0.01225053146481514
1751214588212680400,5.218680419921875,0.23955115675926208,0.38722333312034607,0.020772641524672508
1751214588222674400,5.22867431640625,0.2565953731536865,0.3201117217540741,0.01438105944544077
1751214588232668200,5.238668212890625,0.28748801350593567,0.2732401192188263,-0.02396843209862709
1751214588242662100,5.248662109375,0.30666276812553406,0.2828274965286255,-0.09640636295080185
1751214588252656000,5.25865625,0.29387959837913513,0.354200154542923,-0.17949692904949188
1751214588262649900,5.26864990234375,0.25553011894226074,0.4522044062614441,-0.22210747003555298
1751214588272643800,5.278643798828125,0.21718062460422516,0.540621280670166,-0.20080219209194183
1751214588282637800,5.288637939453125,0.2054627239704132,0.607732892036438,-0.1411474347114563
1751214588292631800,5.2986318359375,0.2246374636888504,0.645017147064209,-0.0846884623169899
1751214588302625500,5.30862548828125,0.24487747251987457,0.6418213248252869,-0.053795814514160156
1751214588312619500,5.31861962890625,0.2533995807170868,0.5906887054443359,-0.04314317926764488
1751214588322613500,5.328613525390625,0.25446486473083496,0.4809665381908417,-0.042077913880348206
1751214588332607200,5.338607177734375,0.25553011894226074,0.332894891500473,-0.050600022077560425
1751214588372583000,5.3785830078125,0.23209431767463684,-0.020772641524672508,-0.29028433561325073
1751214588382577000,5.388576904296875,0.21718062460422516,-0.030360013246536255,-0.4042675495147705
1751214588392570600,5.398570556640625,0.18948377668857574,-0.04420844092965126,-0.5182507634162903
1751214588402564600,5.408564697265625,0.1447426974773407,-0.0751010850071907,-0.5832318663597107
1751214588412558600,5.41855859375,0.10319741815328598,-0.11132004857063293,-0.577905535697937
1751214588422552600,5.428552490234375,0.057391077280044556,-0.14966954290866852,-0.5342296957969666
1751214588432546300,5.43854638671875,0.009454214945435524,-0.16671375930309296,-0.49268442392349243
1751214588442540300,5.448540283203125,-0.05020054802298546,-0.1741705983877182,-0.475640207529068
1751214588452534300,5.4585341796875,-0.12583427131175995,-0.19441060721874237,-0.4809665381908417
1751214588462528000,5.468528076171875,-0.21531641483306885,-0.2540653645992279,-0.4894886314868927
1751214588472522000,5.47852197265625,-0.31864699721336365,-0.3712443709373474,-0.5075981020927429
1751214588482516000,5.488515869140625,-0.44115230441093445,-0.475640207529068,-0.5800360441207886
1751214588492509700,5.498509765625,-0.5807018280029297,-0.5129244327545166,-0.7387603521347046
1751214588502503700,5.508503662109375,-0.7266429662704468,-0.49588021636009216,-0.9603351950645447
1751214588512497700,5.51849755859375,-0.8619314432144165,-0.4554001986980438,-1.2085416316986084
1751214588522491600,5.52849169921875,-0.9705883264541626,-0.37337490916252136,-1.4524869918823242
1751214588532485400,5.5384853515625,-1.0494178533554077,-0.2071937769651413,-1.647430181503296
1751214588542479400,5.548479248046875,-1.1165294647216797,0.10173267871141434,-1.7401081323623657
1751214588552473300,5.558473388671875,-1.1964242458343506,0.5757750272750854,-1.7006933689117432
1751214588562467000,5.568467041015625,-1.2965589761734009,1.1201246976852417,-1.5387732982635498
1751214588572461000,5.5784609375,-1.417999029159546,1.5739270448684692,-1.2916321754455566
1751214588602442800,5.60844287109375,-1.9133466482162476,1.7156070470809937,-0.623711884021759
1751214588612436700,5.618436767578125,-2.0560920238494873,1.4727269411087036,-0.5544697046279907
1751214588622430700,5.6284306640625,-2.1232035160064697,1.2852405309677124,-0.5161202549934387
1751214588632424400,5.638424560546875,-2.1295952796936035,1.1201246976852417,-0.4617917835712433
1751214588642418400,5.64841845703125,-2.0997676849365234,0.9454214572906494,-0.3797664940357208
1751214588652412400,5.658412353515625,-2.0390477180480957,0.645017147064209,-0.2913496196269989
1751214588662406100,5.66840625,-1.9623488187789917,0.26578328013420105,-0.22956430912017822
1751214588672400100,5.678400146484375,-1.903759241104126,0.04740423336625099,-0.267913818359375
1751214588682394000,5.68839404296875,-1.8515613079071045,-0.002663159044459462,-0.38722333312034607
1751214588692387800,5.698387939453125,-1.8121466636657715,0.04527370631694794,-0.5363602638244629
1751214588702381800,5.7083818359375,-1.80255925655365,0.12942953407764435,-0.6556697487831116
1751214588712375800,5.718375732421875,-1.8174729347229004,0.1880190372467041,-0.7195855975151062
1751214588722369500,5.72836962890625,-1.8323866128921509,0.24128220975399017,-0.6801708340644836
1751214588732363500,5.738363525390625,-1.8217339515686035,0.267913818359375,-0.5331644415855408
1751214588742357500,5.748357421875,-1.8004287481307983,0.1837579756975174,-0.33715593814849854
1751214588752351500,5.7583515625,-1.7887108325958252,-0.030360013246536255,-0.13262532651424408
1751214588762345200,5.76834521484375,-1.7855150699615479,-0.3307643532752991,0.025033695623278618
1751214588772339200,5.778339111328125,-1.806820273399353,-0.6258423924446106,0.09001477807760239
1751214588782333200,5.788333251953125,-1.831321358680725,-0.7952193021774292,0.062317922711372375
1751214588792327000,5.798326904296875,-1.8643444776535034,-0.7803056240081787,-0.0005326318205334246
1751214588802321000,5.80832080078125,-1.8792582750320435,-0.6567350625991821,-0.06764423847198486
1751214588812315000,5.81831494140625,-1.8600834608078003,-0.5171855092048645,-0.09960214793682098
1751214588822308600,5.82830859375,-1.8526266813278198,-0.44474756717681885,-0.07829687744379044
1751214588832302600,5.838302490234375,-1.8249298334121704,-0.47777074575424194,-0.03249054029583931
1751214588842296600,5.848296630859375,-1.7993634939193726,-0.5480781197547913,0.00798947736620903
1751214588852290600,5.85829052734375,-1.7514265775680542,-0.6631265878677368,0.020772641524672508
1751214588862284300,5.8682841796875,-1.7088160514831543,-0.7590003609657288,-0.0005326318205334246
1751214588872278300,5.8782783203125,-1.6459654569625854,-0.8644614219665527,-0.01970737800002098
1751214588882272300,5.888272216796875,-1.5692665576934814,-0.9251814484596252,-0.01438105944544077
1751214588892266000,5.898265869140625,-1.46700119972229,-0.9230509400367737,0.01438105944544077
1751214588902260000,5.908260009765625,-1.3668663501739502,-0.8942888379096985,0.059122130274772644
1751214588912254000,5.91825390625,-1.2816452980041504,-0.8452867269515991,0.0846884623169899
1751214588922247700,5.92824755859375,-1.1729884147644043,-0.8165245652198792,0.09534109383821487
1751214588932241700,5.93824169921875,-1.1016157865524292,-0.7920235395431519,0.1177116334438324
1751214588942235600,5.948235595703125,-0.9929588437080383,-0.7632613778114319,0.14753901958465576
1751214588952229400,5.9582294921875,-0.8864325284957886,-0.7153245210647583,0.17523586750030518
1751214588962223400,5.968223388671875,-0.7788408994674683,-0.7014760971069336,0.18588849902153015
1751214588972217300,5.97821728515625,-0.6435524225234985,-0.7462171912193298,0.18162745237350464
1751214588982211300,5.98821142578125,-0.5178512930870056,-0.7696529626846313,0.17523586750030518
1751214588992205000,5.998205078125,-0.40812912583351135,-0.7632613778114319,0.17204007506370544
1751214589002199000,6.008198974609375,-0.3058638274669647,-0.7270424365997314,0.19121482968330383
1751214589012193000,6.018193115234375,-0.21638168394565582,-0.6492781639099121,0.21571588516235352
1751214589022186800,6.028186767578125,-0.14500901103019714,-0.5289034247398376,0.23915168642997742
1751214589032180700,6.0381806640625,-0.07896266877651215,-0.39681071043014526,0.267913818359375
1751214589042174700,6.0481748046875,-0.01717737689614296,-0.276435911655426,0.2998717129230499
1751214589052168400,6.05816845703125,0.041412122547626495,-0.1603221744298935,0.3286338448524475
1751214589062162400,6.068162353515625,0.11278478801250458,-0.0655137151479721,0.3531349003314972
1751214589072156400,6.078156494140625,0.20865851640701294,-0.01970737800002098,0.3776359558105469
1751214589082150400,6.088150390625,0.327968031167984,0.0015978955198079348,0.3989412188529968
1751214589092144000,6.09814404296875,0.46219125390052795,0.022903168573975563,0.4032022953033447
1751214589102138000,6.10813818359375,0.6230461001396179,0.04527370631694794,0.3946801722049713
1751214589112132000,6.118132080078125,0.8147935271263123,0.08362319320440292,0.3818970024585724
1751214589122125800,6.128125732421875,1.0065410137176514,0.11345057934522629,0.3382211923599243
1751214589132119800,6.138119873046875,1.1514167785644531,0.07829687744379044,0.2860232889652252
1751214589142113800,6.14811376953125,1.2632695436477661,0.1272990107536316,0.24660852551460266
1751214589152107500,6.158107421875,1.3687306642532349,0.2998717129230499,0.28921908140182495
1751214589162101500,6.1681015625,1.4880400896072388,0.5118591785430908,0.4319643974304199
1751214589172095500,6.178095458984375,1.6478296518325806,0.8655267357826233,0.5981455445289612
1751214589182089500,6.18808935546875,1.8129456043243408,1.2362384796142578,0.720650851726532
1751214589192083200,6.198083251953125,1.9674087762832642,1.41094172000885,0.8346340656280518
1751214589202077200,6.2080771484375,2.1016321182250977,1.45355224609375,0.917724609375
1751214589212071200,6.2180712890625,2.202831983566284,1.356613278388977,0.9486172795295715
1751214589222065000,6.22806494140625,2.259290933609009,1.1297121047973633,0.9518130421638489
1751214589232059000,6.238058837890625,2.288053035736084,0.812263548374176,0.9837709665298462
1751214589242052900,6.248052978515625,2.3114888668060303,0.5480781197547913,1.056208848953247
1751214589252046600,6.258046630859375,2.3253374099731445,0.4138549268245697,1.1669963598251343
1751214589262040600,6.26804052734375,2.302966833114624,0.3680485785007477,1.344895362854004
1751214589272034600,6.27803466796875,2.229463577270508,0.3765707015991211,1.587775468826294
1751214589282028300,6.2880283203125,2.1005666255950928,0.3904191255569458,1.8200029134750366
1751214589292022300,6.298022216796875,1.828924536705017,0.3211769759654999,1.922268271446228
1751214589302016300,6.308016357421875,1.457147479057312,0.3669833242893219,1.743303894996643
1751214589312010200,6.31801025390625,1.1695263385772705,0.5331644415855408,1.3757879734039307
1751214589322004000,6.32800390625,1.0246504545211792,0.3946801722049713,0.9880320429801941
1751214589331998000,6.337998046875,0.9522125124931335,-0.022903168573975563,0.6599308252334595
1751214589341992000,6.347991943359375,0.9309072494506836,-0.3488738536834717,0.43089914321899414
1751214589351985700,6.357985595703125,0.9692567586898804,-0.5789707899093628,0.27963170409202576
1751214589361979600,6.367979736328125,1.0193241834640503,-0.7526087760925293,0.14966954290866852
1751214589371973600,6.3779736328125,1.0725873708724976,-0.8399603962898254,0.017576850950717926
1751214589381967400,6.38796728515625,1.0938925743103027,-0.8314382433891296,-0.12090742588043213
1751214589391961300,6.39796142578125,1.0832399129867554,-0.7558045387268066,-0.2167811542749405
1751214589401955300,6.407955322265625,1.0768483877182007,-0.65353924036026,-0.26471802592277527
1751214589411949300,6.41794921875,1.067260980606079,-0.5395560264587402,-0.26471802592277527
1751214589421943000,6.427943115234375,1.0480862855911255,-0.39361491799354553,-0.21038956940174103
1751214589431937000,6.43793701171875,1.0246504545211792,-0.20932430028915405,-0.1315600574016571
1751214589441931000,6.447930908203125,1.0108020305633545,0.002663159044459462,-0.037816859781742096
1751214589451924700,6.4579248046875,1.0001493692398071,0.21038956940174103,0.05592634156346321
1751214589461918700,6.467918701171875,0.9916272759437561,0.38402754068374634,0.14434322714805603
1751214589471912700,6.47791259765625,0.9863009452819824,0.5097286701202393,0.21784640848636627
1751214589481906400,6.487906494140625,0.9990841150283813,0.5651223659515381,0.27537065744400024
1751214589491900400,6.497900390625,1.0363683700561523,0.5544697046279907,0.3339601457118988
1751214589501894400,6.507894287109375,1.0906968116760254,0.502271831035614,0.38402754068374634
1751214589511888100,6.51788818359375,1.1396989822387695,0.4415517747402191,0.43942126631736755
1751214589521882000,6.527882080078125,1.176983118057251,0.38296228647232056,0.4894886314868927
1751214589531876000,6.5378759765625,1.2046799659729004,0.3382211923599243,0.5395560264587402
1751214589541870000,6.5478701171875,1.218528389930725,0.30413275957107544,0.5800360441207886
1751214589551863800,6.55786376953125,1.2163978815078735,0.2743053734302521,0.6045371294021606
1751214589561857800,6.56785791015625,1.1982884407043457,0.25619590282440186,0.6013413071632385
1751214589571851800,6.577851806640625,1.1482210159301758,0.2551306486129761,0.5661876201629639
1751214589581845500,6.587845458984375,1.0747178792953491,0.2540653645992279,0.4948149621486664
1751214589591839500,6.597839599609375,0.9820399284362793,0.2306295782327652,0.4032022953033447
1751214589601833500,6.60783349609375,0.8872314691543579,0.19121482968330383,0.31265488266944885
1751214589611827200,6.6178271484375,0.7775092720985413,0.13369058072566986,0.23915168642997742
1751214589621821200,6.6278212890625,0.6667218804359436,0.03142527863383293,0.17949692904949188
1751214589631815200,6.637815185546875,0.5708481669425964,-0.09960214793682098,0.1315600574016571
1751214589641809200,6.64780908203125,0.4749744236469269,-0.21891167759895325,0.1038632020354271
1751214589651803000,6.657802978515625,0.37697017192840576,-0.3211769759654999,0.09960214793682098
1751214589661796900,6.667796875,0.28855329751968384,-0.38828858733177185,0.11238531768321991
1751214589671790800,6.677790771484375,0.21398483216762543,-0.39787596464157104,0.12942953407764435
1751214589681784600,6.68778466796875,0.1628521829843521,-0.3531349003314972,0.14753901958465576
1751214589691778600,6.697778564453125,0.13622058928012848,-0.2551306486129761,0.1507348120212555
1751214589701772500,6.7077724609375,0.12769848108291626,-0.15819165110588074,0.12942953407764435
1751214589711766300,6.717766357421875,0.14261217415332794,-0.10173267871141434,0.09747162461280823
1751214589721760300,6.72776025390625,0.1873532384634018,-0.06657897680997849,0.03994738683104515
1751214589731754200,6.737754150390625,0.2384859025478363,-0.011185267940163612,-0.03994738683104515
1751214589741748000,6.747748046875,0.2715090811252594,0.0751010850071907,-0.11238531768321991
1751214589751742000,6.757741943359375,0.29707539081573486,0.17310534417629242,-0.14860427379608154
1751214589761736000,6.76773583984375,0.3247722387313843,0.2402169555425644,-0.15606112778186798
1751214589771730000,6.77772998046875,0.3620564937591553,0.2540653645992279,-0.13369058072566986
1751214589781723600,6.7877236328125,0.4036017656326294,0.22849905490875244,-0.11025478690862656
1751214589791717600,6.797717529296875,0.4355596601963043,0.211454838514328,-0.1081242561340332
1751214589801711600,6.807711669921875,0.4451470375061035,0.21891167759895325,-0.12942953407764435
1751214589811705300,6.817705322265625,0.4281028211116791,0.24554327130317688,-0.16777902841567993
1751214589821699300,6.82769921875,0.3833617568016052,0.2956106662750244,-0.20825904607772827
1751214589831693300,6.837693359375,0.3247722387313843,0.36911386251449585,-0.2263685166835785
1751214589851681000,6.857680908203125,0.20865851640701294,0.5502086877822876,-0.19121482968330383
1751214589861675000,6.867675048828125,0.17670060694217682,0.6503434777259827,-0.1592569202184677
1751214589871669000,6.8776689453125,0.1585911214351654,0.7270424365997314,-0.12303794920444489
1751214589881662700,6.887662841796875,0.1490037590265274,0.7440866827964783,-0.08788424730300903
1751214589891656700,6.89765673828125,0.186287984251976,0.6716487407684326,-0.04953476041555405
1751214589901650700,6.907650634765625,0.25020378828048706,0.49055391550064087,-0.011185267940163612
1751214589911644400,6.91764453125,0.3002711832523346,0.23915168642997742,0.018642114475369453
1751214589921638400,6.927638427734375,0.33435961604118347,-0.018642114475369453,0.042077913880348206
1751214589931632400,6.93763232421875,0.3471427857875824,-0.23382537066936493,0.06657897680997849
1751214589941626000,6.947626220703125,0.3237069845199585,-0.38296228647232056,0.09534109383821487
1751214589951620000,6.9576201171875,0.2725743353366852,-0.4575307369232178,0.1081242561340332
1751214589961614000,6.967614013671875,0.2107890397310257,-0.4607265293598175,0.07936213910579681
1751214589971608000,6.977608154296875,0.1351553201675415,-0.40746334195137024,0.010120004415512085
1751214589981601800,6.987601806640625,0.04673844203352928,-0.33182963728904724,-0.08894951641559601
1751214589991595800,6.997595703125,-0.051265813410282135,-0.2551306486129761,-0.20932430028915405
1751214590001589800,7.00758984375,-0.1428784877061844,-0.19228008389472961,-0.34993910789489746
1751214590011583500,7.01758349609375,-0.23981747031211853,-0.13369058072566986,-0.48629283905029297
1751214590021577500,7.027577392578125,-0.34208279848098755,-0.0708400309085846,-0.6141244769096375
1751214590031571500,7.037571533203125,-0.4379565119743347,-0.010120004415512085,-0.7366297841072083
1751214590041565200,7.047565185546875,-0.5306344628334045,0.062317922711372375,-0.8378298282623291
1751214590051559200,7.05755908203125,-0.6243776679039001,0.15393058955669403,-0.9060067534446716
1751214590061553200,7.06755322265625,-0.7170555591583252,0.2583264410495758,-0.9230509400367737
1751214590071547000,7.077546875,-0.8022766709327698,0.39254966378211975,-0.8985498547554016
1751214590081540900,7.087540771484375,-0.8747146129608154,0.5874928832054138,-0.8410256505012512
1751214590091534800,7.097534912109375,-0.93117356300354,0.8186551332473755,-0.7717835307121277
1751214590101528800,7.10752880859375,-0.9865673184394836,1.0306426286697388,-0.7174550890922546
1751214590111522600,7.1175224609375,-1.0366346836090088,1.1765836477279663,-0.6823013424873352
1751214590121516500,7.1275166015625,-1.0867021083831787,1.2362384796142578,-0.6514087319374084
1751214590131510500,7.137510498046875,-1.1175947189331055,1.2085416316986084,-0.6109287142753601
1751214590141504300,7.147504150390625,-1.119725227355957,1.0966888666152954,-0.5842971205711365
1751214590151498200,7.157498291015625,-1.0984200239181519,0.933703601360321,-0.5874928832054138
1751214590161492200,7.1674921875,-1.0568746328353882,0.7515435218811035,-0.6151897311210632
1751214590171486000,7.17748583984375,-1.0217210054397583,0.5502086877822876,-0.645017147064209
1751214590181480000,7.18747998046875,-0.9993504285812378,0.31798118352890015,-0.6684529185295105
1751214590191474000,7.197473876953125,-0.9918935894966125,0.061252661049366,-0.690823495388031
1751214590201468000,7.207468017578125,-1.0014809370040894,-0.14434322714805603,-0.7344992756843567
1751214590211461600,7.217461669921875,-1.0195904970169067,-0.17204007506370544,-0.8026761412620544
1751214590221455600,7.22745556640625,-1.0622010231018066,-0.04740423336625099,-0.850612998008728
1751214590231449600,7.23744970703125,-1.1463568210601807,0.16351796686649323,-0.850612998008728
1751214590241443300,7.247443359375,-1.2720578908920288,0.4372907280921936,-0.7707182168960571
1751214590251437300,7.257437255859375,-1.4243906736373901,0.7238466143608093,-0.6098634600639343
1751214590261431300,7.267431396484375,-1.5799190998077393,0.9145288467407227,-0.400006502866745
1751214590271425000,7.277425048828125,-1.7141423225402832,0.9283772706985474,-0.22423799335956573
1751214590281419000,7.2874189453125,-1.8259950876235962,0.7866972088813782,-0.1081242561340332
1751214590291413000,7.2974130859375,-1.9325214624404907,0.5310339331626892,-0.054861076176166534
1751214590301406700,7.30740673828125,-2.0102856159210205,0.23595589399337769,-0.0655137151479721
1751214590311400700,7.317400634765625,-2.0198729038238525,-0.04527370631694794,-0.11558110266923904
1751214590321394700,7.327394775390625,-1.9740667343139648,-0.2860232889652252,-0.17523586750030518
1751214590331388700,7.337388671875,-1.9101508855819702,-0.4511391520500183,-0.211454838514328
1751214590381358000,7.387358154296875,-1.7311866283416748,0.046338967978954315,0.01970737800002098
1751214590391352000,7.39735205078125,-1.8121466636657715,0.026098959147930145,0.04527370631694794
1751214590401345800,7.407345703125,-1.8973677158355713,-0.050600022077560425,0.03675159439444542
1751214590411339800,7.41733984375,-1.9889804124832153,-0.1081242561340332,0.03994738683104515
1751214590421333800,7.427333740234375,-2.0560920238494873,-0.14860427379608154,0.06338318437337875
1751214590431327700,7.43732763671875,-2.08804988861084,-0.18908429145812988,0.11238531768321991
1751214590441321500,7.447321533203125,-2.078462600708008,-0.2306295782327652,0.18482324481010437
1751214590451315500,7.4573154296875,-2.0358519554138184,-0.26045694947242737,0.23915168642997742
1751214590461309400,7.467309326171875,-1.958087682723999,-0.2956106662750244,0.23702116310596466
1751214590471303200,7.47730322265625,-1.861148715019226,-0.3627222776412964,0.1880190372467041
1751214590481297200,7.487297119140625,-1.7429044246673584,-0.49268442392349243,0.09747162461280823
1751214590491291100,7.497291015625,-1.6374434232711792,-0.6929540038108826,-0.033555805683135986
1751214590501284900,7.507284912109375,-1.5319823026657104,-0.8761793375015259,-0.1464737504720688
1751214590511278800,7.51727880859375,-1.449957013130188,-0.9038761854171753,-0.19867166876792908
1751214590521272800,7.52727294921875,-1.3551485538482666,-0.8282424807548523,-0.1837579756975174
1751214590531266600,7.5372666015625,-1.2209253311157227,-0.6876276731491089,-0.11664637178182602
1751214590541260500,7.547260498046875,-1.072853684425354,-0.5470128655433655,-0.04846949502825737
1751214590551254500,7.557254638671875,-0.943956732749939,-0.4383559823036194,-0.010120004415512085
1751214590561248500,7.56724853515625,-0.8171903491020203,-0.4181159734725952,0.005858949851244688
1751214590571242200,7.5772421875,-0.7106640338897705,-0.4522044062614441,0.030360013246536255
1751214590581236200,7.587236328125,-0.6169208288192749,-0.4799012839794159,0.06977476924657822
1751214590591230200,7.597230224609375,-0.5316997170448303,-0.47670549154281616,0.11877689510583878
1751214590601224000,7.607223876953125,-0.4667186439037323,-0.43409493565559387,0.1826927214860916
1751214590611218000,7.617218017578125,-0.3346259295940399,-0.3627222776412964,0.23595589399337769
1751214590621212000,7.6272119140625,-0.24301326274871826,-0.28389275074005127,0.2785664498806
1751214590631205600,7.63720556640625,-0.13861742615699768,-0.22956430912017822,0.3190464675426483
1751214590641199600,7.64719970703125,-0.02143843099474907,-0.19014956057071686,0.3478085696697235
1751214590651193600,7.657193603515625,0.1117195263504982,-0.16351796686649323,0.35526543855667114
1751214590661187600,7.6671875,0.262986958026886,-0.12090742588043213,0.34141698479652405
1751214590671181300,7.677181396484375,0.42916807532310486,-0.06018739566206932,0.31372013688087463
1751214590681175300,7.68717529296875,0.6145239472389221,0.01225053146481514,0.27963170409202576
1751214590691169300,7.697169189453125,0.8179892897605896,0.08575372397899628,0.24128220975399017
1751214590701163000,7.7071630859375,1.0523473024368286,0.1688442826271057,0.19547587633132935
1751214590711157000,7.717156982421875,1.2994884252548218,0.27110961079597473,0.14008216559886932
1751214590721151000,7.72715087890625,1.5338464975357056,0.3392864763736725,0.059122130274772644
1751214590731144700,7.737144775390625,1.7106802463531494,0.35526543855667114,-0.046338967978954315
1751214590741138700,7.747138671875,1.8246634006500244,0.48629283905029297,-0.10918952524662018
1751214590751132700,7.757132568359375,1.888579249382019,0.7760445475578308,-0.03142527863383293
1751214590761126700,7.767126708984375,1.9322550296783447,1.1765836477279663,0.24767379462718964
1751214590771120400,7.777120361328125,1.9492993354797363,1.8029587268829346,0.5811012983322144
1751214590781114400,7.7871142578125,1.9322550296783447,2.4144201278686523,0.8261119723320007
1751214590791108400,7.7971083984375,1.8992319107055664,2.683931827545166,1.0828404426574707
1751214590801102000,7.80710205078125,1.8971014022827148,2.568883180618286,1.4322469234466553
1751214590811096000,7.817095947265625,1.8140108585357666,2.088449478149414,1.6570175886154175
1751214590821090000,7.827090087890625,1.5029538869857788,1.6197333335876465,1.5409038066864014
1751214590831083800,7.837083740234375,1.2174631357192993,1.2287815809249878,1.1297121047973633
1751214590841077800,7.847077880859375,1.1748526096343994,0.8474172353744507,0.7099981904029846
1751214590851071700,7.85707177734375,1.2451599836349487,0.5363602638244629,0.5789707899093628
1751214590861065500,7.8670654296875,1.4017537832260132,0.26152223348617554,0.6918887495994568
1751214590871059500,7.8770595703125,1.611610770225525,0.030360013246536255,0.8474172353744507
1751214590881053400,7.887053466796875,1.8129456043243408,-0.11345057934522629,0.8921582698822021
1751214590891047400,7.89704736328125,1.9237329959869385,-0.26578328013420105,0.7685877084732056
1751214590901041200,7.907041259765625,1.8971014022827148,-0.5299686789512634,0.5203812718391418
1751214590911035100,7.91703515625,1.8108149766921997,-0.871918261051178,0.2348906397819519
1751214590921029000,7.927029052734375,1.7266591787338257,-1.2064111232757568,-0.0005326318205334246
1751214590931022800,7.93702294921875,1.6616780757904053,-1.4471606016159058,-0.17949692904949188
1751214590941016800,7.947016845703125,1.5839139223098755,-1.5856449604034424,-0.3211769759654999
1751214590951010800,7.9570107421875,1.4752570390701294,-1.6442344188690186,-0.4181159734725952
1751214590961004500,7.967004638671875,1.3399684429168701,-1.6431691646575928,-0.46924862265586853
1751214590970998500,7.97699853515625,1.1876357793807983,-1.5781880617141724,-0.46285703778266907
1751214590980992500,7.986992431640625,1.0491515398025513,-1.4631396532058716,-0.4234423041343689
1751214590990986500,7.996986572265625,0.9532778263092041,-1.2969584465026855,-0.3584612011909485
1751214591000980200,8.006980224609375,0.898949384689331,-1.106276273727417,-0.2775011658668518
1751214591010974200,8.01697412109375,0.8851009011268616,-0.9028109312057495,-0.1784316599369049
1751214591020968200,8.02696826171875,0.9010798931121826,-0.6897581815719604,-0.07829687744379044
1751214591030962000,8.0369619140625,0.9372988343238831,-0.456465482711792,0.029294749721884727
1751214591040956000,8.046955810546875,0.9831051826477051,-0.20932430028915405,0.13475584983825684
1751214591050950000,8.056949951171875,1.0235852003097534,0.054861076176166534,0.23915168642997742
1751214591060943600,8.066943603515625,1.057673692703247,0.28389275074005127,0.3339601457118988
1751214591070937600,8.0769375,1.0693914890289307,0.44048652052879333,0.4032022953033447
1751214591080931600,8.086931640625,1.0651304721832275,0.5512739419937134,0.44581282138824463
1751214591090925300,8.09692529296875,1.0736526250839233,0.6418213248252869,0.464987576007843
1751214591100919300,8.106919189453125,1.100284218788147,0.7099981904029846,0.48203179240226746
1751214591110913300,8.116913330078125,1.124785304069519,0.7590003609657288,0.5033370852470398
1751214591120907300,8.1269072265625,1.1290463209152222,0.8016108870506287,0.5363602638244629
1751214591130901000,8.13690087890625,1.1183936595916748,0.8026761412620544,0.5555350184440613
1751214591140895000,8.14689501953125,1.0885663032531738,0.7590003609657288,0.5566002726554871
1751214591150889000,8.156888916015625,1.038498878479004,0.6823013424873352,0.5342296957969666
1751214591160882700,8.166882568359375,0.9767135977745056,0.577905535697937,0.48735812306404114
1751214591170876700,8.176876708984375,0.9149283170700073,0.4745749533176422,0.4223770201206207
1751214591180870700,8.18687060546875,0.8627303838729858,0.3680485785007477,0.3488738536834717
1751214591190864400,8.196864501953126,0.8041408658027649,0.23702116310596466,0.2721748650074005
1751214591200858400,8.2068583984375,0.7295724153518677,0.027164222672581673,0.19973693788051605
1751214591210852400,8.216852294921875,0.6560692191123962,-0.221042200922966,0.11558110266923904
1751214591220846300,8.226846435546875,0.5857618451118469,-0.40746334195137024,0.030360013246536255
1751214591230840000,8.236840087890625,0.49947547912597656,-0.5203812718391418,-0.04846949502825737
1751214591250828000,8.256828125,0.3183806836605072,-0.6428865790367126,-0.16777902841567993
1751214591260821800,8.26682177734375,0.2480732649564743,-0.6482129096984863,-0.2071937769651413
1751214591270815700,8.276815673828125,0.1916143000125885,-0.6279729008674622,-0.20612850785255432
1751214591280809700,8.286809814453125,0.1447426974773407,-0.586427628993988,-0.17097482085227966
1751214591290803500,8.296803466796876,0.10532794147729874,-0.577905535697937,-0.13901691138744354
1751214591300797400,8.30679736328125,0.08402267098426819,-0.6013413071632385,-0.11345057934522629
1751214591310791400,8.31679150390625,0.07763108611106873,-0.6407560706138611,-0.08894951641559601
1751214591320785400,8.326785400390625,0.07017423957586288,-0.6769750714302063,-0.05699160322546959
1751214591330779100,8.336779052734375,0.07550056278705597,-0.712128758430481,-0.025033695623278618
1751214591340773000,8.346773193359375,0.08934898674488068,-0.7004108428955078,-0.01225053146481514
1751214591350767000,8.35676708984375,0.08615319430828094,-0.6269076466560364,-0.02396843209862709
1751214591360760800,8.3667607421875,0.08402267098426819,-0.48735812306404114,-0.0655137151479721
1751214591370754800,8.3767548828125,0.09254477918148041,-0.38828858733177185,-0.1177116334438324
1751214591380748800,8.386748779296875,0.10000162571668625,-0.35100436210632324,-0.15819165110588074
1751214591390742500,8.396742431640625,0.11278478801250458,-0.34993910789489746,-0.1784316599369049
1751214591400736500,8.406736572265626,0.13195952773094177,-0.3584612011909485,-0.1880190372467041
1751214591410730500,8.41673046875,0.16178691387176514,-0.3776359558105469,-0.19228008389472961
1751214591420724200,8.42672412109375,0.18096165359020233,-0.3946801722049713,-0.20293273031711578
1751214591430718200,8.43671826171875,0.17563533782958984,-0.3723096549510956,-0.22423799335956573
1751214591440712200,8.446712158203125,0.1394163817167282,-0.29454538226127625,-0.2593916952610016
1751214591450706200,8.4567060546875,0.09467530250549316,-0.1368863731622696,-0.28921908140182495
1751214591460700000,8.466699951171876,0.05099949613213539,0.1507348120212555,-0.297741174697876
1751214591470694000,8.47669384765625,0.03821633383631706,0.5075981020927429,-0.28495803475379944
1751214591480687900,8.48668798828125,0.05419528856873512,0.8261119723320007,-0.26152223348617554
1751214591490681600,8.496681640625,0.07656582444906235,1.0540783405303955,-0.22743378579616547
1751214591500675600,8.506675537109375,0.08721846342086792,1.1627352237701416,-0.1741705983877182
1751214591510669600,8.516669677734376,0.08082687854766846,1.1414300203323364,-0.09214530140161514
1751214591520663300,8.526663330078126,0.06591318547725677,1.0040110349655151,0.033555805683135986
1751214591530657300,8.5366572265625,0.08508793264627457,0.7643266916275024,0.18588849902153015
1751214591540651300,8.5466513671875,0.1639174371957779,0.4596612751483917,0.3254380524158478
1751214591550645200,8.556645263671875,0.2661827504634857,0.14221268892288208,0.38828858733177185
1751214591560639000,8.566638916015625,0.3322291076183319,-0.16564849019050598,0.3584612011909485
1751214591570633000,8.576633056640626,0.36844804883003235,-0.4245075583457947,0.28815382719039917
1751214591580627000,8.586626953125,0.41425439715385437,-0.607732892036438,0.23169484734535217
1751214591590620700,8.59662060546875,0.4696480929851532,-0.7344992756843567,0.22956430912017822
1751214591600614700,8.60661474609375,0.4866923391819,-0.8644614219665527,0.28495803475379944
1751214591610608600,8.616608642578125,0.43875545263290405,-1.0040110349655151,0.3573959469795227
1751214591620602400,8.626602294921875,0.3812312185764313,-1.1105372905731201,0.3712443709373474
1751214591630596400,8.636596435546876,0.34501224756240845,-1.136103630065918,0.26578328013420105
1751214591640590300,8.64659033203125,0.28748801350593567,-1.0540783405303955,0.059122130274772644
1751214591650584000,8.656583984375,0.1916143000125885,-0.9070720076560974,-0.17097482085227966
1751214591660578000,8.666578125,0.08189214020967484,-0.7632613778114319,-0.3904191255569458
1751214591670572000,8.676572021484375,-0.019307903945446014,-0.6162550449371338,-0.586427628993988
1751214591680566000,8.68656591796875,-0.10346373170614243,-0.4788359999656677,-0.7643266916275024
1751214591690559700,8.696559814453124,-0.19614167511463165,-0.34567806124687195,-0.9209204316139221
1751214591700553700,8.7065537109375,-0.28988486528396606,-0.2593916952610016,-1.0657962560653687
1751214591710547700,8.716547607421875,-0.39428070187568665,-0.1976063996553421,-1.185105800628662
1751214591720541400,8.72654150390625,-0.5189165472984314,-0.11025478690862656,-1.252217411994934
1751214591730535400,8.736535400390625,-0.6360955238342285,0.02396843209862709,-1.257543683052063
1751214591740529400,8.746529296875,-0.7415566444396973,0.21891167759895325,-1.2085416316986084
1751214591750523100,8.756523193359374,-0.8534093499183655,0.510793924331665,-1.113733172416687
1751214591760517000,8.76651708984375,-0.9780451655387878,0.89641934633255,-1.005076289176941
1751214591770511000,8.776510986328125,-1.0973546504974365,1.3640700578689575,-0.9081372618675232
1751214591780505000,8.786505126953125,-1.2198600769042969,1.8690050840377808,-0.8399603962898254
1751214591790498800,8.796498779296876,-1.3764537572860718,2.3281335830688477,-0.8016108870506287
1751214591800492800,8.806492919921874,-1.513872742652893,2.6178853511810303,-0.7866972088813782
1751214591810486800,8.81648681640625,-1.6161381006240845,2.6604959964752197,-0.7803056240081787
1751214591820480500,8.82648046875,-1.6896412372589111,2.5039021968841553,-0.7739140391349792
1751214591830474500,8.836474609375,-1.7205339670181274,2.1960411071777344,-0.7685877084732056
1751214591840468500,8.846468505859375,-1.7269254922866821,1.7592829465866089,-0.7472824454307556
1751214591850462200,8.856462158203126,-1.70242440700531,1.265000581741333,-0.7099981904029846
1751214591860456200,8.866456298828124,-1.6651402711868286,0.8143940567970276,-0.6609960794448853
1751214591870450200,8.8764501953125,-1.6459654569625854,0.4788359999656677,-0.5811012983322144
1751214591880444000,8.88644384765625,-1.6086812019348145,0.2018674612045288,-0.464987576007843
1751214591890438000,8.89643798828125,-1.5735275745391846,0.015446322970092297,-0.28921908140182495
1751214591900432000,8.906431884765626,-1.5543527603149414,-0.011185267940163612,-0.10918952524662018
1751214591910425900,8.91642578125,-1.5490264892578125,-0.013315795920789242,-0.006924213841557503
1751214591920419600,8.926419677734375,-1.5383738279342651,0.022903168573975563,0.002663159044459462
1751214591930413600,8.93641357421875,-1.5543527603149414,0.11451584100723267,-0.06764423847198486
1751214591940407600,8.946407470703125,-1.6001591682434082,0.19228008389472961,-0.17097482085227966
1751214591950401300,8.9564013671875,-1.6821844577789307,0.221042200922966,-0.26684853434562683
1751214591960395300,8.966395263671876,-1.7791234254837036,0.19547587633132935,-0.25193485617637634
1751214591970389200,8.97638916015625,-1.861148715019226,0.14966954290866852,-0.11345057934522629
1751214591980383000,8.986383056640625,-1.9026939868927002,0.06657897680997849,0.06977476924657822
1751214591990377000,8.996376953125,-1.9218688011169434,0.002663159044459462,0.20825904607772827
1751214592000371000,9.006370849609375,-1.9293255805969238,0.034621067345142365,0.2625874876976013
1751214592010365000,9.016364990234376,-1.9250645637512207,0.1081242561340332,0.22956430912017822
1751214592020358700,9.026358642578124,-1.9197382926940918,0.16564849019050598,0.1507348120212555
1751214592030352600,9.0363525390625,-1.9186729192733765,0.17736639082431793,0.1081242561340332
1751214592040346600,9.0463466796875,-1.9144119024276733,0.12623374164104462,0.12516847252845764
1751214592050340400,9.05634033203125,-1.9080203771591187,0.046338967978954315,0.16245271265506744
1751214592060334300,9.066334228515625,-1.8931066989898682,-0.020772641524672508,0.19014956057071686
1751214592070328300,9.076328369140626,-1.8771276473999023,-0.04314317926764488,0.1837579756975174
1751214592080322000,9.086322021484374,-1.8654098510742188,-0.0516652874648571,0.14008216559886932
1751214592090316000,9.09631591796875,-1.8536919355392456,-0.05699160322546959,0.07723161578178406
1751214592100310000,9.10631005859375,-1.8377128839492798,-0.042077913880348206,0.033555805683135986
1751214592110304000,9.116303955078125,-1.8004287481307983,-0.050600022077560425,0.013315795920789242
1751214592120297700,9.126297607421876,-1.70988130569458,-0.07829687744379044,0.005858949851244688
1751214592130291700,9.136291748046874,-1.5575486421585083,-0.11984215676784515,0.005858949851244688
1751214592140285700,9.14628564453125,-1.4329127073287964,-0.16138744354248047,0.011185267940163612
1751214592150279400,9.156279541015625,-1.4148032665252686,-0.21571588516235352,0.017576850950717926
1751214592160273400,9.1662734375,-1.4041506052017212,-0.3211769759654999,0.015446322970092297
1751214592170267400,9.176267333984375,-1.3668663501739502,-0.4415517747402191,0.015446322970092297
1751214592180261000,9.18626123046875,-1.3306474685668945,-0.5544697046279907,0.01970737800002098
1751214592190255000,9.196255126953124,-1.2656663656234741,-0.6194508075714111,0.01225053146481514
1751214592200249000,9.2062490234375,-1.1857715845108032,-0.6492781639099121,-0.0015978955198079348
1751214592210242800,9.216242919921875,-1.0867021083831787,-0.6780403256416321,-0.009054740890860558
1751214592220236800,9.22623681640625,-0.9663273096084595,-0.7227813601493835,0.002663159044459462
1751214592230230800,9.236230712890626,-0.8395609259605408,-0.7632613778114319,0.034621067345142365
1751214592240224800,9.246224853515624,-0.7117292881011963,-0.7653919458389282,0.06977476924657822
1751214592250218500,9.256218505859374,-0.5945502519607544,-0.745151937007904,0.08681898564100266
1751214592260212500,9.26621240234375,-0.4858933687210083,-0.7110635042190552,0.10279794037342072
1751214592270206500,9.27620654296875,-0.3868238627910614,-0.6492781639099121,0.13475584983825684
1751214592280200200,9.2862001953125,-0.2973417043685913,-0.5555350184440613,0.18482324481010437
1751214592290194200,9.296194091796876,-0.20999009907245636,-0.4522044062614441,0.23276010155677795
1751214592300188200,9.306188232421874,-0.12476900219917297,-0.34674331545829773,0.2625874876976013
1751214592310182000,9.316181884765625,-0.04167843982577324,-0.2402169555425644,0.27963170409202576
1751214592320175900,9.32617578125,0.03821633383631706,-0.15712638199329376,0.30732855200767517
1751214592330169900,9.336169921875,0.11598058044910431,-0.09747162461280823,0.354200154542923
1751214592370145500,9.3761455078125,0.43769019842147827,-0.034621067345142365,0.5086634159088135
1751214592380139300,9.38613916015625,0.5293028950691223,-0.06657897680997849,0.5118591785430908
1751214592390133200,9.39613330078125,0.6123934388160706,-0.1177116334438324,0.49268442392349243
1751214592400127200,9.406127197265626,0.6390250325202942,-0.17736639082431793,0.4415517747402191
1751214592410121000,9.416120849609374,0.6262418627738953,-0.22743378579616547,0.3808317482471466
1751214592420115000,9.426114990234375,0.5921534299850464,-0.2498043179512024,0.3755054473876953
1751214592430109000,9.43610888671875,0.581500768661499,-0.16138744354248047,0.3957454562187195
1751214592440102700,9.4461025390625,0.6336987018585205,-0.027164222672581673,0.4426170289516449
1751214592450096600,9.4560966796875,0.7348987460136414,0.15819165110588074,0.4852275848388672
1751214592460090600,9.466090576171876,0.8424903750419617,0.39681071043014526,0.4841623306274414
1751214592470084600,9.476084716796874,0.9341030716896057,0.6098634600639343,0.49055391550064087
1751214592480078300,9.486078369140625,1.003345251083374,0.7696529626846313,0.5246423482894897
1751214592490072300,9.496072265625,1.055543065071106,0.8772445917129517,0.5576655268669128
1751214592500066300,9.50606640625,1.1120021343231201,0.8676572442054749,0.5470128655433655
1751214592510060000,9.51606005859375,1.167395830154419,0.7014760971069336,0.5438171029090881
1751214592520054000,9.526053955078124,1.2163978815078735,0.4799012839794159,0.5725792050361633
1751214592530048000,9.536048095703125,1.2590084075927734,0.29454538226127625,0.6460824012756348
1751214592540041700,9.546041748046875,1.3144022226333618,0.17523586750030518,0.7632613778114319
1751214592550035700,9.55603564453125,1.367665410041809,0.18695376813411713,0.8474172353744507
1751214592560029700,9.56602978515625,1.365534782409668,0.22317273914813995,0.8346340656280518
1751214592570023700,9.576023681640624,1.3463600873947144,0.17630113661289215,0.7568697929382324
1751214592580017400,9.586017333984374,1.3889706134796143,0.06338318437337875,0.6652571558952332
1751214592590011400,9.596011474609375,1.4422338008880615,-0.09108003973960876,0.6119939684867859
1751214592600005400,9.60600537109375,1.4528864622116089,-0.24341274797916412,0.5981455445289612
1751214592609999000,9.6159990234375,1.4582127332687378,-0.35100436210632324,0.6109287142753601
1751214592619993000,9.6259931640625,1.4901707172393799,-0.3850927948951721,0.6013413071632385
1751214592629987000,9.635987060546874,1.5349117517471313,-0.40213701128959656,0.5629918575286865
1751214592639980800,9.645980712890625,1.569000244140625,-0.44900861382484436,0.5129244327545166
1751214592649974800,9.655974853515625,1.6009581089019775,-0.5629918575286865,0.4713791608810425
1751214592659968800,9.66596875,1.6222633123397827,-0.7281076908111572,0.4415517747402191
1751214592669962800,9.675962646484376,1.6180022954940796,-0.871918261051178,0.4181159734725952
1751214592679956500,9.68595654296875,1.5647391080856323,-0.9475520253181458,0.3914843797683716
1751214592689950500,9.695950439453124,1.4837790727615356,-0.9198551774024963,0.3573959469795227
1751214592699944400,9.7059443359375,1.4092106819152832,-0.7984151244163513,0.3158506751060486
1751214592709938200,9.715938232421875,1.3580780029296875,-0.6567350625991821,0.2743053734302521
1751214592719932200,9.72593212890625,1.3325116634368896,-0.5150549411773682,0.22743378579616547
1751214592729926100,9.735926025390626,1.2994884252548218,-0.34674331545829773,0.19228008389472961
1751214592739920000,9.745919921875,1.2845747470855713,-0.17949692904949188,0.16671375930309296
1751214592749913900,9.755913818359375,1.2909663915634155,-0.018642114475369453,0.15819165110588074
1751214592759907800,9.765907958984375,1.288835883140564,0.12410321086645126,0.18588849902153015
1751214592769901600,9.775901611328125,1.2611390352249146,0.23595589399337769,0.2498043179512024
1751214592779895600,9.7858955078125,1.221724271774292,0.332894891500473,0.3307643532752991
1751214592789889500,9.7958896484375,1.234507441520691,0.42983388900756836,0.4053328037261963
1751214592799883500,9.805883544921874,1.2611390352249146,0.5267728567123413,0.45433494448661804
1751214592809877200,9.815877197265625,1.2632695436477661,0.6194508075714111,0.47350969910621643
1751214592819871200,9.825871337890625,1.2355726957321167,0.7089329361915588,0.4607265293598175
1751214592829865200,9.835865234375,1.201484203338623,0.7845667004585266,0.4277033507823944
1751214592839859000,9.84585888671875,1.15461266040802,0.825046718120575,0.37870121002197266
1751214592849853000,9.85585302734375,1.092827320098877,0.8346340656280518,0.3243727684020996
1751214592859847000,9.865846923828125,1.0161283016204834,0.8367645740509033,0.27004432678222656
1751214592869840600,9.875840576171875,0.9490167498588562,0.8016108870506287,0.19973693788051605
1751214592879834600,9.885834716796875,0.90427565574646,0.720650851726532,0.1177116334438324
1751214592889828600,9.89582861328125,0.8733830451965332,0.6290381550788879,0.033555805683135986
1751214592899822600,9.905822509765626,0.853143036365509,0.5075981020927429,-0.062317922711372375
1751214592909816300,9.91581640625,0.8329030275344849,0.34674331545829773,-0.17204007506370544
1751214592919810300,9.925810302734375,0.8052061796188354,0.1837579756975174,-0.28495803475379944
1751214592929804300,9.93580419921875,0.7593998312950134,0.03568633273243904,-0.39254966378211975
1751214592939798000,9.945798095703125,0.6933534741401672,-0.09108003973960876,-0.49055391550064087
1751214592949792000,9.9557919921875,0.6166545152664185,-0.18056218326091766,-0.5715139508247375
1751214592959786000,9.965785888671874,0.5548691749572754,-0.21891167759895325,-0.6311687231063843
1751214592969779700,9.97577978515625,0.5474123358726501,-0.24660852551460266,-0.67484450340271
1751214592979773700,9.985773681640625,0.45793020725250244,-0.19654114544391632,-0.6578003168106079
1751214592989767700,9.995767578125,0.3290333151817322,-0.13901691138744354,-0.5949497222900391
1751214592999761400,10.005761474609375,0.19800588488578796,-0.09640636295080185,-0.47670549154281616
1751214593009755400,10.01575537109375,0.1351553201675415,-0.09108003973960876,-0.3158506751060486
1751214593019749400,10.025749267578124,0.11811110377311707,-0.08255793154239655,-0.10918952524662018
1751214593029743400,10.035743408203125,0.05206476151943207,-0.1464737504720688,0.12410321086645126
1751214593039737000,10.045737060546875,-0.005459476262331009,-0.22849905490875244,0.3755054473876953
1751214593049731000,10.05573095703125,-0.035286858677864075,-0.23169484734535217,0.6205160617828369
1751214593059725000,10.06572509765625,-0.05446160212159157,-0.14860427379608154,0.8346340656280518
1751214593069718800,10.07571875,-0.1045289933681488,0.05592634156346321,1.0434256792068481
1751214593079712800,10.085712646484374,-0.11624689400196075,0.34993910789489746,1.1893668174743652
1751214593089706800,10.095706787109375,-0.09600688517093658,0.6705834865570068,1.2394342422485352
1751214593099700500,10.105700439453125,-0.08215846121311188,0.8910930156707764,1.2319773435592651
1751214593109694500,10.115694580078125,-0.051265813410282135,0.89641934633255,1.1712573766708374
1751214593119688400,10.1256884765625,-0.020373167470097542,0.8090677261352539,1.001880407333374
1751214593129682400,10.135682373046874,0.028628960251808167,0.5896234512329102,0.6854971647262573
1751214593139676200,10.14567626953125,0.06058686971664429,0.36059173941612244,0.29348012804985046
1751214593149670100,10.155670166015625,0.06271740049123764,0.22849905490875244,-0.06657897680997849
1751214593159664000,10.1656640625,0.03821633383631706,0.18162745237350464,-0.31372013688087463
1751214593169657900,10.175657958984376,0.03075948730111122,0.15606112778186798,-0.43516018986701965
1751214593179651800,10.18565185546875,0.05952160432934761,0.10918952524662018,-0.46818336844444275
1751214593189645800,10.195645751953125,0.10106688737869263,0.0516652874648571,-0.4330296814441681
1751214593199639600,10.2056396484375,0.14580796658992767,-0.0005326318205334246,-0.34674331545829773
1751214593209633500,10.215633544921875,0.20226693153381348,-0.046338967978954315,-0.2444780021905899
1751214593219627500,10.22562744140625,0.26405221223831177,-0.0846884623169899,-0.14753901958465576
1751214593229621200,10.235621337890626,0.2992059290409088,-0.11025478690862656,-0.058056868612766266
1751214593239615200,10.245615234375,0.2960101366043091,-0.12410321086645126,0.020772641524672508
1751214593249609200,10.255609130859375,0.27896592020988464,-0.11132004857063293,0.06870950758457184
1751214593259603200,10.265603271484375,0.2768353819847107,-0.04846949502825737,0.07403582334518433
1751214593269597000,10.275596923828125,0.2768353819847107,0.05592634156346321,0.021837905049324036
1751214593279591000,10.2855908203125,0.2587259113788605,0.15819165110588074,-0.0751010850071907
1751214593289585000,10.2955849609375,0.23742063343524933,0.1826927214860916,-0.21038956940174103
1751214593299578600,10.30557861328125,0.21611535549163818,0.1358211189508438,-0.3723096549510956
1751214593309572600,10.315572509765625,0.19800588488578796,0.07297056168317795,-0.5257076025009155
1751214593319566600,10.325566650390625,0.1873532384634018,0.06657897680997849,-0.6609960794448853
1751214593329560300,10.335560302734375,0.2054627239704132,0.1464737504720688,-0.766457200050354
1751214593339554300,10.34555419921875,0.2587259113788605,0.2593916952610016,-0.8197203874588013
1751214593349548300,10.35554833984375,0.34501224756240845,0.4053328037261963,-0.8005456328392029
1751214593359542300,10.365542236328125,0.44408178329467773,0.5001412630081177,-0.6950845122337341
1751214593369536000,10.375535888671875,0.49947547912597656,0.42131176590919495,-0.5044023394584656
1751214593379530000,10.385530029296875,0.4834965467453003,0.20612850785255432,-0.19547587633132935
1751214593389524000,10.39552392578125,0.3982754349708557,-0.15180006623268127,0.15393058955669403
1751214593399517700,10.405517578125,0.2992059290409088,-0.6546044945716858,0.4415517747402191
1751214593409511700,10.41551171875,0.20013640820980072,-1.1883015632629395,0.6460824012756348
1751214593419505700,10.425505615234375,0.10958899557590485,-1.5909712314605713,0.7387603521347046
1751214593429499400,10.43549951171875,0.06271740049123764,-1.7539565563201904,0.67484450340271
1751214593439493400,10.445493408203125,0.053130023181438446,-1.6080154180526733,0.43089914321899414
1751214593449487400,10.4554873046875,0.012650005519390106,-1.2458258867263794,0.01225053146481514
1751214593459481300,10.4654814453125,-0.08322372287511826,-0.7941540479660034,-0.5139896869659424
1751214593469475000,10.47547509765625,-0.20466378331184387,-0.3659180700778961,-1.0135983228683472
1751214593479469000,10.485468994140625,-0.32823434472084045,-0.020772641524672508,-1.386440634727478
1751214593499456800,10.505456787109376,-0.5636576414108276,0.5587307810783386,-1.6186680793762207
1751214593519444700,10.52544482421875,-0.8587356805801392,1.1925626993179321,-1.3885711431503296
1751214593529438500,10.5354384765625,-1.0717884302139282,1.5536869764328003,-1.2181289196014404
1751214593539432400,10.545432373046875,-1.3018853664398193,1.8668745756149292,-1.0370341539382935
1751214593549426400,10.555426513671875,-1.5319823026657104,2.049034595489502,-0.8687224984169006
1751214593559420200,10.565420166015626,-1.7492960691452026,2.073535680770874,-0.7344992756843567
1751214593569414100,10.5754140625,-1.9005634784698486,1.9425082206726074,-0.6578003168106079
1751214593579408100,10.585408203125,-1.9751319885253906,1.6580828428268433,-0.6343644857406616
1751214593589402000,10.595402099609375,-2.0188076496124268,1.2671310901641846,-0.6109287142753601
1751214593599395800,10.605395751953125,-2.0752668380737305,0.9219856858253479,-0.6024065613746643
1751214593609389800,10.615389892578126,-2.1402478218078613,0.5597960352897644,-0.6087981462478638
1751214593619383800,10.6253837890625,-2.18072772026062,0.1592569202184677,-0.6034718751907349
1751214593629377500,10.63537744140625,-2.1849889755249023,-0.24341274797916412,-0.5885581374168396
1751214593639371500,10.64537158203125,-2.171140432357788,-0.5800360441207886,-0.5491434335708618
1751214593649365500,10.655365478515625,-2.1295952796936035,-0.8282424807548523,-0.49055391550064087
1751214593659359200,10.665359130859375,-2.047569990158081,-1.0231857299804688,-0.4319643974304199
1751214593669353200,10.675353271484376,-1.9442392587661743,-1.1446257829666138,-0.400006502866745
1751214593679347200,10.68534716796875,-1.8579529523849487,-1.1329078674316406,-0.42131176590919495
1751214593689341200,10.695341064453125,-1.7961676120758057,-0.963530957698822,-0.5118591785430908
1751214593699335000,10.7053349609375,-1.7556875944137573,-0.6727139949798584,-0.607732892036438
1751214593709329000,10.715328857421875,-1.7450350522994995,-0.41065913438796997,-0.6162550449371338
1751214593719323000,10.725322998046876,-1.765275001525879,-0.2956106662750244,-0.5097286701202393
1751214593729316600,10.735316650390626,-1.7919065952301025,-0.36059173941612244,-0.332894891500473
1751214593739310600,10.745310546875,-1.827060341835022,-0.47777074575424194,-0.13262532651424408
1751214593749304600,10.7553046875,-1.8558224439620972,-0.48735812306404114,0.01970737800002098
1751214593759298300,10.76529833984375,-1.8664751052856445,-0.343547523021698,0.0751010850071907
1751214593769292300,10.775292236328125,-1.8824540376663208,-0.0985368862748146,0.04740423336625099
1751214593779286300,10.785286376953126,-1.916542410850525,0.09321057051420212,0.01225053146481514
1751214593789280000,10.795280029296874,-1.9836540222167969,0.1464737504720688,0.010120004415512085
1751214593799274000,10.80527392578125,-2.0454392433166504,0.10599373281002045,0.03249054029583931
1751214593809268000,10.81526806640625,-2.0987024307250977,0.10279794037342072,0.059122130274772644
1751214593819262000,10.825261962890625,-2.116811990737915,0.11025478690862656,0.054861076176166534
1751214593829255700,10.835255615234376,-2.0944414138793945,0.11984215676784515,0.03568633273243904
1751214593839249700,10.845249755859374,-2.0454392433166504,0.08255793154239655,0.029294749721884727
1751214593849243600,10.85524365234375,-1.9506309032440186,0.04527370631694794,0.07297056168317795
1751214593859237400,10.8652373046875,-1.8164076805114746,0.0037284228019416332,0.12942953407764435
1751214593869231400,10.8752314453125,-1.6694012880325317,-0.04420844092965126,0.1784316599369049
1751214593879225300,10.885225341796875,-1.5160033702850342,-0.12197268754243851,0.21891167759895325
1751214593889219000,10.895218994140626,-1.3530179262161255,-0.21465063095092773,0.2348906397819519
1751214593899213000,10.905213134765624,-1.1921632289886475,-0.3563306927680969,0.22423799335956573
1751214593909207000,10.91520703125,-1.0345041751861572,-0.5225118398666382,0.1933453530073166
1751214593919200800,10.92520068359375,-0.8832367062568665,-0.7014760971069336,0.1645832359790802
1751214593929194800,10.93519482421875,-0.7330345511436462,-0.8399603962898254,0.14966954290866852
1751214593939188500,10.9451884765625,-0.5870934128761292,-0.900680422782898,0.13795164227485657
1751214593949182500,10.955182373046876,-0.45073968172073364,-0.9017456769943237,0.11451584100723267
1751214593959176200,10.96517626953125,-0.32397329807281494,-0.8772445917129517,0.0751010850071907
1751214593969170200,10.975170166015625,-0.21425114572048187,-0.8516782522201538,0.03568633273243904
1751214593979164000,10.985163818359375,-0.10559425503015518,-0.7941540479660034,0.009054740890860558
1751214593989158000,10.995157958984375,-0.0043942127376794815,-0.7057371735572815,-0.0015978955198079348
1751214593999151600,11.005151611328126,0.09147951751947403,-0.5949497222900391,0.004793686326593161
1751214594009145600,11.0151455078125,0.18415744602680206,-0.456465482711792,0.034621067345142365
1751214594019139300,11.025139404296874,0.27896592020988464,-0.28069695830345154,0.09001477807760239
1751214594029133300,11.03513330078125,0.38655754923820496,-0.0751010850071907,0.14434322714805603
1751214594039127000,11.045126953125,0.5175849795341492,0.15819165110588074,0.18695376813411713
1751214594049121000,11.05512109375,0.6667218804359436,0.4191812574863434,0.21358536183834076
1751214594059114800,11.06511474609375,0.8392946124076843,0.6396908164024353,0.2306295782327652
1751214594069108700,11.075108642578124,1.0267809629440308,0.7685877084732056,0.2348906397819519
1751214594079102500,11.0851025390625,1.2238547801971436,0.787762463092804,0.21784640848636627
1751214594089096400,11.095096435546875,1.4219938516616821,0.6972150802612305,0.13795164227485657
1751214594099090200,11.105090087890625,1.5700654983520508,0.4042675495147705,0.004793686326593161
1751214594109084200,11.115084228515625,1.658482313156128,0.006924213841557503,-0.0708400309085846
1751214594119078000,11.125077880859376,1.7309203147888184,-0.09640636295080185,0.02396843209862709
1751214594129071600,11.135071533203124,1.8108149766921997,0.19121482968330383,0.3286338448524475
1751214594139065600,11.145065673828125,1.9024276733398438,0.7952193021774292,0.720650851726532
1751214594149059300,11.155059326171875,1.9791266918182373,1.5568828582763672,1.0061415433883667
1751214594159053300,11.16505322265625,2.030259370803833,2.02453351020813,1.089232087135315
1751214594169047300,11.17504736328125,2.0611519813537598,2.019207239151001,1.072187900543213
1751214594179041300,11.185041259765624,2.1133499145507812,1.6804534196853638,1.0423604249954224
1751214594189035000,11.195034912109374,2.1069583892822266,1.2767184972763062,1.059404730796814
1751214594199029000,11.205029052734375,1.951429843902588,0.9134635925292969,1.1765836477279663
1751214594209023000,11.21502294921875,1.73305082321167,0.636495053768158,1.3171985149383545
1751214594219016700,11.2250166015625,1.4656696319580078,0.48203179240226746,1.3438301086425781
1751214594229010700,11.2350107421875,1.2600737810134888,0.5203812718391418,1.1297121047973633
1751214594239004700,11.245004638671874,1.159938931465149,0.47244441509246826,0.8676572442054749
1751214594248998400,11.254998291015625,1.1620694398880005,0.2167811542749405,0.7078676819801331
1751214594258992400,11.264992431640625,1.2472906112670898,-0.12516847252845764,0.6205160617828369
1751214594268986400,11.274986328125,1.3644695281982422,-0.4660528302192688,0.5491434335708618
1751214594278980400,11.28498046875,1.457147479057312,-0.8197203874588013,0.4617917835712433
1751214594288974000,11.29497412109375,1.5008232593536377,-1.138234257698059,0.34567806124687195
1751214594298968000,11.304968017578124,1.5178675651550293,-1.3416996002197266,0.2167811542749405
1751214594308962000,11.314962158203125,1.5136064291000366,-1.429051160812378,0.0985368862748146
1751214594318955800,11.324955810546875,1.5221285820007324,-1.4578132629394531,0.026098959147930145
1751214594328949800,11.33494970703125,1.5604780912399292,-1.470596432685852,-0.010120004415512085
1751214594368925400,11.374925537109375,1.4081454277038574,-0.44048652052879333,0.10279794037342072
1751214594378919200,11.384919189453125,1.285640001296997,-0.009054740890860558,0.18588849902153015
1751214594388913200,11.3949130859375,1.2153326272964478,0.2775011658668518,0.2828274965286255
1751214594398907100,11.4049072265625,1.184440016746521,0.39787596464157104,0.37337490916252136
1751214594408901000,11.414901123046874,1.1631346940994263,0.3957454562187195,0.44581282138824463
1751214594418894800,11.424894775390625,1.1737873554229736,0.3392864763736725,0.48629283905029297
1751214594428888800,11.434888916015625,1.2100063562393188,0.23702116310596466,0.4809665381908417
1751214594438882800,11.4448828125,1.2632695436477661,0.0708400309085846,0.4468781054019928
1751214594448876500,11.45487646484375,1.3090758323669434,-0.042077913880348206,0.3861580789089203
1751214594458870500,11.46487060546875,1.300553798675537,-0.06657897680997849,0.3105243444442749
1751214594468864500,11.474864501953125,1.2121368646621704,0.009054740890860558,0.26684853434562683
1751214594478858200,11.484858154296875,1.0853705406188965,0.21252009272575378,0.23808641731739044
1751214594488852200,11.494852294921875,0.9905620217323303,0.5097286701202393,0.24128220975399017
1751214594498846200,11.50484619140625,0.950082004070282,0.7515435218811035,0.2732401192188263
1751214594508840200,11.514840087890626,0.9436904191970825,0.850612998008728,0.3190464675426483
1751214594518834000,11.524833984375,0.9319725036621094,0.8346340656280518,0.3776359558105469
1751214594528828000,11.534827880859375,0.8733830451965332,0.7344992756843567,0.43409493565559387
1751214594538822000,11.54482177734375,0.7689871788024902,0.6226465702056885,0.47670549154281616
1751214594548815600,11.554815673828125,0.6528734564781189,0.5459476113319397,0.5097286701202393
1751214594558809600,11.5648095703125,0.5442165732383728,0.5214465260505676,0.5171855092048645
1751214594568803600,11.574803466796874,0.45366916060447693,0.5906887054443359,0.47670549154281616
1751214594578797300,11.58479736328125,0.3897533416748047,0.8069372177124023,0.4053328037261963
1751214594588791300,11.594791259765625,0.32583752274513245,0.8889625072479248,0.34567806124687195
1751214594598785300,11.604785400390625,0.2619217038154602,0.4937497079372406,0.29348012804985046
1751214594608779300,11.614779296875,0.2054627239704132,0.0282294861972332,0.221042200922966
1751214594618773000,11.62477294921875,0.1735048145055771,-0.2689790725708008,0.10066741704940796
1751214594628767000,11.63476708984375,0.17137429118156433,-0.46392232179641724,-0.03142527863383293
1751214594638761000,11.644760986328125,0.19907113909721375,-0.561926543712616,-0.1315600574016571
1751214594648754700,11.654754638671875,0.23102904856204987,-0.5757750272750854,-0.19441060721874237
1751214594658748700,11.664748779296875,0.2438122183084488,-0.5544697046279907,-0.22423799335956573
1751214594668742700,11.67474267578125,0.24487747251987457,-0.49161916971206665,-0.221042200922966
1751214594678736400,11.684736328125,0.22570273280143738,-0.4127896726131439,-0.19228008389472961
1751214594688730400,11.69473046875,0.18415744602680206,-0.36378753185272217,-0.1315600574016571
1751214594698724400,11.704724365234375,0.1213068962097168,-0.31372013688087463,-0.0516652874648571
1751214594708718000,11.714718017578125,0.061652131378650665,-0.2540653645992279,0.027164222672581673
1751214594718712000,11.724712158203126,0.020106852054595947,-0.16351796686649323,0.10599373281002045
1751214594728706000,11.7347060546875,-0.0033289489801973104,-0.03142527863383293,0.17204007506370544
1751214594738700000,11.744699951171874,-0.023568958044052124,0.11345057934522629,0.2167811542749405
1751214594748693800,11.75469384765625,-0.03209106624126434,0.23702116310596466,0.21891167759895325
1751214594758687700,11.764687744140625,-0.018242640420794487,0.335025429725647,0.16671375930309296
1751214594768681700,11.774681640625,-0.005459476262331009,0.3946801722049713,0.0985368862748146
1751214594778675500,11.784675537109376,0.010519478470087051,0.40213701128959656,0.029294749721884727
1751214594788669400,11.79466943359375,0.029694223776459694,0.38828858733177185,-0.04314317926764488
1751214594798663400,11.804663330078125,0.05206476151943207,0.3797664940357208,-0.10918952524662018
1751214594808657200,11.8146572265625,0.10745847225189209,0.3818970024585724,-0.16671375930309296
1751214594818651100,11.824651123046875,0.1681784987449646,0.41172438859939575,-0.20612850785255432
1751214594828645000,11.83464501953125,0.19481009244918823,0.4479433596134186,-0.2306295782327652
1751214594838639000,11.84463916015625,0.20013640820980072,0.4841623306274414,-0.24660852551460266
1751214594848632800,11.8546328125,0.1873532384634018,0.5342296957969666,-0.24767379462718964
1751214594858626800,11.864626708984375,0.17670060694217682,0.5960150361061096,-0.2253032624721527
1751214594868620800,11.874620849609375,0.18096165359020233,0.6759097576141357,-0.1592569202184677
1751214594878614500,11.884614501953125,0.21931114792823792,0.7696529626846313,-0.0751010850071907
1751214594888608500,11.8946083984375,0.28855329751968384,0.8388951420783997,-0.006924213841557503
1751214594898602500,11.9046025390625,0.35886070132255554,0.8570045828819275,0.015446322970092297
1751214594908596200,11.91459619140625,0.41958072781562805,0.8474172353744507,-0.013315795920789242
1751214594918590200,11.924590087890625,0.4643217921257019,0.7984151244163513,-0.0846884623169899
1751214594928584200,11.934584228515625,0.4877575933933258,0.7014760971069336,-0.1688442826271057
1751214594938578000,11.944577880859375,0.497344970703125,0.5214465260505676,-0.23915168642997742
1751214594948572000,11.954572021484376,0.47177863121032715,0.23702116310596466,-0.2625874876976013
1751214594958566000,11.96456591796875,0.4046670198440552,-0.1177116334438324,-0.21784640848636627
1751214594968559900,11.974559814453125,0.31092381477355957,-0.48309704661369324,-0.13475584983825684
1751214594978553600,11.9845537109375,0.21931114792823792,-0.7824361324310303,-0.05273054912686348
1751214594988547600,11.994547607421875,0.14261217415332794,-0.9795098900794983,-0.004793686326593161
1751214594998541600,12.00454150390625,0.074435293674469,-1.0881668329238892,-0.002663159044459462
1751214595008535300,12.014535400390624,0.010519478470087051,-1.1371688842773438,-0.046338967978954315
1751214595018529300,12.024529296875,-0.058722659945487976,-1.1446257829666138,-0.11238531768321991
1751214595028523300,12.034523193359375,-0.1428784877061844,-1.1126679182052612,-0.17523586750030518
1751214595038517000,12.04451708984375,-0.2323606312274933,-1.0189247131347656,-0.23595589399337769
1751214595048511000,12.054510986328125,-0.3175817131996155,-0.8644614219665527,-0.2966759204864502
1751214595058505000,12.0645048828125,-0.3825628161430359,-0.6737792491912842,-0.37337490916252136
1751214595068499000,12.0744990234375,-0.41239017248153687,-0.5097286701202393,-0.5118591785430908
1751214595078492700,12.08449267578125,-0.40386807918548584,-0.3723096549510956,-0.766457200050354
1751214595088486700,12.094486572265625,-0.5018723607063293,-0.12623374164104462,-1.100950002670288
1751214595098480600,12.104480712890625,-0.6946850419044495,0.21891167759895325,-1.4056153297424316
1751214595108474400,12.114474365234376,-0.8278430104255676,0.49055391550064087,-1.592036485671997
1751214595118468400,12.12446826171875,-0.8949546217918396,0.7014760971069336,-1.6314512491226196
1751214595128462300,12.13446240234375,-0.9482178092002869,0.9475520253181458,-1.5462301969528198
1751214595138456000,12.1444560546875,-1.022786259651184,1.3512868881225586,-1.3960280418395996
1751214595148450000,12.154449951171875,-1.1410305500030518,1.93185555934906,-1.227716326713562
1751214595158444000,12.164444091796875,-1.3167990446090698,2.6029717922210693,-1.072187900543213
1751214595168437800,12.174437744140626,-1.5309170484542847,3.176083564758301,-0.933703601360321
1751214595178431700,12.184431640625,-1.722664475440979,3.466900587081909,-0.7771098017692566
1751214595188425700,12.19442578125,-1.8515613079071045,3.328416347503662,-0.5800360441207886
1751214595198419700,12.204419677734375,-1.8558224439620972,2.8554391860961914,-0.35952648520469666
1751214595208413400,12.214413330078125,-1.7865803241729736,2.127864122390747,-0.12836426496505737
1751214595218407400,12.224407470703126,-1.7439696788787842,1.3310469388961792,0.12303794920444489
1751214595228401400,12.2344013671875,-1.6544876098632812,0.4703139066696167,0.3850927948951721
1751214595238395100,12.24439501953125,-1.5916370153427124,-0.1603221744298935,0.5768402814865112
1751214595248389000,12.25438916015625,-1.5671359300613403,-0.5246423482894897,0.6173202991485596
1751214595258383000,12.264383056640625,-1.5777885913848877,-0.6471476554870605,0.5342296957969666
1751214595268376800,12.274376953125,-1.6363781690597534,-0.5299686789512634,0.3563306927680969
1751214595278370800,12.284370849609376,-1.7109465599060059,-0.2828274965286255,0.11664637178182602
1751214595288364800,12.29436474609375,-1.7578182220458984,-0.07190529257059097,-0.1358211189508438
1751214595298358800,12.30435888671875,-1.7780581712722778,-0.0005326318205334246,-0.30732855200767517
1751214595308352500,12.3143525390625,-1.7556875944137573,-0.12090742588043213,-0.3424822688102722
1751214595318346500,12.324346435546875,-1.7162728309631348,-0.4415517747402191,-0.23915168642997742
1751214595328340500,12.334340576171876,-1.70988130569458,-0.796284556388855,-0.05592634156346321
1751214595338334200,12.344334228515624,-1.7503613233566284,-1.0306426286697388,0.11238531768321991
1751214595348328200,12.354328125,-1.827060341835022,-1.0679267644882202,0.1880190372467041
1751214595358322200,12.364322265625,-1.9261298179626465,-0.9432909488677979,0.11877689510583878
1751214595368316000,12.37431591796875,-1.973001480102539,-0.8484824895858765,-0.046338967978954315
1751214595378310000,12.384309814453125,-1.928260326385498,-0.8143940567970276,-0.16138744354248047
1751214595388304000,12.394303955078126,-1.856887698173523,-0.8133288025856018,-0.1699095517396927
1751214595398297900,12.4042978515625,-1.7801886796951294,-0.783501386642456,-0.0942758321762085
1751214595408291600,12.41429150390625,-1.6949676275253296,-0.6386255621910095,-0.01225053146481514
1751214595418285600,12.42428564453125,-1.6299865245819092,-0.44368231296539307,0.0282294861972332
1751214595428279600,12.434279541015625,-1.6033549308776855,-0.3062632977962494,0.029294749721884727
1751214595438273300,12.444273193359376,-1.6235949993133545,-0.2636527419090271,0.00798947736620903
1751214595448267300,12.454267333984374,-1.6651402711868286,-0.28389275074005127,0.002663159044459462
1751214595458261200,12.46426123046875,-1.7002938985824585,-0.3051980435848236,0.038882121443748474
1751214595468255000,12.4742548828125,-1.722664475440979,-0.2743053734302521,0.11132004857063293
1751214595478249000,12.4842490234375,-1.739708662033081,-0.17523586750030518,0.18695376813411713
1751214595488243000,12.494242919921875,-1.7492960691452026,-0.034621067345142365,0.24234747886657715
1751214595498236700,12.504236572265626,-1.7365128993988037,0.0655137151479721,0.28495803475379944
1751214595508230700,12.514230712890624,-1.6917718648910522,0.07829687744379044,0.31798118352890015
1751214595518224600,12.524224609375,-1.6395739316940308,0.033555805683135986,0.31691592931747437
1751214595528218600,12.534218505859375,-1.5745928287506104,-0.030360013246536255,0.28921908140182495
1751214595538212400,12.54421240234375,-1.4872411489486694,-0.1038632020354271,0.23702116310596466
1751214595548206300,12.554206298828126,-1.3817801475524902,-0.2071937769651413,0.18162745237350464
1751214595558200300,12.564200439453124,-1.2475569248199463,-0.3254380524158478,0.14008216559886932
1751214595568194000,12.574194091796874,-1.1346389055252075,-0.4127896726131439,0.09534109383821487
1751214595578188000,12.58418798828125,-1.015329360961914,-0.4788359999656677,0.05592634156346321
1751214595588182000,12.59418212890625,-0.8949546217918396,-0.5789707899093628,0.020772641524672508
1751214595598175700,12.60417578125,-0.7820366621017456,-0.7046719193458557,-0.020772641524672508
1751214595608169700,12.614169677734376,-0.6776408553123474,-0.8080024719238281,-0.058056868612766266
1751214595618163700,12.624163818359374,-0.5838976502418518,-0.8655267357826233,-0.06657897680997849
1751214595628157700,12.63415771484375,-0.491219699382782,-0.8644614219665527,-0.04740423336625099
1751214595638151400,12.6441513671875,-0.4017375409603119,-0.8186551332473755,-0.015446322970092297
1751214595648145400,12.6541455078125,-0.31864699721336365,-0.7494129538536072,0.01970737800002098
1751214595658139400,12.664139404296876,-0.23555642366409302,-0.6609960794448853,0.061252661049366
1751214595668133000,12.674133056640626,-0.1609879732131958,-0.5651223659515381,0.10918952524662018
1751214595678127000,12.684127197265624,-0.08535424619913101,-0.4617917835712433,0.15712638199329376
1751214595688121000,12.69412109375,-0.013981585390865803,-0.3531349003314972,0.2018674612045288
1751214595698114800,12.70411474609375,0.053130023181438446,-0.23382537066936493,0.25086960196495056
1751214595708108800,12.71410888671875,0.11278478801250458,-0.1081242561340332,0.29454538226127625
1751214595718102800,12.724102783203126,0.15965639054775238,0.025033695623278618,0.31798118352890015
1751214595738090500,12.744090576171875,0.25020378828048706,0.2348906397819519,0.3296990990638733
1751214595748084500,12.75408447265625,0.30772802233695984,0.297741174697876,0.335025429725647
1751214595758078500,12.764078369140625,0.36738279461860657,0.3392864763736725,0.3286338448524475
1751214595768072200,12.774072265625,0.4366249442100525,0.3563306927680969,0.297741174697876
1751214595778066200,12.784066162109376,0.5165197253227234,0.3424822688102722,0.2593916952610016
1751214595788060200,12.79406005859375,0.6091976165771484,0.29454538226127625,0.22743378579616547
