time,seconds_elapsed,z,y,x
1749912663373549300,0.12054931640625,-0.3848625123500824,-1.447737455368042,1.9138624668121338
1749912663383563000,0.13056298828125,-1.0124125480651855,-2.9220125675201416,1.3982374668121338
1749912663393576400,0.140576416015625,-1.4821125268936157,-3.7816624641418457,0.6792500019073486
1749912663403589600,0.150589599609375,-1.7154500484466553,-4.351600170135498,-0.08346249908208847
1749912663413603000,0.16060302734375,-1.6717250347137451,-4.467649936676025,-0.806850016117096
1749912663423616800,0.17061669921875,-1.260599970817566,-4.014999866485596,-1.287274956703186
1749912663433630200,0.180630126953125,-0.22082500159740448,-3.21598744392395,-1.194599986076355
1749912663443643400,0.190643310546875,1.192812442779541,-2.185837507247925,-0.6215000152587891
1749912663453656800,0.20065673828125,2.040637493133545,-1.0950499773025513,-0.2858625054359436
1749912663473683700,0.22068359375,1.117050051689148,0.7265499830245972,-0.2858625054359436
1749912663483697200,0.230697265625,0.5024250149726868,1.0109000205993652,0.0635249987244606
1749912663493710600,0.240710693359375,0.20624999701976776,0.6807624697685242,0.4885374903678894
1749912663503724000,0.25072412109375,0.07631249725818634,-0.06283749639987946,0.6440500020980835
1749912663513737500,0.260737548828125,0.05609999969601631,-0.7530875205993652,0.5598999857902527
1749912663523751000,0.2707509765625,0.1999250054359436,-0.4772624969482422,0.3489750027656555
1749912663533764400,0.280764404296875,0.8412249684333801,0.40053749084472656,0.21697500348091125
1749912663543777800,0.29077783203125,1.9075374603271484,1.2506999969482422,0.15936249494552612
1749912663553791000,0.300791015625,2.672450065612793,1.53725004196167,-0.1835625022649765
1749912663563804700,0.3108046875,2.8248000144958496,1.1291500329971313,-0.8089125156402588
1749912663573818000,0.320818115234375,2.9632625579833984,0.33880001306533813,-1.288237452507019
1749912663583831600,0.33083154296875,3.4628000259399414,-0.5506874918937683,-1.4832124710083008
1749912663593845000,0.340844970703125,4.074262619018555,-1.3784375190734863,-1.5386250019073486
1749912663603858400,0.3508583984375,4.617525100708008,-2.022900104522705,-1.5471500158309937
1749912663613871900,0.360871826171875,4.849762439727783,-2.5683624744415283,-1.5482499599456787
1749912663623885000,0.370885009765625,4.8039751052856445,-3.1904125213623047,-1.4396250247955322
1749912663633898500,0.3808984375,4.396012306213379,-3.7742373943328857,-1.0687874555587769
1749912663643912200,0.390912109375,3.690774917602539,-3.95532488822937,-0.30607500672340393
1749912663653925400,0.40092529296875,3.3456499576568604,-4.418699741363525,0.5801125168800354
1749912663663938800,0.410938720703125,3.5213749408721924,-4.894862651824951,1.2332375049591064
1749912663673952500,0.420952392578125,3.8579750061035156,-4.95989990234375,1.5186874866485596
1749912663683965700,0.430965576171875,4.311862468719482,-4.674312591552734,1.3205499649047852
1749912663693979400,0.4409794921875,4.811399936676025,-3.822087526321411,0.7910374999046326
1749912663703992800,0.450992919921875,5.153362274169922,-2.5470499992370605,-0.010999999940395355
1749912663714006000,0.461006103515625,5.325924873352051,-1.4125374555587769,-0.9453125
1749912663724019500,0.47101953125,5.3440752029418945,-0.9213874936103821,-1.7836500406265259
1749912663734033200,0.481033203125,5.2195000648498535,-0.9352750182151794,-2.445162534713745
1749912663744046300,0.49104638671875,5.015999794006348,-1.21646249294281,-2.977837562561035
1749912663754059800,0.501059814453125,4.655887603759766,-1.7650874853134155,-3.383737564086914
1749912663764073200,0.5110732421875,4.208462715148926,-2.559837579727173,-3.6617624759674072
1749912663774087000,0.5210869140625,3.77382493019104,-3.4940125942230225,-3.683074951171875
1749912663784100000,0.53110009765625,3.5161499977111816,-4.626462459564209,-2.9159624576568604
1749912663794113500,0.541113525390625,3.539525032043457,-5.357137680053711,-1.4641000032424927
1749912663804127000,0.551126953125,3.7014999389648438,-5.504262447357178,0.44385001063346863
1749912663814140400,0.561140380859375,3.6993000507354736,-5.535062313079834,2.2760374546051025
1749912663824153900,0.57115380859375,3.5619375705718994,-5.929275035858154,3.55011248588562
1749912663834167300,0.581167236328125,3.4244375228881836,-5.732100009918213,3.877224922180176
1749912663844180700,0.5911806640625,3.1666250228881836,-5.2442498207092285,3.5650999546051025
1749912663854194200,0.601194091796875,2.692662477493286,-4.87244987487793,3.350874900817871
1749912663864207600,0.61120751953125,2.2378125190734863,-4.294125080108643,3.357337474822998
1749912663874221000,0.621220947265625,1.975737452507019,-3.487687587738037,3.6023623943328857
1749912663884234500,0.631234375,2.005574941635132,-2.4543750286102295,3.9133875370025635
1749912663894248200,0.641248291015625,2.3603250980377197,-1.0162625312805176,4.07316255569458
1749912663904261400,0.651261474609375,2.8524374961853027,0.5517874956130981,3.7525124549865723
1749912663914274800,0.66127490234375,2.9599623680114746,1.8781124353408813,2.8012874126434326
1749912663924288500,0.67128857421875,2.6426124572753906,2.893275022506714,1.9883874654769897
1749912663934301700,0.6813017578125,2.130150079727173,3.45674991607666,2.008737564086914
1749912663944315100,0.691315185546875,1.4729000329971313,3.504737377166748,2.4656500816345215
1749912663954328800,0.701328857421875,0.5950999855995178,3.0360000133514404,2.7990875244140625
1749912663964342000,0.711342041015625,-0.40191251039505005,2.3861749172210693,2.9034500122070312
1749912663974355500,0.72135546875,-1.2424499988555908,2.1305625438690186,2.8406124114990234
1749912663984369200,0.731369140625,-1.4394874572753906,2.3787500858306885,1.6134250164031982
1749912663994382300,0.74138232421875,-1.184975028038025,2.1859750747680664,-0.40727499127388
1749912664004395800,0.751395751953125,-0.9238625168800354,1.9973249435424805,-1.8464875221252441
1749912664014409500,0.761409423828125,-0.7225624918937683,2.0453124046325684,-2.179924964904785
1749912664024422700,0.771422607421875,-0.37207499146461487,1.8429124355316162,-1.8794875144958496
1749912664034436000,0.78143603515625,0.1200374960899353,1.4668500423431396,-1.3766499757766724
1749912664044449800,0.79144970703125,0.7303999662399292,0.9630500078201294,-1.0986249446868896
1749912664054463000,0.801462890625,1.2726999521255493,0.17998750507831573,-1.2457499504089355
1749912664064476400,0.811476318359375,1.5049375295639038,-0.6934124827384949,-1.5578750371932983
1749912664074490000,0.821489990234375,1.350387454032898,-1.4231250286102295,-1.6216750144958496
1749912664084503300,0.83150341796875,1.0115875005722046,-1.9791749715805054,-1.3265999555587769
1749912664094517000,0.84151708984375,0.6143500208854675,-2.5257375240325928,-0.7492374777793884
1749912664104530400,0.851530517578125,0.07741250097751617,-3.371500015258789,-0.18576249480247498
1749912664114543900,0.8615439453125,-0.4371125102043152,-3.99685001373291,0.23608750104904175
1749912664124557300,0.871557373046875,-0.6938250064849854,-4.285600185394287,0.41401249170303345
1749912664134570800,0.88157080078125,-0.8120750188827515,-3.9318125247955322,0.47148749232292175
1749912664144584200,0.891584228515625,-0.9271624684333801,-3.146825075149536,0.42996248602867126
1749912664154597600,0.90159765625,-1.0901000499725342,-2.1773123741149902,0.28187498450279236
1749912664164611000,0.911611083984375,-1.2583999633789062,-1.2218250036239624,0.08373750001192093
1749912664174624500,0.92162451171875,-1.3745875358581543,-0.1331000030040741,-0.12925000488758087
1749912664184638000,0.931637939453125,-1.252074956893921,0.552887499332428,-0.05898749828338623
1749912664194651400,0.9416513671875,-1.1338249444961548,0.8980125188827515,0.26372501254081726
1749912664204664800,0.951664794921875,-1.4576375484466553,1.224025011062622,0.42996248602867126
1749912664214678300,0.96167822265625,-1.795337438583374,1.1760375499725342,0.4620000123977661
1749912664224691700,0.971691650390625,-1.7836500406265259,0.8703749775886536,0.46722498536109924
1749912664234705200,0.981705078125,-1.5875749588012695,0.5124624967575073,0.28503748774528503
1749912664244718600,0.991718505859375,-1.720812439918518,0.18645000457763672,-0.06641250103712082
1749912664254732000,1.00173193359375,-2.614562511444092,-0.17998750507831573,-0.14739999175071716
1749912664264745500,1.011745361328125,-3.5583624839782715,-0.455949991941452,0.1274625062942505
1749912664274759000,1.021759033203125,-4.302925109863281,-0.6253499984741211,0.5471125245094299
1749912664284772400,1.0317724609375,-5.263774871826172,-0.5645750164985657,0.8188124895095825
1749912664294785800,1.041785888671875,-6.055362701416016,-0.6050000190734863,0.8848124742507935
1749912664304799200,1.05179931640625,-6.16825008392334,-0.7425000071525574,0.7303999662399292
1749912664314812700,1.061812744140625,-5.278762340545654,-0.9725375175476074,0.48317500948905945
1749912664324826000,1.071826171875,-3.384700059890747,-1.2260874509811401,0.05389999970793724
1749912664334839600,1.081839599609375,-1.1017874479293823,-1.6084749698638916,-0.20281249284744263
1749912664344853000,1.09185302734375,0.823074996471405,-1.8588625192642212,0.18603749573230743
1749912664354866400,1.101866455078125,1.9725749492645264,-1.6638875007629395,1.100000023841858
1749912664364879600,1.111879638671875,2.0439374446868896,-1.7555999755859375,1.6858874559402466
1749912664374893000,1.12189306640625,1.3248125314712524,-2.202887535095215,1.3908125162124634
1749912664384906800,1.13190673828125,0.3511750102043152,-1.907812476158142,0.8507124781608582
1749912664394920200,1.141920166015625,-0.2666124999523163,-1.3784375190734863,0.6803500056266785
1749912664404933600,1.15193359375,-0.5329499840736389,-1.7374500036239624,0.6516125202178955
1749912664414947000,1.161947021484375,-0.651199996471405,-2.2071499824523926,0.4651624858379364
1749912664424960500,1.17196044921875,-0.7759125232696533,-1.8354874849319458,0.3148750066757202
1749912664434974000,1.181973876953125,-0.6608250141143799,-0.9810624718666077,0.12952500581741333
1749912664444987400,1.1919873046875,-0.22824999690055847,-0.2535499930381775,-0.23375000059604645
1749912664455000800,1.202000732421875,0.18933749198913574,0.22165000438690186,-0.8685874938964844
1749912664465014300,1.21201416015625,0.28517499566078186,0.36547499895095825,-1.7399250268936157
1749912664475027700,1.22202783203125,0.2829749882221222,0.21834999322891235,-2.8052749633789062
1749912664485041200,1.232041259765625,-0.1601874977350235,-1.0674124956130981,-3.6532375812530518
1749912664495054300,1.242054443359375,-0.6821374893188477,-2.1187374591827393,-3.693662405014038
1749912664505067800,1.25206787109375,-0.946274995803833,-2.119837522506714,-3.3752124309539795
1749912664515081500,1.26208154296875,-1.0102125406265259,-2.4723875522613525,-2.1905124187469482
1749912664525094700,1.2720947265625,-1.1508749723434448,-2.7249748706817627,-0.5553625226020813
1749912664535108000,1.282108154296875,-1.3160125017166138,-2.8463873863220215,0.9444875121116638
1749912664545121500,1.29212158203125,-1.3414499759674072,-2.803762435913086,1.3461250066757202
1749912664555135000,1.302135009765625,-0.966487467288971,-2.559837579727173,0.07947500050067902
1749912664565148400,1.3121484375,-0.3390749990940094,-1.9419125318527222,-1.5758874416351318
1749912664575161900,1.322161865234375,0.13598750531673431,-0.9341750144958496,-2.227912425994873
1749912664585175600,1.332175537109375,0.2595999836921692,0.09487500041723251,-2.218287467956543
1749912664595188700,1.342188720703125,0.0635249987244606,0.7425000071525574,-1.9295375347137451
1749912664605202200,1.3522021484375,-0.23787499964237213,1.141937494277954,-1.6429874897003174
1749912664615215900,1.3622158203125,-0.5383124947547913,1.2218250036239624,-1.4257375001907349
1749912664625229000,1.37222900390625,-0.8014875054359436,1.2368124723434448,-1.3234374523162842
1749912664635242500,1.382242431640625,-0.9121749997138977,1.3976874351501465,-1.177549958229065
1749912664645256000,1.392255859375,-0.6628875136375427,1.6607249975204468,-0.9047499895095825
1749912664655269400,1.402269287109375,-0.3987500071525574,1.704450011253357,-0.4413749873638153
1749912664665282800,1.41228271484375,-0.31033748388290405,1.3943874835968018,0.24255000054836273
1749912664675296300,1.422296142578125,-0.14313749969005585,0.3909125030040741,0.9444875121116638
1749912664685309700,1.432309814453125,0.1083500012755394,-0.9693750143051147,1.3535499572753906
1749912664695323100,1.4423232421875,0.13598750531673431,-1.6373499631881714,1.3353999853134155
1749912664705336600,1.452336669921875,-0.15592500567436218,-1.4594249725341797,0.9721249938011169
1749912664715350000,1.46235009765625,-0.5852000117301941,-0.6583499908447266,0.5461499691009521
1749912664725363500,1.472363525390625,-1.3074874877929688,0.38032498955726624,0.18809999525547028
1749912664735377000,1.482376953125,-2.2374000549316406,1.1174625158309937,0.04441250115633011
1749912664745390300,1.492390380859375,-2.370500087738037,0.8320124745368958,0.10724999755620956
1749912664755403800,1.50240380859375,-1.8314999341964722,0.32381248474121094,0.39586248993873596
1749912664765417200,1.512417236328125,-1.2253999710083008,0.16830000281333923,0.8199124932289124
1749912664775431000,1.522430908203125,-0.937749981880188,0.24392500519752502,1.257712483406067
1749912664785444000,1.532444091796875,-1.0102125406265259,0.5017374753952026,1.607100009918213
1749912664795457800,1.542457763671875,-1.269124984741211,0.9736375212669373,1.9234875440597534
1749912664805471200,1.55247119140625,-1.601462483406067,1.3923250436782837,2.428387403488159
1749912664815484700,1.562484619140625,-2.0935750007629395,0.6466624736785889,2.9599623680114746
1749912664825498000,1.572498046875,-1.6174124479293823,-0.2993375062942505,2.8439126014709473
1749912664835511600,1.582511474609375,-1.0602624416351318,-0.4025999903678894,1.9800000190734863
1749912664845525000,1.59252490234375,-1.0059499740600586,-0.08951249718666077,0.8944374918937683
1749912664855538400,1.602538330078125,-0.9857375025749207,0.2055625021457672,-0.043037500232458115
1749912664865552000,1.6125517578125,-0.8525000214576721,0.432574987411499,-0.7130749821662903
1749912664875565300,1.6225654296875,-0.6256250143051147,0.4954124987125397,-0.8696874976158142
1749912664885578800,1.632578857421875,-0.3614875078201294,0.6307125091552734,-0.5894625186920166
1749912664895592200,1.64259228515625,-0.23045000433921814,0.8436999917030334,-0.06531249731779099
1749912664905605600,1.652605712890625,-0.11110000312328339,1.0557249784469604,0.5385875105857849
1749912664915619000,1.662619140625,0.045512501150369644,0.7871875166893005,0.9040625095367432
1749912664925632500,1.672632568359375,0.10078749805688858,0.09803749620914459,0.8549749851226807
1749912664935646000,1.68264599609375,0.10188750177621841,-0.45801249146461487,0.48317500948905945
1749912664945659400,1.692659423828125,0.23292499780654907,-0.7189875245094299,0.062424998730421066
1749912664955672800,1.7026728515625,0.4427500069141388,-0.8735374808311462,-0.2890250086784363
1749912664965686300,1.712686279296875,0.6356624960899353,-0.7393375039100647,-0.5649874806404114
1749912664975699700,1.72269970703125,0.7591375112533569,-1.1536250114440918,-0.5660874843597412
1749912664985713200,1.732713134765625,0.7624375224113464,-2.015475034713745,-0.3188624978065491
1749912664995726300,1.742726318359375,0.5205749869346619,-2.4937000274658203,0.4885374903678894
1749912665005739800,1.75273974609375,0.05073750019073486,-2.2923998832702637,1.7754000425338745
1749912665015753500,1.76275341796875,-0.43174999952316284,-1.8279249668121338,3.096362590789795
1749912665025767000,1.772766845703125,-0.7108749747276306,-1.6297874450683594,3.7578749656677246
1749912665035780000,1.782780029296875,-0.6245250105857849,-1.2218250036239624,3.2368874549865723
1749912665045793800,1.792793701171875,-0.27623748779296875,-0.047849997878074646,1.7807624340057373
1749912665055807000,1.802806884765625,0.404387503862381,0.6509249806404114,0.527999997138977
1749912665065820400,1.8128203125,0.9924749732017517,0.19277499616146088,-0.030249999836087227
1749912665075834000,1.822834228515625,1.2779250144958496,-0.2609750032424927,0.0752125009894371
1749912665085847600,1.83284765625,1.4484249353408813,-0.2620750069618225,0.510949969291687
1749912665095861000,1.842861083984375,1.6050374507904053,-0.4815250039100647,0.6931374669075012
1749912665105874400,1.85287451171875,2.1461000442504883,-0.5123249888420105,0.6516125202178955
1749912665115887900,1.862887939453125,2.7916624546051025,0.03203750029206276,0.44385001063346863
1749912665125901000,1.872901123046875,3.3945999145507812,-0.227974995970726,0.3489750027656555
1749912665135914500,1.88291455078125,3.6268374919891357,-1.1877249479293823,0.4768500030040741
1749912665145928200,1.89292822265625,3.431999921798706,-1.7363499402999878,0.7708249688148499
1749912665155941600,1.902941650390625,2.7438125610351562,-1.9035500288009644,0.9541124701499939
1749912665165955000,1.912955078125,1.9256874322891235,-1.881274938583374,0.8614374995231628
1749912665175968500,1.922968505859375,1.2044999599456787,-1.6383124589920044,0.6004624962806702
1749912665185981700,1.932981689453125,0.4833124876022339,-0.281187504529953,0.07947500050067902
1749912665195995400,1.942995361328125,-0.3156999945640564,1.040737509727478,-0.21133749186992645
1749912665206008800,1.9530087890625,-1.361799955368042,1.4520000219345093,0.07095000147819519
1749912665216022300,1.963022216796875,-2.4025375843048096,1.447737455368042,0.4885374903678894
1749912665226035700,1.97303564453125,-3.2973875999450684,1.613837480545044,0.823074996471405
1749912665236049200,1.983049072265625,-4.037687301635742,2.1859750747680664,1.1490875482559204
1749912665246062600,1.9930625,-4.604462623596191,2.8975374698638916,1.4377000331878662
1749912665256076300,2.003076171875,-4.968699932098389,3.315124988555908,1.4569499492645264
1749912665266089700,2.01308984375,-4.848387241363525,3.350324869155884,1.0308375358581543
1749912665276103200,2.023103271484375,-4.179312705993652,2.6301000118255615,0.3063499927520752
1749912665286116600,2.03311669921875,-3.7787749767303467,0.8681749701499939,-0.65972501039505
1749912665296130000,2.043130126953125,-3.5956249237060547,-0.590149998664856,-1.3842124938964844
1749912665306143500,2.0531435546875,-3.0108375549316406,-1.089687466621399,-1.611087441444397
1749912665316157000,2.063156982421875,-2.046687602996826,-1.041837453842163,-1.5034250020980835
1749912665326170000,2.073170166015625,-0.9069499969482422,-0.4846875071525574,-1.1327250003814697
1749912665336183800,2.083183837890625,0.5333625078201294,-0.13956250250339508,-0.42762500047683716
1749912665346197200,2.093197265625,1.8467625379562378,-0.013887500390410423,0.30428749322891235
1749912665356210400,2.10321044921875,2.7438125610351562,-0.16513749957084656,0.6056874990463257
1749912665366224000,2.113223876953125,3.8911125659942627,-0.635937511920929,0.6835125088691711
1749912665376237300,2.1232373046875,5.548675060272217,-1.658524990081787,0.7452499866485596
1749912665386250800,2.133250732421875,7.193312644958496,-2.6855125427246094,0.6291999816894531
1749912665396264200,2.14326416015625,8.077574729919434,-3.5483250617980957,0.3244999945163727
1749912665406278000,2.15327783203125,8.321499824523926,-4.5262250900268555,0.11151249706745148
1749912665416291300,2.163291259765625,8.25976276397705,-5.327300071716309,0.020899999886751175
1749912665426304500,2.173304443359375,7.988062381744385,-5.809925079345703,-0.07603749632835388
1749912665436318200,2.183318115234375,7.450162410736084,-5.0929999351501465,-0.10051249712705612
1749912665446331600,2.19333154296875,6.250612258911133,-2.9539124965667725,0.3372874855995178
1749912665456344800,2.2033447265625,4.5876874923706055,-2.445849895477295,0.8549749851226807
1749912665466358500,2.213358642578125,2.6884000301361084,-2.4202749729156494,1.1650375127792358
1749912665476372000,2.2233720703125,1.1596750020980835,-1.6703499555587769,1.0957374572753906
1749912665486385200,2.23338525390625,0.2777499854564667,-0.3642374873161316,0.7537750005722046
1749912665496398600,2.243398681640625,-0.06324999779462814,0.7574874758720398,0.29356250166893005
1749912665506412000,2.253412109375,0.07741250097751617,1.2282874584197998,-0.201712504029274
1749912665516425500,2.263425537109375,0.6643999814987183,1.1345125436782837,-0.6224625110626221
1749912665526439000,2.27343896484375,1.2139874696731567,0.6562874913215637,-0.6554625034332275
1749912665536452400,2.283452392578125,1.5729999542236328,0.34732499718666077,-0.32106250524520874
1749912665546466000,2.293466064453125,1.734974980354309,0.17998750507831573,0.026262499392032623
1749912665556479200,2.303479248046875,1.7221875190734863,-0.03932499885559082,0.12099999934434891
1749912665566492700,2.31349267578125,1.5368374586105347,-0.42294999957084656,-0.040837500244379044
1749912665576506400,2.32350634765625,1.1587125062942505,-0.8425999879837036,-0.3156999945640564
1749912665586519600,2.33351953125,0.6643999814987183,-1.0769000053405762,-0.6257625222206116
1749912665596533000,2.343532958984375,0.3255999982357025,-0.9927499890327454,-0.9208375215530396
1749912665606546400,2.35354638671875,0.30744999647140503,-0.607200026512146,-1.1391874551773071
1749912665616559900,2.363559814453125,0.4694249927997589,-0.15015000104904175,-1.2722874879837036
1749912665626573300,2.3735732421875,0.6729249954223633,0.272662490606308,-1.3341624736785889
1749912665636586800,2.383586669921875,0.9924749732017517,0.6935499906539917,-1.2711875438690186
1749912665646600200,2.39360009765625,1.377062439918518,0.9673125147819519,-1.0911999940872192
1749912665656613600,2.403613525390625,1.5772625207901,1.0631500482559204,-0.9421499967575073
1749912665666627000,2.413626953125,1.6178250312805176,0.9758374691009521,-0.853600025177002
1749912665676640500,2.423640625,1.4654749631881714,0.7211874723434448,-0.8654249906539917
1749912665686654000,2.433654052734375,1.210824966430664,0.4581499993801117,-1.0016875267028809
1749912665696667400,2.44366748046875,1.0137875080108643,0.16307500004768372,-1.2318625450134277
1749912665706680800,2.453680908203125,0.9402250051498413,-0.13846249878406525,-1.5162124633789062
1749912665716694300,2.4636943359375,1.0755250453948975,-0.7605124711990356,-1.893375039100647
1749912665726708000,2.4737080078125,1.3322374820709229,-1.621262550354004,-2.328012466430664
1749912665736721200,2.48372119140625,1.5379375219345093,-2.477750062942505,-2.717824935913086
1749912665746734600,2.493734619140625,1.5709375143051147,-2.8026623725891113,-3.0353124141693115
1749912665756748300,2.503748291015625,1.4462250471115112,-2.2039875984191895,-3.2493999004364014
1749912665766761500,2.513761474609375,0.9136874675750732,-1.1089375019073486,-3.3463375568389893
1749912665776775000,2.52377490234375,-0.042899999767541885,0.27059999108314514,-3.2718124389648438
1749912665786788400,2.533788330078125,-0.9559000134468079,1.5244624614715576,-3.026787519454956
1749912665796802000,2.543802001953125,-1.4246374368667603,2.3233375549316406,-2.6912875175476074
1749912665806815200,2.553815185546875,-1.4181749820709229,2.419174909591675,-2.3055999279022217
1749912665816829000,2.563828857421875,-0.8376500010490417,1.5074124336242676,-1.7836500406265259
1749912665826842400,2.57384228515625,0.14767499268054962,0.02667500078678131,-1.146612524986267
1749912665836855600,2.58385546875,1.0243749618530273,-0.9704750180244446,-0.35186249017715454
1749912665846869000,2.593868896484375,1.4717999696731567,-1.1504625082015991,0.47148749232292175
1749912665856882700,2.603882568359375,1.5229499340057373,-0.9204249978065491,1.026574969291687
1749912665866896000,2.613895751953125,1.2352999448776245,-0.3684999942779541,1.2043625116348267
1749912665876909300,2.623909423828125,0.7346624732017517,0.42611250281333923,0.9668999910354614
1749912665886922800,2.6339228515625,0.22756250202655792,1.270912528038025,0.5205749869346619
1749912665896936200,2.643936279296875,0.006049999967217445,1.7555999755859375,0.2903999984264374
1749912665906949600,2.65394970703125,-0.02488750033080578,1.8909000158309937,0.3489750027656555
1749912665916963000,2.663963134765625,-0.021587500348687172,1.7172374725341797,0.519474983215332
1749912665926976800,2.673976806640625,0.015675000846385956,1.0950499773025513,0.6516125202178955
1749912665936990000,2.683989990234375,0.03368749842047691,0.23759999871253967,0.7144500017166138
1749912665947003400,2.69400341796875,0.06146249920129776,-0.5378999710083008,0.7836124897003174
1749912665957016800,2.704016845703125,0.10724999755620956,-0.8149625062942505,0.9594749808311462
1749912665967030300,2.7140302734375,0.1765500009059906,-0.590149998664856,1.274762511253357
1749912665977043700,2.724043701171875,0.32133749127388,-0.21518750488758087,1.634737491607666
1749912665987057200,2.73405712890625,0.5663625001907349,0.057612501084804535,1.9192249774932861
1749912665997070600,2.744070556640625,0.9136874675750732,0.271699994802475,2.1418375968933105
1749912666007084000,2.754083984375,1.3450249433517456,0.782925009727478,2.4102375507354736
1749912666017097700,2.76409765625,1.733875036239624,1.381737470626831,2.686199903488159
1749912666027111000,2.77411083984375,2.010937452316284,1.905750036239624,2.8789749145507812
1749912666037124400,2.784124267578125,2.207974910736084,2.3031249046325684,2.8939623832702637
1749912666047138000,2.794137939453125,2.321962594985962,2.4831125736236572,2.7128748893737793
1749912666057151200,2.804151123046875,2.334749937057495,2.436224937438965,2.4039125442504883
1749912666067165000,2.8141650390625,2.308074951171875,2.282912492752075,2.0726749897003174
1749912666077178400,2.824178466796875,2.3091750144958496,2.027162551879883,1.7945125102996826
1749912666087191600,2.834191650390625,2.317699909210205,1.5041124820709229,1.5985749959945679
1749912666097205000,2.844205078125,2.200550079345703,0.6093999743461609,1.3375999927520752
1749912666107218700,2.85421875,2.005574941635132,-0.05115000158548355,1.0584750175476074
1749912666117232000,2.864232177734375,1.7690750360488892,-0.4111250042915344,0.7889750003814697
1749912666127245300,2.874245361328125,1.5218499898910522,-0.45691248774528503,0.5769500136375427
1749912666137259000,2.884259033203125,1.2352999448776245,-0.07026249915361404,0.5268999934196472
1749912666147272200,2.894272216796875,0.9189124703407288,0.2162874937057495,0.6835125088691711
1749912666157285600,2.90428564453125,0.6632999777793884,-0.1938749998807907,0.9103875160217285
1749912666167299000,2.914299072265625,0.4961000084877014,-1.106737494468689,1.1244750022888184
1749912666177312500,2.9243125,0.40974998474121094,-2.1379873752593994,1.3481874465942383
1749912666187326000,2.934325927734375,0.2712875008583069,-2.777087450027466,1.467537522315979
1749912666197339400,2.94433935546875,0.05926249921321869,-2.7887749671936035,1.4313750267028809
1749912666207353000,2.95435302734375,0.07851249724626541,-2.3915374279022217,1.4942125082015991
1749912666217366300,2.9643662109375,0.4736874997615814,-1.781037449836731,1.7935500144958496
1749912666227379700,2.974379638671875,1.0212124586105347,-1.3677124977111816,2.3038125038146973
1749912666237393400,2.984393310546875,1.4185874462127686,-1.2792999744415283,2.597787380218506
1749912666247406600,2.994406494140625,1.5868874788284302,-0.9161624908447266,2.556262493133545
1749912666257420000,3.004419921875,1.5166250467300415,-0.4452250003814697,2.2654500007629395
1749912666267433500,3.01443359375,1.5549875497817993,-0.05004999786615372,1.9203250408172607
1749912666277447000,3.024447021484375,1.7605500221252441,0.3484250009059906,1.5538874864578247
1749912666287460400,3.03446044921875,1.9288499355316162,0.5508249998092651,1.2545499801635742
1749912666297474000,3.04447412109375,1.9234875440597534,0.5134249925613403,1.0638375282287598
1749912666307487200,3.0544873046875,1.6775000095367432,0.3643749952316284,0.9316999912261963
1749912666317501000,3.0645009765625,1.191712498664856,0.13529999554157257,0.7932375073432922
1749912666327514400,3.074514404296875,0.5780500173568726,-0.18851250410079956,0.5715875029563904
1749912666337527600,3.084527587890625,0.0625625029206276,-0.4857875108718872,0.11893749982118607
1749912666347541000,3.094541015625,-0.2793999910354614,-0.6018375158309937,-0.5607249736785889
1749912666357554700,3.1045546875,-0.3199625015258789,-0.3749625086784363,-1.3308625221252441
1749912666367568000,3.11456787109375,-0.15372499823570251,-0.015949999913573265,-1.8891124725341797
1749912666377581300,3.124581298828125,-0.20803749561309814,0.5369374752044678,-2.1267125606536865
1749912666387595000,3.134594970703125,-0.2730749845504761,0.8553875088691711,-1.9849499464035034
1749912666397608200,3.144608154296875,-0.23787499964237213,0.8458999991416931,-1.6121875047683716
1749912666407621600,3.15462158203125,-0.0695749968290329,0.7073000073432922,-1.2595000267028809
1749912666417635000,3.164635009765625,0.25107499957084656,0.49004998803138733,-0.9421499967575073
1749912666427648500,3.1746484375,0.6260374784469604,0.2887499928474426,-0.5883625149726868
1749912666437662000,3.184661865234375,0.9242749810218811,0.32381248474121094,-0.11329999566078186
1749912666447675600,3.194675537109375,1.0276750326156616,0.74566251039505,0.548212468624115
1749912666457688800,3.204688720703125,0.8614374995231628,3.4302124977111816,2.2793374061584473
1749912666467702300,3.214702392578125,0.740024983882904,6.078462600708008,3.7206125259399414
1749912666477715700,3.2247158203125,0.8849499821662903,6.994487285614014,3.977324962615967
1749912666487729400,3.2347294921875,1.1587125062942505,9.038837432861328,3.74714994430542
1749912666497742600,3.24474267578125,1.143725037574768,12.509474754333496,2.2004125118255615
1749912666507756000,3.254756103515625,0.6792500019073486,12.985637664794922,-0.6650875210762024
1749912666517769700,3.264769775390625,0.11357499659061432,8.980262756347656,-2.194775104522705
1749912666527783000,3.274782958984375,0.1498750001192093,3.4035375118255615,-1.8902125358581543
1749912666537796400,3.28479638671875,0.5205749869346619,0.2546499967575073,-1.7708624601364136
1749912666547810000,3.29481005859375,0.4151124954223633,-1.522262454032898,-1.6792874336242676
1749912666557823200,3.3048232421875,-0.12182500213384628,-2.5715250968933105,-1.478950023651123
1749912666567837000,3.3148369140625,-0.568149983882904,-3.2586123943328857,-1.129562497138977
1749912666577850400,3.324850341796875,-0.8003875017166138,-2.972062587738037,-0.8014875054359436
1749912666587863600,3.334863525390625,-1.2680250406265259,0.27912500500679016,-1.055037498474121
1749912666597877200,3.344877197265625,-2.2683374881744385,4.8512749671936035,-2.162874937057495
1749912666607890700,3.354890625,-3.1598875522613525,5.854750156402588,-2.644399881362915
1749912666617904000,3.364904052734375,-3.7064499855041504,4.8863372802734375,-2.5975124835968018
1749912666627917600,3.37491748046875,-3.9301624298095703,3.0072624683380127,-2.3758625984191895
1749912666637931000,3.384930908203125,-3.9620625972747803,1.6757124662399292,-2.424949884414673
1749912666647944400,3.3949443359375,-3.993962526321411,1.565987467765808,-2.5943500995635986
1749912666657958000,3.4049580078125,-4.0569376945495605,2.146512508392334,-2.7083375453948975
1749912666667971300,3.414971435546875,-4.045112609863281,2.3915374279022217,-2.5825250148773193
1749912666677984500,3.424984619140625,-3.955737590789795,2.012312412261963,-2.1565499305725098
1749912666687998000,3.434998046875,-3.6147375106811523,1.355062484741211,-1.818850040435791
1749912666698011600,3.44501171875,-3.037374973297119,0.10656250268220901,-1.3021249771118164
1749912666708024800,3.45502490234375,-2.4153249263763428,-1.2005125284194946,-0.5724124908447266
1749912666718038300,3.465038330078125,-1.8389250040054321,-1.8651875257492065,0.3969624936580658
1749912666728052000,3.475052001953125,-1.3905375003814697,-1.2399749755859375,1.424912452697754
1749912666738065200,3.485065185546875,-1.169987440109253,0.608299970626831,1.9255499839782715
1749912666748078600,3.49507861328125,-0.992062509059906,2.5854125022888184,1.7529875040054321
1749912666758092000,3.505092041015625,-0.7961249947547913,3.2661750316619873,1.2821874618530273
1749912666768105500,3.51510546875,-0.5383124947547913,2.4927375316619873,0.8751875162124634
1749912666778119000,3.525118896484375,-0.30291250348091125,1.0685124397277832,0.6366249918937683
1749912666788132400,3.53513232421875,-0.0845625028014183,-0.4388999938964844,0.5791500210762024
1749912666798145800,3.545145751953125,0.17971250414848328,-1.529687523841858,0.6291999816894531
1749912666808159200,3.5551591796875,0.49293750524520874,-2.100724935531616,0.7357624769210815
1749912666818172700,3.565172607421875,0.81454998254776,-2.2647624015808105,0.8879749774932861
1749912666828186000,3.57518603515625,1.101099967956543,-2.331862449645996,1.016950011253357
1749912666838199600,3.585199462890625,1.2694000005722046,-2.4469499588012695,1.052150011062622
1749912666848213000,3.595212890625,1.2801250219345093,-2.5609374046325684,0.9359624981880188
1749912666858226400,3.605226318359375,1.1767250299453735,-2.6514124870300293,0.7324625253677368
1749912666868240000,3.615239990234375,1.135200023651123,-2.646049976348877,0.5226374864578247
1749912666878253300,3.62525341796875,1.375962495803833,-2.5331625938415527,0.43738749623298645
1749912666888266800,3.635266845703125,1.8851250410079956,-2.305187463760376,0.44811248779296875
1749912666898280200,3.6452802734375,2.4305875301361084,-2.166724920272827,0.5215374827384949
1749912666908293600,3.655293701171875,2.7469749450683594,-2.2679250240325928,0.6951999664306641
1749912666918307300,3.665307373046875,2.7523374557495117,-2.236025094985962,0.8049250245094299
1749912666928320500,3.675320556640625,2.4913625717163086,-1.871649980545044,0.8986999988555908
1749912666938334000,3.685333984375,2.047100067138672,-1.299649953842163,1.036062479019165
1749912666948347600,3.69534765625,1.5911500453948975,-0.8234875202178955,1.1692999601364136
1749912666958360800,3.70536083984375,1.2225124835968018,-0.46117499470710754,1.2512500286102295
1749912666968374300,3.715374267578125,0.952049970626831,-0.05115000158548355,1.2523499727249146
1749912666978387700,3.7253876953125,0.7655999660491943,0.5805249810218811,1.1778249740600586
1749912666988401200,3.735401123046875,0.6058250069618225,1.3539625406265259,1.0201125144958496
1749912666998414600,3.74541455078125,0.39489999413490295,2.032525062561035,0.8731250166893005
1749912667008427800,3.755427734375,0.13062499463558197,2.2966625690460205,0.7847124934196472
1749912667018441500,3.76544140625,-0.06641250103712082,2.0580999851226807,0.602524995803833
1749912667028455000,3.775454833984375,-0.22728750109672546,1.687399983406067,0.34375
1749912667038468400,3.78546826171875,-0.41263750195503235,1.3337500095367432,0.0859375
1749912667048481800,3.795481689453125,-0.504212498664856,0.8883875012397766,-0.17407499253749847
1749912667058495200,3.8054951171875,-0.4562250077724457,0.2694999873638153,-0.2773374915122986
1749912667068508700,3.8155087890625,-0.3273875117301941,-0.4133250117301941,-0.022824998944997787
1749912667078522000,3.825522216796875,-0.13887499272823334,-0.5688375234603882,0.5834124684333801
1749912667088535600,3.83553564453125,0.12966249883174896,-0.13103750348091125,1.2427250146865845
1749912667098549000,3.845549072265625,0.3917374908924103,0.15344999730587006,1.5079624652862549
1749912667108562400,3.8555625,0.43642500042915344,0.1480875015258789,1.3695000410079956
1749912667118575900,3.865575927734375,0.2798124849796295,0.21408750116825104,1.0126874446868896
1749912667128589300,3.87558935546875,0.03272499889135361,0.28971248865127563,0.5513749718666077
1749912667138602800,3.885602783203125,-0.17393749952316284,0.17998750507831573,0.13282500207424164
1749912667148616200,3.8956162109375,-0.2793999910354614,0.07562500238418579,-0.1377750039100647
1749912667158629400,3.90562939453125,-0.35186249017715454,0.2120250016450882,-0.24969999492168427
1749912667168643000,3.91564306640625,-0.4030124843120575,0.37070000171661377,-0.2591874897480011
1749912667178656500,3.925656494140625,-0.40727499127388,0.11288750171661377,-0.2901250123977661
1749912667188669700,3.935669677734375,-0.3156999945640564,-0.41442498564720154,-0.38499999046325684
1749912667198683400,3.945683349609375,-0.11219999939203262,-0.847962498664856,-0.5297874808311462
1749912667208696800,3.95569677734375,0.16898749768733978,-0.9938499927520752,-0.6863999962806702
1749912667218710500,3.96571044921875,0.4725874960422516,-0.8905875086784363,-0.7770124673843384
1749912667228723700,3.9757236328125,0.7346624732017517,-0.6956124901771545,-0.7258625030517578
1749912667238737200,3.985737060546875,0.8986999988555908,-0.5400999784469604,-0.512737512588501
1749912667248750800,3.995750732421875,1.0010000467300415,-0.46447500586509705,-0.2134000062942505
1749912667258764000,4.005763916015625,1.0873500108718872,-0.49527499079704285,0.07947500050067902
1749912667268777500,4.015777587890625,1.1544499397277832,-0.6572499871253967,0.32133749127388
1749912667278791000,4.025791015625,1.1842875480651855,-0.9789999723434448,0.5183749794960022
1749912667288804400,4.035804443359375,1.1874500513076782,-1.4060750007629395,0.6909375190734863
1749912667298817800,4.04581787109375,1.1704000234603882,-1.730987548828125,0.877387523651123
1749912667308831200,4.055831298828125,1.1459250450134277,-1.3230249881744385,1.060675024986267
1749912667318844700,4.0658447265625,1.0115875005722046,0.3834874927997589,1.0115875005722046
1749912667328858000,4.075858154296875,0.5791500210762024,2.3520750999450684,0.5950999855995178
1749912667338871300,4.085871337890625,-0.10257499665021896,3.1649749279022217,0.06132499873638153
1749912667348885000,4.095885009765625,-0.7716500163078308,3.2767624855041504,-0.43821248412132263
1749912667358898400,4.1058984375,-1.2828749418258667,3.6986124515533447,-0.9271624684333801
1749912667368912000,4.115911865234375,-1.6972999572753906,4.351600170135498,-1.3447500467300415
1749912667378925000,4.125925048828125,-2.167137384414673,4.790500164031982,-1.5897749662399292
1749912667388938800,4.135938720703125,-2.6826250553131104,4.409212589263916,-1.5886750221252441
1749912667398952000,4.145951904296875,-3.116299867630005,2.654712438583374,-1.4566749334335327
1749912667408965600,4.155965576171875,-3.3218624591827393,0.48785001039505005,-1.4416874647140503
1749912667418979000,4.16597900390625,-3.3272249698638916,-0.8787624835968018,-1.509887456893921
1749912667428992300,4.1759921875,-3.243074893951416,-1.3048750162124634,-1.5258375406265259
1749912667439006000,4.186005859375,-3.150399923324585,-1.123787522315979,-1.480049967765808
1749912667449019400,4.196019287109375,-3.102412462234497,-0.7104625105857849,-1.3723875284194946
1749912667459032800,4.20603271484375,-3.0736749172210693,-0.4314749836921692,-1.2190749645233154
1749912667469046000,4.2160458984375,-2.882962465286255,-0.38032498955726624,-1.0965625047683716
1749912667479059500,4.2260595703125,-2.5804624557495117,-0.46970000863075256,-0.991100013256073
1749912667489073000,4.236072998046875,-2.250187397003174,-0.6848874688148499,-0.8366875052452087
1749912667499086300,4.24608642578125,-1.8911750316619873,-0.8234875202178955,-0.6087124943733215
1749912667509099800,4.256099853515625,-1.5651625394821167,-0.5048999786376953,-0.25286251306533813
1749912667519113200,4.26611328125,-1.212612509727478,0.7979124784469604,0.24255000054836273
1749912667529126700,4.276126708984375,-0.7929624915122986,2.487375020980835,0.7730249762535095
1749912667539140000,4.28614013671875,-0.4221250116825104,3.4515249729156494,1.128737449645996
1749912667549153500,4.296153564453125,-0.09404999762773514,3.5249500274658203,1.2139874696731567
1749912667559167000,4.3061669921875,0.24365000426769257,2.861375093460083,1.0616375207901
1749912667569180400,4.316180419921875,0.6067875027656555,1.7001874446868896,0.7847124934196472
1749912667579193900,4.32619384765625,0.9818875193595886,0.3398999869823456,0.5385875105857849
1749912667589207300,4.336207275390625,1.3386999368667603,-0.7968124747276306,0.4129124879837036
1749912667599220700,4.346220703125,1.6838250160217285,-1.5276249647140503,0.4086500108242035
1749912667609234200,4.356234130859375,2.0098373889923096,-1.9579999446868896,0.4950000047683716
1749912667619247600,4.36624755859375,2.2846999168395996,-2.2210373878479004,0.6355249881744385
1749912667629261000,4.376260986328125,2.4891624450683594,-2.462899923324585,0.7847124934196472
1749912667639274800,4.386274658203125,2.645775079727173,-2.769662380218506,0.8848124742507935
1749912667649288000,4.396287841796875,2.7885000705718994,-3.081787586212158,0.9370625019073486
1749912667659301400,4.40630126953125,2.9184374809265137,-3.3331375122070312,0.9626374840736389
1749912667669314800,4.416314697265625,3.0420498847961426,-3.4376375675201416,0.9444875121116638
1749912667679328300,4.426328369140625,3.137887477874756,-3.2597124576568604,0.9007624983787537
1749912667689341400,4.436341552734375,3.1273000240325928,-2.8228750228881836,0.8443874716758728
1749912667699355100,4.446355224609375,2.950474977493286,-2.2284624576568604,0.7528125047683716
1749912667709368600,4.45636865234375,2.5541999340057373,-1.6627874374389648,0.7793499827384949
1749912667719382000,4.466382080078125,1.9714750051498413,-1.300612449645996,1.0243749618530273
1749912667729395500,4.4763955078125,1.3034999370574951,-1.1621500253677368,1.4313750267028809
1749912667739409000,4.486408935546875,0.6280999779701233,-1.2846624851226807,1.8456624746322632
1749912667749422300,4.49642236328125,0.05926249921321869,-1.5532000064849854,1.9894875288009644
1749912667759435800,4.506435791015625,-0.29122498631477356,-0.7840250134468079,1.7040375471115112
1749912667769449200,4.51644921875,-0.4797374904155731,1.0525624752044678,1.1511499881744385
1749912667779462700,4.526462646484375,-0.5766749978065491,2.0143749713897705,0.5535749793052673
1749912667789476000,4.53647607421875,-0.65972501039505,2.883650064468384,0.09116250276565552
1749912667799489500,4.546489501953125,-0.7907624840736389,3.6304125785827637,-0.24227499961853027
1749912667809502700,4.556502685546875,-0.983537495136261,3.3523874282836914,-0.6747124791145325
1749912667819516400,4.566516357421875,-1.1593999862670898,2.735562562942505,-1.1710875034332275
1749912667829529900,4.57652978515625,-1.1178749799728394,2.04325008392334,-1.561037540435791
1749912667839543000,4.58654296875,-0.7002875208854675,1.4338500499725342,-1.3756874799728394
1749912667849556700,4.596556640625,0.17971250414848328,1.3113374710083008,-0.21986250579357147
1749912667859570200,4.606570068359375,0.9572749733924866,0.5497249960899353,0.9040625095367432
1749912667869583600,4.61658349609375,1.060675024986267,-0.6657750010490417,1.3344374895095825
1749912667879597000,4.62659716796875,0.7815499901771545,-1.4902249574661255,1.3088624477386475
1749912667889610500,4.636610595703125,0.5322625041007996,-1.8205000162124634,1.036062479019165
1749912667899623700,4.646623779296875,0.45237499475479126,-1.807712435722351,0.622737467288971
1749912667909637000,4.65663720703125,0.49816250801086426,-1.6255249977111816,0.13282500207424164
1749912667919650800,4.66665087890625,0.5813499689102173,-1.4060750007629395,-0.2997500002384186
1749912667929664300,4.676664306640625,0.6121500134468079,-1.2357125282287598,-0.558525025844574
1749912667939677700,4.686677734375,0.547249972820282,-1.1706750392913818,-0.6267250180244446
1749912667949691100,4.696691162109375,0.42143750190734863,-1.180299997329712,-0.5405125021934509
1749912667959704600,4.70670458984375,0.32023748755455017,-1.2474000453948975,-0.3689124882221222
1749912667969718000,4.716718017578125,0.28943750262260437,-1.363450050354004,-0.171875
1749912667979731500,4.7267314453125,0.36079999804496765,-1.4838999509811401,0.006049999967217445
1749912667989744600,4.73674462890625,0.5396875143051147,-1.5520999431610107,0.15826250612735748
1749912667999758000,4.746758056640625,0.7698624730110168,-1.5413750410079956,0.3139125108718872
1749912668009771500,4.756771484375,0.9350000023841858,-1.4136375188827515,0.5322625041007996
1749912668019785000,4.766784912109375,0.9967374801635742,-1.1610499620437622,0.7910374999046326
1749912668029798700,4.776798583984375,0.9733625054359436,-0.8531875014305115,0.9934374690055847
1749912668039811800,4.786811767578125,0.9029625058174133,-0.598675012588501,1.0510499477386475
1749912668049825300,4.7968251953125,0.8199124932289124,-0.38128748536109924,0.9466875195503235
1749912668059838700,4.806838623046875,0.7539125084877014,-0.0681999996304512,0.7133499979972839
1749912668069852200,4.81685205078125,0.6632999777793884,0.4516874849796295,0.39586248993873596
1749912668079865600,4.826865478515625,0.4725874960422516,1.1537624597549438,0.060362499207258224
1749912668089879000,4.836879150390625,0.15097500383853912,1.906849980354309,-0.2283875048160553
1749912668099892500,4.846892578125,-0.23154999315738678,2.6536123752593994,-0.44247499108314514
1749912668109906200,4.85690625,-0.6128374934196472,3.2863874435424805,-0.5766749978065491
1749912668119919400,4.86691943359375,-0.9612625241279602,3.6176249980926514,-0.6758124828338623
1749912668129932800,4.876932861328125,-1.2478125095367432,3.586824893951416,-0.7983250021934509
1749912668139946500,4.886946533203125,-1.5173125267028809,3.3577499389648438,-0.9846374988555908
1749912668149959700,4.896959716796875,-1.8305374383926392,3.097874879837036,-1.2159124612808228
1749912668159973000,4.90697314453125,-2.1788249015808105,2.9081249237060547,-1.3905375003814697
1749912668169986800,4.91698681640625,-2.552687406539917,2.699399948120117,-1.4385249614715576
1749912668180000000,4.927,-2.944700002670288,2.342587471008301,-1.3916374444961548
1749912668190013400,4.937013427734375,-3.3346500396728516,1.8961249589920044,-1.3287999629974365
1749912668200027000,4.94702685546875,-3.6680874824523926,1.5233625173568726,-1.2925000190734863
1749912668210040300,4.957040283203125,-3.91091251373291,1.2772375345230103,-1.295799970626831
1749912668220053800,4.9670537109375,-4.010049819946289,1.0940874814987183,-1.3341624736785889
1749912668230067000,4.97706689453125,-3.839550018310547,0.8458999991416931,-1.4140499830245972
1749912668240080600,4.98708056640625,-3.4464375972747803,0.5145249962806702,-1.4778499603271484
1749912668250094000,4.997093994140625,-2.9671125411987305,0.2120250016450882,-1.4140499830245972
1749912668260107300,5.007107177734375,-2.394012451171875,0.13956250250339508,-1.1071499586105347
1749912668270121000,5.017120849609375,-1.8741250038146973,0.271699994802475,-0.4904625117778778
1749912668280134400,5.027134521484375,-1.4161125421524048,0.4164874851703644,0.26372501254081726
1749912668290147800,5.03714794921875,-0.9644249677658081,0.42294999957084656,0.8507124781608582
1749912668300161300,5.047161376953125,-0.5383124947547913,0.45058751106262207,1.0988999605178833
1749912668310174500,5.057174560546875,-0.13983750343322754,0.5656750202178955,0.9679999947547913
1749912668320188000,5.06718798828125,0.20308749377727509,0.4729999899864197,0.6291999816894531
1749912668330201600,5.07720166015625,0.46406251192092896,0.0873124971985817,0.28503748774528503
1749912668340214800,5.08721484375,0.6654999852180481,-0.41868749260902405,0.07315000146627426
1749912668350228200,5.097228271484375,0.8625375032424927,-0.9363750219345093,0.035887498408555984
1749912668360241700,5.10724169921875,1.0819875001907349,-1.4060750007629395,0.10188750177621841
1749912668370255400,5.11725537109375,1.3034999370574951,-1.7928625345230103,0.19772499799728394
1749912668380268500,5.1272685546875,1.4899499416351318,-2.0825750827789307,0.2903999984264374
1749912668390282000,5.137281982421875,1.6220874786376953,-2.2423501014709473,0.36918750405311584
1749912668400295700,5.147295654296875,1.698812484741211,-2.291300058364868,0.44811248779296875
1749912668410308900,5.157308837890625,1.7551875114440918,-2.260499954223633,0.5343250036239624
1749912668420322300,5.167322265625,1.8308124542236328,-2.2306625843048096,0.6132500171661377
1749912668430335700,5.177335693359375,1.9938875436782837,-2.2753500938415527,0.6632999777793884
1749912668440349200,5.18734912109375,2.2921249866485596,-2.453274965286255,0.6792500019073486
1749912668450362600,5.197362548828125,2.687299966812134,-2.714250087738037,0.6675624847412109
1749912668460375800,5.207375732421875,3.079312562942505,-2.8293375968933105,0.6601374745368958
1749912668470389200,5.21738916015625,3.354175090789795,-2.676987409591675,0.7485499978065491
1749912668480402700,5.227402587890625,3.4244375228881836,-2.3329625129699707,0.9242749810218811
1749912668490416000,5.237416015625,3.2561373710632324,-1.899287462234497,1.1394624710083008
1749912668500429600,5.2474296875,2.875812530517578,-1.2590874433517456,1.386549949645996
1749912668510443000,5.257443115234375,2.304912567138672,-0.2971374988555908,1.708299994468689
1749912668520456400,5.26745654296875,1.6263500452041626,0.5219500064849854,2.0715749263763428
1749912668530470000,5.277469970703125,0.9498500227928162,0.34732499718666077,2.322925090789795
1749912668540483300,5.2874833984375,0.33096250891685486,-0.8692749738693237,2.266550064086914
1749912668550496800,5.297496826171875,-0.06531249731779099,-1.141937494277954,1.8063374757766724
1749912668560510200,5.30751025390625,-0.16871249675750732,0.9087374806404114,0.9466875195503235
1749912668570523600,5.317523681640625,-0.1313125044107437,2.6269373893737793,0.0017874999903142452
1749912668580537000,5.327537109375,-0.3114374876022339,3.122349977493286,-0.6917625069618225
1749912668590550500,5.337550537109375,-0.7225624918937683,3.085087537765503,-1.0539374351501465
1749912668600564200,5.347564208984375,-1.213712453842163,2.4330625534057617,-1.2754499912261963
1749912668610577400,5.357577392578125,-1.635562539100647,1.1930874586105347,-1.4735875129699707
1749912668620590800,5.3675908203125,-1.7419874668121338,0.038362499326467514,-1.3490124940872192
1749912668630604300,5.377604248046875,-1.4554375410079956,0.03726249933242798,-0.43821248412132263
1749912668640617700,5.38761767578125,-1.0591624975204468,0.2694999873638153,0.5663625001907349
1749912668650631200,5.397631103515625,-0.7173374891281128,-0.2694999873638153,0.8208749890327454
1749912668660644600,5.40764453125,-0.421162486076355,-0.7595499753952026,0.6803500056266785
1749912668670658000,5.417657958984375,-0.2517625093460083,-0.6518874764442444,0.4950000047683716
1749912668680671500,5.42767138671875,-0.2623499929904938,-0.1671999990940094,0.284074991941452
1749912668690685000,5.437684814453125,-0.34443750977516174,0.2737624943256378,0.0006874999962747097
1749912668700698400,5.447698486328125,-0.3891249895095825,0.5273125171661377,-0.29438748955726624
1749912668710711800,5.4577119140625,-0.37111249566078186,0.7106000185012817,-0.46268749237060547
1749912668720725200,5.467725341796875,-0.2784374952316284,0.8053374886512756,-0.46915000677108765
1749912668730738400,5.477738525390625,-0.15372499823570251,0.7712374925613403,-0.36684998869895935
1749912668740752100,5.487752197265625,-0.031212499365210533,0.5636125206947327,-0.2677125036716461
1749912668750765600,5.497765625,0.10724999755620956,0.1970375031232834,-0.26138749718666077
1749912668760778800,5.50777880859375,0.27018749713897705,-0.24076250195503235,-0.32106250524520874
1749912668770792200,5.517792236328125,0.4609000086784363,-0.6721000075340271,-0.3913249969482422
1749912668780806000,5.527805908203125,0.7079874873161316,-1.0737375020980835,-0.4328500032424927
1749912668790819300,5.5378193359375,1.0148874521255493,-1.482800006866455,-0.40837499499320984
1749912668800832800,5.547832763671875,1.3483250141143799,-1.9313249588012695,-0.2827000021934509
1749912668810846200,5.55784619140625,1.6721374988555908,-2.4160125255584717,-0.03451250120997429
1749912668820859400,5.567859375,1.9043749570846558,-2.9539124965667725,0.3287625014781952
1749912668830872800,5.577872802734375,1.9288499355316162,-3.485487461090088,0.7634000182151794
1749912668840886500,5.587886474609375,1.7423999309539795,-3.750725030899048,1.218250036239624
1749912668850899700,5.597899658203125,1.4473249912261963,-3.2650749683380127,1.6656750440597534
1749912668860913200,5.6079130859375,1.0564124584197998,-1.5776749849319458,1.966112494468689
1749912668870926800,5.6179267578125,0.5174124836921692,1.0918874740600586,1.7978124618530273
1749912668880940000,5.62793994140625,-0.13241249322891235,3.387587547302246,1.018049955368042
1749912668890953500,5.637953369140625,-0.825962483882904,4.227987289428711,-0.0004124999977648258
1749912668900967000,5.647966796875,-1.5002624988555908,4.032050132751465,-0.9015874862670898
1749912668910980400,5.65798046875,-2.092474937438965,3.648562431335449,-1.6046249866485596
1749912668920993800,5.667993896484375,-2.5889875888824463,3.572937488555908,-2.1063625812530518
1749912668931007200,5.67800732421875,-3.043837547302246,3.7657124996185303,-2.269437551498413
1749912668941020700,5.688020751953125,-3.491262435913086,3.910637378692627,-1.9007999897003174
1749912668951034000,5.6980341796875,-3.804349899291992,3.390749931335449,-1.1753499507904053
1749912668961047600,5.708047607421875,-3.8534374237060547,2.214712381362915,-0.6428124904632568
1749912668971061000,5.71806103515625,-3.698887586593628,0.8181250095367432,-0.45416250824928284
1749912668981074400,5.728074462890625,-3.5615248680114746,-0.3653374910354614,-0.4914250075817108
1749912668991087900,5.738087890625,-3.511475086212158,-1.140837550163269,-0.696025013923645
1749912669001101300,5.748101318359375,-3.381537437438965,-1.4231250286102295,-0.9900000095367432
1749912669011114500,5.758114501953125,-3.0864624977111816,-1.3252249956130981,-1.2574374675750732
1749912669021128000,5.7681279296875,-2.720025062561035,-1.0162625312805176,-1.4203749895095825
1749912669031141600,5.7781416015625,-2.3396999835968018,-0.561412513256073,-1.3799500465393066
1749912669041155000,5.788155029296875,-1.893375039100647,-0.027637500315904617,-1.0997250080108643
1749912669051168500,5.79816845703125,-1.4587374925613403,0.31322500109672546,-0.613937497138977
1749912669061182000,5.808181884765625,-1.0698875188827515,0.4197874963283539,0.016637500375509262
1749912669071195400,5.8181953125,-0.6395124793052673,0.4240500032901764,0.6951999664306641
1749912669081208600,5.82820849609375,-0.09515000134706497,0.4548499882221222,1.209725022315979
1749912669091222300,5.83822216796875,0.4534749984741211,0.5017374753952026,1.4185874462127686
1749912669101235700,5.848235595703125,0.8219749927520752,0.4591124951839447,1.366337537765503
1749912669111249200,5.858249267578125,0.9722625017166138,0.4591124951839447,1.184149980545044
1749912669121262600,5.8682626953125,0.9785875082015991,0.6434999704360962,0.9381625056266785
1749912669131275800,5.87827587890625,0.9839500188827515,0.8766999840736389,0.6536750197410583
1749912669141289500,5.88828955078125,1.0968375205993652,0.9161624908447266,0.40328750014305115
1749912669151303000,5.898302978515625,1.3386999368667603,0.590149998664856,0.2946625053882599
1749912669161316000,5.908316162109375,1.6636124849319458,-0.19167499244213104,0.3330250084400177
1749912669171329500,5.91832958984375,1.9970500469207764,-1.271875023841858,0.4609000086784363
1749912669181343000,5.928343017578125,2.2686123847961426,-2.314812421798706,0.6217749714851379
1749912669191356400,5.9383564453125,2.4476375579833984,-3.075462579727173,0.767662525177002
1749912669201369900,5.948369873046875,2.6233625411987305,-3.5686750411987305,0.8358625173568726
1749912669211383600,5.958383544921875,2.8769125938415527,-3.818924903869629,0.778249979019165
1749912669221396700,5.968396728515625,3.1421499252319336,-3.8828625679016113,0.5791500210762024
1749912669231410200,5.97841015625,3.3488125801086426,-3.7901875972747803,0.32133749127388
1749912669241424000,5.988423828125,3.446850061416626,-3.505699872970581,0.1667875051498413
1749912669251437000,5.99843701171875,3.4042248725891113,-3.021012544631958,0.15826250612735748
1749912669261450500,6.008450439453125,3.2625999450683594,-2.3957998752593994,0.2872374951839447
1749912669271464000,6.0184638671875,2.9877374172210693,-1.6383124589920044,0.5780500173568726
1749912669281477400,6.028477294921875,2.516937494277954,-0.9267500042915344,0.9924749732017517
1749912669291490800,6.03849072265625,1.8521250486373901,-0.5581125020980835,1.3695000410079956
1749912669301504300,6.048504150390625,1.0873500108718872,-0.6274124979972839,1.6389999389648438
1749912669311517700,6.058517578125,0.3969624936580658,-1.0258874893188477,1.7231500148773193
1749912669321531100,6.06853125,-0.0056374999694526196,-1.3230249881744385,1.542062520980835
1749912669331544300,6.07854443359375,-0.1835625022649765,-0.6210874915122986,1.1596750020980835
1749912669341558000,6.08855810546875,-0.4094749987125397,0.4963749945163727,0.6494125127792358
1749912669351571500,6.098571533203125,-0.7407125234603882,1.1217249631881714,0.045375000685453415
1749912669361584600,6.108584716796875,-1.0795124769210815,1.1632499694824219,-0.5746124982833862
1749912669371598000,6.11859814453125,-1.3595999479293823,0.9523249864578247,-1.129562497138977
1749912669381611800,6.12861181640625,-1.4735875129699707,0.8905875086784363,-1.5684624910354614
1749912669391625000,6.138625,-1.443750023841858,1.255924940109253,-1.7474875450134277
1749912669401638400,6.148638427734375,-1.4022250175476074,2.0825750827789307,-1.4150124788284302
1749912669411651600,6.158651611328125,-1.029325008392334,2.8528499603271484,-1.0220375061035156
1749912669421665300,6.168665283203125,-0.2475000023841858,2.6780874729156494,-1.1657249927520752
1749912669431678700,6.1786787109375,0.5524749755859375,1.5159374475479126,-1.3979624509811401
1749912669441692000,6.18869189453125,0.952049970626831,0.24502499401569366,-1.295799970626831
1749912669451705300,6.198705322265625,0.914650022983551,-0.5997750163078308,-0.8962249755859375
1749912669461719000,6.208718994140625,0.6771875023841858,-1.2516624927520752,-0.5266249775886536
1749912669471732200,6.218732177734375,0.4171749949455261,-2.009012460708618,-0.3306874930858612
1749912669481745700,6.22874560546875,0.3320625126361847,-2.868799924850464,-0.2975499927997589
1749912669491759000,6.238759033203125,0.4651624858379364,-3.6665749549865723,-0.3156999945640564
1749912669501772500,6.2487724609375,0.6132500171661377,-4.282299995422363,-0.24639999866485596
1749912669511785700,6.25878564453125,0.6143500208854675,-4.680775165557861,-0.057887498289346695
1749912669521799200,6.268799072265625,0.44068750739097595,-4.832025051116943,0.21367499232292175
1749912669531812900,6.278812744140625,0.18507499992847443,-4.771249771118164,0.47148749232292175
1749912669541826000,6.288825927734375,0.0038499999791383743,-4.545475006103516,0.6601374745368958
1749912669551839500,6.298839599609375,-0.022687500342726707,-4.179037570953369,0.7932375073432922
1749912669561853200,6.308853271484375,0.07741250097751617,-3.7156624794006348,0.8731250166893005
1749912669571866400,6.318866455078125,0.2457125037908554,-3.209662437438965,0.9242749810218811
1749912669581879800,6.3288798828125,0.4119499921798706,-2.5843124389648438,0.9668999910354614
1749912669591893200,6.338893310546875,0.5493124723434448,-1.9419125318527222,0.9785875082015991
1749912669601907000,6.348906982421875,0.6430875062942505,-1.3965874910354614,0.9572749733924866
1749912669611920100,6.358920166015625,0.684612512588501,-0.9267500042915344,0.9083250164985657
1749912669621933600,6.36893359375,0.7090874910354614,-0.545324981212616,0.8294000029563904
1749912669631947000,6.378947021484375,0.777287483215332,-0.2919124960899353,0.7144500017166138
1749912669641960400,6.38896044921875,0.9231749773025513,-0.18741250038146973,0.5961999893188477
1749912669651974000,6.398973876953125,1.1255749464035034,-0.18314999341964722,0.5172749757766724
1749912669661987300,6.4089873046875,1.356850028038025,-0.17572499811649323,0.5163124799728394
1749912669672000800,6.419000732421875,1.5666749477386475,-0.07878749817609787,0.5982624888420105
1749912669682014200,6.42901416015625,1.6869875192642212,0.1256749927997589,0.740024983882904
1749912669692027600,6.439027587890625,1.681762456893921,0.4250124990940094,0.9285374879837036
1749912669702041000,6.449041015625,1.5272125005722046,0.7617499828338623,1.1244750022888184
1749912669712054300,6.45905419921875,1.2247124910354614,1.0194250345230103,1.2545499801635742
1749912669722068000,6.46906787109375,0.8401250243186951,1.1452374458312988,1.266237497329712
1749912669732081400,6.479081298828125,0.44385001063346863,1.1483999490737915,1.1383625268936157
1749912669742094600,6.489094482421875,0.1381874978542328,1.039775013923645,0.8784874677658081
1749912669752108300,6.4991083984375,-0.014162499457597733,0.8766999840736389,0.5673249959945679
1749912669762121700,6.509121826171875,-0.07603749632835388,0.7541875243186951,0.2915000021457672
1749912669772135000,6.519135009765625,-0.1270499974489212,0.7158250212669373,0.04963750019669533
1749912669782148400,6.5291484375,-0.17297500371932983,0.8053374886512756,-0.17613749206066132
1749912669792162000,6.539162109375,-0.23471249639987946,1.0535249710083008,-0.41909998655319214
1749912669802175200,6.54917529296875,-0.3731749951839447,1.4114375114440918,-0.7226999998092651
1749912669812188700,6.559188720703125,-0.6810374855995178,1.823799967765808,-1.101925015449524
1749912669822202000,6.5692021484375,-1.1688874959945679,2.2232375144958496,-1.487475037574768
1749912669832215600,6.579215576171875,-1.8187124729156494,2.4373250007629395,-1.7729250192642212
1749912669842229000,6.58922900390625,-2.610300064086914,2.4788498878479004,-1.8880125284194946
1749912669852242400,6.599242431640625,-3.4347500801086426,2.5566749572753906,-1.8251750469207764
1749912669862255900,6.609255859375,-4.054737567901611,2.937000036239624,-1.5493500232696533
1749912669872269300,6.619269287109375,-4.238025188446045,3.4865875244140625,-0.7748125195503235
1749912669882282800,6.62928271484375,-4.1186747550964355,3.1723999977111816,0.020899999886751175
1749912669892296200,6.639296142578125,-3.9642624855041504,1.870687484741211,0.28503748774528503
1749912669902309600,6.6493095703125,-3.7576000690460205,0.16940000653266907,0.13598750531673431
1749912669912323000,6.659322998046875,-3.426224946975708,-1.3773374557495117,-0.2634499967098236
1749912669922336500,6.66933642578125,-3.0501625537872314,-2.4479124546051025,-0.696025013923645
1749912669932350000,6.679349853515625,-2.6305124759674072,-2.9805874824523926,-1.046512484550476
1749912669942363400,6.68936328125,-2.3226499557495117,-3.010425090789795,-1.1369874477386475
1749912669952376600,6.69937646484375,-2.204400062561035,-2.6024625301361084,-0.9101125001907349
1749912669962390300,6.709390380859375,-2.0201499462127686,-2.122037410736084,-0.5340499877929688
1749912669972403700,6.71940380859375,-1.694137454032898,-1.8397499322891235,-0.16224999725818634
1749912669982417000,6.7294169921875,-1.3169749975204468,-1.7459750175476074,0.14561249315738678
1749912669992430600,6.7394306640625,-0.9814749956130981,-1.8301249742507935,0.3937999904155731
1749912670002444000,6.749444091796875,-0.7097749710083008,-2.0282623767852783,0.5908374786376953
1749912670012457200,6.759457275390625,-0.47437500953674316,-2.195462465286255,0.7708249688148499
1749912670022471000,6.769470947265625,-0.26028749346733093,-2.185837507247925,0.9646999835968018
1749912670032484400,6.779484375,-0.08882500231266022,-1.8790749311447144,1.136299967765808
1749912670042497500,6.78949755859375,0.04647500067949295,-1.3230249881744385,1.2171499729156494
1749912670052511000,6.799510986328125,0.1467124968767166,-0.7169250249862671,1.1948750019073486
1749912670062524400,6.8095244140625,0.24365000426769257,-0.2237125039100647,1.0755250453948975
1749912670072537900,6.819537841796875,0.3363249897956848,0.02667500078678131,0.9092875123023987
1749912670082551300,6.82955126953125,0.4129124879837036,-0.04152499884366989,0.7485499978065491
1749912670092565000,6.83956494140625,0.46736249327659607,-0.43037500977516174,0.6164125204086304
1749912670102578200,6.849578125,0.5120499730110168,-1.0652124881744385,0.5513749718666077
1749912670112592000,6.859591796875,0.5759875178337097,-1.9205999374389648,0.5524749755859375
1749912670122605000,6.86960498046875,0.6877750158309937,-2.7249748706817627,0.6089875102043152
1749912670132618500,6.879618408203125,0.851812481880188,-3.1435248851776123,0.685575008392334
1749912670142632000,6.8896318359375,1.026574969291687,-3.158512592315674,0.7708249688148499
1749912670152645400,6.899645263671875,1.1704000234603882,-2.9422249794006348,0.8549749851226807
1749912670162658800,6.909658935546875,1.274762511253357,-2.638624906539917,0.9231749773025513
1749912670172672000,6.919672119140625,1.3205499649047852,-2.3211374282836914,0.9657999873161316
1749912670182685700,6.929685791015625,1.3205499649047852,-2.046412467956543,0.9721249938011169
1749912670192699100,6.93969921875,1.2864500284194946,-1.8279249668121338,0.942425012588501
1749912670202712300,6.94971240234375,1.2310374975204468,-1.647937536239624,0.9040625095367432
1749912670212726000,6.95972607421875,1.1778249740600586,-1.4412750005722046,0.8837124705314636
1749912670222739200,6.9697392578125,1.101099967956543,-0.9213874936103821,0.6835125088691711
1749912670232752600,6.979752685546875,0.5663625001907349,1.7982250452041626,-0.22728750109672546
1749912670242766000,6.98976611328125,0.07741250097751617,4.216300010681152,-0.49568748474121094
1749912670252779500,6.999779541015625,0.19249999523162842,4.222762584686279,-0.5937250256538391
1749912670262793000,7.00979296875,0.4545750021934509,2.2914373874664307,-0.7992874979972839
1749912670272806400,7.019806396484375,0.509850025177002,0.227974995970726,-0.6639875173568726
1749912670282819800,7.02981982421875,0.4076874852180481,-0.4388999938964844,-0.1069749966263771
1749912670292833300,7.039833251953125,0.31171250343322754,-0.25987499952316284,0.5087500214576721
1749912670302846500,7.049846435546875,0.1882375031709671,-0.3568125069141388,0.8560749888420105
1749912670312860000,7.05985986328125,0.010312499478459358,-0.8702374696731567,0.914650022983551
1749912670322873600,7.06987353515625,-0.13667500019073486,-0.9629124999046326,0.8507124781608582
1749912670332886800,7.07988671875,-0.23154999315738678,-0.36217498779296875,0.676087498664856
1749912670342900200,7.089900146484375,-0.22302499413490295,0.40273749828338623,0.3096500039100647
1749912670352913700,7.09991357421875,-0.06531249731779099,0.6711375117301941,-0.19208750128746033
1749912670362927000,7.109927001953125,0.18933749198913574,0.42721250653266907,-0.8014875054359436
1749912670372940500,7.1199404296875,0.5174124836921692,0.002199999988079071,-1.4587374925613403
1749912670382954000,7.1299541015625,0.6047250032424927,-0.5273125171661377,-1.943424940109253
1749912670392967400,7.139967529296875,0.2521750032901764,-1.080199956893921,-1.9445250034332275
1749912670402980600,7.149980712890625,-0.47327500581741333,-1.7459750175476074,-1.3969999551773071
1749912670412994300,7.159994384765625,-1.0613625049591064,-3.0189499855041504,-0.8696874976158142
1749912670423007700,7.1700078125,-1.2157750129699707,-4.582737445831299,-0.6065124869346619
1749912670433021000,7.18002099609375,-1.0645250082015991,-5.646987438201904,-0.5266249775886536
1749912670443034400,7.190034423828125,-0.8706499934196472,-6.157249927520752,-0.5064125061035156
1749912670453047800,7.2000478515625,-0.7512999773025513,-6.398974895477295,-0.5181000232696533
1749912670463061200,7.210061279296875,-0.6980875134468079,-6.574837684631348,-0.5831375122070312
1749912670473074700,7.22007470703125,-0.6576625108718872,-6.712200164794922,-0.7119749784469604
1749912670483088100,7.230088134765625,-0.5479375123977661,-6.719624996185303,-0.8589624762535095
1749912670493101600,7.2401015625,-0.383899986743927,-6.605637550354004,-0.9484750032424927
1749912670503115000,7.250114990234375,-0.26881250739097595,-6.170037269592285,-0.8930624723434448
1749912670513128400,7.26012841796875,-0.29548749327659607,-5.097262382507324,-0.6161375045776367
1749912670523142000,7.270141845703125,-0.3913249969482422,-3.3831875324249268,-0.1601874977350235
1749912670533155300,7.2801552734375,-0.4115374982357025,-1.2783374786376953,0.4278999865055084
1749912670543168800,7.290168701171875,-0.43821248412132263,1.0247875452041626,1.0564124584197998
1749912670553182200,7.30018212890625,-0.4263874888420105,3.0871500968933105,1.6017374992370605
1749912670563195400,7.3101953125,-0.3592875003814697,4.498587608337402,1.9351749420166016
1749912670573208800,7.320208740234375,-0.2591874897480011,5.1995625495910645,2.011899948120117
1749912670583222300,7.33022216796875,-0.16967499256134033,5.371025085449219,1.891450047492981
1749912670593235700,7.340235595703125,-0.12278749793767929,5.191037654876709,1.6560499668121338
1749912670603249200,7.350249267578125,-0.11110000312328339,4.797924995422363,1.3705999851226807
1749912670613262300,7.360262451171875,-0.11646249890327454,4.269649982452393,1.0712624788284302
1749912670623275800,7.37027587890625,-0.11426249891519547,3.652824878692627,0.785812497138977
1749912670633289500,7.38028955078125,-0.0812624990940094,2.972062587738037,0.5291000008583069
1749912670643302700,7.390302734375,0.006049999967217445,2.302025079727173,0.3170749843120575
1749912670653316000,7.400316162109375,0.1424500048160553,1.6842374801635742,0.17434999346733093
1749912670663329800,7.410329833984375,0.35007500648498535,0.8980125188827515,0.1966249942779541
1749912670673343000,7.420343017578125,0.9264749884605408,-1.4327499866485596,1.1618750095367432
1749912670683356200,7.430356201171875,1.6891875267028809,-3.7646124362945557,2.173875093460083
1749912670693369900,7.440369873046875,1.9470000267028809,-4.7425127029418945,2.3655500411987305
1749912670703383300,7.45038330078125,1.7327749729156494,-5.156937599182129,2.136475086212158
1749912670713396700,7.460396728515625,1.485687494277954,-5.45627498626709,1.7892874479293823
1749912670723410000,7.470409912109375,1.384487509727478,-5.717249870300293,1.4035999774932861
1749912670733423400,7.48042333984375,1.4154249429702759,-5.927074909210205,1.0670000314712524
1749912670743436800,7.490436767578125,1.5538874864578247,-5.9153876304626465,0.9092875123023987
1749912670753450200,7.5004501953125,1.7935500144958496,-5.158999919891357,1.3088624477386475
1749912670763463700,7.510463623046875,1.9597874879837036,-3.2938125133514404,2.4624874591827393
1749912670773477000,7.52047705078125,1.8851250410079956,-1.4188624620437622,3.296562433242798
1749912670783490600,7.530490478515625,1.6763999462127686,-0.18741250038146973,3.347712516784668
1749912670793504000,7.54050390625,1.3813250064849854,0.6093999743461609,2.7959249019622803
1749912670803517400,7.550517333984375,0.9498500227928162,1.3283874988555908,1.5485249757766724
1749912670813531000,7.56053076171875,0.3735874891281128,1.945212483406067,-0.39668750762939453
1749912670823544300,7.57054443359375,-0.12498749792575836,1.816237449645996,-1.8965375423431396
1749912670833557800,7.580557861328125,-0.30607500672340393,1.3028124570846558,-2.6976125240325928
1749912670843571000,7.590571044921875,-0.17723749577999115,0.6807624697685242,-3.077937364578247
1749912670853584400,7.60058447265625,0.09446249902248383,0.04372499883174896,-3.201550006866455
1749912670863598000,7.61059814453125,0.3511750102043152,-0.5741999745368958,-3.009737491607666
1749912670873611300,7.620611328125,0.5387250185012817,-1.190887451171875,-2.403637409210205
1749912670883624700,7.630624755859375,0.4907374978065491,-1.880174994468689,-1.7975374460220337
1749912670893638100,7.64063818359375,0.14451250433921814,-2.6195125579833984,-1.3894374370574951
1749912670903651600,7.650651611328125,-0.42748749256134033,-3.209662437438965,-1.1349250078201294
1749912670913665000,7.6606650390625,-1.085837483406067,-3.246924877166748,-0.9985250234603882
1749912670923678500,7.670678466796875,-1.8016624450683594,-2.528899908065796,-1.0166749954223633
1749912670933692000,7.68069189453125,-2.525049924850464,-1.390125036239624,-1.2265000343322754
1749912670943705300,7.690705322265625,-3.131150007247925,-0.39311251044273376,-1.5662624835968018
1749912670953718800,7.70071875,-3.574312448501587,-0.06599999964237213,-1.9243124723434448
1749912670963732200,7.710732177734375,-3.9066500663757324,-0.3110249936580658,-2.2831873893737793
1749912670973745700,7.72074560546875,-4.1186747550964355,-0.8542875051498413,-2.6390373706817627
1749912670983759000,7.730759033203125,-4.137787342071533,-1.3965874910354614,-2.9735748767852783
1749912670993772500,7.7407724609375,-3.9268624782562256,-1.7906625270843506,-3.185462474822998
1749912671003785700,7.75078564453125,-3.570050001144409,-2.0175375938415527,-3.2547624111175537
1749912671013799200,7.760799072265625,-3.1140999794006348,-1.8918625116348267,-3.1152000427246094
1749912671023812600,7.7708125,-2.6294124126434326,-1.391224980354309,-2.6336750984191895
1749912671033826000,7.780825927734375,-2.3002374172210693,-0.9054374694824219,-1.7314000129699707
1749912671043839500,7.790839599609375,-2.1586124897003174,-0.98642498254776,-0.7301250100135803
1749912671053853000,7.80085302734375,-2.1564126014709473,-1.7832374572753906,0.3096500039100647
1749912671063866600,7.81086669921875,-2.272599935531616,-3.1596124172210693,1.3301750421524048
1749912671073879800,7.8208798828125,-2.462212562561035,-4.632787704467773,2.1855623722076416
1749912671083893200,7.830893310546875,-2.6240499019622803,-5.723575115203857,2.751237392425537
1749912671093906700,7.84090673828125,-2.676300048828125,-6.370237350463867,2.9983248710632324
1749912671103920000,7.850920166015625,-2.5676748752593994,-6.565212249755859,3.01001238822937
1749912671113933300,7.860933349609375,-2.293912410736084,-5.911125183105469,2.9056499004364014
1749912671123946800,7.87094677734375,-1.9189499616622925,-3.6889874935150146,2.724562406539917
1749912671133960400,7.88096044921875,-1.6557749509811401,-1.116362452507019,2.3751749992370605
1749912671143973600,7.8909736328125,-1.5897749662399292,0.6690750122070312,1.991687536239624
1749912671153987000,7.900987060546875,-1.627037525177002,1.5745124816894531,1.6678749322891235
1749912671164000500,7.91100048828125,-1.6620999574661255,1.4701499938964844,1.4132249355316162
1749912671174014000,7.921013916015625,-1.6259374618530273,0.7723374962806702,1.1991374492645264
1749912671184027400,7.93102734375,-1.5236375331878662,0.14698749780654907,0.9956374764442444
1749912671194040800,7.941040771484375,-1.3990625143051147,-0.21834999322891235,0.8156499862670898
1749912671204054300,7.95105419921875,-1.2424499988555908,-0.5975750088691711,0.6621999740600586
1749912671214067500,7.9610673828125,-1.0719499588012695,-1.347499966621399,0.7101874947547913
1749912671224081000,7.971080810546875,-0.9026874899864197,-2.3105499744415283,0.9231749773025513
1749912671234094600,7.981094482421875,-0.6586250066757202,-2.8814499378204346,1.0733250379562378
1749912671244107800,7.991107666015625,-0.35612499713897705,-2.947587490081787,1.1383625268936157
1749912671254121200,8.001121337890625,-0.062150001525878906,-2.6514124870300293,1.1980375051498413
1749912671264134700,8.011134765625,0.21587499976158142,-2.2402875423431396,1.2864500284194946
1749912671274148000,8.021148193359375,0.45883750915527344,-1.805649995803833,1.4132249355316162
1749912671284161500,8.03116162109375,0.676087498664856,-1.4349499940872192,1.5442625284194946
1749912671294175000,8.041175048828125,0.8901749849319458,-1.2175624370574951,1.6113624572753906
1749912671304188400,8.0511884765625,1.10756254196167,-1.0258874893188477,1.617687463760376
1749912671314201600,8.06120166015625,1.3333375453948975,-0.7595499753952026,1.5527875423431396
1749912671324215000,8.071215087890625,1.551687479019165,-0.45374998450279236,1.3833874464035034
1749912671334228700,8.081228759765626,1.6763999462127686,-0.2012999951839447,1.0638375282287598
1749912671344242000,8.091241943359375,1.633774995803833,-0.19497500360012054,0.5758500099182129
1749912671354255400,8.10125537109375,1.3833874464035034,-0.5145249962806702,-0.0845625028014183
1749912671364268800,8.111268798828124,0.9509499669075012,-1.1174625158309937,-0.8452125191688538
1749912671374282200,8.1212822265625,0.4833124876022339,-1.3752750158309937,-1.002787470817566
1749912671384295400,8.13129541015625,0.19456249475479126,-1.0779999494552612,-0.28696250915527344
1749912671394308900,8.141308837890625,0.1274625062942505,-0.802174985408783,0.6931374669075012
1749912671404322300,8.151322265625,0.2147749960422516,-0.9662125110626221,1.3567124605178833
1749912671414335700,8.161335693359375,0.41084998846054077,-1.1600874662399292,1.5644749402999878
1749912671424349200,8.17134912109375,0.610087513923645,-1.1589875221252441,1.4121249914169312
1749912671434362600,8.181362548828124,0.6408874988555908,-1.098212480545044,1.109624981880188
1749912671444376000,8.1913759765625,0.4395875036716461,-0.98642498254776,0.8188124895095825
1749912671454389200,8.20138916015625,0.12636250257492065,-0.7732999920845032,0.5631999969482422
1749912671464403000,8.21140283203125,-0.1451999992132187,-0.5208500027656555,0.3404499888420105
1749912671474416400,8.22141650390625,-0.3007124960422516,-0.5123249888420105,0.17641249299049377
1749912671484429600,8.2314296875,-0.3082749843597412,-0.8340749740600586,0.08689999580383301
1749912671494443000,8.241443115234375,-0.21449999511241913,-1.0173624753952026,0.11577499657869339
1749912671504456700,8.251456787109374,-0.11962500214576721,-0.3152875006198883,0.4449499845504761
1749912671514470000,8.261469970703125,0.12966249883174896,0.7882875204086304,0.8720250129699707
1749912671524483300,8.2714833984375,0.6494125127792358,1.355062484741211,0.9721249938011169
1749912671534496800,8.281496826171875,1.2630749940872192,1.0940874814987183,0.6462500095367432
1749912671544510200,8.29151025390625,1.5751999616622925,0.9459999799728394,0.4236375093460083
1749912671554523400,8.3015234375,1.3162875175476074,1.8664250373840332,0.9509499669075012
1749912671574550300,8.32155029296875,0.21587499976158142,1.5435750484466553,2.0278499126434326
1749912671584563700,8.331563720703125,-0.09941250085830688,0.7712374925613403,2.2409749031066895
1749912671594577200,8.3415771484375,-0.17077499628067017,-0.2993375062942505,1.8211874961853027
1749912671604590600,8.351590576171875,0.10298749804496765,-2.0931625366210938,0.7250375151634216
1749912671614604000,8.36160400390625,0.4119499921798706,-3.9445998668670654,-0.421162486076355
1749912671624617500,8.371617431640624,0.4907374978065491,-5.0269999504089355,-1.169987440109253
1749912671634630700,8.381630615234375,0.26276248693466187,-5.323037624359131,-1.5951374769210815
1749912671644644400,8.391644287109376,-0.055687498301267624,-5.186775207519531,-1.8614749908447266
1749912671654657500,8.401657470703125,-0.3359124958515167,-4.926762580871582,-1.959375023841858
1749912671664671000,8.4116708984375,-0.6128374934196472,-4.431487560272217,-1.7133874893188477
1749912671674684200,8.42168408203125,-0.8493375182151794,-3.7369749546051025,-1.2722874879837036
1749912671684697900,8.43169775390625,-0.8749125003814697,-3.1829874515533447,-0.9761124849319458
1749912671694711000,8.4417109375,-0.6330500245094299,-2.817650079727173,-0.853600025177002
1749912671704724500,8.451724365234375,-0.24433749914169312,-2.562999963760376,-0.8344874978065491
1749912671714738000,8.461738037109376,0.18713749945163727,-2.311650037765503,-0.8494749665260315
1749912671724751400,8.47175146484375,0.5248374938964844,-2.001587390899658,-0.7992874979972839
1749912671734764800,8.481764892578125,0.6632999777793884,-1.5424749851226807,-0.6215000152587891
1749912671744778000,8.491778076171874,0.6047250032424927,-0.9459999799728394,-0.31363749504089355
1749912671754791400,8.50179150390625,0.3937999904155731,-0.30469998717308044,0.09336250275373459
1749912671764804900,8.511804931640626,0.17434999346733093,0.09803749620914459,0.4811125099658966
1749912671774818300,8.521818359375,0.09226249903440475,0.17572499811649323,0.7900750041007996
1749912671784831700,8.531831787109375,0.1541374921798706,-0.009624999947845936,1.0115875005722046
1749912671794845200,8.54184521484375,0.24791249632835388,-0.41442498564720154,1.1511499881744385
1749912671804858600,8.551858642578125,0.3394874930381775,-0.9204249978065491,1.2225124835968018
1749912671814872000,8.5618720703125,0.41827499866485596,-1.381600022315979,1.227874994277954
1749912671824885200,8.57188525390625,0.45663750171661377,-1.730987548828125,1.1787874698638916
1749912671834899000,8.58189892578125,0.44385001063346863,-1.9706499576568604,1.109624981880188
1749912671844912000,8.591912109375,0.4119499921798706,-2.1209375858306885,1.0403250455856323
1749912671854925600,8.601925537109375,0.37674999237060547,-2.188037395477295,0.9785875082015991
1749912671864939000,8.61193896484375,0.34485000371932983,-2.139087438583374,0.942425012588501
1749912671874952400,8.621952392578125,0.3330250084400177,-1.8205000162124634,1.035099983215332
1749912671884965600,8.631965576171876,0.35007500648498535,-1.1461999416351318,1.3151874542236328
1749912671894979000,8.64197900390625,0.37674999237060547,-0.3345375061035156,1.6571500301361084
1749912671904992500,8.651992431640625,0.37248748540878296,0.3686375021934509,1.8797625303268433
1749912671915006000,8.662005859375,0.27018749713897705,0.7521250247955322,1.8617500066757202
1749912671925019600,8.67201953125,0.1083500012755394,0.8916875123977661,1.6550874710083008
1749912671935032800,8.68203271484375,-0.022687500342726707,0.9470999836921692,1.3620749711990356
1749912671945046300,8.69204638671875,-0.057887498289346695,1.0620499849319458,1.1064624786376953
1749912671955059700,8.702059814453126,-0.00989999994635582,1.456262469291687,1.0382624864578247
1749912671965073200,8.7120732421875,0.04647500067949295,2.091099977493286,1.152250051498413
1749912671975086300,8.72208642578125,0.04647500067949295,2.610987424850464,1.2608749866485596
1749912671985100000,8.73210009765625,0.008112499490380287,3.0285749435424805,1.3609750270843506
1749912671995113500,8.742113525390625,-0.045099999755620956,3.518625020980835,1.4792250394821167
1749912672005126700,8.752126708984376,-0.15482500195503235,3.8808000087738037,1.4834874868392944
1749912672015140400,8.762140380859375,-0.3891249895095825,3.5953500270843506,1.2161874771118164
1749912672025153500,8.772153564453125,-0.7299875020980835,2.4543750286102295,0.4171749949455261
1749912672035167000,8.7821669921875,-1.0421124696731567,0.7350749969482422,-0.8111125230789185
1749912672045180400,8.792180419921875,-1.2062875032424927,-0.598675012588501,-1.8049625158309937
1749912672055193900,8.80219384765625,-1.2020249366760254,-1.0045750141143799,-2.3993749618530273
1749912672065207300,8.812207275390625,-1.0272624492645264,-0.5869874954223633,-2.4974124431610107
1749912672075220700,8.822220703125,-0.7279250025749207,0.317487508058548,-2.005162477493286
1749912672085234200,8.832234130859375,-0.40191251039505005,0.8852249979972839,-1.4470499753952026
1749912672095247600,8.84224755859375,-0.14409999549388885,0.8874250054359436,-1.1614625453948975
1749912672105261000,8.852260986328124,-0.03341250121593475,0.5625125169754028,-1.0656249523162842
1749912672115274500,8.8622744140625,-0.008937500417232513,0.16513749957084656,-0.974049985408783
1749912672125287700,8.87228759765625,0.026262499392032623,-0.11935000121593475,-0.8089125156402588
1749912672135301000,8.882301025390625,0.08703749626874924,-0.3217499852180481,-0.6001874804496765
1749912672145314600,8.892314453125,0.18713749945163727,-0.5262125134468079,-0.3870624899864197
1749912672155328000,8.902327880859374,0.3278000056743622,-0.7360374927520752,-0.18892499804496765
1749912672165341200,8.912341064453125,0.45883750915527344,-0.904337465763092,-0.035612501204013824
1749912672175354600,8.922354736328124,0.5248374938964844,-0.8798624873161316,0.08057499676942825
1749912672185368000,8.9323681640625,0.5035250186920166,-0.5869874954223633,0.14024999737739563
1749912672195381500,8.942381591796876,0.37564998865127563,-0.11082500219345093,0.13488750159740448
1749912672205394700,8.952394775390625,0.08910000324249268,0.44852501153945923,0.062424998730421066
1749912672215408400,8.962408447265625,-0.4030124843120575,1.033312439918518,-0.08236250281333923
1749912672225421600,8.972421630859374,-1.111412525177002,1.6191999912261963,-0.2890250086784363
1749912672235435300,8.982435302734375,-1.9923750162124634,2.053837537765503,-0.5288249850273132
1749912672245448400,8.992448486328126,-2.903174877166748,2.3307623863220215,-0.7684875130653381
1749912672255462000,9.0024619140625,-3.677574872970581,2.859174966812134,-0.9516375064849854
1749912672265475300,9.012475341796875,-4.251774787902832,3.4993748664855957,-0.9675874710083008
1749912672275488800,9.02248876953125,-4.635262489318848,3.6581873893737793,-0.7193999886512756
1749912672285502200,9.032502197265625,-4.763137340545654,3.4344749450683594,-0.2656500041484833
1749912672295515600,9.042515625,-4.613949775695801,2.978524923324585,0.22220000624656677
1749912672305529000,9.052529052734375,-4.203925132751465,2.259399890899658,0.5897374749183655
1749912672315542500,9.06254248046875,-3.546674966812134,1.5819374322891235,0.7750874757766724
1749912672325555700,9.0725556640625,-2.742300033569336,1.0865249633789062,0.7602375149726868
1749912672335569200,9.082569091796875,-1.8517124652862549,0.8010749816894531,0.6089875102043152
1749912672345582600,9.09258251953125,-1.0070500373840332,0.5465624928474426,0.4118124842643738
1749912672355596000,9.102595947265625,-0.34759998321533203,0.18424999713897705,0.3053874969482422
1749912672365609200,9.112609130859376,0.11261250078678131,-0.23966249823570251,0.3287625014781952
1749912672375623000,9.122622802734375,0.3969624936580658,-0.6561499834060669,0.44068750739097595
1749912672385636400,9.13263623046875,0.4970625042915344,-0.9426999688148499,0.5663625001907349
1749912672395649500,9.1426494140625,0.4534749984741211,-1.089687466621399,0.6291999816894531
1749912672405663000,9.1526630859375,0.32243749499320984,-1.1217249631881714,0.6132500171661377
1749912672415676400,9.162676513671874,0.16802500188350677,-0.957687497138977,0.5237374901771545
1749912672425689900,9.17268994140625,0.0625625029206276,-0.6274124979972839,0.3628624975681305
1749912672435703000,9.182703125,0.08057499676942825,-0.32065001130104065,0.19772499799728394
1749912672445716500,9.192716552734375,0.23828749358654022,-0.2194499969482422,0.07095000147819519
1749912672455730000,9.20272998046875,0.4545750021934509,-0.4772624969482422,-0.023787500336766243
1749912672465743400,9.212743408203124,0.6697624921798706,-1.0109000205993652,-0.09308750182390213
1749912672475757000,9.222757080078125,0.8816499710083008,-1.6288249492645264,-0.141075000166893
1749912672485770200,9.232770263671876,1.0883125066757202,-2.156137466430664,-0.16224999725818634
1749912672495783700,9.24278369140625,1.2684375047683716,-2.517212390899658,-0.18039999902248383
1749912672505797000,9.252797119140626,1.423949956893921,-2.665299892425537,-0.2102375030517578
1749912672515810600,9.262810546875,1.5666749477386475,-2.545949935913086,-0.24227499961853027
1749912672525823700,9.27282373046875,1.6838250160217285,-2.1763498783111572,-0.26028749346733093
1749912672535837200,9.282837158203124,1.7583500146865845,-1.7161375284194946,-0.26455000042915344
1749912672545850600,9.2928505859375,1.792449951171875,-1.2974499464035034,-0.2699125111103058
1749912672555864000,9.302864013671876,1.809499979019165,-0.9332125186920166,-0.2699125111103058
1749912672565877500,9.31287744140625,1.8276499509811401,-0.6157249808311462,-0.25286251306533813
1749912672575891000,9.322890869140625,1.8500624895095825,-0.3217499852180481,-0.2167000025510788
1749912672585904400,9.332904296875,1.8884249925613403,-0.05004999786615372,-0.15372499823570251
1749912672595917600,9.34291748046875,1.9470000267028809,0.16830000281333923,-0.07177499681711197
1749912672605931000,9.352930908203126,2.0002124309539795,0.281187504529953,0.035887498408555984
1749912672615944400,9.3629443359375,2.018362522125244,0.31212499737739563,0.21697500348091125
1749912672625958000,9.3729580078125,2.0289499759674072,0.22055000066757202,0.48963749408721924
1749912672635971000,9.38297119140625,2.1195623874664307,-0.0031624999828636646,0.7793499827384949
1749912672645984800,9.39298486328125,2.280437469482422,0.05004999786615372,1.0680999755859375
1749912672655998200,9.402998291015624,2.473212480545044,0.7840250134468079,1.2821874618530273
1749912672666011400,9.413011474609375,2.7671875953674316,1.2132999897003174,1.2139874696731567
1749912672676024800,9.42302490234375,3.0846750736236572,0.34622499346733093,0.7559750080108643
1749912672686038300,9.433038330078125,3.2902374267578125,-1.8673875331878662,0.24681249260902405
1749912672696051700,9.4430517578125,3.2944998741149902,-4.387762546539307,0.3063499927520752
1749912672706065000,9.45306494140625,3.04411244392395,-2.9539124965667725,1.9106999635696411
1749912672716078300,9.463078369140625,2.4092750549316406,-0.011687500402331352,3.3764500617980957
1749912672726091800,9.473091796875,1.4163874387741089,-0.2694999873638153,3.119737386703491
1749912672736105200,9.483105224609375,0.4162124991416931,-1.057787537574768,2.3282876014709473
1749912672746118400,9.493118408203125,-0.4499000012874603,-1.0588874816894531,1.5090625286102295
1749912672756131800,9.5031318359375,-1.121037483215332,-1.3699125051498413,0.519474983215332
1749912672766145500,9.5131455078125,-1.5992624759674072,-2.4469499588012695,-0.8003875017166138
1749912672776158700,9.52315869140625,-1.6387250423431396,-1.73208749294281,-1.8166500329971313
1749912672786172200,9.533172119140625,-1.5662624835968018,2.0208375453948975,-1.6131500005722046
1749912672796185600,9.543185546875,-1.9892125129699707,2.699399948120117,-1.737862467765808
1749912672806199000,9.553198974609375,-2.373800039291382,2.258437395095825,-1.829437494277954
1749912672816212200,9.563212158203125,-2.645362377166748,1.9131749868392944,-1.635562539100647
1749912672826225700,9.5732255859375,-2.927649974822998,1.704450011253357,-1.1593999862670898
1749912672836239000,9.583239013671875,-3.2493999004364014,1.4040124416351318,-0.550000011920929
1749912672846252500,9.59325244140625,-3.4208624362945557,0.8490625023841858,-0.31459999084472656
1749912672856265700,9.603265625,-3.2525625228881836,0.234437495470047,-0.46584999561309814
1749912672866279400,9.613279541015626,-2.7880873680114746,-0.34402498602867126,-0.7770124673843384
1749912672876292600,9.623292724609374,-2.2374000549316406,-0.8457624912261963,-1.0305625200271606
1749912672886306300,9.633306396484375,-1.868762493133545,-1.2579874992370605,-0.9953625202178955
1749912672896319700,9.64331982421875,-1.7441874742507935,-1.5978875160217285,-0.6437749862670898
1749912672906333000,9.6533330078125,-1.609987497329712,-1.7395124435424805,-0.2858625054359436
1749912672916346400,9.663346435546876,-1.2253999710083008,-1.5776749849319458,-0.1527625024318695
1749912672926359800,9.67335986328125,-0.7077124714851379,-1.2420375347137451,-0.21986250579357147
1749912672936373200,9.683373291015625,-0.25712499022483826,-0.7797625064849854,-0.34347498416900635
1749912672946386400,9.693386474609374,0.011412499472498894,-0.2120250016450882,-0.3807374835014343
1749912672956399900,9.70339990234375,0.17434999346733093,0.272662490606308,-0.28806251287460327
1749912672966413300,9.713413330078126,0.3469125032424927,0.5102624893188477,-0.11756250262260437
1749912672976426800,9.7234267578125,0.5429875254631042,0.5827249884605408,0.07204999774694443
1749912672986440200,9.733440185546876,0.7325999736785889,0.5656750202178955,0.2116124927997589
1749912672996453600,9.74345361328125,0.905162513256073,0.478362500667572,0.25533750653266907
1749912673006467000,9.753467041015625,1.0575125217437744,0.36217498779296875,0.2073500007390976
1749912673016480300,9.763480224609374,1.2054624557495117,0.24076250195503235,0.11041250079870224
1749912673026493700,9.77349365234375,1.4037375450134277,0.17366249859333038,0.03684999793767929
1749912673036507100,9.783507080078126,1.7105000019073486,0.25148749351501465,0.06462500244379044
1749912673046520600,9.7935205078125,2.1247875690460205,0.4591124951839447,0.1667875051498413
1749912673056533800,9.80353369140625,2.5445749759674072,0.6807624697685242,0.21697500348091125
1749912673066547200,9.813547119140624,2.8055500984191895,0.8032749891281128,0.17008750140666962
1749912673076560600,9.823560546875,2.8811750411987305,0.8095999956130981,0.07315000146627426
1749912673086574000,9.833573974609376,2.8268625736236572,0.727649986743927,-0.01746249943971634
1749912673096587500,9.84358740234375,2.6958250999450684,0.5721374750137329,-0.06751249730587006
1749912673106601000,9.85360107421875,2.548837423324585,0.4197874963283539,-0.05898749828338623
1749912673116614100,9.8636142578125,2.4124374389648438,0.5167250037193298,0.04221250116825104
1749912673126627600,9.873627685546875,2.156825065612793,0.7680749893188477,0.21587499976158142
1749912673136641300,9.883641357421874,1.5751999616622925,0.8298124670982361,0.4885374903678894
1749912673146654500,9.893654541015625,0.6132500171661377,0.8075374960899353,0.8497499823570251
1749912673156668000,9.90366796875,-0.5724124908447266,0.8894875049591064,1.069200038909912
1749912673166681300,9.913681396484375,-1.885812520980835,0.682824969291687,1.0499500036239624
1749912673176694800,9.92369482421875,-3.1865625381469727,0.5081999897956848,0.7900750041007996
1749912673186708000,9.9337080078125,-4.406324863433838,0.9565874934196472,0.3937999904155731
1749912673196721400,9.943721435546875,-5.25855016708374,1.7118749618530273,-0.13887499272823334
1749912673206734800,9.95373486328125,-5.423550128936768,2.4469499588012695,-0.733287513256073
1749912673216748300,9.963748291015625,-4.979424953460693,3.5408999919891357,-1.1402875185012817
1749912673226761500,9.973761474609375,-4.11014986038208,4.762862682342529,-1.279712438583374
1749912673236775200,9.983775146484374,-3.119462490081787,5.814187526702881,-1.2105499505996704
1749912673246788400,9.993788330078125,-2.201237440109253,6.540737628936768,-0.7673875093460083
1749912673256801800,10.0038017578125,-1.472487449645996,6.630249977111816,-0.04729999974370003
1749912673266815200,10.013815185546875,-0.9058499932289124,5.857912540435791,0.9253749847412109
1749912673276828700,10.02382861328125,-0.4723125100135803,4.070412635803223,1.9298124313354492
1749912673286842000,10.033842041015625,-0.1313125044107437,1.3391125202178955,2.590362548828125
1749912673296855600,10.04385546875,0.1658249944448471,-1.4199625253677368,2.6233625411987305
1749912673306869000,10.053868896484374,0.5055875182151794,-3.040262460708618,1.968174934387207
1749912673316882200,10.063882080078125,0.851812481880188,-3.2500874996185303,0.7570750117301941
1749912673326895600,10.0738955078125,1.0766249895095825,-3.0530500411987305,-0.3082749843597412
1749912673336909000,10.083908935546875,1.192812442779541,-2.877187490463257,-0.9590625166893005
1749912673346922500,10.093922607421876,1.217287540435791,-2.745187520980835,-1.2808125019073486
1749912673356935700,10.103935791015624,1.1618750095367432,-2.642887592315674,-1.3299000263214111
1749912673366949000,10.11394921875,1.0936750173568726,-2.576887369155884,-1.187037467956543
1749912673376962600,10.123962646484374,1.1320375204086304,-2.5257375240325928,-0.9260625243186951
1749912673386976000,10.13397607421875,1.3386999368667603,-2.4308624267578125,-0.612975001335144
1749912673396989400,10.143989501953126,1.6849249601364136,-2.273287534713745,-0.3114374876022339
1749912673407003000,10.1540029296875,2.118462562561035,-2.1752500534057617,-0.0919874981045723
1749912673417016300,10.164016357421875,2.5403125286102295,-2.2519750595092773,0.016637500375509262
1749912673427029800,10.17402978515625,2.855599880218506,-2.4639999866485596,0.028324998915195465
1749912673437043000,10.18404296875,2.996262550354004,-2.6578750610351562,-0.013199999928474426
1749912673447056400,10.194056396484376,2.9770123958587646,-2.7983999252319336,-0.06641250103712082
1749912673457069800,10.20406982421875,2.868387460708618,-2.92407488822937,-0.11866249889135361
1749912673467083300,10.214083251953125,2.7193374633789062,-3.047687530517578,-0.1601874977350235
1749912673477096700,10.2240966796875,2.556262493133545,-3.076425075531006,-0.14630000293254852
1749912673487110000,10.23410986328125,2.3794374465942383,-2.7930374145507812,-0.030249999836087227
1749912673497123300,10.244123291015624,2.1972498893737793,-2.122037410736084,0.15729999542236328
1749912673507136800,10.25413671875,2.052462577819824,-1.3954875469207764,0.32766249775886536
1749912673517150200,10.264150146484376,1.940537452697754,-0.940637469291687,0.40012499690055847
1749912673527163400,10.274163330078125,1.8543249368667603,-0.8872874975204468,0.3361875116825104
1749912673537176800,10.2841767578125,1.7157249450683594,-1.1621500253677368,0.2340250015258789
1749912673547190500,10.2941904296875,1.4154249429702759,-1.1450999975204468,0.358599990606308
1749912673557203700,10.30420361328125,0.8347625136375427,-0.3217499852180481,0.8421875238418579
1749912673567217000,10.314216796875,-0.01952499896287918,0.7925499677658081,1.4143249988555908
1749912673577230300,10.324230224609375,-0.8813750147819519,1.5819374322891235,1.6966124773025513
1749912673587243800,10.334243896484375,-1.4491125345230103,1.7737499475479126,1.5112625360488892
1749912673597257200,10.34425732421875,-1.6845124959945679,1.604349970817566,1.0328999757766724
1749912673607270400,10.3542705078125,-1.7846125364303589,1.7598625421524048,0.5919374823570251
1749912673617284000,10.3642841796875,-1.8357625007629395,2.4958999156951904,0.33096250891685486
1749912673627297500,10.374297607421875,-1.7697625160217285,3.1382999420166016,0.09116250276565552
1749912673637310700,10.384310791015626,-1.536424994468689,3.1755623817443848,-0.2901250123977661
1749912673647324400,10.394324462890625,-1.205187439918518,2.9731624126434326,-0.6448749899864197
1749912673657337600,10.404337646484375,-0.863224983215332,3.1286749839782715,-0.5841000080108643
1749912673667351000,10.41435107421875,-0.6671500205993652,3.0146875381469727,-0.27623748779296875
1749912673677364500,10.424364501953125,-0.5638874769210815,2.114612579345703,-0.0845625028014183
1749912673687378000,10.4343779296875,-0.5181000232696533,0.7414000034332275,0.01347499992698431
1749912673697391000,10.44439111328125,-0.5489000082015991,-0.6934124827384949,0.07411249727010727
1749912673707404500,10.454404541015625,-0.6202625036239624,-1.6458749771118164,0.13598750531673431
1749912673717417700,10.464417724609374,-0.651199996471405,-2.001587390899658,0.20514999330043793
1749912673727431400,10.474431396484375,-0.6128374934196472,-1.9472750425338745,0.2264624983072281
1749912673737444600,10.484444580078126,-0.5457375049591064,-1.6916625499725342,0.14877499639987946
1749912673747458000,10.4944580078125,-0.47753748297691345,-1.3337500095367432,-0.01952499896287918
1749912673757471500,10.504471435546876,-0.392425000667572,-0.8980125188827515,-0.2124374955892563
1749912673767485000,10.51448486328125,-0.2858625054359436,-0.4676375091075897,-0.37537500262260437
1749912673777498000,10.524498046875,-0.17820000648498535,-0.16183750331401825,-0.4904625117778778
1749912673787511600,10.534511474609374,-0.07273750007152557,-0.04688749834895134,-0.5841000080108643
1749912673797525000,10.54452490234375,0.03904999792575836,-0.09803749620914459,-0.6630250215530396
1749912673807538400,10.554538330078126,0.16472500562667847,-0.24392500519752502,-0.7236624956130981
1749912673817552000,10.5645517578125,0.2957625091075897,-0.3983374834060669,-0.7407125234603882
1749912673827565000,10.57456494140625,0.4384874999523163,-0.5102624893188477,-0.7130749821662903
1749912673837578800,10.584578857421874,0.5908374786376953,-0.5688375234603882,-0.6650875210762024
1749912673847592000,10.594592041015625,0.7378249764442444,-0.561412513256073,-0.6022499799728394
1749912673857605000,10.604605224609376,0.8753250241279602,-0.5293750166893005,-0.5479375123977661
1749912673867618600,10.61461865234375,1.0030624866485596,-0.5400999784469604,-0.5191999673843384
1749912673877632000,10.624632080078126,1.119249939918518,-0.6199874877929688,-0.5170000195503235
1749912673887645400,10.6346455078125,1.2651374340057373,-0.757349967956543,-0.5084750056266785
1749912673897659000,10.644658935546875,1.4569499492645264,-0.9662125110626221,-0.4595249891281128
1749912673907672300,10.65467236328125,1.6550874710083008,-1.2579874992370605,-0.3497999906539917
1749912673917685800,10.664685791015625,1.7679749727249146,-1.621262550354004,-0.1601874977350235
1749912673927699000,10.674698974609376,1.7285125255584717,-2.0388500690460205,0.11783749610185623
1749912673937712400,10.68471240234375,1.5485249757766724,-2.497962474822998,0.4512749910354614
1749912673947725800,10.694725830078125,1.2864500284194946,-3.003962516784668,0.7889750003814697
1749912673957739300,10.7047392578125,0.9935749769210815,-3.468437433242798,1.0723625421524048
1749912673967752700,10.714752685546875,0.7122499942779541,-3.7688748836517334,1.2896125316619873
1749912673977766100,10.72476611328125,0.4811125099658966,-3.7166249752044678,1.460112452507019
1749912673987779300,10.734779296875,0.23718750476837158,-3.205399990081787,1.5624125003814697
1749912673997792500,10.74479248046875,-0.15798750519752502,-2.254037380218506,1.5112625360488892
1749912674007806200,10.75480615234375,-0.7512999773025513,-0.9682750105857849,1.2417625188827515
1749912674017819600,10.764819580078125,-1.5406874418258667,0.5252500176429749,0.7420874834060669
1749912674027832800,10.774832763671874,-2.494112491607666,2.0347249507904053,0.03368749842047691
1749912674037846500,10.784846435546875,-3.463487386703491,3.271399974822998,-0.8376500010490417
1749912674047859700,10.794859619140626,-4.21767520904541,4.242974758148193,-1.776224970817566
1749912674057873200,10.804873046875,-4.633200168609619,5.2421875,-2.614562511444092
1749912674067886600,10.814886474609375,-4.713087558746338,6.387287616729736,-3.1706125736236572
1749912674077900000,10.824900146484374,-4.534062385559082,7.557000160217285,-3.281437397003174
1749912674087913200,10.834913330078125,-4.258237361907959,8.766036987304688,-2.689087390899658
1749912674097926700,10.8449267578125,-3.898124933242798,9.137837409973145,-1.3299000263214111
1749912674107940000,10.854940185546875,-3.38786244392395,7.867062568664551,0.21051250398159027
1749912674117953500,10.86495361328125,-2.7572875022888184,5.307224750518799,1.2779250144958496
1749912674127966700,10.874966796875,-2.070199966430664,2.1997249126434326,1.6975749731063843
1749912674137980200,10.884980224609375,-1.4150124788284302,-0.4815250039100647,1.718887448310852
1749912674147993600,10.89499365234375,-0.8856375217437744,-2.100724935531616,1.5889500379562378
1749912674158007000,10.905007080078125,-0.489362508058548,-2.5566749572753906,1.3705999851226807
1749912674168020200,10.915020263671876,-0.1260875016450882,-2.0484750270843506,0.9967374801635742
1749912674178033700,10.92503369140625,0.1999250054359436,-1.1600874662399292,0.47574999928474426
1749912674188047000,10.935047119140625,0.4054875075817108,-0.5805249810218811,-0.02488750033080578
1749912674198060500,10.945060546875,0.5268999934196472,-0.49527499079704285,-0.37537500262260437
1749912674208074000,10.955073974609375,0.5770875215530396,-0.765874981880188,-0.5075125098228455
1749912674218087400,10.96508740234375,0.5461499691009521,-1.1493624448776245,-0.41909998655319214
1749912674228100600,10.9751005859375,0.4918375015258789,-1.465749979019165,-0.22728750109672546
1749912674238114000,10.985114013671875,0.4970625042915344,-1.6521999835968018,-0.05252499878406525
1749912674248127500,10.99512744140625,0.5908374786376953,-1.6713124513626099,0.04441250115633011
1749912674258141000,11.005140869140625,0.7411249876022339,-1.5839999914169312,0.04867500066757202
1749912674268154000,11.015154052734376,0.8923749923706055,-1.4594249725341797,0.008112499490380287
1749912674278167600,11.02516748046875,1.0212124586105347,-1.280400037765503,-0.03657500073313713
1749912674288181000,11.035180908203126,1.1309374570846558,-1.0513249635696411,-0.05898749828338623
1749912674298194400,11.0451943359375,1.2386000156402588,-0.828712522983551,-0.04729999974370003
1749912674308207600,11.05520751953125,1.3696374893188477,-0.7104625105857849,-0.020624998956918716
1749912674318221000,11.065220947265624,1.5624125003814697,-0.7467625141143799,0.0017874999903142452
1749912674328234500,11.075234375,1.8126624822616577,-0.9204249978065491,0.012374999932944775
1749912674338248000,11.085248046875,2.0928874015808105,-1.1791999340057373,0.020899999886751175
1749912674348261400,11.095261474609375,2.346437454223633,-1.4594249725341797,0.0411125011742115
1749912674358274800,11.10527490234375,2.5371499061584473,-1.7011499404907227,0.09226249903440475
1749912674368288000,11.1152880859375,2.631887435913086,-1.8375500440597534,0.19346250593662262
1749912674378301400,11.125301513671875,2.635050058364868,-1.8684874773025513,0.3330250084400177
1749912674388315000,11.13531494140625,2.5530998706817627,-1.8108749389648438,0.47464999556541443
1749912674398328300,11.145328369140625,2.410374879837036,-1.4859625101089478,0.6291999816894531
1749912674408341500,11.155341552734376,2.2207624912261963,-0.7860875129699707,0.7645000219345093
1749912674418355000,11.16535498046875,2.008737564086914,-0.16403749585151672,0.7176125049591064
1749912674428368600,11.17536865234375,1.8106000423431396,-0.1438249945640564,0.3969624936580658
1749912674438381800,11.1853818359375,1.5933499336242676,-0.5304750204086304,-0.05362499877810478
1749912674448395000,11.19539501953125,1.3301750421524048,-0.8362749814987183,-0.3540624976158142
1749912674458408400,11.205408447265626,1.0382624864578247,-0.9938499927520752,-0.3881624937057495
1749912674468422000,11.215421875,0.7517125010490417,-1.1121000051498413,-0.10903749614953995
1749912674478435300,11.225435302734375,0.4395875036716461,-0.9608500003814697,0.43216249346733093
1749912674488448800,11.23544873046875,0.06462500244379044,-0.2769249975681305,0.9285374879837036
1749912674498462200,11.245462158203125,-0.40617498755455017,0.31322500109672546,1.0010000467300415
1749912674508475400,11.255475341796876,-0.9334874749183655,0.5059999823570251,0.6813125014305115
1749912674518488800,11.26548876953125,-1.3905375003814697,1.0449999570846558,0.34581249952316284
1749912674528502300,11.275502197265626,-1.5599374771118164,1.897225022315979,0.037950001657009125
1749912674538515700,11.285515625,-1.3191750049591064,2.2925374507904053,-0.48826250433921814
1749912674548529200,11.295529052734375,-0.966487467288971,2.445849895477295,-1.029462456703186
1749912674558542300,11.305542236328124,-0.9143750071525574,2.788912534713745,-1.177549958229065
1749912674568555800,11.3155556640625,-0.992062509059906,3.0189499855041504,-1.0305625200271606
1749912674578569200,11.3255693359375,-0.8962249755859375,2.8357999324798584,-0.8643249869346619
1749912674588582400,11.33558251953125,-0.5106750130653381,2.253074884414673,-0.7449749708175659
1749912674598595800,11.345595947265625,0.02199999988079071,1.3092750310897827,-0.6001874804496765
1749912674608609300,11.355609375,0.5493124723434448,-0.10119999945163727,-0.35516250133514404
1749912674618622700,11.365622802734375,0.8486499786376953,-1.8354874849319458,0.016637500375509262
1749912674628636000,11.375635986328126,0.6920375227928162,-3.334237575531006,0.39902499318122864
1749912674638649300,11.3856494140625,0.2488749921321869,-4.085262298583984,0.6973999738693237
1749912674648662800,11.395662841796875,-0.21546250581741333,-4.174775123596191,0.8412249684333801
1749912674658676200,11.40567626953125,-0.5841000080108643,-3.91902494430542,0.8177124857902527
1749912674668689400,11.415689453125,-0.8643249869346619,-3.4834249019622803,0.6590374708175659
1749912674678702800,11.425702880859374,-1.0804749727249146,-2.9220125675201416,0.4203374981880188
1749912674688716300,11.43571630859375,-1.1966625452041626,-2.3159124851226807,0.13598750531673431
1749912674698729700,11.445729736328126,-1.1901999711990356,-1.6724125146865845,-0.13887499272823334
1749912674708743000,11.455742919921875,-1.0752500295639038,-0.9523249864578247,-0.35942500829696655
1749912674718756600,11.465756591796875,-0.891962468624115,-0.23539999127388,-0.512737512588501
1749912674728769800,11.475769775390624,-0.6682500243186951,0.32381248474121094,-0.641712486743927
1749912674738783200,11.485783203125,-0.48826250433921814,0.6626124978065491,-0.7779750227928162
1749912674748796700,11.495796630859376,-0.36038750410079956,0.8127624988555908,-0.9112125039100647
1749912674758810000,11.50581005859375,-0.2784374952316284,0.8405374884605408,-1.0135124921798706
1749912674768823300,11.5158232421875,-0.21656249463558197,0.8064374923706055,-1.0667250156402588
1749912674778836700,11.525836669921874,-0.1568875014781952,0.7436000108718872,-1.0667250156402588
1749912674788850200,11.53585009765625,-0.07273750007152557,0.6785625219345093,-1.0135124921798706
1749912674798863600,11.545863525390626,0.05609999969601631,0.607200026512146,-0.9154750108718872
1749912674808876800,11.555876708984375,0.21051250398159027,0.46873748302459717,-0.7907624840736389
1749912674818890200,11.56589013671875,0.36079999804496765,0.2055625021457672,-0.6650875210762024
1749912674828903700,11.575903564453125,0.5088874697685242,-0.18535000085830688,-0.549037516117096
1749912674838917000,11.585917236328125,0.6590374708175659,-0.6157249808311462,-0.41909998655319214
1749912674848930600,11.5959306640625,0.8338000178337097,-0.950124979019165,-0.23691250383853912
1749912674858944000,11.605944091796875,1.0575125217437744,-1.0609500408172607,0.030524998903274536
1749912674868957200,11.615957275390626,1.3386999368667603,-0.9267500042915344,0.381974995136261
1749912674878970600,11.625970703125,1.633774995803833,-0.7732999920845032,0.7016624808311462
1749912674888983800,11.63598388671875,1.8543249368667603,-0.8181250095367432,0.8955374956130981
1749912674898997500,11.64599755859375,1.9586875438690186,-1.0674124956130981,1.0030624866485596
1749912674909010700,11.6560107421875,1.9223874807357788,-1.381600022315979,1.1149874925613403
1749912674919024000,11.666024169921876,1.7466624975204468,-1.6117750406265259,1.3162875175476074
1749912674929037600,11.67603759765625,1.4260125160217285,-1.6990875005722046,1.6017374992370605
1749912674939051000,11.686051025390626,0.9946749806404114,-1.3528624773025513,1.984262466430664
1749912674949064400,11.696064453125,0.4162124991416931,-0.2993375062942505,2.4198625087738037
1749912674959077600,11.70607763671875,-0.430649995803833,1.2016124725341797,2.6702499389648438
1749912674969091000,11.716091064453124,-1.6227749586105347,2.671762466430664,2.4869625568389893
1749912674979104300,11.726104248046875,-3.053462505340576,3.959587574005127,1.8489625453948975
1749912674989117700,11.73611767578125,-4.5490498542785645,5.0685248374938965,0.8646000027656555
1749912674999131400,11.74613134765625,-5.847599983215332,5.743925094604492,-0.2923249900341034
1749912675009144600,11.75614453125,-6.6305251121521,5.940000057220459,-1.5130499601364136
1749912675019157800,11.76615771484375,-6.694462299346924,6.087949752807617,-2.754124879837036
1749912675029171500,11.77617138671875,-6.224625110626221,6.350025177001953,-3.7501749992370605
1749912675039185000,11.786184814453126,-5.60890007019043,6.860287666320801,-4.2050251960754395
1749912675049198000,11.796197998046875,-5.127512454986572,8.640362739562988,-3.523162364959717
1749912675059211300,11.806211181640625,-4.339224815368652,9.921862602233887,-1.3660625219345093
1749912675069225000,11.816224853515624,-2.917062520980835,8.571200370788574,0.7815499901771545
1749912675079238100,11.826238037109375,-1.4852750301361084,5.5329999923706055,2.150362491607666
1749912675089251600,11.83625146484375,-0.32628750801086426,2.0208375453948975,2.7191998958587646
1749912675099265000,11.84626513671875,0.48647499084472656,-0.9832624793052673,2.7959249019622803
1749912675109278500,11.856278564453126,1.1149874925613403,-2.9657375812530518,2.4102375507354736
1749912675119291600,11.866291748046875,1.682724952697754,-3.502537488937378,1.4451249837875366
1749912675129305300,11.876305419921875,2.130150079727173,-3.2489874362945557,0.27871251106262207
1749912675139318500,11.886318603515624,2.4678499698638916,-3.1041998863220215,-0.5638874769210815
1749912675149332000,11.89633203125,2.731987476348877,-3.0977375507354736,-1.0326249599456787
1749912675159345400,11.906345458984376,2.9152750968933105,-3.164837598800659,-1.1477124691009521
1749912675169358800,11.91635888671875,3.0739500522613525,-3.2383999824523926,-1.0337250232696533
1749912675179372000,11.9263720703125,3.213512420654297,-3.3075625896453857,-0.8324249982833862
1749912675189385500,11.936385498046874,3.3169124126434326,-3.4386000633239746,-0.6289250254631042
1749912675199399000,11.94639892578125,3.361599922180176,-3.6452624797821045,-0.4595249891281128
1749912675209412400,11.956412353515624,3.347712516784668,-3.91902494430542,-0.33701249957084656
1749912675219425800,11.96642578125,3.227400064468384,-4.024487495422363,-0.25286251306533813
1749912675229439200,11.976439208984376,2.9770123958587646,-3.8339123725891113,-0.21449999511241913
1749912675239452400,11.986452392578125,2.6468749046325684,-3.557950019836426,-0.24860000610351562
1749912675249465900,11.9964658203125,2.297487497329712,-3.3874499797821045,-0.36038750410079956
1749912675259479300,12.006479248046874,1.9512624740600586,-3.371500015258789,-0.5255249738693237
1749912675269492700,12.01649267578125,1.6741999387741089,-3.388550043106079,-0.7034500241279602
1749912675279506000,12.026505859375,1.4558500051498413,-3.3385000228881836,-0.7897999882698059
1749912675289519400,12.036519287109375,1.2769625186920166,-3.298074960708618,-0.6246625185012817
1749912675299532500,12.046532470703125,1.1490875482559204,-3.2139248847961426,-0.2326499968767166
1749912675309546200,12.056546142578124,0.9882124662399292,-2.9848499298095703,0.3011249899864197
1749912675319559400,12.066559326171875,0.768762469291687,-2.2455124855041504,0.897599995136261
1749912675329572900,12.07657275390625,0.41084998846054077,-0.8948500156402588,1.3727999925613403
1749912675339586300,12.08658642578125,-0.10683749616146088,-0.0085249999538064,1.3876500129699707
1749912675349599700,12.096599853515626,-0.4595249891281128,-0.3684999942779541,0.9839500188827515
1749912675359613000,12.106613037109375,-0.8695499897003174,-1.106737494468689,0.4160749912261963
1749912675369626000,12.116626220703125,-1.379812479019165,-1.4253250360488892,-0.01209999993443489
1749912675379639800,12.126639892578124,-1.754775047302246,-1.2005125284194946,-0.2134000062942505
1749912675389653000,12.136653076171875,-1.820912480354309,-0.6945124864578247,-0.2815999984741211
1749912675399666400,12.14666650390625,-1.6632000207901,0.02667500078678131,-0.4456374943256378
1749912675409679600,12.1566796875,-1.2179750204086304,0.635937511920929,-0.9559000134468079
1749912675419693000,12.166693115234375,-0.5830000042915344,1.116362452507019,-1.6909749507904053
1749912675429706500,12.17670654296875,0.284074991941452,2.083674907684326,-2.0681374073028564
1749912675439720000,12.186719970703125,1.084049940109253,3.2480249404907227,-1.795337438583374
1749912675449733400,12.1967333984375,1.2523499727249146,3.6400375366210938,-1.496000051498413
1749912675459746800,12.206746826171875,0.777287483215332,3.329974889755249,-1.2637624740600586
1749912675469760000,12.216760009765625,0.1658249944448471,2.8389625549316406,-0.982574999332428
1749912675479773400,12.2267734375,-0.3188624978065491,2.367062568664551,-0.6928625106811523
1749912675489787000,12.236786865234375,-0.5553625226020813,1.880174994468689,-0.4137375056743622
1749912675499800300,12.24680029296875,-0.5830000042915344,1.2601875066757202,-0.20281249284744263
1749912675509813500,12.2568134765625,-0.5064125061035156,0.4815250039100647,-0.060087498277425766
1749912675519827000,12.266826904296876,-0.430649995803833,-0.3983374834060669,0.06888750195503235
1749912675529840400,12.27684033203125,-0.439175009727478,-1.181399941444397,0.20418749749660492
1749912675539853800,12.286853759765625,-0.5340499877929688,-1.706512451171875,0.3480125069618225
1749912675549867000,12.296866943359374,-0.6500999927520752,-1.9621249437332153,0.5002250075340271
1749912675559880400,12.30688037109375,-0.7097749710083008,-1.9749125242233276,0.6516125202178955
1749912675569894000,12.316893798828126,-0.7140374779701233,-1.8173375129699707,0.7836124897003174
1749912675579907300,12.3269072265625,-0.6756749749183655,-1.5723124742507935,0.8848124742507935
1749912675589920500,12.33692041015625,-0.6065124869346619,-1.2453374862670898,0.9615374803543091
1749912675599934000,12.346933837890624,-0.5201625227928162,-0.8787624835968018,0.9998999834060669
1749912675609947400,12.356947509765625,-0.40727499127388,-0.5389999747276306,0.9860125184059143
1749912675619960800,12.3669609375,-0.25382500886917114,-0.24076250195503235,0.9092875123023987
1749912675629974000,12.37697412109375,-0.055687498301267624,0.1023000031709671,0.8071249723434448
1749912675639987500,12.386987548828126,0.19249999523162842,0.5645750164985657,0.6994624733924866
1749912675650001000,12.3970009765625,0.4427500069141388,1.0940874814987183,0.5546749830245972
1749912675660014300,12.407014404296875,0.6143500208854675,1.5520999431610107,0.329862505197525
1749912675670027500,12.417027587890624,0.731499969959259,1.8451124429702759,0.02736249938607216
1749912675680041000,12.427041015625,0.8646000027656555,1.980412483215332,-0.3156999945640564
1749912675690054400,12.437054443359376,1.0734624862670898,1.945212483406067,-0.6843374967575073
1749912675700067800,12.44706787109375,1.377062439918518,1.7672874927520752,-1.0252000093460083
1749912675710081300,12.457081298828125,1.7573875188827515,1.557462453842163,-1.1764500141143799
1749912675720094700,12.4670947265625,2.074737548828125,1.2186625003814697,-1.1050875186920166
1749912675730108000,12.47710791015625,2.147200107574463,0.5975750088691711,-0.974049985408783
1749912675740121000,12.48712109375,1.9458999633789062,-0.29397499561309814,-0.8291249871253967
1749912675750134800,12.497134765625,1.5314749479293823,-1.2570250034332275,-0.6215000152587891
1749912675760148200,12.507148193359376,0.9572749733924866,-1.780074954032898,-0.15056249499320984
1749912675770161400,12.517161376953124,0.16046249866485596,-1.564887523651123,0.5780500173568726
1749912675780174600,12.527174560546875,-0.90048748254776,-1.0173624753952026,1.1809874773025513
1749912675790188000,12.53718798828125,-2.0967373847961426,-0.4591124951839447,1.3685375452041626
1749912675800201500,12.547201416015625,-3.0810999870300293,0.49431249499320984,1.2000999450683594
1749912675810214700,12.557214599609376,-3.7192375659942627,1.9654250144958496,0.778249979019165
1749912675820228400,12.567228271484375,-4.080312252044678,3.404637575149536,0.18177500367164612
1749912675830241800,12.57724169921875,-4.294400215148926,4.496524810791016,-0.4115374982357025
1749912675840255000,12.5872548828125,-4.360537528991699,5.223074913024902,-0.891962468624115
1749912675850268400,12.597268310546875,-4.221937656402588,5.758774757385254,-1.1998250484466553
1749912675860281900,12.60728173828125,-3.89386248588562,6.327749729156494,-1.2669249773025513
1749912675870295300,12.61729541015625,-3.343174934387207,6.808175086975098,-0.908050000667572
1749912675880308500,12.62730859375,-2.515424966812134,6.5131001472473145,-0.14423750340938568
1749912675890322000,12.637322021484374,-1.5428874492645264,4.953437328338623,0.7357624769210815
1749912675900335400,12.64733544921875,-0.6841999888420105,2.170024871826172,1.3098249435424805
1749912675910348500,12.6573486328125,-0.10051249712705612,-0.6135249733924866,1.3961750268936157
1749912675920362000,12.667362060546875,0.21587499976158142,-2.2860748767852783,1.152250051498413
1749912675930375400,12.67737548828125,0.38417500257492065,-2.799499988555908,0.7101874947547913
1749912675940388900,12.687388916015625,0.5695250034332275,-2.7025625705718994,0.14135000109672546
1749912675950402000,12.697402099609375,0.7900750041007996,-2.4202749729156494,-0.3423750102519989
1749912675960415200,12.707415283203124,0.9818875193595886,-2.1997249126434326,-0.6352499723434448
