time,seconds_elapsed,z,y,x
1749987616837127700,0.243127685546875,-0.7253124713897705,-1.0114500522613525,0.020212499424815178
1749987616847140900,0.253140869140625,-0.738099992275238,-1.3384250402450562,0.05004999786615372
1749987616857153800,0.26315380859375,-0.7158250212669373,-1.5100250244140625,0.06599999964237213
1749987616867166700,0.273166748046875,-0.7039999961853027,-1.4546124935150146,0.09803749620914459
1749987616877179600,0.2831796875,-0.7189875245094299,-1.1882749795913696,0.20666250586509705
1749987616887192600,0.293192626953125,-0.7104625105857849,-1.1350624561309814,0.45801249146461487
1749987616897205500,0.30320556640625,-0.7008374929428101,-1.3938374519348145,0.7797625064849854
1749987616907218400,0.313218505859375,-0.8307750225067139,-1.7113250494003296,0.9011750221252441
1749987616917231400,0.3232314453125,-0.8276125192642212,-2.4006125926971436,0.8414999842643738
1749987616927244500,0.33324462890625,-0.8392999768257141,-2.3153624534606934,0.05967500060796738
1749987616937257500,0.343257568359375,-0.8170250058174133,-2.309999942779541,-0.6956124901771545
1749987616947270400,0.3532705078125,-0.7445625066757202,-2.219525098800659,-1.1952874660491943
1749987616957283300,0.363283447265625,-0.7039999961853027,-1.9009374380111694,-1.4232624769210815
1749987616967296300,0.373296142578125,-0.7423624992370605,-1.5057624578475952,-1.4327499866485596
1749987616977309400,0.383309326171875,-0.857450008392334,-1.0796500444412231,-1.2421749830245972
1749987616987322400,0.393322265625,-1.0652124881744385,-0.5022875070571899,-0.9343125224113464
1749987616997335300,0.403335205078125,-1.3538249731063843,0.11027500033378601,-0.6765000224113464
1749987617007348200,0.41334814453125,-1.630887508392334,0.5715875029563904,-0.492249995470047
1749987617017361400,0.423361328125,-1.8119750022888184,0.8069875240325928,-0.29081249237060547
1749987617027374300,0.433374267578125,-1.9493374824523926,0.8133124709129333,-0.04262499883770943
1749987617037387300,0.44338720703125,-2.0249624252319336,0.8058875203132629,0.2620750069618225
1749987617047400200,0.453400146484375,-2.0899999141693115,0.8772500157356262,0.5847874879837036
1749987617057413400,0.463413330078125,-2.1698875427246094,0.9976999759674072,0.9341750144958496
1749987617067426300,0.47342626953125,-2.2273623943328857,1.0657625198364258,1.3369125127792358
1749987617077439500,0.483439453125,-2.246612548828125,1.0764875411987305,1.7161375284194946
1749987617087452400,0.493452392578125,-2.2657248973846436,0.8197749853134155,1.5925250053405762
1749987617097465300,0.50346533203125,-2.2136125564575195,0.19126249849796295,0.6626124978065491
1749987617107478300,0.513478271484375,-2.1187374591827393,-0.3264249861240387,-0.3100624978542328
1749987617117491500,0.523491455078125,-2.2870373725891113,-0.34251248836517334,-0.9139624834060669
1749987617127504400,0.53350439453125,-2.383975028991699,-0.3371500074863434,-1.1196625232696533
1749987617137517300,0.543517333984375,-2.3648624420166016,-0.27114999294281006,-1.2495999336242676
1749987617147530200,0.5535302734375,-2.2551374435424805,-0.49486249685287476,-1.264449954032898
1749987617157543200,0.563543212890625,-2.0655250549316406,-0.8388875126838684,-1.0994499921798706
1749987617167556400,0.573556396484375,-1.7756749391555786,-1.1871750354766846,-0.9065374732017517
1749987617177569300,0.5835693359375,-1.3315500020980835,-1.6314375400543213,-0.7425000071525574
1749987617187582200,0.593582275390625,-0.7892500162124634,-2.1405999660491943,-0.5167250037193298
1749987617197595400,0.603595458984375,-0.3269749879837036,-2.412299871444702,-0.30469998717308044
1749987617207608300,0.6136083984375,-0.10862500220537186,-2.3878250122070312,-0.14272500574588776
1749987617217621200,0.623621337890625,-0.0989999994635582,-2.172637462615967,-0.08635000139474869
1749987617227634200,0.63363427734375,-0.22783750295639038,-1.7337374687194824,-0.1779250055551529
1749987617237647400,0.6436474609375,-0.3536500036716461,-1.5643374919891357,-0.4889499843120575
1749987617247660000,0.653659912109375,-0.318450003862381,-1.5313374996185303,-0.9437999725341797
1749987617257673200,0.663673095703125,-0.20762500166893005,-1.7773250341415405,-1.2601875066757202
1749987617267686100,0.67368603515625,-0.19483749568462372,-2.3014750480651855,-1.391224980354309
1749987617277699000,0.683698974609375,-0.29067498445510864,-2.8447375297546387,-1.2527624368667603
1749987617287712300,0.693712158203125,-0.5026999711990356,-3.3188374042510986,-0.8362749814987183
1749987617297725200,0.70372509765625,-0.782925009727478,-3.696962594985962,-0.28558748960494995
1749987617307738000,0.713738037109375,-1.290024995803833,-3.8557748794555664,0.20239999890327454
1749987617317751000,0.7237509765625,-1.973812460899353,-4.024075031280518,0.40796250104904175
1749987617327764200,0.73376416015625,-1.6021499633789062,-3.5638625621795654,0.2194499969482422
1749987617337777400,0.74377734375,-0.6891499757766724,-2.6147000789642334,-0.24186250567436218
1749987617347790300,0.753790283203125,-0.19277499616146088,-2.024549961090088,-0.9321125149726868
1749987617357803300,0.76380322265625,0.271699994802475,-1.4907749891281128,-1.2527624368667603
1749987617367816200,0.773816162109375,0.5647125244140625,-1.3309999704360962,-1.114300012588501
1749987617377829000,0.7838291015625,0.7319124937057495,-1.3437875509262085,-0.9448999762535095
1749987617387842000,0.793842041015625,1.2666499614715576,-1.1819499731063843,-1.066312551498413
1749987617397855000,0.80385498046875,2.4534125328063965,-1.2991000413894653,-1.187862515449524
1749987617407868200,0.8138681640625,3.8159000873565674,-1.633637547492981,-1.3624874353408813
1749987617417881000,0.823881103515625,4.703187465667725,-2.266274929046631,-1.4573625326156616
1749987617427894000,0.83389404296875,4.950412273406982,-2.770212411880493,-1.4158375263214111
1749987617437907200,0.8439072265625,5.135762691497803,-3.826900005340576,-1.3305875062942505
1749987617447920000,0.853920166015625,5.437162399291992,-4.9784626960754395,-1.1131999492645264
1749987617457933000,0.86393310546875,5.192137241363525,-5.812537670135498,-0.6946499943733215
1749987617467946000,0.873946044921875,4.7266998291015625,-6.514612674713135,-0.1929125040769577
1749987617477959000,0.883958984375,4.609412670135498,-7.147387504577637,0.35048750042915344
1749987617487972000,0.89397216796875,4.781012535095215,-7.673600196838379,0.5645750164985657
1749987617497985000,0.903985107421875,5.089837551116943,-7.933475017547607,0.3195500075817108
1749987617507998000,0.913998046875,5.292237281799316,-7.782225131988525,-0.006462499964982271
1749987617518011100,0.92401123046875,5.249750137329102,-7.170762538909912,-0.23539999127388
1749987617528024000,0.934024169921875,5.032362461090088,-6.277012348175049,-0.37716248631477356
1749987617538037000,0.944037109375,4.871487617492676,-5.496150016784668,-0.42611250281333923
1749987617548050000,0.9540498046875,4.7266998291015625,-4.7399001121521,-0.36973750591278076
1749987617558063000,0.96406298828125,4.604187488555908,-4.084712505340576,-0.23539999127388
1749987617568076000,0.974075927734375,4.5689873695373535,-3.1898624897003174,0.07246249914169312
1749987617578089000,0.9840888671875,4.460362434387207,-2.4740374088287354,0.41222500801086426
1749987617588102000,0.994101806640625,4.513575077056885,-1.5569125413894653,0.9629124999046326
1749987617598114800,1.00411474609375,4.626462459564209,-0.23704999685287476,1.4785374402999878
1749987617608128000,1.0141279296875,4.563624858856201,0.8879749774932861,1.613837480545044
1749987617618141000,1.024140869140625,4.433687686920166,1.7028000354766846,1.4338500499725342
1749987617628153900,1.03415380859375,4.20571231842041,2.2301125526428223,1.1600874662399292
1749987617638167000,1.0441669921875,3.8946874141693115,2.4879250526428223,0.8894875049591064
1749987617648180000,1.054179931640625,3.490987539291382,2.45066237449646,0.737137496471405
1749987617658193200,1.064193115234375,2.995574951171875,2.367612600326538,0.645562469959259
1749987617668206000,1.0742060546875,2.510887384414673,2.323887586593628,0.5069624781608582
1749987617678218800,1.08421875,2.087937593460083,2.327049970626831,0.22687499225139618
1749987617688232000,1.09423193359375,1.8013875484466553,2.2460625171661377,-0.1438249945640564
1749987617698244900,1.104244873046875,1.6629250049591064,2.092750072479248,-0.36547499895095825
1749987617708258000,1.114258056640625,1.612874984741211,2.137437582015991,-0.28558748960494995
1749987617718271200,1.124271240234375,1.565987467765808,2.3122000694274902,0.15331250429153442
1749987617728284200,1.1342841796875,1.4616249799728394,2.6030125617980957,0.7988749742507935
1749987617738296800,1.144296875,1.3039125204086304,2.8608250617980957,1.4935250282287598
1749987617748310000,1.15431005859375,1.1452374458312988,2.8171000480651855,2.1602625846862793
1749987617758323000,1.164322998046875,0.9278500080108643,2.506074905395508,2.723875045776367
1749987617768336000,1.1743359375,0.515625,1.975600004196167,3.1392624378204346
1749987617778348800,1.184348876953125,-0.0031624999828636646,1.1830500364303589,3.3842875957489014
1749987617788362000,1.194362060546875,-0.6092625260353088,1.1148500442504883,2.996537446975708
1749987617798375000,1.204375,-1.2047749757766724,2.2088000774383545,1.6362500190734863
1749987617808387800,1.214387939453125,-1.6702125072479248,3.208012580871582,0.37070000171661377
1749987617818401000,1.224401123046875,-1.8918625116348267,3.716212511062622,-0.4815250039100647
1749987617828414000,1.2344140625,-2.047374963760376,3.6704249382019043,-0.8086374998092651
1749987617838427100,1.24442724609375,-2.1463749408721924,3.5883374214172363,-0.8766999840736389
1749987617848440000,1.254440185546875,-2.0664875507354736,3.5127124786376953,-0.9161624908447266
1749987617858453000,1.264452880859375,-1.8342499732971191,3.334787368774414,-0.9758374691009521
1749987617868466000,1.2744658203125,-1.547700047492981,3.0536000728607178,-1.0631500482559204
1749987617878479000,1.28447900390625,-1.21646249294281,2.6147000789642334,-1.105774998664856
1749987617888492000,1.294491943359375,-0.7882875204086304,2.0373375415802,-1.0716749429702759
1749987617898505000,1.3045048828125,-0.267300009727478,1.3897124528884888,-0.9044749736785889
1749987617908518000,1.314517822265625,0.1247124969959259,0.6972625255584717,-0.589187502861023
1749987617918531000,1.324531005859375,0.24186250567436218,0.11659999936819077,-0.12993749976158142
1749987617928544000,1.3345439453125,0.1428624987602234,-0.2083124965429306,0.4100250005722046
1749987617938557000,1.344556884765625,0.007562499959021807,-0.5202999711036682,0.8744999766349792
1749987617948570000,1.354570068359375,-0.07878749817609787,-1.1308000087738037,1.1376750469207764
1749987617958583000,1.3645830078125,-0.17998750507831573,-1.883887529373169,1.2868624925613403
1749987617968596000,1.374595947265625,-0.25561249256134033,-2.49961256980896,1.374174952507019
1749987617978609200,1.384609130859375,-0.33660000562667847,-3.0078125,1.448699951171875
1749987617988622000,1.3946220703125,-0.36643749475479126,-3.497725009918213,1.523224949836731
1749987617998635000,1.404635009765625,-0.3716624975204468,-3.799262523651123,1.5445375442504883
1749987618008648200,1.414648193359375,-0.44728749990463257,-3.803524971008301,1.5691499710083008
1749987618018660900,1.424660888671875,-0.4846875071525574,-3.726799964904785,1.723562479019165
1749987618028674000,1.434674072265625,-0.4973374903202057,-3.4700875282287598,1.8310874700546265
1749987618038687200,1.444687255859375,-0.74566251039505,-2.97151255607605,1.9217000007629395
1749987618048700200,1.4547001953125,-1.1312124729156494,-2.687162399291992,1.9535999298095703
1749987618058713000,1.464713134765625,-1.7543624639511108,-2.451624870300293,1.863124966621399
1749987618068726000,1.47472607421875,-2.4968624114990234,-2.2577500343322754,1.7747124433517456
1749987618078739200,1.4847392578125,-3.011387586593628,-1.8870500326156616,1.2388750314712524
1749987618088752400,1.49475244140625,-3.1839499473571777,-1.4748250246047974,0.4846875071525574
1749987618098765300,1.504765380859375,-2.753575086593628,-1.1754875183105469,-0.3526875078678131
1749987618108778200,1.5147783203125,-1.8705500364303589,-0.8835750222206116,-1.0355124473571777
1749987618118791200,1.524791259765625,-0.98642498254776,-0.7206375002861023,-1.4786750078201294
1749987618128804400,1.534804443359375,-0.5229125022888184,-0.878350019454956,-1.4957250356674194
1749987618138817300,1.5448173828125,-0.3536500036716461,-1.1882749795913696,-1.1558250188827515
1749987618148830200,1.554830322265625,-0.3844499886035919,-1.4716625213623047,-0.6776000261306763
1749987618158843100,1.564843017578125,-0.49953749775886536,-1.700737476348877,-0.20886249840259552
1749987618168856300,1.574856201171875,-0.6028000116348267,-1.9808249473571777,0.1714625060558319
1749987618178869200,1.584869140625,-0.7721999883651733,-2.3429999351501465,0.49857500195503235
1749987618188882400,1.59488232421875,-1.0449999570846558,-2.7755749225616455,0.6881874799728394
1749987618198895400,1.604895263671875,-1.448699951171875,-3.0791749954223633,0.6476249694824219
1749987618208908500,1.614908447265625,-1.8961249589920044,-3.071612596511841,0.4622749984264374
1749987618218921500,1.62492138671875,-2.3179750442504883,-2.874574899673462,0.2971374988555908
1749987618228934400,1.634934326171875,-2.5789499282836914,-2.594487428665161,0.11921250075101852
1749987618238947600,1.644947509765625,-2.6608998775482178,-2.2280499935150146,-0.08744999766349792
1749987618248960500,1.65496044921875,-2.653475046157837,-1.8508875370025635,-0.4996750056743622
1749987618258973400,1.664973388671875,-2.618412494659424,-1.6666375398635864,-1.232550024986267
1749987618268986600,1.674986572265625,-2.6960999965667725,-1.645324945449829,-1.9313249588012695
1749987618278999300,1.684999267578125,-2.477750062942505,-1.3352625370025635,-2.410787582397461
1749987618289012500,1.695012451171875,-2.202887535095215,-1.1233749389648438,-2.469362497329712
1749987618299025400,1.705025390625,-2.071850061416626,-0.73232501745224,-2.589674949645996
1749987618309038600,1.71503857421875,-2.308350086212158,-0.3562625050544739,-2.889012575149536
1749987618319051500,1.725051513671875,-2.5448498725891113,-0.7249000072479248,-2.9805874824523926
1749987618329064400,1.735064453125,-2.4990625381469727,-0.678012490272522,-2.9082624912261963
1749987618339077400,1.745077392578125,-2.230525016784668,-0.20295000076293945,-2.762237548828125
1749987618349090600,1.755090576171875,-1.9535999298095703,-0.18796250224113464,-2.390437602996826
1749987618359103500,1.765103515625,-1.6841000318527222,-0.5960624814033508,-1.9515374898910522
1749987618369116400,1.775116455078125,-1.4305499792099,-0.7440124750137329,-1.5276249647140503
1749987618379129300,1.78512939453125,-1.1866250038146973,-0.3936625123023987,-0.9693750143051147
1749987618389142300,1.795142333984375,-0.9139624834060669,-0.0952875018119812,-0.2055625021457672
1749987618399155500,1.805155517578125,-0.6507874727249146,0.19978749752044678,0.4175874888896942
1749987618409168400,1.81516845703125,-0.3792249858379364,0.30621248483657837,0.8148249983787537
1749987618419181300,1.825181396484375,-0.08621250092983246,0.030387500301003456,0.9981124997138977
1749987618429194200,1.8351943359375,0.26317501068115234,-0.632224977016449,0.9213874936103821
1749987618439207400,1.84520751953125,0.5337749719619751,-1.4918749332427979,0.6050000190734863
1749987618449220600,1.855220703125,0.5966125130653381,-2.1704375743865967,0.33660000562667847
1749987618459233500,1.865233642578125,0.6179249882698059,-2.433612585067749,0.23649999499320984
1749987618469246500,1.87524658203125,0.7202249765396118,-2.5155625343322754,0.2737624943256378
1749987618479259600,1.885259765625,0.8672124743461609,-2.5379750728607178,0.4889499843120575
1749987618489272600,1.8952724609375,0.9448999762535095,-2.3909873962402344,0.8105624914169312
1749987618499285500,1.905285400390625,0.9066749811172485,-2.410099983215332,1.040737509727478
1749987618509298400,1.91529833984375,0.781962513923645,-2.334475040435791,1.0566874742507935
1749987618519311600,1.9253115234375,0.6626124978065491,-2.1608123779296875,0.8830249905586243
1749987618529324500,1.935324462890625,0.6583499908447266,-1.9159250259399414,0.6987749934196472
1749987618539337500,1.94533740234375,0.8320124745368958,-1.6570124626159668,0.5187875032424927
1749987618549350400,1.955350341796875,1.2336499691009521,-1.0487124919891357,0.3451249897480011
1749987618559363600,1.965363525390625,1.7066500186920166,-0.2316875010728836,0.295074999332428
1749987618569376800,1.975376708984375,2.0592000484466553,0.4064500033855438,0.37812501192092896
1749987618579389700,1.9853896484375,2.152975082397461,0.8538749814033508,0.5762624740600586
1749987618589402600,1.995402587890625,1.954837441444397,1.2309000492095947,0.7786625027656555
1749987618599415800,2.005415771484375,1.56392502784729,1.6729625463485718,0.8852249979972839
1749987618609428700,2.0154287109375,1.0163999795913696,2.154487371444702,0.8755999803543091
1749987618619441700,2.025441650390625,0.3867875039577484,2.412299871444702,0.7467625141143799
1749987618629454800,2.035454833984375,-0.29397499561309814,2.2323124408721924,0.6274124979972839
1749987618639467800,2.0454677734375,-1.023687481880188,1.6495875120162964,0.5273125171661377
1749987618649481000,2.05548095703125,-1.7011499404907227,1.026437520980835,0.318450003862381
1749987618659494000,2.065493896484375,-2.4180750846862793,0.8335250020027161,0.10642500221729279
1749987618669506800,2.0755068359375,-3.2223124504089355,1.21274995803833,-0.1597750037908554
1749987618679519700,2.085519775390625,-3.8550875186920166,1.6942750215530396,-0.36973750591278076
1749987618689533000,2.095532958984375,-3.9136624336242676,1.7784249782562256,-0.5955125093460083
1749987618699545900,2.1055458984375,-3.587787389755249,1.6143875122070312,-0.8331124782562256
1749987618709558800,2.115558837890625,-3.210624933242798,1.485550045967102,-0.7308124899864197
1749987618719571700,2.12557177734375,-2.7398250102996826,1.0742875337600708,-0.39201250672340393
1749987618729585000,2.1355849609375,-2.2721874713897705,0.566224992275238,0.13199999928474426
1749987618739597800,2.145597900390625,-2.0356874465942383,0.322299987077713,0.7243499755859375
1749987618749611000,2.155611083984375,-2.088900089263916,0.1293874979019165,1.1791999340057373
1749987618759624000,2.1656240234375,-2.223099946975708,-0.45649999380111694,1.315600037574768
1749987618769636900,2.175636962890625,-2.2316250801086426,-1.3661999702453613,1.0993125438690186
1749987618779649800,2.18564990234375,-2.1773123741149902,-2.1885874271392822,0.598675012588501
1749987618789663000,2.1956630859375,-2.0314249992370605,-2.1991748809814453,0.13529999554157257
1749987618799676000,2.205676025390625,-1.7298874855041504,-1.6026999950408936,-0.2535499930381775
1749987618809688800,2.215688720703125,-1.3495625257492065,-0.8804125189781189,-0.608299970626831
1749987618819702000,2.225701904296875,-1.0459624528884888,-0.4670875072479248,-0.8001124858856201
1749987618829715000,2.23571484375,-0.904337465763092,-0.49059998989105225,-0.7489625215530396
1749987618839727900,2.245727783203125,-0.8340749740600586,-0.6140750050544739,-0.6477624773979187
1749987618849741000,2.255740966796875,-0.691349983215332,-0.7260000109672546,-0.5432624816894531
1749987618859754000,2.26575390625,-0.3227125108242035,-0.927299976348877,-0.40273749828338623
1749987618869767000,2.275766845703125,0.2046000063419342,-1.376787543296814,-0.3185875117778778
1749987618879780000,2.285780029296875,0.8001124858856201,-2.00103759765625,-0.4016374945640564
1749987618889793000,2.29579296875,1.4403125047683716,-2.794687509536743,-0.4889499843120575
1749987618899806000,2.305805908203125,2.1135125160217285,-3.366687536239624,-0.515625
1749987618909819000,2.31581884765625,2.7260749340057373,-3.2474749088287354,-0.22481249272823334
1749987618919832000,2.32583203125,3.1905500888824463,-2.6786375045776367,0.5368000268936157
1749987618929845000,2.335844970703125,3.455787420272827,-2.306837558746338,1.4722124338150024
1749987618939858200,2.345858154296875,3.5516250133514404,-1.9733999967575073,2.365962505340576
1749987618949871000,2.35587109375,3.469675064086914,-1.4471875429153442,2.9507498741149902
1749987618959884000,2.365884033203125,3.336437463760376,-0.7814124822616577,3.1073625087738037
1749987618969897200,2.375897216796875,3.0276124477386475,-0.23704999685287476,2.986912488937378
1749987618979910400,2.385910400390625,2.5566749572753906,0.2125750035047531,2.6642000675201416
1749987618989923300,2.39592333984375,1.9207375049591064,0.6716874837875366,2.2349250316619873
1749987618999936300,2.405936279296875,1.123924970626831,0.8090500235557556,1.632949948310852
1749987619009949400,2.415949462890625,0.3964124917984009,0.7706875205039978,0.6209499835968018
1749987619019962400,2.42596240234375,-0.2652375102043152,1.2522125244140625,-0.29411250352859497
1749987619029975300,2.435975341796875,-0.5645750164985657,1.478124976158142,-0.781962513923645
1749987619039988200,2.44598828125,-0.645425021648407,1.3715624809265137,-0.8596500158309937
1749987619050001400,2.45600146484375,-0.6795250177383423,1.1318999528884888,-0.6402000188827515
1749987619060014300,2.466014404296875,-0.9384375214576721,0.8922374844551086,-0.2387000024318695
1749987619070027500,2.476027587890625,-1.548799991607666,0.7814124822616577,0.057475000619888306
1749987619080040400,2.48604052734375,-2.2827749252319336,0.6642624735832214,0.1555124968290329
1749987619090053400,2.496053466796875,-2.872925043106079,0.5363875031471252,0.10216250270605087
1749987619100066300,2.50606640625,-3.3257124423980713,0.8761500120162964,-0.09913749992847443
1749987619110079500,2.51607958984375,-3.4823250770568848,1.5547125339508057,-0.5411999821662903
1749987619120092400,2.526092529296875,-3.5355374813079834,1.7241125106811523,-1.0909249782562256
1749987619130105600,2.536105712890625,-3.609099864959717,1.1328624486923218,-1.4306875467300415
1749987619140118500,2.546118408203125,-3.585587501525879,0.17201249301433563,-1.5936249494552612
1749987619150131700,2.556131591796875,-3.639899969100952,-0.3755125105381012,-1.530787467956543
1749987619160144600,2.56614453125,-3.656949996948242,-0.24557499587535858,-1.280537486076355
1749987619170157600,2.576157470703125,-3.6591498851776123,0.13791249692440033,-0.9502624869346619
1749987619180170800,2.586170654296875,-3.6452624797821045,0.23278750479221344,-0.5145249962806702
1749987619190183700,2.59618359375,-3.502537488937378,-0.15386250615119934,-0.007424999959766865
1749987619200196900,2.60619677734375,-3.115887403488159,-0.6833750009536743,0.4867500066757202
1749987619210209800,2.616209716796875,-2.5278000831604004,-0.9795500040054321,0.791450023651123
1749987619220222700,2.62622265625,-1.6383124589920044,-1.1424875259399414,0.9832624793052673
1749987619230235600,2.636235595703125,-0.4930749833583832,-1.5408250093460083,1.1259875297546387
1749987619240248800,2.646248779296875,0.7180249691009521,-2.100174903869629,1.3261874914169312
1749987619250262000,2.656261962890625,1.7439124584197998,-2.629549980163574,1.695924997329712
1749987619260275000,2.66627490234375,2.575924873352051,-3.169650077819824,2.2071499824523926
1749987619270288100,2.6762880859375,3.1959125995635986,-3.6298625469207764,2.7440874576568604
1749987619280301000,2.686301025390625,3.5760998725891113,-3.9612374305725098,3.269200086593628
1749987619290314200,2.696314208984375,3.7573249340057373,-3.8077874183654785,3.8828625679016113
1749987619300327200,2.7063271484375,3.7476999759674072,-1.4887125492095947,3.47160005569458
1749987619310340000,2.716340087890625,3.841475009918213,2.688262462615967,1.706512451171875
1749987619320353000,2.72635302734375,3.968250036239624,3.0291249752044678,1.3464000225067139
1749987619330366200,2.7363662109375,3.6603875160217285,2.20989990234375,1.3187625408172607
1749987619340379100,2.746379150390625,3.238537549972534,1.5025999546051025,1.1664124727249146
1749987619350392000,2.75639208984375,2.6313374042510986,0.7100499868392944,1.1547249555587769
1749987619360405200,2.7664052734375,2.0571374893188477,0.09748750180006027,1.2357125282287598
1749987619370418200,2.776418212890625,1.6906999349594116,-0.13048750162124634,1.2229249477386475
1749987619380431000,2.78643115234375,1.5980249643325806,0.002612499985843897,1.015162467956543
1749987619390444300,2.7964443359375,1.4669874906539917,0.4511374831199646,0.691349983215332
1749987619400457200,2.806457275390625,1.2080750465393066,1.0327625274658203,0.42391249537467957
1749987619410470100,2.81647021484375,0.9363750219345093,1.4099249839782715,0.25671249628067017
1749987619420483300,2.8264833984375,0.7137625217437744,1.7954750061035156,0.0170499999076128
1749987619430496300,2.836496337890625,0.47093749046325684,2.2866249084472656,-0.4879874885082245
1749987619440509200,2.84650927734375,0.13433749973773956,2.6551249027252197,-1.1782374382019043
1749987619450522400,2.8565224609375,-0.3110249936580658,2.4975500106811523,-1.7363499402999878
1749987619460535300,2.866535400390625,-0.8883875012397766,1.8988749980926514,-1.9846749305725098
1749987619470548200,2.87654833984375,-1.6095750331878662,1.1819499731063843,-2.02620005607605
1749987619480561400,2.8865615234375,-2.5213375091552734,0.4127750098705292,-2.021937370300293
1749987619490574300,2.89657421875,-3.254349946975708,-0.5736500024795532,-2.1422500610351562
1749987619500587500,2.90658740234375,-3.21598744392395,-1.4557124376296997,-2.2914373874664307
1749987619510600400,2.916600341796875,-2.385075092315674,-2.131112575531006,-2.2786500453948975
1749987619520613400,2.92661328125,-1.1940499544143677,-2.3153624534606934,-2.0037875175476074
1749987619530626600,2.93662646484375,-0.21078750491142273,-2.1565499305725098,-1.5457749366760254
1749987619540639500,2.946639404296875,0.16307500004768372,-1.8466249704360962,-1.0833624601364136
1749987619550652700,2.956652587890625,0.2961750030517578,-1.3554749488830566,-0.46021249890327454
1749987619560665600,2.96666552734375,0.5710374712944031,-1.4151500463485718,0.47616249322891235
1749987619570678800,2.9766787109375,0.764912486076355,-1.517449975013733,1.3464000225067139
1749987619580691700,2.986691650390625,0.8203250169754028,-1.5461875200271606,1.7672874927520752
1749987619590704600,2.99670458984375,0.764912486076355,-1.1978999376296997,1.7022500038146973
1749987619600717600,3.006717529296875,0.9311500191688538,-0.9762499928474426,1.5371124744415283
1749987619610730800,3.016730712890625,1.3572624921798706,-0.9986624717712402,1.557325005531311
1749987619620743700,3.02674365234375,1.8632625341415405,-0.7004249691963196,1.7203999757766724
1749987619630756600,3.036756591796875,2.3149499893188477,-0.18906250596046448,1.8566625118255615
1749987619640769800,3.046769775390625,2.7240123748779297,0.4778124988079071,1.72246253490448
1749987619650782700,3.05678271484375,3.0861876010894775,1.3726625442504883,1.049262523651123
1749987619660796000,3.0667958984375,3.2172250747680664,1.927612543106079,-0.20982499420642853
1749987619670808800,3.076808837890625,3.1627750396728516,2.1533875465393066,-1.188825011253357
1749987619680821800,3.08682177734375,3.473937511444092,2.609337568283081,-1.3391125202178955
1749987619690835200,3.096835205078125,3.8989498615264893,2.6008124351501465,-1.2848000526428223
1749987619700848000,3.10684814453125,4.33468770980835,0.8868749737739563,-1.1569249629974365
1749987619710861000,3.116861083984375,4.7245001792907715,-1.5185500383377075,-0.645562469959259
1749987619720874000,3.1268740234375,4.9780497550964355,-3.098287582397461,-0.018149999901652336
1749987619730887200,3.13688720703125,5.181550025939941,-3.7108500003814697,0.5368000268936157
1749987619740900000,3.146900146484375,4.8512749671936035,-2.4762375354766846,0.318450003862381
1749987619750913000,3.1569130859375,3.7775375843048096,-0.030387500301003456,-0.6870874762535095
1749987619760926200,3.16692626953125,2.9486875534057617,0.6599999666213989,-1.2399749755859375
1749987619770939100,3.176939208984375,2.7410624027252197,0.0835999995470047,-1.2218250036239624
1749987619780952000,3.1869521484375,2.688812494277954,-0.3723500072956085,-0.9897249937057495
1749987619790965200,3.19696533203125,2.874162435531616,-0.6683874726295471,-0.7074375152587891
1749987619800978200,3.206978271484375,3.145862579345703,-1.1148500442504883,-0.44206249713897705
1749987619810991000,3.2169912109375,3.2342748641967773,-1.8338375091552734,-0.26743748784065247
1749987619821004000,3.227004150390625,3.0243124961853027,-2.2875874042510986,-0.16307500004768372
1749987619831017200,3.237017333984375,2.489574909210205,-1.9287124872207642,-0.1289750039577484
1749987619841030100,3.247030029296875,1.797124981880188,-0.9986624717712402,-0.09377499669790268
1749987619851043300,3.257043212890625,1.1750749349594116,-0.37441250681877136,-0.0340999998152256
1749987619861056300,3.26705615234375,0.5838249921798706,-0.6012874841690063,-0.015949999913573265
1749987619871069400,3.2770693359375,0.0170499999076128,-1.2383249998092651,-0.06393750011920929
1749987619881082400,3.287082275390625,-0.46117499470710754,-1.7806249856948853,-0.16403749585151672
1749987619891095600,3.297095458984375,-0.7647749781608582,-2.024549961090088,-0.3078624904155731
1749987619901108500,3.3071083984375,-0.8170250058174133,-1.9606125354766846,-0.49321249127388
1749987619911121700,3.31712158203125,-0.6667374968528748,-1.792312502861023,-0.7148625254631042
1749987619921134600,3.327134521484375,-0.4174500107765198,-1.7155874967575073,-0.9385749697685242
1749987619931147500,3.3371474609375,-0.0989999994635582,-1.7294750213623047,-1.1302499771118164
1749987619941160400,3.347160400390625,0.23333749175071716,-1.71875,-1.2484999895095825
1749987619951173600,3.357173583984375,0.5113624930381775,-1.625112533569336,-1.2527624368667603
1749987619961186600,3.3671865234375,0.7020750045776367,-1.4673999547958374,-1.1174625158309937
1749987619971199700,3.37719970703125,0.8064374923706055,-1.2490500211715698,-0.8331124782562256
1749987619981213000,3.387212890625,0.8320124745368958,-0.9933000206947327,-0.4218499958515167
1749987619991225600,3.3972255859375,0.7841625213623047,-0.7908999919891357,0.038362499326467514
1749987620001238800,3.40723876953125,0.6796625256538391,-0.6652249693870544,0.46543750166893005
1749987620011252000,3.417251953125,0.5539875030517578,-0.5960624814033508,0.803137481212616
1749987620021264600,3.4272646484375,0.46131250262260437,-0.5885000228881836,1.034274935722351
1749987620031277800,3.43727783203125,0.455949991941452,-0.6290624737739563,1.1791999340057373
1749987620041290800,3.447290771484375,0.5369374752044678,-0.7174749970436096,1.2474000453948975
1749987620051304000,3.457303955078125,0.6850249767303467,-0.8112499713897705,1.2601875066757202
1749987620061317000,3.467317138671875,0.8640499711036682,-0.8974624872207642,1.2271875143051147
1749987620071330000,3.477330078125,0.9960500001907349,-1.0114500522613525,1.1397374868392944
1749987620081343000,3.487343017578125,1.039775013923645,-1.103024959564209,1.0012749433517456
1749987620091356200,3.497356201171875,1.0099375247955322,-1.0722249746322632,0.8276125192642212
1749987620101369000,3.507369140625,0.9321125149726868,-0.935824990272522,0.6518874764442444
1749987620111382000,3.517382080078125,0.8373749852180481,-0.7930999994277954,0.5197499990463257
1749987620121395200,3.527395263671875,0.7532249689102173,-0.678012490272522,0.46873748302459717
1749987620131408100,3.537408203125,0.7063375115394592,-0.6375874876976013,0.5176874995231628
1749987620141421000,3.547421142578125,0.6765000224113464,-0.6546375155448914,0.6476249694824219
1749987620151434200,3.557434326171875,0.5902875065803528,-0.6802124977111816,0.8127624988555908
1749987620161447200,3.567447265625,0.5348749756813049,-0.5438125133514404,0.9662125110626221
1749987620171460000,3.577460205078125,0.5230500102043152,-0.46076250076293945,1.0939500331878662
1749987620181473300,3.587473388671875,0.56045001745224,-0.5917999744415283,1.180299997329712
1749987620191486200,3.597486328125,0.6605499982833862,-0.8101499676704407,1.2271875143051147
1749987620201499100,3.6074990234375,0.8234875202178955,-0.935824990272522,1.2462999820709229
1749987620211512300,3.61751220703125,0.993987500667572,-0.9965999722480774,1.2687125205993652
1749987620221525200,3.627525146484375,1.1015125513076782,-1.054075002670288,1.325087547302246
1749987620231538200,3.6375380859375,1.1292874813079834,-1.1148500442504883,1.4188624620437622
1749987620241551400,3.64755126953125,1.1122374534606934,-1.1158125400543213,1.5200624465942383
1749987620251564500,3.657564453125,1.0642499923706055,-1.1615999937057495,1.6169999837875366
1749987620261577200,3.6675771484375,1.022724986076355,-1.220312476158142,1.6905624866485596
1749987620271590400,3.67759033203125,1.039775013923645,-1.2319999933242798,1.712975025177002
1749987620281603600,3.687603515625,1.1569249629974365,-1.2149499654769897,1.687399983406067
1749987620291616800,3.69761669921875,1.4062124490737915,-1.2266374826431274,1.605312466621399
1749987620301629400,3.70762939453125,1.6779124736785889,-1.211787462234497,1.4060750007629395
1749987620311642600,3.717642578125,1.8354874849319458,-1.0870749950408936,1.1461999416351318
1749987620321655800,3.72765576171875,1.8951624631881714,-0.8633624911308289,0.9256500005722046
1749987620331668700,3.737668701171875,1.9281624555587769,-0.5416125059127808,0.7871875166893005
1749987620341681700,3.747681640625,1.970787525177002,-0.10917499661445618,0.7541875243186951
1749987620351694800,3.75769482421875,1.8653249740600586,0.6003249883651733,0.8650124669075012
1749987620361707800,3.767707763671875,1.5255625247955322,1.5813875198364258,1.123787522315979
1749987620371720700,3.777720703125,1.1654499769210815,2.353724956512451,1.3923250436782837
1749987620381734000,3.78773388671875,0.9652500152587891,2.7724125385284424,1.6042125225067139
1749987620391746800,3.797746826171875,0.9928874969482422,2.9620249271392822,1.7193000316619873
1749987620401760000,3.807760009765625,1.1420749425888062,3.1303250789642334,1.7161375284194946
1749987620411773000,3.81777294921875,1.3411749601364136,3.4530375003814697,1.631987452507019
1749987620421785900,3.827785888671875,1.52982497215271,4.102862358093262,1.5285874605178833
1749987620431798800,3.837798828125,1.6992249488830566,5.104274749755859,1.3124375343322754
1749987620441812000,3.84781201171875,1.9772499799728394,5.936150074005127,0.8233500123023987
1749987620451825000,3.857824951171875,2.2882750034332275,6.278112411499023,0.06173750013113022
1749987620461838000,3.867838134765625,2.3607375621795654,6.632862567901611,-0.7541875243186951
1749987620471851000,3.87785107421875,2.1029250621795654,7.142024993896484,-1.446637511253357
1749987620481864200,3.8878642578125,1.364687442779541,7.652287483215332,-1.6554999351501465
1749987620491877000,3.897877197265625,0.11618749797344208,8.10933780670166,-0.7638124823570251
1749987620501890300,3.907890380859375,-1.1599500179290771,8.411837577819824,0.9853249788284302
1749987620511903200,3.9179033203125,-1.796987533569336,7.854687690734863,2.5991625785827637
1749987620521916400,3.92791650390625,-1.8332874774932861,6.641387462615967,3.595212459564209
1749987620531929300,3.937929443359375,-1.565850019454956,5.3875250816345215,3.9488625526428223
1749987620541942300,3.9479423828125,-1.1930874586105347,4.444825172424316,3.769974946975708
1749987620551955500,3.95795556640625,-0.9330750107765198,3.661900043487549,3.3800249099731445
1749987620561968600,3.96796875,-0.757349967956543,2.4463999271392822,3.096637487411499
1749987620571981600,3.977981689453125,-0.42281249165534973,0.2765125036239624,3.0018999576568604
1749987620581994500,3.987994384765625,0.07246249914169312,-1.9307750463485718,2.570425033569336
1749987620592007400,3.99800732421875,0.3558500111103058,-3.8620998859405518,1.7917624711990356
1749987620602020600,4.0080205078125,0.46873748302459717,-5.8136372566223145,1.0588874816894531
1749987620612033500,4.018033447265625,0.4442625045776367,-7.6341376304626465,0.5890499949455261
1749987620622046700,4.028046630859375,0.32284998893737793,-8.982874870300293,0.46117499470710754
1749987620632059600,4.0380595703125,0.1769624948501587,-8.686699867248535,0.43133750557899475
1749987620642072800,4.04807275390625,0.2578125,-4.990149974822998,-0.40700000524520874
1749987620652085800,4.058085693359375,0.6093999743461609,-2.1012749671936035,-1.2260874509811401
1749987620662099000,4.068098876953125,0.9204249978065491,-1.0082875490188599,-1.6777750253677368
1749987620672111900,4.07811181640625,1.032349944114685,-0.5779125094413757,-1.9218374490737915
1749987620682125000,4.088125,0.957687497138977,-0.41167500615119934,-2.02620005607605
1749987620692138000,4.098137939453125,0.847000002861023,-0.3190000057220459,-2.049575090408325
1749987620702151200,4.108151123046875,0.7799000144004822,-0.24131250381469727,-2.0091500282287598
1749987620712164000,4.1181640625,0.7297124862670898,-0.15496249496936798,-1.915374994277954
1749987620722177000,4.128177001953125,0.6861249804496765,-0.0611874982714653,-1.7726500034332275
1749987620732190200,4.138190185546875,0.6232874989509583,0.05706249922513962,-1.5915625095367432
1749987620742203100,4.148203125,0.5508249998092651,0.17957499623298645,-1.3965874910354614
1749987620752216300,4.15821630859375,0.5178250074386597,0.2700499892234802,-1.2134374380111694
1749987620762229200,4.168229248046875,0.5358374714851379,0.359562486410141,-1.0344125032424927
1749987620772242400,4.178242431640625,0.5849249958992004,0.43834999203681946,-0.8544250130653381
1749987620782255400,4.18825537109375,0.6232874989509583,0.47561249136924744,-0.6743000149726868
1749987620792268300,4.198268310546875,0.6275500059127808,0.44577500224113464,-0.49004998803138733
1749987620802281500,4.208281494140625,0.608299970626831,0.36272498965263367,-0.29411250352859497
1749987620812294400,4.21829443359375,0.5732374787330627,0.2572624981403351,-0.08841250091791153
1749987620822307600,4.2283076171875,0.5582500100135803,0.13901250064373016,0.11495000123977661
1749987620832320500,4.238320556640625,0.5827249884605408,-0.0037124999798834324,0.30882498621940613
1749987620842333700,4.248333740234375,0.5934500098228455,-0.1443749964237213,0.5006374716758728
1749987620852347000,4.258346923828125,0.56045001745224,-0.22426250576972961,0.6987749934196472
1749987620862359800,4.26835986328125,0.5454624891281128,-0.10064999759197235,1.0205249786376953
1749987620872372700,4.278372802734375,0.5476624965667725,0.21353749930858612,1.398650050163269
1749987620882386000,4.288385986328125,0.4857875108718872,0.4820750057697296,1.6084749698638916
1749987620892399000,4.298399169921875,0.3515875041484833,0.566224992275238,1.623462438583374
1749987620902412000,4.308412109375,0.20679999887943268,0.4937624931335449,1.523224949836731
1749987620912425000,4.318425048828125,0.09171249717473984,0.35420000553131104,1.3773374557495117
1749987620922438000,4.32843798828125,0.025575000792741776,0.2381500005722046,1.2484999895095825
1749987620932451000,4.338451171875,0.014987500384449959,0.25616249442100525,1.2132999897003174
1749987620942464000,4.348464111328125,0.055412501096725464,0.4713499844074249,1.3048750162124634
1749987620952477200,4.358477294921875,0.07672499865293503,0.7888374924659729,1.4188624620437622
1749987620962490000,4.368489990234375,0.008662499487400055,1.0242375135421753,1.4136375188827515
1749987620972503300,4.37850341796875,-0.11921250075101852,1.1413874626159668,1.2783374786376953
1749987620982516200,4.38851611328125,-0.24062499403953552,1.2405250072479248,1.0854250192642212
1749987620992529400,4.398529296875,-0.30140000581741333,1.508924961090088,0.9321125149726868
1749987621002542300,4.408542236328125,-0.27582499384880066,1.957450032234192,0.8095999956130981
1749987621012555500,4.418555419921875,-0.16926249861717224,2.3941500186920166,0.6433625221252441
1749987621022568400,4.428568359375,-0.055275000631809235,2.7147998809814453,0.4452250003814697
1749987621032581600,4.43858154296875,-0.007424999959766865,2.907712459564209,0.25671249628067017
1749987621042594800,4.4485947265625,-0.02447500079870224,2.976875066757202,0.10642500221729279
1749987621052607700,4.458607666015625,-0.0882750004529953,2.891624927520752,-0.014987500384449959
1749987621062620700,4.46862060546875,-0.17682500183582306,2.5998499393463135,-0.14272500574588776
1749987621072633900,4.4786337890625,-0.25341248512268066,2.177999973297119,-0.2461249977350235
1749987621082647000,4.48864697265625,-0.32477501034736633,1.6719999313354492,-0.2685374915599823
1749987621092660000,4.498659912109375,-0.47616249322891235,1.0668624639511108,-0.2609750032424927
1749987621102673000,4.5086728515625,-0.7562500238418579,0.41593748331069946,-0.27912500500679016
1749987621112686000,4.51868603515625,-1.1376750469207764,-0.07081250101327896,-0.2780250012874603
1749987621122699300,4.52869921875,-1.6383124589920044,-0.06228749826550484,-0.28228750824928284
1749987621132712200,4.538712158203125,-2.2753500938415527,0.5545374751091003,-0.3398999869823456
1749987621142725000,4.54872509765625,-2.8953375816345215,1.2979999780654907,-0.5091624855995178
1749987621152738300,4.55873828125,-3.2489874362945557,1.7859874963760376,-0.7574874758720398
1749987621162751500,4.56875146484375,-3.2947750091552734,2.007499933242798,-0.9289500117301941
1749987621172764400,4.578764404296875,-3.2458250522613525,2.038437604904175,-0.9332125186920166
1749987621182777600,4.588777587890625,-3.164837598800659,2.018087387084961,-0.8127624988555908
1749987621192790500,4.59879052734375,-3.0167500972747803,1.9904500246047974,-0.6956124901771545
1749987621202803700,4.6088037109375,-2.7642998695373535,2.02028751373291,-0.6850249767303467
1749987621212816600,4.618816650390625,-2.411750078201294,2.189687490463257,-0.7745375037193298
1749987621222829800,4.628829833984375,-1.9749125242233276,2.426187515258789,-0.8799999952316284
1749987621232842800,4.6388427734375,-1.5009499788284302,2.606174945831299,-0.9055749773979187
1749987621242856000,4.64885595703125,-1.0374374389648438,2.5955874919891357,-0.7734375
1749987621252868900,4.658868896484375,-0.6539499759674072,2.361150026321411,-0.47616249322891235
1749987621272895000,4.67889501953125,0.014987500384449959,1.2362624406814575,0.13956250250339508
1749987621282908200,4.688908203125,0.2952125072479248,0.5086125135421753,0.3195500075817108
1749987621292921000,4.698921142578125,0.44110000133514404,-0.08896250277757645,0.3909125030040741
1749987621302934300,4.708934326171875,0.4538874924182892,-0.35420000553131104,0.38981249928474426
1749987621312947200,4.718947265625,0.38458749651908875,-0.27541249990463257,0.3642374873161316
1749987621322960400,4.72896044921875,0.2578125,0.11027500033378601,0.24076250195503235
1749987621332973600,4.7389736328125,0.11935000121593475,0.3957250118255615,-0.0042624999769032
1749987621342986500,4.748986572265625,0.028875000774860382,0.2956250011920929,-0.25148749351501465
1749987621352999200,4.758999267578125,-0.009487500414252281,-0.17943750321865082,-0.4292750060558319
1749987621363012400,4.769012451171875,-0.02447500079870224,-0.861299991607666,-0.5422999858856201
1749987621373025800,4.77902587890625,0.004399999976158142,-1.4812874794006348,-0.6157249808311462
1749987621383038700,4.789038818359375,0.06297499686479568,-1.8529499769210815,-0.6657750010490417
1749987621393051600,4.7990517578125,0.12581250071525574,-2.034174919128418,-0.6967124938964844
1749987621403064800,4.80906494140625,0.19071249663829803,-2.114062547683716,-0.720087468624115
1749987621413077800,4.819077880859375,0.2578125,-2.154487371444702,-0.7499250173568726
1749987621423091000,4.829091064453125,0.32491248846054077,-2.178962469100952,-0.781962513923645
1749987621433104000,4.839103759765625,0.4049375057220459,-2.171537399291992,-0.802174985408783
1749987621443117000,4.849116943359375,0.49761250615119934,-2.1396374702453613,-0.8032749891281128
1749987621453130000,4.8591298828125,0.6125624775886536,-2.0724000930786133,-0.7904874682426453
1749987621463143200,4.86914306640625,0.736175000667572,-1.9765625,-0.7691749930381775
1749987621473156000,4.879156005859375,0.856487512588501,-1.8636749982833862,-0.7489625215530396
1749987621493182500,4.899182373046875,1.0631500482559204,-1.6772249937057495,-0.6978124976158142
1749987621503195600,4.909195556640625,1.1430374383926392,-1.645324945449829,-0.6583499908447266
1749987621513208600,4.91920849609375,1.206012487411499,-1.634600043296814,-0.6146249771118164
1749987621523221800,4.9292216796875,1.2506999969482422,-1.6516499519348145,-0.5486249923706055
1749987621533234700,4.939234619140625,1.2517999410629272,-1.7124249935150146,-0.4090625047683716
1749987621543248000,4.949247802734375,1.1995500326156616,-1.8253124952316284,-0.15234999358654022
1749987621553260800,4.9592607421875,1.1367125511169434,-1.9563499689102173,0.20336249470710754
1749987621563273700,4.969273681640625,1.131350040435791,-2.049025058746338,0.6166874766349792
1749987621573287000,4.979286865234375,1.2006499767303467,-2.031975030899048,1.098212480545044
1749987621583300000,4.989300048828125,1.3252249956130981,-1.7411625385284424,1.8523999452590942
1749987621593313300,4.999313232421875,1.538349986076355,-0.6674249768257141,3.0667998790740967
1749987621603326200,5.009326171875,1.7758125066757202,1.9969124794006348,3.914762496948242
1749987621613339400,5.01933935546875,1.7333250045776367,4.539700031280518,3.6889874935150146
1749987621623352600,5.0293525390625,1.4882999658584595,5.241637706756592,2.9337000846862793
1749987621633365500,5.039365478515625,1.1495000123977661,4.43093729019165,1.8790749311447144
1749987621643378700,5.049378662109375,0.8140000104904175,2.887362480163574,0.8414999842643738
1749987621653391600,5.0593916015625,0.6434999704360962,1.8040000200271606,0.45374998450279236
1749987621663404800,5.06940478515625,0.5561875104904175,1.7124249935150146,1.1771374940872192
1749987621673418000,5.07941796875,-0.05857500061392784,1.093537449836731,1.9504375457763672
1749987621683431200,5.08943115234375,-0.9853249788284302,-0.26785001158714294,1.7917624711990356
1749987621693444000,5.099444091796875,-1.71503746509552,-1.4247750043869019,0.8809624910354614
1749987621703457300,5.109457275390625,-1.9791749715805054,-1.7038999795913696,-0.2727999985218048
1749987621713470200,5.11947021484375,-1.8045499324798584,-0.8516749739646912,-1.270912528038025
1749987621723483400,5.1294833984375,-1.465749979019165,0.4235000014305115,-1.9591000080108643
1749987621733496300,5.139496337890625,-1.1791999340057373,1.2436875104904175,-2.187074899673462
1749987621743509500,5.149509521484375,-1.0459624528884888,1.5068625211715698,-1.7672874927520752
1749987621753522400,5.1595224609375,-0.9319750070571899,1.1904749870300293,-1.1345125436782837
1749987621763535600,5.16953564453125,-0.6402000188827515,0.6813125014305115,-0.866112470626831
1749987621773548800,5.179548828125,-0.2630375027656555,0.18053749203681946,-0.8948500156402588
1749987621783562000,5.18956201171875,0.033137500286102295,-0.29452499747276306,-1.0355124473571777
1749987621793575000,5.199574951171875,0.2153249979019165,-0.7877374887466431,-1.2080750465393066
1749987621803588000,5.209588134765625,0.29411250352859497,-1.3139499425888062,-1.381737470626831
1749987621813601000,5.21960107421875,0.3302749991416931,-1.8519874811172485,-1.4935250282287598
1749987621823614200,5.2296142578125,0.3111625015735626,-2.327049970626831,-1.4786750078201294
1749987621833627100,5.239627197265625,0.2909500002861023,-2.675337553024292,-1.3230249881744385
1749987621843640300,5.249640380859375,0.30896249413490295,-2.881037473678589,-1.01419997215271
1749987621853653200,5.2596533203125,0.31542500853538513,-2.870312452316284,-0.6114624738693237
1749987621863666400,5.26966650390625,0.2546499967575073,-2.626387596130371,-0.2120250016450882
1749987621873679400,5.279679443359375,0.16843749582767487,-2.244962453842163,0.1256749927997589
1749987621883692500,5.289692626953125,0.11082500219345093,-1.8221499919891357,0.3653374910354614
1749987621893705700,5.299705810546875,0.09913749992847443,-1.4216125011444092,0.5028374791145325
1749987621903718700,5.30971875,0.14176249504089355,-1.0412875413894653,0.5699374675750732
1749987621913731800,5.31973193359375,0.234437495470047,-0.6652249693870544,0.608162522315979
1749987621923745000,5.3297451171875,0.3441624939441681,-0.30841249227523804,0.6188874840736389
1749987621933758000,5.339758056640625,0.4464625120162964,0.02722499892115593,0.6114624738693237
1749987621943771100,5.349771240234375,0.5230500102043152,0.3499374985694885,0.5997750163078308
1749987621953784000,5.3597841796875,0.5667750239372253,0.657800018787384,0.5858874917030334
1749987621963797200,5.36979736328125,0.589187502861023,0.9593374729156494,0.5805249810218811
1749987621973810200,5.37981005859375,0.5934500098228455,1.2501499652862549,0.5890499949455261
1749987621983823400,5.3898232421875,0.5923500061035156,1.5228124856948853,0.6050000190734863
1749987621993836300,5.399836181640625,0.5827249884605408,1.7698999643325806,0.6370375156402588
1749987622003849500,5.409849365234375,0.5571500062942505,1.9702374935150146,0.6848874688148499
1749987622013862700,5.419862548828125,0.49761250615119934,2.078862428665161,0.7158250212669373
1749987622023875800,5.429875732421875,0.4197874963283539,2.083124876022339,0.7093625068664551
1749987622033889000,5.439888916015625,0.3590124845504761,1.9872875213623047,0.6615124940872192
1749987622043902000,5.44990185546875,0.3484250009059906,1.8317749500274658,0.5890499949455261
1749987622053915100,5.4599150390625,0.3867875039577484,1.6431249380111694,0.5282750129699707
1749987622063928000,5.469927978515625,0.46131250262260437,1.4279375076293945,0.5123249888420105
1749987622073941000,5.47994091796875,0.561412513256073,1.1660000085830688,0.5506874918937683
1749987622083954200,5.4899541015625,0.6648125052452087,0.7994250059127808,0.5997750163078308
1749987622093967400,5.49996728515625,0.7382375001907349,0.3104749917984009,0.6199874877929688
1749987622103980300,5.509980224609375,0.781962513923645,-0.21889999508857727,0.6626124978065491
1749987622113993500,5.519993408203125,0.8214250206947327,-0.6535375118255615,0.7669749855995178
1749987622124006400,5.53000634765625,0.8351749777793884,-0.915612518787384,0.8809624910354614
1749987622134019600,5.54001953125,0.809737503528595,-0.9187750220298767,0.9747374653816223
1749987622144032800,5.55003271484375,0.7478625178337097,-0.6194375157356262,1.033312439918518
1749987622154046000,5.5600458984375,0.6179249882698059,-0.3137750029563904,0.957687497138977
1749987622164059000,5.570058837890625,0.38142499327659607,-0.2881999909877777,0.7445625066757202
1749987622174072000,5.580072021484375,0.09171249717473984,-0.46818751096725464,0.4452250003814697
1749987622184085200,5.590085205078125,-0.1629374921321869,-0.7046874761581421,0.09157499670982361
1749987622194098200,5.60009814453125,-0.35791251063346863,-0.9369249939918518,-0.32065001130104065
1749987622204111400,5.610111328125,-0.5442249774932861,-1.1723250150680542,-0.7873250246047974
1749987622214124500,5.62012451171875,-0.7882875204086304,-1.3821499347686768,-1.25496244430542
1749987622224137500,5.630137451171875,-1.117324948310852,-1.417349934577942,-1.687399983406067
1749987622234150700,5.640150634765625,-1.565850019454956,-0.9198749661445618,-1.9344874620437622
1749987622244163800,5.650163818359375,-2.202887535095215,0.6472125053405762,-1.557462453842163
1749987622254176800,5.6601767578125,-2.6449499130249023,2.16617488861084,-0.9139624834060669
1749987622264190000,5.67018994140625,-2.518174886703491,2.677537441253662,-0.5869874954223633
1749987622274203000,5.680202880859375,-2.126162528991699,2.688262462615967,-0.3345375061035156
1749987622284216000,5.690216064453125,-1.971750020980835,2.589124917984009,0.09157499670982361
1749987622294229000,5.70022900390625,-2.071850061416626,2.4666125774383545,0.6711375117301941
1749987622304242200,5.7102421875,-2.205087423324585,2.265312433242798,1.1632499694824219
1749987622314255400,5.72025537109375,-2.2455124855041504,2.0873875617980957,1.4253250360488892
1749987622324268300,5.730268310546875,-2.1485750675201416,2.165212392807007,1.3847625255584717
1749987622334281500,5.740281494140625,-1.9291249513626099,2.4697749614715576,1.0268499851226807
1749987622344294700,5.750294677734375,-1.6383124589920044,2.4836626052856445,0.4591124951839447
1749987622354307600,5.7603076171875,-1.3486000299453735,1.8125250339508057,-0.05857500061392784
1749987622364320800,5.77032080078125,-1.0779999494552612,0.8175749778747559,-0.4516874849796295
1749987622374333700,5.780333740234375,-0.8276125192642212,-0.05376249924302101,-0.7521250247955322
1749987622384347000,5.790346923828125,-0.5975750088691711,-0.6930000185966492,-0.9502624869346619
1749987622394360000,5.800360107421875,-0.3951750099658966,-1.1328624486923218,-1.049262523651123
1749987622404373200,5.810373291015625,-0.22261250019073486,-1.394937515258789,-1.0653499364852905
1749987622414386200,5.82038623046875,-0.11384999752044678,-1.5003999471664429,-1.0025124549865723
1749987622424399400,5.8303994140625,-0.05857500061392784,-1.4812874794006348,-0.8863250017166138
1749987622434412300,5.840412353515625,-0.023375000804662704,-1.4194124937057495,-0.7638124823570251
1749987622444425500,5.850425537109375,0.025575000792741776,-1.3331999778747559,-0.6381375193595886
1749987622454438400,5.8604384765625,0.07782500237226486,-1.1967999935150146,-0.5059999823570251
1749987622464451600,5.87045166015625,0.13956250250339508,-1.0040249824523926,-0.37400001287460327
1749987622474464800,5.88046484375,0.2120250016450882,-0.7664250135421753,-0.24186250567436218
1749987622484477700,5.890477783203125,0.2844874858856201,-0.5245624780654907,-0.1023000031709671
1749987622494491000,5.900490966796875,0.3632749915122986,-0.2913624942302704,0.025575000792741776
1749987622504504000,5.910504150390625,0.4740999937057495,-0.09638749808073044,0.11921250075101852
1749987622514517200,5.920517333984375,0.6242499947547913,0.058024998754262924,0.1746249943971634
1749987622524530200,5.9305302734375,0.7990124821662903,0.17104999721050262,0.1938749998807907
1749987622534543400,5.94054345703125,0.9684125185012817,0.2391124963760376,0.18645000457763672
1749987622544556500,5.950556640625,1.1100374460220337,0.25519999861717224,0.16183750331401825
1749987622554569700,5.96056982421875,1.2187999486923218,0.20611250400543213,0.13103750348091125
1749987622564583000,5.9705830078125,1.299649953842163,0.08896250277757645,0.10326249897480011
1749987622574595800,5.980595947265625,1.3710124492645264,-0.10064999759197235,0.11715000122785568
1749987622584609000,5.990609130859375,1.4573625326156616,-0.38183748722076416,0.20666250586509705
1749987622594622000,6.0006220703125,1.595824956893921,-0.7387874722480774,0.3152875006198883
1749987622604635100,6.01063525390625,1.7769124507904053,-1.159537434577942,0.3760625123977661
1749987622614648300,6.0206484375,1.9474124908447266,-1.6229125261306763,0.38458749651908875
1749987622624661200,6.0306611328125,2.0623624324798584,-2.039400100708008,0.45058751106262207
1749987622634674400,6.04067431640625,2.0858750343322754,-2.1874876022338867,0.7616124749183655
1749987622644687600,6.0506875,1.9952625036239624,-1.7593125104904175,1.2590874433517456
1749987622654700800,6.06070068359375,1.8046875,-0.6088500022888184,1.4518624544143677
1749987622664713700,6.070713623046875,1.539312481880188,0.15496249496936798,1.171774983406067
1749987622674727000,6.080726806640625,1.223062515258789,-0.1816374957561493,0.6465250253677368
1749987622684739800,6.09073974609375,0.7873250246047974,-1.0913374423980713,0.03189999982714653
1749987622694753000,6.1007529296875,0.2578125,-2.206737518310547,-0.32065001130104065
1749987622704766000,6.110765869140625,-0.09790000319480896,-2.507037401199341,0.03189999982714653
1749987622714779100,6.120779052734375,-0.07768750190734863,-0.7621625065803528,1.438112497329712
1749987622724792300,6.130792236328125,-0.21188749372959137,0.6822749972343445,2.305187463760376
1749987622734805200,6.14080517578125,-0.6604124903678894,0.4852375090122223,1.9791749715805054
1749987622744818700,6.150818603515625,-1.1578874588012695,-0.3669874966144562,1.0641125440597534
1749987622754831600,6.16083154296875,-1.4987499713897705,-0.19016249477863312,0.21188749372959137
1749987622764844800,6.1708447265625,-1.647937536239624,1.1413874626159668,-0.4047999978065491
1749987622774858000,6.18085791015625,-1.806612491607666,1.8977749347686768,-0.9098374843597412
1749987622784871000,6.190870849609375,-1.8375500440597534,1.933937430381775,-1.3954875469207764
1749987622794884000,6.200884033203125,-1.7363499402999878,1.6740624904632568,-1.7737499475479126
1749987622804897000,6.21089697265625,-1.5328500270843506,1.2575750350952148,-1.915374994277954
1749987622814910200,6.22091015625,-1.1365749835968018,0.8857749700546265,-1.8130749464035034
1749987622824923400,6.23092333984375,-0.5357000231742859,0.5278624892234802,-1.389162540435791
1749987622834936300,6.240936279296875,0.17366249859333038,0.018699999898672104,-0.8692749738693237
1749987622844949500,6.250949462890625,0.6957499980926514,-0.8133124709129333,-0.5816249847412109
1749987622854962400,6.26096240234375,0.902412474155426,-1.8486875295639038,-0.5315750241279602
1749987622864975600,6.2709755859375,0.8618500232696533,-2.8309874534606934,-0.5252500176429749
1749987622874988800,6.28098876953125,0.6850249767303467,-3.4595000743865967,-0.4474250078201294
1749987622885002000,6.291001953125,0.5539875030517578,-3.617074966430664,-0.3217499852180481
1749987622895015200,6.30101513671875,0.5422999858856201,-3.427462577819824,-0.19181250035762787
1749987622905028000,6.311028076171875,0.5923500061035156,-3.0215625762939453,-0.07246249914169312
1749987622915041300,6.321041259765625,0.6318125128746033,-2.4985125064849854,0.02447500079870224
1749987622925054500,6.331054443359375,0.6318125128746033,-1.9201874732971191,0.08841250091791153
1749987622935067400,6.3410673828125,0.6062374711036682,-1.3331999778747559,0.12677499651908875
1749987622945080600,6.35108056640625,0.5678749680519104,-0.7717875242233276,0.1405249983072281
1749987622955093800,6.36109375,0.524150013923645,-0.2529999911785126,0.1288374960422516
1749987622965106700,6.371106689453125,0.4538874924182892,0.1699499934911728,0.07878749817609787
1749987622975120000,6.381119873046875,0.3409999907016754,0.45649999380111694,-0.018149999901652336
1749987622985133000,6.391133056640625,0.23759999871253967,0.6386874914169312,-0.14272500574588776
1749987622995146200,6.401146240234375,0.16417500376701355,0.7706875205039978,-0.271699994802475
1749987623005159200,6.4111591796875,0.12361250072717667,0.8335250020027161,-0.3825249969959259
1749987623015172400,6.42117236328125,0.10339999943971634,0.8271999955177307,-0.44852501153945923
1749987623025185500,6.431185546875,0.08098749816417694,0.7930999994277954,-0.44852501153945923
1749987623035198500,6.441198486328125,0.06929999589920044,0.7994250059127808,-0.3484250009059906
1749987623045211600,6.451211669921875,0.11192499846220016,0.9198749661445618,-0.113987497985363
1749987623055224800,6.461224853515625,0.19071249663829803,1.127637505531311,0.17256249487400055
1749987623065237800,6.47123779296875,0.23649999499320984,1.2991000413894653,0.3568125069141388
1749987623075251200,6.481251220703125,0.22055000066757202,1.3821499347686768,0.39627498388290405
1749987623085264100,6.49126416015625,0.1821874976158142,1.385450005531311,0.3482874929904938
1749987623095277300,6.50127734375,0.17476250231266022,1.3395249843597412,0.258774995803833
1749987623105290500,6.51129052734375,0.20996250212192535,1.2405250072479248,0.1438249945640564
1749987623115303400,6.521303466796875,0.28022500872612,1.0679625272750854,-0.005362499970942736
1749987623125316600,6.531316650390625,0.35475000739097595,0.7825124859809875,-0.1896124929189682
1749987623135329800,6.541329833984375,0.35475000739097595,0.3371500074863434,-0.38458749651908875
1749987623145343000,6.551343017578125,0.20886249840259552,-0.21147499978542328,-0.5497249960899353
1749987623155356000,6.56135595703125,-0.0765874981880188,-0.5906999707221985,-0.5582500100135803
1749987623165369300,6.571369384765625,-0.41318750381469727,0.04207500070333481,0.2609750032424927
1749987623175382300,6.58138232421875,-0.8809624910354614,1.5717624425888062,1.4125374555587769
1749987623185395500,6.5913955078125,-1.4987499713897705,2.409137487411499,1.7001874446868896
1749987623195408600,6.60140869140625,-2.108150005340576,2.927924871444702,1.513737440109253
1749987623205421600,6.611421630859375,-2.632162570953369,3.6906375885009766,1.2687125205993652
1749987623215434800,6.621434814453125,-3.096637487411499,4.463937282562256,1.0129624605178833
1749987623225448000,6.631447998046875,-3.479024887084961,5.004037380218506,0.8446624875068665
1749987623235461000,6.641461181640625,-3.6910500526428223,5.163812637329102,0.8883875012397766
1749987623245474300,6.651474365234375,-3.6548874378204346,4.850725173950195,1.1121000051498413
1749987623265500700,6.671500732421875,-2.653475046157837,3.1164374351501465,1.3358124494552612
1749987623275513600,6.681513671875,-1.730987548828125,2.0234498977661133,1.1024750471115112
1749987623285526800,6.69152685546875,-0.7253124713897705,0.9858750104904175,0.7391999959945679
1749987623295539700,6.701539794921875,0.10559999942779541,0.01223750039935112,0.37386250495910645
1749987623305553000,6.711552978515625,0.654087483882904,-0.8655624985694885,0.05321250110864639
1749987623315566000,6.721566162109375,0.940637469291687,-1.5813875198364258,-0.17366249859333038
1749987623325579300,6.731579345703125,1.0514625310897827,-2.0532875061035156,-0.2876499891281128
1749987623335592200,6.74159228515625,1.0823999643325806,-2.2332749366760254,-0.2919124960899353
1749987623345605400,6.75160546875,1.0759375095367432,-2.1118624210357666,-0.23223750293254852
1749987623355618600,6.76161865234375,1.0375750064849854,-1.7773250341415405,-0.16733749210834503
1749987623365631700,6.7716318359375,0.9822999835014343,-1.4130874872207642,-0.14176249504089355
1749987623375644700,6.781644775390625,0.9300500154495239,-1.1882749795913696,-0.17682500183582306
1749987623385657900,6.791657958984375,0.9044749736785889,-1.111549973487854,-0.27059999108314514
1749987623395671000,6.801671142578125,0.9087374806404114,-1.1169124841690063,-0.4016374945640564
1749987623405684200,6.811684326171875,0.9129999876022339,-1.176587462425232,-0.5347374677658081
1749987623415697400,6.821697509765625,0.9055749773979187,-1.277787446975708,-0.6402000188827515
1749987623425710600,6.831710693359375,0.8896250128746033,-1.4194124937057495,-0.6967124938964844
1749987623435723800,6.841723876953125,0.8820624947547913,-1.609025001525879,-0.682824969291687
1749987623445736700,6.85173681640625,0.9268875122070312,-1.876462459564209,-0.5838249921798706
1749987623455750000,6.86175,1.0835000276565552,-2.22475004196167,-0.4175874888896942
1749987623465763000,6.87176318359375,1.3624874353408813,-2.599712371826172,-0.26001250743865967
1749987623475776000,6.88177587890625,1.7247999906539917,-2.9214625358581543,-0.18438750505447388
1749987623485789400,6.89178955078125,2.0933001041412354,-3.1846375465393066,-0.18754999339580536
1749987623495802600,6.901802734375,2.359637498855591,-3.4093124866485596,-0.24818749725818634
1749987623505815600,6.911815673828125,2.465100049972534,-3.5542373657226562,-0.3302749991416931
1749987623515828700,6.921828857421875,2.4128499031066895,-3.5393874645233154,-0.40700000524520874
1749987623525841700,6.931841552734375,2.2232375144958496,-3.2197000980377197,-0.4388999938964844
1749987623535854800,6.941854736328125,1.914412498474121,-2.489987373352051,-0.40796250104904175
1749987623545868000,6.951867919921875,1.557462453842163,-1.4907749891281128,-0.3515875041484833
1749987623555881500,6.961881591796875,1.2464375495910645,-0.7334250211715698,-0.37400001287460327
1749987623565894400,6.971894287109375,1.0067750215530396,-0.47244998812675476,-0.5273125171661377
1749987623575907600,6.981907470703125,0.7671124935150146,-0.6109125018119812,-0.7425000071525574
1749987623585920800,6.991920654296875,0.44536250829696655,-1.0604000091552734,-0.8948500156402588
1749987623595933700,7.00193359375,0.04592499881982803,-1.7741625308990479,-0.8714749813079834
1749987623605947000,7.01194677734375,-0.30250000953674316,-2.219525098800659,-0.6199874877929688
1749987623615960300,7.021960205078125,-0.4750624895095825,-1.0242375135421753,0.28228750824928284
1749987623625973200,7.03197314453125,-0.840399980545044,0.38940000534057617,1.0396374464035034
1749987623635986700,7.041986572265625,-1.081162452697754,0.8314625024795532,1.0109000205993652
1749987623645999600,7.05199951171875,-1.134374976158142,0.9539750218391418,0.6413000226020813
1749987623656012800,7.0620126953125,-1.1493624448776245,1.176587462425232,0.272662490606308
1749987623666026000,7.07202587890625,-1.1291500329971313,1.5760250091552734,0.019112499430775642
1749987623676039000,7.082038818359375,-1.0907875299453735,1.8327374458312988,-0.1247124969959259
1749987623686052000,7.092052001953125,-1.1024750471115112,1.744325041770935,-0.23017500340938568
1749987623696065300,7.102065185546875,-1.1376750469207764,1.4355000257492065,-0.43353748321533203
1749987623706078500,7.112078369140625,-1.0971125364303589,1.0562750101089478,-0.698912501335144
1749987623716091400,7.12209130859375,-0.9139624834060669,0.7664250135421753,-0.8820624947547913
1749987623726104800,7.132104736328125,-0.5666375160217285,0.41923749446868896,-0.8416374921798706
1749987623736117800,7.14211767578125,-0.10326249897480011,-0.1751749962568283,-0.5636125206947327
1749987623746131000,7.152130859375,0.3185875117778778,-0.9838125109672546,-0.3451249897480011
1749987623756144000,7.16214404296875,0.561412513256073,-1.7613749504089355,-0.3152875006198883
1749987623766157300,7.1721572265625,0.644599974155426,-2.2908875942230225,-0.35694998502731323
1749987623776170200,7.182170166015625,0.6370375156402588,-2.5837624073028564,-0.38458749651908875
1749987623786183400,7.192183349609375,0.5997750163078308,-2.6796000003814697,-0.35475000739097595
1749987623796196600,7.202196533203125,0.5838249921798706,-2.558187484741211,-0.23017500340938568
1749987623806209800,7.212209716796875,0.5806624889373779,-2.24180006980896,-0.0340999998152256
1749987623826236200,7.232236083984375,0.6275500059127808,-1.3437875509262085,0.28338751196861267
1749987623836249300,7.242249267578125,0.7074375152587891,-0.935824990272522,0.30250000953674316
1749987623846262500,7.252262451171875,0.7990124821662903,-0.6173750162124634,0.2535499930381775
1749987623856275500,7.262275390625,0.8799999952316284,-0.38183748722076416,0.17998750507831573
1749987623866288600,7.27228857421875,0.9237250089645386,-0.18479999899864197,0.10862500220537186
1749987623876302000,7.282302001953125,0.9237250089645386,0.009074999950826168,0.05321250110864639
1749987623886315000,7.29231494140625,0.8725749850273132,0.18273749947547913,0.0170499999076128
1749987623896328400,7.302328369140625,0.7904874682426453,0.33082500100135803,0.002062499988824129
1749987623906341400,7.31234130859375,0.7063375115394592,0.4735499918460846,0.021312499418854713
1749987623916354600,7.3223544921875,0.6488624811172485,0.6353874802589417,0.09583749622106552
1749987623926367700,7.33236767578125,0.6403374671936035,0.8442500233650208,0.2535499930381775
1749987623936381000,7.342380859375,0.6765000224113464,1.0520124435424805,0.47932499647140503
1749987623946393900,7.352393798828125,0.7213249802589417,1.129699945449829,0.6934124827384949
1749987623956407300,7.3624072265625,0.719124972820282,0.9934374690055847,0.8468624949455261
1749987623966420200,7.372420166015625,0.6403374671936035,0.7174749970436096,0.9341750144958496
1749987623976433400,7.382433349609375,0.5018749833106995,0.5363875031471252,1.005537509918213
1749987623986446600,7.392446533203125,0.3452624976634979,0.8377875089645386,1.1259875297546387
1749987623996459800,7.402459716796875,0.15028749406337738,1.6559125185012817,1.1760375499725342
1749987624006473000,7.412472900390625,-0.12457499653100967,2.49961256980896,1.040737509727478
1749987624016486100,7.422486083984375,-0.43779999017715454,3.081237554550171,0.782925009727478
1749987624026499300,7.432499267578125,-0.7360374927520752,3.4711875915527344,0.5293750166893005
1749987624036512500,7.442512451171875,-1.0118625164031982,3.7395875453948975,0.34622499346733093
1749987624046525700,7.452525634765625,-1.3421374559402466,3.6277999877929688,0.227974995970726
1749987624056539000,7.462538818359375,-1.8002874851226807,3.0845375061035156,0.10436250269412994
1749987624066552000,7.472552001953125,-2.4032249450683594,2.2886874675750732,-0.10766249895095825
1749987624076565200,7.482565185546875,-3.117949962615967,1.3556125164031982,-0.39627498388290405
1749987624086578200,7.492578125,-3.891387462615967,0.40424999594688416,-0.7084000110626221
1749987624096591400,7.50259130859375,-4.574212551116943,-0.48633748292922974,-1.1185624599456787
1749987624106604500,7.5126044921875,-5.079112529754639,-1.1658624410629272,-1.6703499555587769
1749987624116618000,7.522617919921875,-5.351775169372559,-1.4812874794006348,-2.170024871826172
1749987624126631000,7.532630859375,-5.0663251876831055,-1.0902374982833862,-2.1965625286102295
1749987624136644000,7.54264404296875,-4.121425151824951,-0.18796250224113464,-1.5585625171661377
1749987624146657300,7.5526572265625,-2.879387378692627,0.3723500072956085,-0.7510250210762024
1749987624156670500,7.56267041015625,-1.8290250301361084,0.5630624890327454,-0.0906125009059906
1749987624166683600,7.57268359375,-0.9149249792098999,0.5554999709129333,0.4676375091075897
1749987624176696800,7.58269677734375,-0.12457499653100967,0.45223748683929443,0.9693750143051147
1749987624186710000,7.5927099609375,0.4581499993801117,0.3371500074863434,1.3954875469207764
1749987624196723200,7.60272314453125,0.8266500234603882,0.147537499666214,1.630887508392334
1749987624206736400,7.612736328125,1.0153000354766846,-0.07507500052452087,1.7203999757766724
1749987624216749600,7.62274951171875,1.0940874814987183,-0.30841249227523804,1.7661875486373901
1749987624226762800,7.6327626953125,1.1856625080108643,-0.5779125094413757,1.8748124837875366
1749987624236776000,7.64277587890625,1.3870999813079834,-0.8431500196456909,2.0996248722076416
1749987624246789000,7.6527890625,1.6501375436782837,-1.0529749393463135,2.3509750366210938
1749987624256802300,7.66280224609375,1.8770124912261963,-1.1478500366210938,2.5448498725891113
1749987624266815500,7.6728154296875,1.988937497138977,-1.1339625120162964,2.5757875442504883
1749987624276828700,7.68282861328125,1.9824750423431396,-1.192537546157837,2.3276000022888184
1749987624286841600,7.692841552734375,1.9579999446868896,-1.3736250400543213,1.596787452697754
1749987624296854800,7.702854736328125,2.063462495803833,-1.6633374691009521,0.3152875006198883
1749987624306868000,7.712867919921875,2.3095874786376953,-2.3036749362945557,-1.0918874740600586
1749987624316881400,7.72288134765625,2.5737249851226807,-3.1121749877929688,-2.122037410736084
1749987624326894300,7.732894287109375,2.7356998920440674,-3.640587568283081,-2.7218124866485596
1749987624336907800,7.74290771484375,2.798537492752075,-3.813149929046631,-3.009462594985962
1749987624346920700,7.752920654296875,2.7825875282287598,-3.638387441635132,-3.033937454223633
1749987624356934100,7.76293408203125,2.6558125019073486,-3.1334874629974365,-2.799499988555908
1749987624366947000,7.772947021484375,2.4150500297546387,-2.592287540435791,-2.4447500705718994
1749987624376960500,7.78296044921875,1.9729875326156616,-2.361150026321411,-2.090137481689453
1749987624386973700,7.7929736328125,1.2677500247955322,-2.327049970626831,-1.5637874603271484
1749987624396987000,7.80298681640625,0.35804998874664307,-2.2631125450134277,-0.8320124745368958
1749987624407000000,7.813,-0.5058624744415283,-2.114062547683716,-0.1438249945640564
1749987624417013200,7.82301318359375,-1.117324948310852,-1.9626749753952026,0.3377000093460083
1749987624427026200,7.833026123046875,-1.4689124822616577,-1.9478249549865723,0.608162522315979
1749987624437039600,7.84303955078125,-1.614799976348877,-2.0373375415802,0.6806250214576721
1749987624447052800,7.853052734375,-1.456125020980835,-1.635699987411499,0.7030375003814697
1749987624457066000,7.86306591796875,-1.2313125133514404,-0.6598625183105469,0.7638124823570251
1749987624467079200,7.8730791015625,-1.115262508392334,0.2050125002861023,0.6380000114440918
1749987624477092400,7.88309228515625,-0.995912492275238,0.7612000107765198,0.22577500343322754
1749987624487105500,7.89310546875,-0.9182249903678894,1.27572500705719,-0.33137500286102295
1749987624497118500,7.903118408203125,-0.8926500082015991,1.9531874656677246,-0.8351749777793884
1749987624507132000,7.9131318359375,-0.9256500005722046,2.5624499320983887,-1.1941875219345093
1749987624517145000,7.92314501953125,-1.0129624605178833,2.862887382507324,-1.4306875467300415
1749987624527158300,7.933158203125,-1.125849962234497,2.8543624877929688,-1.5713499784469604
1749987624537171500,7.94317138671875,-1.2346124649047852,2.6541624069213867,-1.5926624536514282
1749987624547184600,7.9531845703125,-1.2260874509811401,2.3377749919891357,-1.4711124897003174
1749987624557197800,7.96319775390625,-0.9884874820709229,1.7869499921798706,-1.1708124876022339
1749987624567211000,7.9732109375,-0.5645750164985657,0.678012490272522,-0.49114999175071716
1749987624577224400,7.983224365234375,-0.35571250319480896,-0.853737473487854,0.35144999623298645
1749987624587237400,7.9932373046875,-0.35791251063346863,-2.197112560272217,0.8084999918937683
1749987624597250600,8.00325048828125,-0.38871249556541443,-3.094024896621704,0.8724374771118164
1749987624607263700,8.013263671875,-0.3877499997615814,-3.6491124629974365,0.7605124711990356
1749987624617277000,8.02327685546875,-0.3493874967098236,-4.013350009918213,0.5879499912261963
1749987624627290000,8.0332900390625,-0.26840001344680786,-4.263737678527832,0.3983374834060669
1749987624637303600,8.043303466796875,-0.16403749585151672,-4.427774906158447,0.21092499792575836
1749987624647316700,8.053316650390625,-0.057475000619888306,-4.519350051879883,0.04688749834895134
1749987624657330000,8.063329833984374,0.028875000774860382,-4.556612491607666,-0.09377499669790268
1749987624667343000,8.073343017578125,0.08098749816417694,-4.498037338256836,-0.20143750309944153
1749987624677356000,8.08335595703125,0.10656250268220901,-4.327674865722656,-0.27059999108314514
1749987624687369700,8.09336962890625,0.10339999943971634,-4.037825107574463,-0.303600013256073
1749987624697382700,8.103382568359375,0.0789249986410141,-3.658600091934204,-0.3067624866962433
1749987624707395800,8.113395751953124,0.047987498342990875,-3.2378499507904053,-0.29411250352859497
1749987624717409000,8.123408935546875,0.013887500390410423,-2.8032124042510986,-0.28558748960494995
1749987624727422200,8.133422119140626,-0.04468749836087227,-2.402674913406372,-0.2652375102043152
1749987624737435400,8.143435302734375,-0.10752499848604202,-2.034174919128418,-0.22481249272823334
1749987624747448800,8.15344873046875,-0.13846249878406525,-1.6570124626159668,-0.17256249487400055
1749987624757462000,8.1634619140625,-0.0989999994635582,-1.2564749717712402,-0.11192499846220016
1749987624767475200,8.17347509765625,0.009624999947845936,-0.8281624913215637,-0.03946249932050705
1749987624777488400,8.18348828125,0.15565000474452972,-0.38830000162124634,0.05004999786615372
1749987624787501600,8.19350146484375,0.31968748569488525,0.023924998939037323,0.16940000653266907
1749987624797514800,8.2035146484375,0.4740999937057495,0.41923749446868896,0.3110249936580658
1749987624807527700,8.213527587890624,0.5699374675750732,0.7825124859809875,0.49211248755455017
1749987624817540900,8.223540771484375,0.6115999817848206,1.1308000087738037,0.7115625143051147
1749987624827554300,8.23355419921875,0.6573874950408936,1.468500018119812,0.9278500080108643
1749987624837567500,8.2435673828125,0.7148625254631042,1.7454249858856201,1.1004124879837036
1749987624847580700,8.25358056640625,0.7947499752044678,1.9254125356674194,1.2186625003814697
1749987624857593900,8.26359375,0.8905875086784363,2.0213875770568848,1.2835625410079956
1749987624867607000,8.27360693359375,0.9886249899864197,2.0404999256134033,1.2931874990463257
1749987624877620500,8.283620361328126,1.0781375169754028,1.9958125352859497,1.2377749681472778
1749987624887633700,8.293633544921875,1.1633875370025635,1.828474998474121,1.116362452507019
1749987624897646800,8.303646728515625,1.3007500171661377,1.4333000183105469,0.9884874820709229
1749987624907660000,8.313659912109374,1.6779124736785889,0.3414124846458435,1.1035749912261963
1749987624917673200,8.323673095703125,1.9644625186920166,-1.3384250402450562,1.3198624849319458
1749987624927686400,8.333686279296876,1.7492749691009521,-2.7957875728607178,1.272974967956543
1749987624937699600,8.343699462890624,1.223062515258789,-3.8226375579833984,0.9586499929428101
1749987624947713000,8.353713134765625,0.5997750163078308,-4.263737678527832,0.5154874920845032
1749987624957726200,8.363726318359374,-0.3749625086784363,-0.15070000290870667,-0.6839249730110168
1749987624967739400,8.373739501953125,-1.3091374635696411,3.9121499061584473,-1.315600037574768
1749987624977752600,8.383752685546876,-1.965287446975708,4.1315999031066895,-1.299649953842163
1749987624987765800,8.393765869140625,-2.4169750213623047,3.4009249210357666,-1.2772375345230103
1749987624997779000,8.403779052734375,-2.706825017929077,2.45808744430542,-1.264449954032898
1749987625007792000,8.413792236328124,-2.8931374549865723,1.5239125490188599,-1.2601875066757202
1749987625017805600,8.4238056640625,-2.9848499298095703,0.852774977684021,-1.272974967956543
1749987625027818800,8.43381884765625,-2.9422249794006348,0.4969249963760376,-1.2601875066757202
1749987625037831700,8.443831787109374,-2.7227749824523926,0.2529999911785126,-1.132449984550476
1749987625047845000,8.45384521484375,-2.3530375957489014,0.023924998939037323,-0.8458999991416931
1749987625057858300,8.4638583984375,-2.0101125240325928,-0.19978749752044678,-0.46021249890327454
1749987625067871700,8.473871826171875,-1.7671500444412231,-0.35846251249313354,-0.12044999748468399
1749987625077885000,8.483885009765626,-1.557325005531311,-0.41593748331069946,0.09377499669790268
1749987625087897900,8.49389794921875,-1.3452999591827393,-0.3531000018119812,0.18108749389648438
1749987625097911000,8.5039111328125,-1.125849962234497,-0.2508000135421753,0.20336249470710754
1749987625107924500,8.513924560546876,-0.9319750070571899,-0.2125750035047531,0.18741250038146973
1749987625117937700,8.523937744140625,-0.7818250060081482,-0.34031251072883606,0.11921250075101852
1749987625127950800,8.533950927734375,-0.6880499720573425,-0.5842375159263611,0.06599999964237213
1749987625137964000,8.543964111328124,-0.6411625146865845,-1.0157124996185303,0.06599999964237213
1749987625147977500,8.5539775390625,-0.6667374968528748,-1.7454249858856201,0.16183750331401825
1749987625157990700,8.56399072265625,-0.7232499718666077,-2.640275001525879,0.23746250569820404
1749987625168003800,8.57400390625,-0.7562500238418579,-3.524399995803833,0.2578125
1749987625178017000,8.58401708984375,-0.7499250173568726,-4.235962390899658,0.2843500077724457
1749987625188030200,8.5940302734375,-0.691349983215332,-4.607762336730957,0.3642374873161316
1749987625198043400,8.60404345703125,-0.6113250255584717,-4.5236124992370605,0.48358750343322754
1749987625208056800,8.614056884765626,-0.553849995136261,-3.9195749759674072,0.5955125093460083
1749987625218070000,8.624070068359375,-0.5304750204086304,-3.0588250160217285,0.607200026512146
1749987625228083200,8.634083251953125,-0.5186499953269958,-2.4282500743865967,0.5208500027656555
1749987625238096400,8.644096435546874,-0.5058624744415283,-2.0160250663757324,0.3760625123977661
1749987625248109600,8.654109619140625,-0.4856500029563904,-1.7517499923706055,0.2311374992132187
1749987625258122800,8.664122802734376,-0.4409624934196472,-1.625112533569336,0.10752499848604202
1749987625268136200,8.67413623046875,-0.3451249897480011,-1.6473875045776367,0.028737500309944153
1749987625278149400,8.6841494140625,-0.1788875013589859,-1.7763625383377075,-0.010724999941885471
1749987625288162800,8.694162841796874,0.04908749833703041,-1.884987473487854,-0.040562499314546585
1749987625298176000,8.704176025390625,0.3068999946117401,-1.8700000047683716,-0.08744999766349792
1749987625308189000,8.71418896484375,0.5593500137329102,-1.7400624752044678,-0.16197499632835388
1749987625318202000,8.7242021484375,0.764912486076355,-1.5558124780654907,-0.24502499401569366
1749987625328215600,8.734215576171875,0.8948500156402588,-1.3906749486923218,-0.3110249936580658
1749987625338228700,8.744228759765624,0.9587875008583069,-1.285212516784668,-0.34732499718666077
1749987625348242000,8.754241943359375,0.9993500113487244,-1.2329624891281128,-0.340862512588501
1749987625358255000,8.764255126953126,1.04087495803833,-1.2457499504089355,-0.2780250012874603
1749987625368268300,8.774268310546875,1.0940874814987183,-1.360837459564209,-0.1256749927997589
1749987625378282000,8.784281982421875,1.1676499843597412,-1.5952750444412231,0.12347500026226044
1749987625388295200,8.794295166015624,1.3007500171661377,-1.96913743019104,0.5037999749183655
1749987625398308400,8.804308349609375,1.6512374877929688,-3.803524971008301,1.97284996509552
1749987625408321500,8.814321533203126,2.012312412261963,-4.768637657165527,2.968899965286255
1749987625418334700,8.824334716796875,1.4104750156402588,-2.3292500972747803,2.053837537765503
1749987625428348200,8.83434814453125,0.7734375,-1.0146124362945557,1.263350009918213
1749987625438361300,8.844361328125,0.5092999935150146,-1.1754875183105469,0.5410624742507935
1749987625448374500,8.85437451171875,0.4101625084877014,-2.041599988937378,-0.18328750133514404
1749987625458387700,8.8643876953125,0.32284998893737793,-2.833050012588501,-0.6179249882698059
1749987625468401000,8.87440087890625,0.20776249468326569,-3.198387384414673,-0.7990124821662903
1749987625478414300,8.884414306640625,0.10023749619722366,-3.1994874477386475,-0.8885250091552734
1749987625488427500,8.894427490234374,-0.005224999971687794,-2.8692123889923096,-0.9437999725341797
1749987625498440700,8.904440673828125,-0.06916250288486481,-2.1843249797821045,-0.9215250015258789
1749987625508454000,8.914453857421876,-0.14904999732971191,-1.0731874704360962,-0.6861249804496765
1749987625518467000,8.924467041015625,-0.25244998931884766,0.20721249282360077,-0.2685374915599823
1749987625528480500,8.93448046875,-0.2311374992132187,1.1254374980926514,0.025575000792741776
1749987625538493700,8.94449365234375,-0.0031624999828636646,1.709262490272522,0.15441249310970306
1749987625548507000,8.9545068359375,0.2578125,2.1502249240875244,0.304562509059906
1749987625558520000,8.96452001953125,0.3942124843597412,2.4634499549865723,0.6380000114440918
1749987625568533500,8.974533447265625,0.43683749437332153,2.4356749057769775,1.0555875301361084
1749987625578546700,8.984546630859375,0.43463748693466187,1.8167874813079834,1.2505625486373901
1749987625588560000,8.994559814453124,0.42721250653266907,0.6503750085830688,1.116362452507019
1749987625598573000,9.004572998046875,0.43463748693466187,-0.6919000148773193,0.7178875207901001
1749987625608586200,9.014586181640626,0.46447500586509705,-1.8529499769210815,0.1779250055551529
1749987625618599400,9.024599365234375,0.5050374865531921,-2.6636500358581543,-0.36973750591278076
1749987625628612900,9.03461279296875,0.5400999784469604,-3.2207999229431152,-0.8607500195503235
1749987625638626000,9.0446259765625,0.5721374750137329,-3.658600091934204,-1.241075038909912
1749987625648639200,9.05463916015625,0.5934500098228455,-4.045387268066406,-1.5063124895095825
1749987625658652400,9.06465234375,0.56045001745224,-4.406462669372559,-1.6682875156402588
1749987625668665900,9.074665771484375,0.43793749809265137,-4.7228498458862305,-1.7278250455856323
1749987625678678800,9.0846787109375,0.2387000024318695,-4.967875003814697,-1.6905624866485596
1749987625688692500,9.0946923828125,0.007562499959021807,-5.123387336730957,-1.5702500343322754
1749987625698705700,9.10470556640625,-0.22261250019073486,-5.163812637329102,-1.3678499460220337
1749987625708718800,9.11471875,-0.4164874851703644,-5.059450149536133,-1.0813000202178955
1749987625718732000,9.12473193359375,-0.5399624705314636,-4.819787502288818,-0.7350749969482422
1749987625728745200,9.1347451171875,-0.5740625262260437,-4.504499912261963,-0.3877499997615814
1749987625738758400,9.14475830078125,-0.5368000268936157,-4.176287651062012,-0.08318749815225601
1749987625748771800,9.154771728515625,-0.45801249146461487,-3.828000068664551,0.1629374921321869
1749987625758785000,9.164784912109376,-0.3610749840736389,-3.461562395095825,0.34718748927116394
1749987625768798200,9.174798095703125,-0.2630375027656555,-3.0971875190734863,0.46447500586509705
1749987625778811400,9.184811279296875,-0.18741250038146973,-2.7318499088287354,0.5091624855995178
1749987625788824800,9.194824951171874,-0.14698749780654907,-2.370774984359741,0.4867500066757202
1749987625798838000,9.204838134765625,-0.1597750037908554,-2.0021374225616455,0.40796250104904175
1749987625808851200,9.214851318359376,-0.21408750116825104,-1.6240124702453613,0.281187504529953
1749987625818864600,9.22486474609375,-0.2652375102043152,-1.2649999856948853,0.11604999750852585
1749987625828877800,9.2348779296875,-0.27582499384880066,-0.9378874897956848,-0.07672499865293503
1749987625838891000,9.24489111328125,-0.24914999306201935,-0.6364874839782715,-0.2685374915599823
1749987625848904200,9.254904296875,-0.21408750116825104,-0.3414124846458435,-0.42611250281333923
1749987625858917400,9.26491748046875,-0.20019999146461487,-0.018562499433755875,-0.5219500064849854
1749987625868930800,9.274930908203125,-0.19910000264644623,0.3445749878883362,-0.544362485408783
1749987625878944000,9.284944091796875,-0.19593749940395355,0.7473124861717224,-0.49114999175071716
1749987625888957400,9.29495751953125,-0.17352500557899475,1.1243374347686768,-0.38458749651908875
1749987625898970600,9.304970703125,-0.1288374960422516,1.4216125011444092,-0.2737624943256378
1749987625908983800,9.31498388671875,-0.06283749639987946,1.6293749809265137,-0.17366249859333038
1749987625918997000,9.3249970703125,0.016087500378489494,1.7656375169754028,-0.08841250091791153
1749987625929010400,9.335010498046875,0.09487500041723251,1.8370000123977661,-0.011687500402331352
1749987625939023600,9.345023681640624,0.1662375032901764,1.8392000198364258,0.04688749834895134
1749987625949036800,9.355036865234375,0.22591249644756317,1.7741625308990479,0.08524999767541885
1749987625959050000,9.365050048828126,0.2770625054836273,1.6473875045776367,0.10642500221729279
1749987625969063200,9.375063232421875,0.3345375061035156,1.4557124376296997,0.10862500220537186
1749987625979076400,9.385076416015625,0.3942124843597412,1.2064249515533447,0.09803749620914459
1749987625989089800,9.39508984375,0.44852501153945923,0.9017249941825867,0.07768750190734863
1749987625999103200,9.405103271484375,0.49431249499320984,0.566224992275238,0.06283749639987946
1749987626009116400,9.415116455078126,0.5315750241279602,0.20611250400543213,0.055412501096725464
1749987626019129600,9.425129638671875,0.5593500137329102,-0.15606249868869781,0.055412501096725464
1749987626029142800,9.435142822265625,0.5795624852180481,-0.5119125247001648,0.07246249914169312
1749987626039156000,9.445156005859374,0.5923500061035156,-0.8590999841690063,0.10752499848604202
1749987626049169200,9.455169189453125,0.5902875065803528,-1.1904749870300293,0.16513749957084656
1749987626059182600,9.4651826171875,0.5593500137329102,-1.5206124782562256,0.23539999127388
1749987626069195800,9.47519580078125,0.5039374828338623,-1.8540500402450562,0.3110249936580658
1749987626079209000,9.485208984375,0.4251500070095062,-2.1874876022338867,0.38128748536109924
1749987626089222400,9.495222412109374,0.32065001130104065,-2.530550003051758,0.4388999938964844
1749987626099235600,9.505235595703125,0.20569999516010284,-2.8958873748779297,0.47616249322891235
1749987626109248800,9.515248779296876,0.09171249717473984,-3.29010009765625,0.5059999823570251
1749987626119262000,9.525261962890625,-0.013749999925494194,-3.6841750144958496,0.5378999710083008
1749987626129275400,9.535275390625,-0.1266375035047531,-4.016512393951416,0.5762624740600586
1749987626139288600,9.54528857421875,-0.28654998540878296,-4.237062454223633,0.6572499871253967
1749987626149302000,9.555302001953125,-0.4973374903202057,-4.076187610626221,1.0034749507904053
1749987626159315200,9.565315185546876,-0.7243499755859375,-0.1699499934911728,2.2657248973846436
1749987626169328400,9.575328369140625,-1.3879250288009644,6.47418737411499,1.3347125053405762
1749987626179341600,9.585341552734375,-2.371187448501587,6.458237648010254,0.13199999928474426
1749987626189355000,9.59535498046875,-3.1872498989105225,3.9654998779296875,-0.8533250093460083
1749987626199368200,9.6053681640625,-3.5386998653411865,1.5239125490188599,-1.6000875234603882
1749987626209381400,9.61538134765625,-3.385387420654297,-0.2806375026702881,-2.122037410736084
1749987626219394800,9.625394775390625,-2.986912488937378,-1.5100250244140625,-2.3926374912261963
1749987626229407700,9.63540771484375,-2.5852749347686768,-2.3387374877929688,-2.4575374126434326
1749987626239421400,9.64542138671875,-2.1900999546051025,-2.70847487449646,-2.394700050354004
1749987626249434600,9.6554345703125,-1.8427749872207642,-2.702012538909912,-2.246612548828125
1749987626259447800,9.66544775390625,-1.5914249420166016,-2.594487428665161,-2.0165750980377197
1749987626269461000,9.6754609375,-1.4433374404907227,-2.53591251373291,-1.7087124586105347
1749987626279474200,9.68547412109375,-1.3858624696731567,-2.389887571334839,-1.3508000373840332
1749987626289487600,9.695487548828124,-1.373075008392334,-2.1982123851776123,-0.9726749658584595
1749987626299500800,9.705500732421875,-1.3443374633789062,-1.9702374935150146,-0.6316750049591064
1749987626309514200,9.71551416015625,-1.290024995803833,-1.7124249935150146,-0.38458749651908875
1749987626319527200,9.725527099609375,-1.1962499618530273,-1.3651000261306763,-0.22055000066757202
1749987626329540600,9.73554052734375,-1.0609500408172607,-0.9582374691963196,-0.09693749994039536
1749987626339554000,9.745553955078124,-0.9512249827384949,-0.5981249809265137,-0.012787500396370888
1749987626349567200,9.755567138671875,-0.893750011920929,-0.3531000018119812,0.045787498354911804
1749987626359580400,9.765580322265626,-0.9299125075340271,-0.4010874927043915,0.13846249878406525
1749987626369593900,9.77559375,-1.0257500410079956,-0.7525374889373779,0.28654998540878296
1749987626379607000,9.78560693359375,-1.125849962234497,-1.2564749717712402,0.45374998450279236
1749987626389620200,9.7956201171875,-1.2196249961853027,-1.675162434577942,0.6294749975204468
1749987626399633400,9.80563330078125,-1.280400037765503,-1.4673999547958374,0.828712522983551
1749987626409646600,9.815646484375,-1.3943874835968018,-0.8238999843597412,0.904337465763092
1749987626419659800,9.82565966796875,-1.5339499711990356,-0.42762500047683716,0.791450023651123
1749987626429673000,9.8356728515625,-1.5647499561309814,-0.46502500772476196,0.5389999747276306
1749987626439686400,9.845686279296874,-1.4370124340057373,-0.8815125226974487,0.2630375027656555
1749987626449699800,9.855699951171875,-1.1877249479293823,-1.4013999700546265,0.045787498354911804
1749987626459713000,9.865713134765626,-0.9021375179290771,-1.7954750061035156,-0.04688749834895134
1749987626469726200,9.875726318359375,-0.6380000114440918,-2.0703375339508057,-0.05431250110268593
1749987626479739400,9.885739501953125,-0.40039998292922974,-2.2428998947143555,-0.013887500390410423
1749987626489752800,9.8957529296875,-0.1979999989271164,-2.24399995803833,0.08098749816417694
1749987626499766000,9.90576611328125,-0.02447500079870224,-2.0842249393463135,0.2172500044107437
1749987626509779200,9.915779296875,0.11728750169277191,-1.8605124950408936,0.3568125069141388
1749987626519792400,9.92579248046875,0.24076250195503235,-1.646287441253662,0.48358750343322754
1749987626529805800,9.935805908203125,0.38885000348091125,-1.4642374515533447,0.5975750088691711
1749987626539819000,9.945819091796874,0.5710374712944031,-1.3107874393463135,0.7093625068664551
1749987626549832400,9.95583251953125,0.7830625176429749,-1.1754875183105469,0.8276125192642212
1749987626559845600,9.965845703125,1.0110374689102173,-1.0529749393463135,0.9597499966621399
1749987626569858800,9.97585888671875,1.2273249626159668,-0.9517750144004822,1.123787522315979
1749987626579872000,9.9858720703125,1.4360499382019043,-0.9091500043869019,1.3272874355316162
1749987626589885400,9.995885498046874,1.6416125297546387,-0.9198749661445618,1.5850999355316162
1749987626599898600,10.005898681640625,1.8397499322891235,-0.8996624946594238,1.8343875408172607
1749987626609912000,10.015912109375,2.0272998809814453,-0.612012505531311,1.8449749946594238
1749987626619925200,10.02592529296875,2.146512508392334,0.07081250101327896,0.7232499718666077
1749987626629938400,10.0359384765625,2.0037875175476074,0.11027500033378601,-0.8650124669075012
1749987626639952000,10.045951904296874,1.7066500186920166,-0.6609625220298767,-1.5830374956130981
1749987626649965000,10.055965087890625,1.3934249877929688,-1.5483875274658203,-1.4210624694824219
1749987626659978200,10.065978271484376,1.0621875524520874,-2.5049750804901123,-0.6477624773979187
1749987626669991400,10.075991455078125,0.6403374671936035,-3.5351250171661377,0.22893749177455902
1749987626680004900,10.0860048828125,0.1545500010251999,-3.960137367248535,0.9448999762535095
1749987626690018300,10.096018310546874,-0.15867500007152557,-3.5670249462127686,1.3347125053405762
1749987626700031500,10.106031494140625,-0.2576749920845032,-2.7616875171661377,1.390125036239624
1749987626710044700,10.116044677734376,-0.2513499855995178,-1.8062000274658203,1.214400053024292
1749987626720057900,10.126057861328125,-0.21931250393390656,-0.9167125225067139,0.9117624759674072
1749987626730071300,10.1360712890625,-0.16609999537467957,-0.2806375026702881,0.5560500025749207
1749987626740084500,10.14608447265625,-0.07452499866485596,0.21683749556541443,0.21188749372959137
1749987626750097700,10.15609765625,-0.05637500062584877,0.7590000033378601,-0.08951249718666077
1749987626760110800,10.16611083984375,-0.1714625060558319,1.3789875507354736,-0.29411250352859497
1749987626770124300,10.176124267578125,-0.4558124840259552,2.42398738861084,-0.09487500041723251
1749987626780137700,10.1861376953125,-0.7423624992370605,3.823737382888794,0.7317749857902527
1749987626790151000,10.19615087890625,-0.635937511920929,4.355312347412109,1.214400053024292
1749987626800164000,10.2061640625,-0.4100250005722046,3.726799964904785,1.1653125286102295
1749987626810177300,10.21617724609375,-0.23966249823570251,2.066075086593628,0.6391000151634216
1749987626820190700,10.226190673828125,-0.1522125005722046,0.02928750030696392,-0.09693749994039536
1749987626830204000,10.236203857421875,-0.07768750190734863,-1.4333000183105469,-0.7148625254631042
1749987626840217000,10.246217041015624,0.014987500384449959,-2.26847505569458,-1.1697125434875488
1749987626850230300,10.256230224609375,0.12155000120401382,-2.69884991645813,-1.4594249725341797
1749987626860243700,10.26624365234375,0.20886249840259552,-2.893825054168701,-1.6054500341415405
1749987626870257200,10.276257080078125,0.28022500872612,-2.927924871444702,-1.647937536239624
1749987626880270300,10.286270263671875,0.3302749991416931,-2.911837577819824,-1.6341874599456787
1749987626890283500,10.296283447265624,0.32491248846054077,-2.9385125637054443,-1.5904624462127686
1749987626900296700,10.306296630859375,0.26001250743865967,-2.99818754196167,-1.51277494430542
1749987626910310000,10.316309814453126,0.15138749778270721,-3.042875051498413,-1.3774750232696533
1749987626920323300,10.3263232421875,-0.0031624999828636646,-3.049337387084961,-1.1845624446868896
1749987626930336800,10.336336669921875,-0.18424999713897705,-2.993925094604492,-0.9437999725341797
1749987626940350000,10.346349853515624,-0.35144999623298645,-2.812837600708008,-0.6572499871253967
1749987626950363100,10.356363037109375,-0.43353748321533203,-2.519824981689453,-0.35048750042915344
1749987626960376300,10.366376220703126,-0.3951750099658966,-2.1183249950408936,-0.04152499884366989
1749987626970389800,10.3763896484375,-0.3003000020980835,-1.5973374843597412,0.267300009727478
1749987626980403000,10.38640283203125,-0.22893749177455902,-1.0881749391555786,0.5358374714851379
1749987626990416100,10.396416015625,-0.21504999697208405,-0.6481750011444092,0.7349374890327454
1749987627000429600,10.4064296875,-0.21078750491142273,-0.18479999899864197,0.893750011920929
1749987627010442800,10.41644287109375,-0.1979999989271164,0.2934249937534332,1.0023750066757202
1749987627020456000,10.4264560546875,-0.17256249487400055,0.6802124977111816,1.0088374614715576
1749987627030469400,10.436469482421876,-0.15125000476837158,0.935824990272522,0.9256500005722046
1749987627040482600,10.446482666015624,-0.1256749927997589,1.127637505531311,0.8064374923706055
1749987627050495700,10.456495849609375,-0.0873124971985817,1.2607375383377075,0.6721000075340271
1749987627060509200,10.46650927734375,-0.03506249934434891,1.342824935913086,0.5293750166893005
1749987627070522400,10.4765224609375,0.0032999999821186066,1.3886125087738037,0.39627498388290405
1749987627080535800,10.486535888671876,0.03629999980330467,1.394937515258789,0.3004375100135803
1749987627090549000,10.496549072265625,0.08744999766349792,1.360837459564209,0.24076250195503235
1749987627100562200,10.506562255859375,0.17159999907016754,1.3054250478744507,0.22261250019073486
1749987627120588800,10.5265888671875,0.35694998502731323,1.1169124841690063,0.304562509059906
1749987627130602000,10.53660205078125,0.4251500070095062,0.9858750104904175,0.39311251044273376
1749987627140615200,10.546615234375,0.47093749046325684,0.8133124709129333,0.5112249851226807
1749987627150628600,10.556628662109375,0.5113624930381775,0.6077499985694885,0.6487249732017517
1749987627160641800,10.566641845703124,0.5561875104904175,0.3786749839782715,0.7999749779701233
1749987627170655200,10.5766552734375,0.6051374673843384,0.13048750162124634,0.9554874897003174
1749987627180668400,10.58666845703125,0.6637125015258789,-0.14217500388622284,1.1184250116348267
1749987627190681600,10.596681640625,0.7372750043869019,-0.4692874848842621,1.3198624849319458
1749987627200694800,10.60669482421875,0.8703749775886536,-1.0807499885559082,1.7511999607086182
1749987627210708000,10.6167080078125,0.9886249899864197,-1.9137250185012817,2.385075092315674
1749987627220721400,10.626721435546875,0.9194625020027161,-2.5763375759124756,2.8708624839782715
1749987627230734600,10.636734619140626,0.7233874797821045,-2.9992873668670654,3.1008999347686768
1749987627240748000,10.646748046875,0.49431249499320984,-3.203749895095825,3.103100061416626
1749987627250761200,10.65676123046875,0.28022500872612,-2.863987445831299,3.0562124252319336
1749987627260774400,10.6667744140625,0.11824999749660492,2.794687509536743,2.083674907684326
1749987627270787800,10.676787841796875,-0.24488750100135803,6.253637313842773,0.1629374921321869
1749987627280801000,10.686801025390626,-0.7647749781608582,4.868737697601318,-0.781962513923645
1749987627290814200,10.696814208984375,-1.1130625009536743,2.6584250926971436,-1.291124939918518
1749987627300827600,10.70682763671875,-1.0757999420166016,0.9411875009536743,-1.630887508392334
1749987627310840800,10.7168408203125,-0.791450023651123,-0.10807500034570694,-1.880174994468689
1749987627320854300,10.726854248046875,-0.3951750099658966,-0.7430499792098999,-2.0112125873565674
1749987627330867500,10.736867431640626,0.018149999901652336,-1.185112476348877,-1.98989999294281
1749987627340880600,10.746880615234375,0.30896249413490295,-1.4961374998092651,-1.8471750020980835
1749987627350894000,10.75689404296875,0.38788750767707825,-1.669800043106079,-1.6629250049591064
1749987627360907300,10.7669072265625,0.3526875078678131,-1.7155874967575073,-1.5009499788284302
1749987627370920400,10.77692041015625,0.29411250352859497,-1.699637532234192,-1.390262484550476
1749987627380934000,10.786933837890626,0.256850004196167,-1.6814874410629272,-1.3092750310897827
1749987627390947000,10.796947021484375,0.2642749845981598,-1.6548124551773071,-1.2293875217437744
1749987627400960500,10.80696044921875,0.30153748393058777,-1.6069624423980713,-1.1537624597549438
1749987627410974000,10.816973876953124,0.3398999869823456,-1.544124960899353,-1.0866625308990479
1749987627420987100,10.826987060546875,0.3409999907016754,-1.47798752784729,-1.0355124473571777
1749987627431000300,10.837000244140626,0.26633748412132263,-1.4247750043869019,-0.993987500667572
1749987627441013500,10.847013427734375,0.09281250089406967,-1.3704625368118286,-0.9513624906539917
1749987627451027000,10.85702685546875,-0.18535000085830688,-1.3139499425888062,-0.9013124704360962
1749987627461040000,10.8670400390625,-0.553849995136261,-1.2564749717712402,-0.8298124670982361
1749987627471053300,10.87705322265625,-1.0109000205993652,-1.1233749389648438,-0.7115625143051147
1749987627481066800,10.887066650390626,-1.529687523841858,-0.6450124979019165,-0.46447500586509705
1749987627491080000,10.897079833984375,-2.0186374187469482,1.5995374917984009,0.5187875032424927
1749987627501093400,10.90709326171875,-2.488337516784668,4.30210018157959,1.4040124416351318
1749987627511106600,10.9171064453125,-2.787674903869629,5.6453375816345215,1.4998500347137451
1749987627521119700,10.92711962890625,-2.838824987411499,6.167425155639648,1.171774983406067
1749987627531133000,10.9371328125,-2.782449960708618,6.408050060272217,0.699874997138977
1749987627541146400,10.947146484375,-2.7962000370025635,6.7010626792907715,0.7402999997138977
1749987627551159800,10.957159912109375,-2.884612560272217,6.106649875640869,1.4136375188827515
1749987627561173000,10.967173095703124,-2.5693249702453613,5.062612533569336,1.47427499294281
1749987627571186200,10.977186279296875,-1.9376499652862549,3.977187395095825,0.8755999803543091
1749987627581199600,10.98719970703125,-1.290024995803833,2.5487000942230225,0.14698749780654907
1749987627591212800,10.997212890625,-0.6806250214576721,-0.016499999910593033,-0.3484250009059906
1749987627601226000,11.00722607421875,-0.4250124990940094,-0.1699499934911728,-0.4772624969482422
1749987627611239400,11.017239501953124,-0.20762500166893005,-0.01759999990463257,-0.48262500762939453
1749987627621252600,11.027252685546875,-0.02969999983906746,0.8229374885559082,-0.08524999767541885
1749987627631265800,11.037265869140626,-0.09583749622106552,0.9380249977111816,0.0085249999538064
1749987627641279200,11.047279296875,-0.2971374988555908,0.9475125074386597,0.1746249943971634
1749987627651292400,11.05729248046875,-0.5985375046730042,0.9976999759674072,0.5858874917030334
1749987627661305600,11.0673056640625,-0.8542875051498413,0.71527498960495,0.802174985408783
1749987627671318800,11.07731884765625,-0.9234499931335449,0.3436124920845032,0.7445625066757202
1749987627681332500,11.08733251953125,-0.8904500007629395,-0.08676250278949738,0.4867500066757202
1749987627691345700,11.097345703125,-0.7882875204086304,-0.5768125057220459,0.19497500360012054
1749987627701358800,11.10735888671875,-0.5868499875068665,-1.0561374425888062,-0.02241249941289425
1749987627711372000,11.1173720703125,-0.33660000562667847,-1.462037444114685,-0.15028749406337738
1749987627721385500,11.127385498046875,-0.08195000141859055,-1.7422624826431274,-0.2162874937057495
1749987627731398700,11.137398681640626,0.12361250072717667,-1.836037516593933,-0.2578125
1749987627741411800,11.147411865234375,0.2887499928474426,-1.8167874813079834,-0.2685374915599823
1749987627751425300,11.15742529296875,0.44852501153945923,-1.802899956703186,-0.26001250743865967
1749987627761438500,11.1674384765625,0.6147624850273132,-1.793412446975708,-0.23333749175071716
1749987627771452000,11.177451904296875,0.7884249687194824,-1.7602750062942505,-0.18012499809265137
1749987627781465000,11.187465087890626,0.957687497138977,-1.7507874965667725,-0.10119999945163727
1749987627791478300,11.197478271484375,1.1175999641418457,-1.7517499923706055,0.007424999959766865
1749987627801491500,11.207491455078125,1.2751749753952026,-1.7571125030517578,0.1214125007390976
1749987627811505000,11.2175048828125,1.4403125047683716,-1.7507874965667725,0.23223750293254852
1749987627821518300,11.227518310546875,1.6032500267028809,-1.73580002784729,0.3227125108242035
1749987627831531500,11.237531494140624,1.7450125217437744,-1.73580002784729,0.4185499846935272
1749987627841544700,11.247544677734375,1.8429124355316162,-1.7826875448226929,0.5784624814987183
1749987627851558000,11.257557861328126,1.9101499319076538,-1.8423625230789185,0.848924994468689
1749987627861571000,11.267571044921874,2.008049964904785,-1.5153875350952148,1.0109000205993652
1749987627871584500,11.27758447265625,2.104024887084961,-0.7567999958992004,0.6348375082015991
1749987627881598000,11.287597900390624,2.065662384033203,-0.369049996137619,-0.10862500220537186
1749987627891611100,11.297611083984375,1.9271999597549438,-0.5799750089645386,-0.654087483882904
1749987627901624300,11.307624267578126,1.8429124355316162,-1.2894749641418457,-0.7009750008583069
1749987627911637500,11.317637451171874,1.8504749536514282,-2.097012519836426,-0.5400999784469604
1749987627921650700,11.327650634765625,1.7087124586105347,-2.6147000789642334,-0.49004998803138733
1749987627931664400,11.337664306640624,1.3572624921798706,-2.9044125080108643,-0.5262125134468079
1749987627941677300,11.34767724609375,0.9311500191688538,-3.3433125019073486,-0.3515875041484833
1749987627951690800,11.357690673828126,0.6093999743461609,-3.4476749897003174,0.25561249256134033
1749987627961704000,11.367703857421875,0.4740999937057495,-2.041599988937378,1.439074993133545
1749987627971717000,11.377717041015625,0.11618749797344208,0.09102500230073929,2.256237506866455
1749987627981730600,11.38773046875,-0.3546124994754791,1.3470875024795532,2.0356874465942383
1749987627991743700,11.39774365234375,-0.5677375197410583,1.8221499919891357,0.9842249751091003
1749987628001757200,11.407757080078126,-0.5720000267028809,2.185425043106079,-0.16087499260902405
1749987628011770400,11.417770263671875,-0.7360374927520752,2.5614874362945557,-0.6392375230789185
1749987628021783600,11.427783447265625,-1.0001749992370605,2.443237543106079,-0.4357374906539917
1749987628031797000,11.437796875,-1.0683749914169312,1.561174988746643,-0.14066250622272491
1749987628041810200,11.44781005859375,-0.8457624912261963,0.2572624981403351,-0.30896249413490295
1749987628051823400,11.4578232421875,-0.46543750166893005,-0.8942999839782715,-0.8212875127792358
1749987628061836800,11.4678369140625,-0.15757499635219574,-1.536562442779541,-1.133412480354309
1749987628071850200,11.477850341796875,0.08002500236034393,-1.7485874891281128,-0.5667750239372253
1749987628081863400,11.487863525390624,0.2578125,-1.6794250011444092,0.6231499910354614
1749987628091876600,11.497876708984375,0.39311251044273376,-1.4642374515533447,1.2452000379562378
1749987628101889800,11.507889892578126,0.41442498564720154,-0.9869750142097473,1.4370124340057373
1749987628111903200,11.5179033203125,0.2994749844074249,-0.11343749612569809,1.582900047302246
1749987628121916700,11.527916748046875,-0.10326249897480011,1.3182125091552734,1.4423749446868896
1749987628131929900,11.537929931640624,-0.6496874690055847,2.219525098800659,0.6848874688148499
1749987628141943000,11.547943115234375,-0.8894875049591064,1.669800043106079,-0.03629999980330467
1749987628151956500,11.55795654296875,-0.757349967956543,0.4010874927043915,-0.23539999127388
1749987628161969700,11.5679697265625,-0.4281750023365021,-0.5714499950408936,-0.3185875117778778
1749987628171982800,11.57798291015625,-0.07768750190734863,-0.8516749739646912,-0.507099986076355
1749987628181996300,11.587996337890624,0.1812250018119812,-0.7493749856948853,-0.6529874801635742
1749987628192009500,11.598009521484375,0.3324750065803528,-0.6151750087738037,-0.6700375080108643
1749987628202022700,11.608022705078126,0.43683749437332153,-0.4021874964237213,-0.5582500100135803
1749987628212036000,11.6180361328125,0.5326749682426453,-0.10381250083446503,-0.3834874927997589
1749987628222049300,11.62804931640625,0.5923500061035156,0.15289999544620514,-0.26743748784065247
1749987628232062700,11.638062744140624,0.608299970626831,0.2774749994277954,-0.2961750030517578
1749987628242076200,11.648076171875,0.6125624775886536,0.33934998512268066,-0.3792249858379364
1749987628252089300,11.65808935546875,0.5945500135421753,0.43834999203681946,-0.41868749260902405
1749987628262102500,11.6681025390625,0.4965125024318695,0.5640249848365784,-0.3984749913215637
1749987628272115700,11.67811572265625,0.30896249413490295,0.6268625259399414,-0.3643749952316284
1749987628282129000,11.68812890625,0.1023000031709671,0.694100022315979,-0.3515875041484833
1749987628292142300,11.698142333984375,-0.06173750013113022,0.8016250133514404,-0.3067624866962433
1749987628302155800,11.70815576171875,-0.15867500007152557,0.9710249900817871,-0.17586250603199005
1749987628312169000,11.7181689453125,-0.21834999322891235,1.2820500135421753,0.02983750030398369
1749987628322182100,11.72818212890625,-0.3162499964237213,1.7209500074386597,0.16183750331401825
1749987628332195300,11.7381953125,-0.5186499953269958,2.143899917602539,0.0648999959230423
1749987628342208800,11.748208740234375,-0.840399980545044,2.4623498916625977,-0.234437495470047
1749987628352222200,11.75822216796875,-1.2772375345230103,2.3355751037597656,-0.5795624852180481
1749987628362235100,11.768235107421875,-1.8088124990463257,1.7496874332427979,-0.8223875164985657
1749987628372248600,11.77824853515625,-2.3456125259399414,1.1350624561309814,-0.9343125224113464
1749987628382261800,11.78826171875,-2.69073748588562,0.8090500235557556,-0.9662125110626221
1749987628392275000,11.79827490234375,-2.780250072479248,0.7569375038146973,-0.9608500003814697
1749987628402288400,11.808288330078126,-2.7376248836517334,0.7612000107765198,-0.9343125224113464
1749987628412301800,11.8183017578125,-2.6673624515533447,0.5491750240325928,-0.9310125112533569
1749987628422315000,11.82831494140625,-2.577850103378296,0.2083124965429306,-1.0620499849319458
1749987628432328200,11.838328125,-2.4160125255584717,0.060224998742341995,-1.1270874738693237
1749987628442341600,11.848341552734375,-2.1315250396728516,0.2083124965429306,-1.0440374612808228
1749987628452354800,11.858354736328126,-1.8332874774932861,0.6364874839782715,-0.8095999956130981
1749987628462368000,11.868367919921875,-1.6073750257492065,1.1435874700546265,-0.35791251063346863
1749987628472381200,11.878381103515625,-1.400712490081787,1.4440250396728516,0.340862512588501
1749987628482395000,11.888394775390625,-1.0779999494552612,1.479087471961975,1.1217249631881714
1749987628492408000,11.898407958984375,-0.5816249847412109,1.3991999626159668,1.7278250455856323
1749987628502421200,11.908421142578124,-0.047849997878074646,1.3917750120162964,2.039949893951416
1749987628512434700,11.9184345703125,0.36547499895095825,1.5483875274658203,2.085737466812134
1749987628522448000,11.92844775390625,0.5945500135421753,1.817887544631958,1.9003875255584717
1749987628532461300,11.93846142578125,0.6509249806404114,1.9296749830245972,1.529687523841858
1749987628542474500,11.948474609375,0.5902875065803528,1.6431249380111694,1.0769000053405762
1749987628552487700,11.95848779296875,0.5337749719619751,0.9838125109672546,0.6465250253677368
1749987628562501000,11.968501220703125,0.5795624852180481,0.11769999563694,0.2993375062942505
1749987628572514300,11.978514404296876,0.6722375154495239,-0.7132124900817871,0.09267500042915344
1749987628582527700,11.98852783203125,0.7382375001907349,-1.4312374591827393,0.009487500414252281
1749987628592541000,11.998541015625,0.7915874719619751,-2.01066255569458,-0.007424999959766865
1749987628602554000,12.00855419921875,0.8683124780654907,-2.3963499069213867,0.0009624999947845936
1749987628612567600,12.018567626953125,0.9747374653816223,-2.5911874771118164,0.0170499999076128
1749987628622580700,12.028580810546876,1.1037124395370483,-2.6445374488830566,0.02227500081062317
1749987628632594000,12.038593994140625,1.2442375421524048,-2.623224973678589,-0.010724999941885471
1749987628642607400,12.048607421875,1.390262484550476,-2.51886248588562,-0.10339999943971634
1749987628652620500,12.05862060546875,1.5266624689102173,-2.316462516784668,-0.22591249644756317
1749987628662634000,12.068634033203125,1.6438125371932983,-2.1192874908447266,-0.33563750982284546
1749987628672647200,12.078647216796876,1.7151750326156616,-1.9904500246047974,-0.3984749913215637
1749987628682660400,12.088660400390625,1.7492749691009521,-1.9702374935150146,-0.3942124843597412
1749987628692673500,12.098673583984375,1.732224941253662,-1.9958125352859497,-0.3110249936580658
1749987628702687000,12.10868701171875,1.6693874597549438,-1.9606125354766846,-0.1588124930858612
1749987628712700400,12.118700439453125,1.5926624536514282,-1.8338375091552734,0.01484999991953373
1749987628722713600,12.128713623046876,1.5542999505996704,-1.633637547492981,0.18314999341964722
1749987628732726800,12.138726806640625,1.528725028038025,-1.3886125087738037,0.3760625123977661
1749987628742740200,12.148740234375,1.4892624616622925,-0.898562490940094,0.5581125020980835
1749987628752753400,12.15875341796875,1.4423749446868896,-0.39682498574256897,0.6209499835968018
1749987628762766800,12.168766845703125,1.4073125123977661,-0.32862499356269836,0.6209499835968018
1749987628772780000,12.178780029296876,1.3700499534606934,-0.5938624739646912,0.5262125134468079
1749987628782793200,12.188793212890625,1.2933249473571777,-0.9944000244140625,0.38554999232292175
1749987628792806700,12.198806640625,1.1356124877929688,-1.3374625444412231,0.37812501192092896
1749987628802820000,12.208820068359374,0.8725749850273132,-1.3096874952316284,0.6615124940872192
1749987628812833300,12.218833251953125,0.5817624926567078,-0.6982250213623047,1.0876250267028809
1749987628822846500,12.228846435546876,0.2535499930381775,-0.050599999725818634,1.271875023841858
1749987628832860000,12.23885986328125,-0.02447500079870224,0.20184999704360962,1.1610499620437622
1749987628842873000,12.248873046875,-0.1671999990940094,0.23388749361038208,0.8617125153541565
1749987628852886500,12.258886474609374,-0.22783750295639038,0.38403749465942383,0.5187875032424927
1749987628862899700,12.268899658203125,-0.32477501034736633,0.4298250079154968,0.33233749866485596
1749987628872913000,12.278912841796876,-0.5006374716758728,-0.26358750462532043,0.13199999928474426
1749987628882926300,12.28892626953125,-0.6391000151634216,-1.386412501335144,-0.45058751106262207
1749987628892939500,12.298939453125,-0.636900007724762,-2.3665125370025635,-1.1387749910354614
1749987628902953000,12.308952880859374,-0.39943748712539673,-2.850100040435791,-1.4583250284194946
1749987628912966100,12.318966064453125,-0.045787498354911804,-2.609337568283081,-1.382699966430664
1749987628922979600,12.3289794921875,0.1480875015258789,-1.8732999563217163,-1.1825000047683716
1749987628932992800,12.33899267578125,0.15565000474452972,-1.1882749795913696,-1.0610874891281128
1749987628943006200,12.349006103515626,0.16940000653266907,-0.6439124941825867,-0.9267500042915344
1749987628953019400,12.359019287109374,0.2153249979019165,-0.07933750003576279,-0.607200026512146
1749987628963032600,12.369032470703125,0.16843749582767487,0.3564000129699707,-0.28132501244544983
1749987628973046000,12.3790458984375,0.1023000031709671,0.5406500101089478,-0.02241249941289425
1749987628983059200,12.38905908203125,0.18548749387264252,0.5673249959945679,0.3653374910354614
1749987628993072600,12.39907275390625,0.2994749844074249,0.6247999668121338,0.8468624949455261
1749987629003085800,12.4090859375,0.15771250426769257,0.7260000109672546,1.1951500177383423
1749987629013099300,12.419099365234375,-0.13626250624656677,0.8410875201225281,1.448699951171875
1749987629023112400,12.429112548828124,-0.32477501034736633,0.8197749853134155,1.7118749618530273
1749987629033125600,12.439125732421875,-0.3546124994754791,0.6353874802589417,1.9291249513626099
1749987629043139000,12.44913916015625,-0.2694999873638153,0.368087500333786,1.906849980354309
1749987629053152500,12.459152587890625,-0.0873124971985817,0.17311249673366547,1.5754749774932861
1749987629063165700,12.469165771484375,0.19181250035762787,0.17104999721050262,0.8809624910354614
1749987629073179000,12.479178955078124,0.5007749795913696,0.16568750143051147,-0.032999999821186066
1749987629083192300,12.4891923828125,0.7202249765396118,-0.02928750030696392,-0.7840250134468079
1749987629093205500,12.49920556640625,0.8351749777793884,-0.24227499961853027,-1.216599941253662
1749987629103218700,12.50921875,0.903374969959259,-0.34347498416900635,-1.355062484741211
1749987629113232100,12.519232177734375,0.9534249901771545,-0.32862499356269836,-1.2922250032424927
1749987629123245600,12.52924560546875,0.9609875082969666,-0.26042500138282776,-1.1686124801635742
1749987629133258800,12.5392587890625,0.9002124667167664,-0.20295000076293945,-1.0674124956130981
1749987629143272200,12.549272216796876,0.7799000144004822,-0.1293874979019165,-0.9587875008583069
1749987629153285400,12.559285400390625,0.634975016117096,-0.009074999950826168,-0.8320124745368958
1749987629163298600,12.569298583984375,0.515625,0.10284999758005142,-0.7052375078201294
1749987629173312000,12.57931201171875,0.4240500032901764,0.26372501254081726,-0.5358374714851379
1749987629183325200,12.5893251953125,0.3409999907016754,0.5554999709129333,-0.29081249237060547
1749987629193338600,12.599338623046876,0.21312500536441803,0.8846749663352966,-0.0906125009059906
1749987629203351800,12.609351806640625,-0.019112499430775642,1.0210750102996826,-0.09171249717473984
1749987629213365200,12.619365234375,-0.3152875006198883,0.9624999761581421,-0.2652375102043152
1749987629223378400,12.62937841796875,-0.5262125134468079,0.8496124744415283,-0.5102624893188477
1749987629233391900,12.639391845703125,-0.6465250253677368,0.8399875164031982,-0.7478625178337097
1749987629243405300,12.6494052734375,-0.7562500238418579,0.9880750179290771,-0.9022749662399292
1749987629253418500,12.65941845703125,-1.0630124807357788,1.154175043106079,-0.9044749736785889
1749987629263431700,12.669431640625,-1.5509999990463257,1.2149499654769897,-0.7532249689102173
1749987629273445000,12.679445068359374,-2.1144750118255615,1.2809499502182007,-0.5411999821662903
1749987629283458300,12.689458251953125,-2.7035250663757324,1.221274971961975,-0.4538874924182892
1749987629293471700,12.6994716796875,-3.2467875480651855,0.9411875009536743,-0.6338750123977661
1749987629303485000,12.70948486328125,-3.6313750743865967,0.9571374654769897,-0.7552874684333801
1749987629313498400,12.719498291015626,-3.66863751411438,1.2661000490188599,-0.7532249689102173
1749987629323511800,12.72951171875,-3.295875072479248,1.5899125337600708,-0.74566251039505
1749987629333525000,12.73952490234375,-2.7279999256134033,1.98618745803833,-0.5508249998092651
1749987629343538400,12.749538330078124,-2.096324920654297,2.3227875232696533,-0.113987497985363
1749987629353551600,12.759551513671875,-1.4720749855041504,2.4144999980926514,0.49527499079704285
1749987629363564800,12.769564697265626,-0.7935125231742859,2.3185250759124756,1.1600874662399292
1749987629373578200,12.779578125,-0.08621250092983246,1.967074990272522,1.7693499326705933
1749987629383591700,12.789591796875,0.4848249852657318,1.5569125413894653,2.215674877166748
1749987629393604900,12.79960498046875,0.7808625102043152,1.451449990272522,2.4404873847961426
1749987629403618300,12.809618408203125,0.8064374923706055,1.8210500478744507,2.388237476348877
1749987629413631500,12.819631591796876,0.6434999704360962,2.340937376022339,2.0208375453948975
1749987629423645000,12.82964501953125,0.3345375061035156,2.2631125450134277,1.4796375036239624
1749987629433658400,12.839658447265625,-0.007424999959766865,1.3641375303268433,0.8872874975204468
