time,seconds_elapsed,z,y,x
1748090015467966000,0.118966064453125,-0.021380282938480377,0.16065755486488342,-0.13255776464939117
1748090015483774200,0.134774169921875,-0.021380282938480377,0.16065755486488342,-0.13255776464939117
1748090015499551700,0.1505517578125,-0.021380282938480377,0.16065755486488342,-0.13255776464939117
1748090015523233300,0.1742333984375,-0.021380282938480377,0.16065755486488342,-0.13255776464939117
1748090015539072000,0.190072021484375,-0.021380282938480377,0.16065755486488342,-0.13255776464939117
1748090015554880000,0.2058798828125,-0.021380282938480377,0.16065755486488342,-0.13255776464939117
1748090015570688300,0.221688232421875,-0.021380282938480377,0.16065755486488342,-0.13255776464939117
1748090015586465800,0.2374658203125,0.6743952035903931,0.21563543379306793,-1.36650550365448
1748090015602335000,0.2533349609375,0.6914994716644287,0.35735616087913513,-1.217454433441162
1748090015618082000,0.26908203125,0.3805690407752991,0.7336491346359253,-1.0036516189575195
1748090015633859600,0.284859619140625,0.027488935738801956,0.8112290501594543,-0.8136724829673767
1748090015649698300,0.3006982421875,-0.17043140530586243,0.694553792476654,-0.6609562039375305
1748090015665475800,0.316475830078125,-0.2431243658065796,0.41599923372268677,-0.5125159621238708
1748090015681283800,0.332283935546875,-0.25473082065582275,0.2168571650981903,-0.475253164768219
1748090015705057000,0.35605712890625,-0.3543018400669098,0.11667526513338089,-0.3988949954509735
1748090015720865300,0.371865234375,-0.3274237811565399,0.1459967941045761,-0.26572638750076294
1748090015736673300,0.38767333984375,-0.24862214922904968,0.09285151958465576,-0.07513642311096191
1748090015752512000,0.403511962890625,-0.23579397797584534,0.019547687843441963,0.16065755486488342
1748090015768381200,0.419381103515625,-0.23273965716362,-0.003054326167330146,0.35063666105270386
1748090015784128300,0.435128173828125,-0.24007004499435425,0.05253441259264946,0.4300491213798523
1748090015799905800,0.45090576171875,-0.1618792861700058,0.2376265823841095,0.35613444447517395
1748090015815775000,0.46677490234375,0.005497787147760391,0.40744712948799133,0.1563815027475357
1748090015831583000,0.4825830078125,0.13988813757896423,0.5186246037483215,0.01466076634824276
1748090015847482600,0.498482666015625,0.10934487730264664,0.5277875661849976,-0.24129177629947662
1748090015863260200,0.51426025390625,0.0757472887635231,-0.11423180252313614,-0.4453207552433014
1748090015879038000,0.530037841796875,0.02321287989616394,-0.5925393104553223,-0.3842342495918274
1748090015894846000,0.545845947265625,-0.2021963894367218,-0.4495968222618103,-0.4648684561252594
1748090015910684700,0.5616845703125,-0.18570303916931152,-1.2431107759475708,-0.5345070958137512
1748090015926523100,0.577523193359375,-0.17287486791610718,-0.192422553896904,-0.02382374368607998
1748090015942270200,0.593270263671875,-0.2822197377681732,0.29016098380088806,0.048258353024721146
1748090015958109000,0.60910888671875,-0.30604347586631775,0.29016098380088806,0.12400564551353455
1748090015981851600,0.6328515625,-0.32070425152778625,0.45142942667007446,0.5772676467895508
1748090015997629200,0.648629150390625,-0.2076941877603531,0.5864306092262268,0.901637077331543
1748090016013467600,0.664467529296875,-0.03726277872920036,0.675616979598999,0.9651671051979065
1748090016029245400,0.680245361328125,0.26939156651496887,0.6817256212234497,0.8998045325279236
1748090016045084000,0.696083984375,0.578489363193512,0.4538728892803192,0.7122688889503479
1748090016060861400,0.711861328125,0.6340781450271606,0.42577308416366577,0.5351179838180542
1748090016076730600,0.727730712890625,0.5412266254425049,0.7195992469787598,0.3683517575263977
1748090016092539000,0.743538818359375,0.3878994286060333,0.7935139536857605,0.21380282938480377
1748090016108347000,0.759346923828125,0.04886921867728233,1.037249207496643,0.11423180252313614
1748090016124124400,0.77512451171875,-0.19914206862449646,1.1197160482406616,0.13805554807186127
1748090016139902200,0.790902099609375,-0.2535090744495392,0.7452555894851685,0.16920967400074005
1748090016155771100,0.806771240234375,-0.16004669666290283,0.28466320037841797,0.22907446324825287
1748090016171549000,0.822548828125,-0.02932153269648552,-0.06963863968849182,0.25534167885780334
1748090016187357000,0.83835693359375,0.07513642311096191,-0.10201449692249298,0.19486601650714874
1748090016203226000,0.85422607421875,0.0555887371301651,0.08796459436416626,-0.029932396486401558
1748090016219034000,0.8700341796875,-0.04581489413976669,0.2834414839744568,-0.33475416898727417
1748090016234781200,0.88578125,-0.18387043476104736,0.24617868661880493,-0.5290092825889587
1748090016250589400,0.90158935546875,-0.294437050819397,0.051312681287527084,-0.4593706727027893
1748090016266336500,0.91733642578125,-0.29077184200286865,-0.11239920556545258,-0.19853121042251587
1748090016282205400,0.933205322265625,-0.1472185254096985,0.08307767659425735,0.07880161702632904
1748090016298013700,0.949013671875,-0.059864792972803116,-0.04153883829712868,0.03237585723400116
1748090016313852200,0.96485205078125,0.17592918872833252,0.021991148591041565,0.003054326167330146
1748090016329660400,0.980660400390625,0.18509216606616974,-0.13072516024112701,0.04886921867728233
1748090016345407500,0.996407470703125,0.06108652427792549,-0.22968533635139465,0.15760323405265808
1748090016361185000,1.01218505859375,-0.025656340643763542,-0.3078760802745819,0.21135938167572021
1748090016376932000,1.02793212890625,-0.015882495790719986,-0.3646865487098694,0.21502456068992615
1748090016392740000,1.043739990234375,0.015271631069481373,-0.4050036668777466,0.1771509200334549
1748090016408548400,1.05954833984375,0.05925392732024193,-0.3995058834552765,0.15454891324043274
1748090016424356400,1.0753564453125,0.11789698898792267,-0.27488934993743896,0.15943582355976105
1748090016448068600,1.099068603515625,0.1875356286764145,0.2480112910270691,-0.0006108652451075613
1748090016463937800,1.114937744140625,0.07819075137376785,0.4239404797554016,-0.07941248267889023
1748090016479807000,1.130806884765625,0.025045474991202354,0.34086281061172485,-0.00427605677396059
1748090016495584500,1.14658447265625,-0.028099801391363144,0.35735616087913513,0.19486601650714874
1748090016511453700,1.16245361328125,-0.018325956538319588,0.39767327904701233,0.3176499307155609
1748090016527261700,1.17826171875,0.025045474991202354,0.3903428912162781,0.39095374941825867
1748090016543039200,1.194039306640625,0.048258353024721146,0.22296582162380219,0.44715335965156555
1748090016558878000,1.2098779296875,0.0959058403968811,-0.08552113175392151,0.6218608021736145
1748090016574655500,1.225655517578125,0.059864792972803116,-0.20891591906547546,0.7128797173500061
1748090016590433000,1.24143310546875,0.03726277872920036,-0.4440990388393402,0.6059783101081848
1748090016606241300,1.2572412109375,0.08735372871160507,-0.6933320760726929,0.5387831330299377
1748090016622079700,1.273079833984375,0.1765400618314743,-0.8326093554496765,0.6487388610839844
1748090016637979400,1.2889794921875,0.30543261766433716,-0.8790351152420044,0.788627028465271
1748090016653757200,1.304757080078125,0.384845107793808,-0.9462302923202515,0.817337691783905
1748090016669565200,1.320565185546875,0.3903428912162781,-1.0109820365905762,0.6823364496231079
1748090016685373200,1.336373291015625,0.3090978264808655,-1.0543533563613892,0.4899139404296875
1748090016701151000,1.35215087890625,0.2632829248905182,-1.1508700847625732,0.3127630054950714
1748090016716989400,1.367989501953125,0.44776421785354614,-1.3371840715408325,0.32070425152778625
1748090016732858600,1.383858642578125,0.646295428276062,-2.1820106506347656,0.646906316280365
1748090016748636200,1.39963623046875,0.7727445363998413,-3.02317214012146,1.0879509449005127
1748090016764352800,1.415352783203125,0.7550294399261475,-3.4385604858398438,1.29381263256073
1748090016780191500,1.43119140625,0.617584764957428,-3.2143728733062744,1.0012081861495972
1748090016796030000,1.447030029296875,0.9553932547569275,-2.6780333518981934,0.6902777552604675
1748090016811838200,1.462838134765625,1.5234979391098022,-3.5491271018981934,0.7476990818977356
1748090016827646200,1.478646240234375,1.8203784227371216,-6.054896354675293,1.0903944969177246
1748090016843454200,1.4944541015625,2.563190460205078,-8.622363090515137,1.522887110710144
1748090016859293000,1.51029296875,3.156951665878296,-9.574702262878418,2.0256290435791016
1748090016875131600,1.526131591796875,2.3164010047912598,-7.053660869598389,2.328007459640503
1748090016890848300,1.54184814453125,3.5442402362823486,-6.379876613616943,1.4031574726104736
1748090016906686700,1.557686767578125,4.781853199005127,-4.927238941192627,1.615127682685852
1748090016922464300,1.57346435546875,5.354844570159912,-4.73970365524292,1.9737056493759155
1748090016938272500,1.5892724609375,5.5985798835754395,-5.45930290222168,2.3102922439575195
1748090016954172200,1.605172119140625,5.615073204040527,-5.960212230682373,2.47094988822937
1748090016969949700,1.62094970703125,5.987700939178467,-5.767179012298584,2.3744332790374756
1748090016985727200,1.636727294921875,6.4360761642456055,-5.082398891448975,2.308459758758545
1748090017001535500,1.652535400390625,6.637051105499268,-4.2668938636779785,2.406809091567993
1748090017017374000,1.6683740234375,6.507547378540039,-3.7836992740631104,2.495995283126831
1748090017033212700,1.684212646484375,5.697540283203125,-4.073249340057373,2.900999069213867
1748090017049020700,1.700020751953125,4.607756614685059,-4.179540157318115,2.9639182090759277
1748090017064798200,1.715798095703125,3.6725218296051025,-3.6859610080718994,2.439795732498169
1748090017080545300,1.731545166015625,2.66642689704895,-3.1887166500091553,1.3548991680145264
1748090017096384000,1.747384033203125,2.0323486328125,-2.8802297115325928,0.5491678714752197
1748090017112253200,1.763253173828125,1.4312572479248047,-2.4471261501312256,0.08491026610136032
1748090017128030700,1.77903076171875,1.1624765396118164,-2.0109684467315674,0.11728613078594208
1748090017143869400,1.794869384765625,1.1264355182647705,-1.5564846992492676,0.5283984541893005
1748090017159708000,1.8107080078125,1.0494664907455444,-1.036027431488037,0.8967501521110535
1748090017175516200,1.82651611328125,1.0128145217895508,-0.34025195240974426,1.0348057746887207
1748090017191446300,1.8424462890625,0.53328537940979,-0.4440990388393402,-1.570534586906433
1748090017207223800,1.858223876953125,-0.05375614017248154,-0.7312057018280029,-1.7513506412506104
1748090017222971000,1.873970947265625,0.04214970022439957,-1.1337659358978271,-0.45692721009254456
1748090017246713600,1.897713623046875,-0.014049900695681572,-0.1569923609495163,0.24495697021484375
1748090017262521600,1.913521484375,0.18631389737129211,0.37079519033432007,0.033597588539123535
1748090017278268700,1.9292685546875,0.375071257352829,0.6352998614311218,0.18448130786418915
1748090017294046500,1.94504638671875,0.5094616413116455,0.1722639948129654,0.23579397797584534
1748090017309885000,1.960885009765625,0.6670648455619812,-0.39156460762023926,0.16065755486488342
1748090017325662500,1.976662353515625,0.817948579788208,-0.9657779335975647,-0.016493361443281174
1748090017341501200,1.992501220703125,0.607200026512146,-1.0384708642959595,-0.0806342139840126
1748090017357370400,2.008370361328125,0.36651915311813354,-0.7428121566772461,0.005497787147760391
1748090017373117400,2.024117431640625,0.3170390725135803,-0.26083946228027344,0.1514945775270462
1748090017388956200,2.0399560546875,0.3084869384765625,0.009773843921720982,0.12278391420841217
1748090017404703200,2.055703125,0.25473082065582275,0.18387043476104736,0.04886921867728233
1748090017420511200,2.07151123046875,0.2877175211906433,0.32009339332580566,0.01710422709584236
1748090017444254000,2.09525390625,0.24495697021484375,0.09834930300712585,0.05192354694008827
1748090017460031500,2.111031494140625,0.13561208546161652,0.16493362188339233,0.05192354694008827
1748090017475870200,2.1268701171875,0.04092797264456749,0.11301007121801376,-0.054367005825042725
1748090017491739100,2.1427392578125,0.07635815441608429,0.04703662544488907,-0.11667526513338089
1748090017507608300,2.1586083984375,-0.015271631069481373,0.08674286305904388,-0.12400564551353455
1748090017523385900,2.1743857421875,-0.18936823308467865,-0.09468411654233932,-0.02321287989616394
1748090017539224600,2.190224609375,-0.25045475363731384,-0.13500121235847473,0.00427605677396059
1748090017555032600,2.206032470703125,-0.21807889640331268,-0.07757988572120667,-0.030543262138962746
1748090017570779600,2.221779541015625,-0.18631389737129211,-0.012828170321881771,-0.0659734457731247
1748090017586648800,2.23764892578125,-0.19364428520202637,-0.06719517707824707,-0.13316862285137177
1748090017602426600,2.253426513671875,-0.2626720666885376,-0.1618792861700058,-0.25473082065582275
1748090017618295600,2.269295654296875,-0.3793473243713379,-0.16065755486488342,-0.375071257352829
1748090017634103800,2.285103759765625,-0.5021312236785889,-0.14905111491680145,-0.44837507605552673
1748090017649942300,2.3009423828125,-0.637132465839386,-0.15393804013729095,-0.4593706727027893
1748090017665811500,2.3168115234375,-0.6963863968849182,-0.05803219974040985,-0.5601634383201599
1748090017681528000,2.332528076171875,-0.7257078886032104,-0.060475658625364304,-0.6572909951210022
1748090017697366800,2.34836669921875,-0.7556403279304504,-0.06230825558304787,-0.7666358947753906
1748090017713174800,2.3641748046875,-0.7476990818977356,-0.06963863968849182,-0.8222246170043945
1748090017729013500,2.380013427734375,-0.7220427393913269,-0.0708603709936142,-0.8741481900215149
1748090017744852000,2.39585205078125,-0.6798930168151855,-0.09346238523721695,-0.8655960559844971
1748090017760629500,2.41162939453125,-0.656069278717041,-0.056810468435287476,-0.8753699064254761
1748090017776468200,2.42746826171875,-0.7336491346359253,-0.08918632566928864,-0.9083566069602966
1748090017792307000,2.443306884765625,-0.921184778213501,-0.2675589919090271,-0.8344419002532959
1748090017808115000,2.459114990234375,-1.0085384845733643,-0.4660901725292206,-0.750142514705658
1748090017823953700,2.47495361328125,-1.0195341110229492,-0.6951646208763123,-0.7312057018280029
1748090017839761700,2.49076171875,-0.9669997096061707,-0.8216137290000916,-0.7110471725463867
1748090017855570000,2.50656982421875,-0.8387179970741272,-0.9370672702789307,-0.6933320760726929
1748090017871347500,2.522347412109375,-0.7330383062362671,-0.9370672702789307,-0.6921103000640869
1748090017887216600,2.538216552734375,-0.6530149579048157,-0.7757988572120667,-0.6792821288108826
1748090017903116300,2.5541162109375,-0.53328537940979,-0.6047565937042236,-0.6139195561408997
1748090017918893800,2.569893798828125,-0.4129449129104614,-0.504574716091156,-0.5479460954666138
1748090017934732300,2.585732177734375,-0.28038713335990906,-0.4098905920982361,-0.4740314185619354
1748090017950479400,2.601479248046875,-0.19058994948863983,-0.3646865487098694,-0.43127086758613586
1748090017966318000,2.617318115234375,-0.13255776464939117,-0.3219259977340698,-0.3530801236629486
1748090017982156800,2.63315673828125,-0.11178833991289139,-0.2321287989616394,-0.24984388053417206
1748090017997995300,2.648995361328125,-0.07941248267889023,-0.11728613078594208,-0.10812314599752426
1748090018013773000,2.66477294921875,-0.07024950534105301,-0.014049900695681572,0.009773843921720982
1748090018029611500,2.680611572265625,-0.08185594528913498,0.05803219974040985,0.1368338167667389
1748090018045389000,2.69638916015625,-0.05803219974040985,0.07147123664617538,0.23273965716362
1748090018061258200,2.71225830078125,-0.04948008432984352,0.01710422709584236,0.3536909818649292
1748090018077066500,2.72806640625,0.006108652334660292,0.025045474991202354,0.4996877610683441
1748090018092874500,2.74387451171875,0.04886921867728233,-0.003054326167330146,0.5009095072746277
1748090018108682500,2.7596826171875,0.09346238523721695,-0.05925392732024193,0.2736676335334778
1748090018124490800,2.77549072265625,0.10995574295520782,-0.07269296050071716,0.04948008432984352
1748090018140390400,2.791390380859375,0.12828169763088226,-0.01466076634824276,-0.04337143152952194
1748090018156107000,2.80710693359375,0.15821409225463867,0.10018189996480942,-0.09040805697441101
1748090018171945500,2.822945556640625,0.1417207419872284,0.09162978827953339,-0.06963863968849182
1748090018187753700,2.838753662109375,0.03787364438176155,-0.036651913076639175,-0.021380282938480377
1748090018203531300,2.85453125,-0.09285151958465576,-0.07452555745840073,0.04764748737215996
1748090018219370000,2.870369873046875,-0.1563815027475357,-0.12522737681865692,0.02932153269648552
1748090018235147500,2.8861474609375,-0.1869247704744339,-0.2382374405860901,0.01710422709584236
1748090018250925000,2.901925048828125,-0.19914206862449646,-0.252287358045578,0.01038470957428217
1748090018266733000,2.917733154296875,-0.21380282938480377,-0.21930062770843506,0.02076941914856434
1748090018282602200,2.933602294921875,-0.2028072625398636,-0.1875356286764145,0.036651913076639175
1748090018298441000,2.94944091796875,-0.1667662113904953,-0.16798794269561768,0.0555887371301651
1748090018314249000,2.9652490234375,-0.11850785464048386,-0.16554448008537292,0.07208210229873657
1748090018330057200,2.98105712890625,-0.07635815441608429,-0.1771509200334549,0.08002334833145142
1748090018345804300,2.99680419921875,-0.05253441259264946,-0.1765400618314743,0.08796459436416626
1748090018361642800,3.012642822265625,-0.04703662544488907,-0.1918116807937622,0.0757472887635231
1748090018377512000,3.028511962890625,-0.021380282938480377,-0.19303341209888458,0.04581489413976669
1748090018393259000,3.044259033203125,-0.010995574295520782,-0.1466076523065567,-0.0012217304902151227
1748090018409128200,3.060128173828125,-0.0006108652451075613,-0.14782938361167908,-0.056810468435287476
1748090018424967000,3.075966796875,0.0024434609804302454,-0.1618792861700058,-0.09651670604944229
1748090018440775000,3.09177490234375,-0.007941247895359993,-0.14416420459747314,-0.14966198801994324
1748090018456613600,3.107613525390625,-0.01710422709584236,-0.13744467496871948,-0.1918116807937622
1748090018472391200,3.12339111328125,-0.05497787147760391,-0.182648703455925,-0.24556782841682434
1748090018488229600,3.139229736328125,-0.12339477986097336,-0.33292156457901,-0.3066543638706207
1748090018504007400,3.15500732421875,-0.21013765037059784,-0.37262779474258423,-0.3176499307155609
1748090018519846000,3.170845947265625,-0.2822197377681732,-0.26572638750076294,-0.19425514340400696
1748090018535684600,3.1866845703125,-0.3023782968521118,-0.15577064454555511,-0.0708603709936142
1748090018551492600,3.20249267578125,-0.22846360504627228,-0.006108652334660292,0.006108652334660292
1748090018567270100,3.218270263671875,-0.20036379992961884,-0.04703662544488907,0.025045474991202354
1748090018583078400,3.234078369140625,-0.29138273000717163,-0.07513642311096191,0.08918632566928864
1748090018598947600,3.249947509765625,-0.3903428912162781,-0.033597588539123535,0.19547687470912933
1748090018614816500,3.26581640625,-0.43676865100860596,0.06475171446800232,0.34147366881370544
1748090018630624800,3.281624755859375,-0.4153883755207062,0.13439035415649414,0.43615779280662537
1748090018646432800,3.297432861328125,-0.32009339332580566,0.0757472887635231,0.5522221922874451
1748090018662179800,3.313179931640625,-0.25045475363731384,0.04581489413976669,0.6389650702476501
1748090018678018600,3.3290185546875,-0.15760323405265808,0.04459316283464432,0.6737843751907349
1748090018693887700,3.3448876953125,-0.0354301854968071,-0.14905111491680145,0.6438519954681396
1748090018709634800,3.360634765625,0.06169738993048668,-0.3127630054950714,0.6420193910598755
1748090018725442800,3.37644287109375,0.1722639948129654,-0.32559117674827576,0.6102544069290161
1748090018741281500,3.392281494140625,0.26083946228027344,-0.2718350291252136,0.5485569834709167
1748090018757028600,3.408028564453125,0.3738495409488678,-0.1618792861700058,0.4502076804637909
1748090018772897800,3.423897705078125,0.4434881806373596,-0.045204028487205505,0.3481931984424591
1748090018788675300,3.43967529296875,0.3885102868080139,0.08491026610136032,0.21868975460529327
1748090018804452900,3.455452880859375,0.3933972120285034,0.22907446324825287,0.09651670604944229
1748090018820200000,3.471199951171875,0.35552358627319336,0.36102136969566345,0
1748090018836069000,3.487069091796875,0.33536502718925476,0.4050036668777466,-0.08674286305904388
1748090018851938300,3.502938232421875,0.2926044464111328,0.3885102868080139,-0.1368338167667389
1748090018867746300,3.518746337890625,0.1563815027475357,0.3695734739303589,-0.1007927656173706
1748090018883523800,3.53452392578125,-0.01771509274840355,0.3139847218990326,-0.05925392732024193
1748090018899301400,3.55030126953125,-0.14782938361167908,0.3066543638706207,-0.039706241339445114
1748090018915109600,3.566109619140625,-0.28527405858039856,0.21624629199504852,-0.06230825558304787
1748090018930887200,3.58188720703125,-0.3530801236629486,-0.012217304669320583,-0.10201449692249298
1748090018946695400,3.5976953125,-0.33597588539123535,-0.18631389737129211,-0.11911872029304504
1748090018962534000,3.613533935546875,-0.2816088795661926,-0.24556782841682434,-0.14905111491680145
1748090018978281000,3.629281005859375,-0.2480112910270691,-0.19914206862449646,-0.1618792861700058
1748090018994150100,3.645150146484375,-0.26145032048225403,-0.09651670604944229,-0.1667662113904953
1748090019009988900,3.66098876953125,-0.28955012559890747,-0.05864306539297104,-0.20525072515010834
1748090019025827300,3.676827392578125,-0.2828305959701538,-0.14233160018920898,-0.2626720666885376
1748090019049570000,3.700570068359375,-0.24862214922904968,-0.34758231043815613,-0.2981022298336029
1748090019065317000,3.716317138671875,-0.22113321721553802,-0.3952298164367676,-0.33658674359321594
1748090019081125000,3.732125,-0.17592918872833252,-0.3488040566444397,-0.38117989897727966
1748090019096963800,3.7479638671875,-0.1667662113904953,-0.23640485107898712,-0.4294382631778717
1748090019112771800,3.763771728515625,-0.20341812074184418,-0.1362229436635971,-0.46792277693748474
1748090019128641000,3.77964111328125,-0.26572638750076294,-0.17776179313659668,-0.5021312236785889
1748090019144418800,3.795418701171875,-0.3274237811565399,-0.304210901260376,-0.5589417219161987
1748090019160257300,3.81125732421875,-0.33536502718925476,-0.3689626157283783,-0.6035348773002625
1748090019176096000,3.827095947265625,-0.32070425152778625,-0.4300491213798523,-0.6126978397369385
1748090019191965200,3.842965087890625,-0.32131510972976685,-0.4288274049758911,-0.5949827432632446
1748090019207773200,3.858773193359375,-0.3390302062034607,-0.4153883755207062,-0.598647952079773
1748090019223581200,3.874581298828125,-0.3488040566444397,-0.33108896017074585,-0.6646214127540588
1748090019239389400,3.890389404296875,-0.3585779070854187,-0.3029891550540924,-0.6615670323371887
1748090019255197400,3.906197509765625,-0.3378084897994995,-0.2779437005519867,-0.5503895878791809
1748090019271005700,3.922005615234375,-0.31459560990333557,-0.38117989897727966,-0.49235737323760986
1748090019286874600,3.93787451171875,-0.3280346393585205,-0.5143485069274902,-0.494189977645874
1748090019302621700,3.95362158203125,-0.34697145223617554,-0.5174028873443604,-0.5088507533073425
1748090019318430000,3.969429931640625,-0.3439171314239502,-0.5119050741195679,-0.4813618063926697
1748090019334238000,3.985238037109375,-0.32681289315223694,-0.42760565876960754,-0.48197266459465027
1748090019350046200,4.001046142578125,-0.2877175211906433,-0.2791654169559479,-0.5009095072746277
1748090019365915400,4.016915283203125,-0.27000242471694946,-0.18325957655906677,-0.4098905920982361
1748090019381723400,4.032723388671875,-0.26572638750076294,-0.2028072625398636,-0.3384193480014801
1748090019397562000,4.04856201171875,-0.251676470041275,-0.2638937830924988,-0.3188716471195221
1748090019413339600,4.064339599609375,-0.21502456068992615,-0.2431243658065796,-0.22846360504627228
1748090019429147600,4.080147705078125,-0.13744467496871948,-0.16371189057826996,-0.09773843735456467
1748090019444986400,4.095986328125,-0.08552113175392151,-0.09529497474431992,0.05619960278272629
1748090019460794400,4.11179443359375,-0.0403171069920063,-0.12217304855585098,0.16004669666290283
1748090019476572000,4.127572021484375,0.012828170321881771,-0.15454891324043274,0.18081611394882202
1748090019492410600,4.14341064453125,0.05864306539297104,-0.10018189996480942,0.2321287989616394
1748090019508218600,4.159218505859375,0.12217304855585098,0.00427605677396059,0.2932153046131134
1748090019524118300,4.1751181640625,0.24678955972194672,0.11178833991289139,0.3897320330142975
1748090019539926500,4.190926513671875,0.3323107063770294,0.21930062770843506,0.45692721009254456
1748090019555704000,4.2067041015625,0.40133845806121826,0.4001167416572571,0.45631635189056396
1748090019571542800,4.222542724609375,0.4001167416572571,0.5497786998748779,0.53328537940979
1748090019587412000,4.238411865234375,0.3628539443016052,0.6407976150512695,0.5711590051651001
1748090019603281000,4.254281005859375,0.34758231043815613,0.7745771408081055,0.6310238242149353
1748090019619028000,4.270028076171875,0.37751471996307373,0.7489207983016968,0.6646214127540588
1748090019634805800,4.2858056640625,0.42577308416366577,0.7318165898323059,0.6487388610839844
1748090019650583300,4.301583251953125,0.4660901725292206,0.8423831462860107,0.59803706407547
1748090019666330400,4.317330322265625,0.4911356568336487,0.96883225440979,0.6450737118721008
1748090019682138400,4.333138427734375,0.47830748558044434,0.8906415104866028,0.8289441466331482
1748090019697946600,4.348946533203125,0.4282165467739105,0.8124507665634155,0.8863654732704163
1748090019713785000,4.36478515625,0.37690386176109314,0.7165449261665344,0.8973610401153564
1748090019729532200,4.3805322265625,0.3396410644054413,0.48258355259895325,0.9645562171936035
1748090019745340400,4.39634033203125,0.33719760179519653,0.4392121136188507,0.8582656979560852
1748090019761179000,4.412178955078125,0.32559117674827576,0.6982190012931824,0.7428121566772461
1748090019776956400,4.427956298828125,0.2767219543457031,0.6664539575576782,0.8772025108337402
1748090019792795100,4.443795166015625,0.2840523421764374,0.3793473243713379,1.0610729455947876
1748090019808633900,4.4596337890625,0.3384193480014801,0.18325957655906677,1.1753047704696655
1748090019824441900,4.47544189453125,0.45692721009254456,0.07024950534105301,1.2467759847640991
1748090019840311000,4.49131103515625,0.5766568183898926,0.23518311977386475,1.1612548828125
1748090019856088600,4.507088623046875,0.616973876953125,0.5247332453727722,1.076344609260559
1748090019871896800,4.522896728515625,0.5711590051651001,0.7617489695549011,1.0855075120925903
1748090019887765800,4.538765869140625,0.5516113042831421,0.8234463334083557,1.0726794004440308
1748090019903512800,4.554512939453125,0.5925393104553223,0.7678576111793518,1.0366383790969849
1748090019919351600,4.5703515625,0.6646214127540588,0.6157521605491638,1.0610729455947876
1748090019935098600,4.5860986328125,0.7214318513870239,0.5106833577156067,0.9957103729248047
1748090019950937300,4.601937255859375,0.6976081132888794,0.6224716901779175,0.8484918475151062
1748090019966806300,4.61780615234375,0.5742133259773254,0.8106181621551514,0.7476990818977356
1748090019982614500,4.633614501953125,0.4911356568336487,0.8735373020172119,0.6921103000640869
1748090019998453000,4.649452880859375,0.47219884395599365,0.9841039180755615,0.5876523852348328
1748090020014230800,4.665230712890625,0.47830748558044434,0.9541715383529663,0.4807509481906891
1748090020029977900,4.680977783203125,0.42699480056762695,0.7165449261665344,0.43676865100860596
1748090020045755400,4.69675537109375,0.34208452701568604,0.4245513379573822,0.4440990388393402
1748090020061563400,4.7125634765625,0.2541199326515198,0.10812314599752426,0.3701843321323395
1748090020077402000,4.728402099609375,0.23518311977386475,-0.14538592100143433,0.24373523890972137
1748090020093149200,4.744149169921875,0.23579397797584534,-0.22052235901355743,0.14844025671482086
1748090020108988000,4.75998779296875,0.25595253705978394,-0.2431243658065796,0.033597588539123535
1748090020124796000,4.7757958984375,0.2730567753314972,-0.23884831368923187,-0.04214970022439957
1748090020140634600,4.791634521484375,0.2785545587539673,-0.2021963894367218,-0.14355333149433136
1748090020156503600,4.807503662109375,0.23029619455337524,-0.1514945775270462,-0.23151792585849762
1748090020172311800,4.823311767578125,0.16493362188339233,-0.08674286305904388,-0.3445279896259308
1748090020188119800,4.839119873046875,0.09407325088977814,-0.09285151958465576,-0.4789183437824249
1748090020203897300,4.8548974609375,-0.11911872029304504,-0.08857546001672745,-0.6096435189247131
1748090020219705600,4.87070556640625,-0.3384193480014801,0.2926044464111328,-0.8155050873756409
1748090020235544000,4.8865439453125,-0.30115658044815063,0.13744467496871948,-0.8411614298820496
1748090020251321900,4.90232177734375,-0.28649580478668213,0.21441370248794556,-1.0714576244354248
1748090020267099400,4.918099365234375,-0.3640756905078888,0.18570303916931152,-1.0958921909332275
1748090020282907400,4.933907470703125,-0.5088507533073425,0.31520646810531616,-1.0170906782150269
1748090020298715600,4.949715576171875,-0.6291912198066711,0.7385360598564148,-1.1362093687057495
1748090020314615300,4.965615234375,-0.6572909951210022,0.9737191796302795,-1.3139711618423462
1748090020330392800,4.981392822265625,-0.5626068711280823,0.6145304441452026,-1.2974777221679688
1748090020346200800,4.997200927734375,-0.40133845806121826,-0.05314527451992035,-1.0757336616516113
1748090020362009000,5.013009033203125,-0.29565876722335815,-0.4764748811721802,-0.8985827565193176
1748090020377847600,5.02884765625,-0.24617868661880493,-0.5253441333770752,-0.9529497623443604
1748090020393686300,5.044686279296875,-0.2687807083129883,-0.40072759985923767,-1.0433578491210938
1748090020409433300,5.060433349609375,-0.34086281061172485,-0.2883284091949463,-1.1233811378479004
1748090020425211000,5.0762109375,-0.4080579876899719,-0.2828305959701538,-1.1264355182647705
1748090020440988400,5.091988525390625,-0.47342056035995483,-0.26939156651496887,-1.1087204217910767
1748090020456796700,5.107796630859375,-0.4966334402561188,-0.27000242471694946,-1.112385630607605
1748090020472635100,5.12363525390625,-0.5204572081565857,-0.3029891550540924,-1.056796908378601
1748090020488382200,5.13938232421875,-0.5308418869972229,-0.4056145250797272,-1.0335839986801147
1748090020504221000,5.155220947265625,-0.6444628238677979,-0.4440990388393402,-1.0390818119049072
1748090020520059600,5.1710595703125,-0.7141014933586121,-0.523511528968811,-0.9999864101409912
1748090020535837200,5.186837158203125,-0.7666358947753906,-0.6725626587867737,-0.9443976879119873
1748090020551675600,5.202675537109375,-0.7623597979545593,-0.8240572214126587,-0.9126327037811279
1748090020575357400,5.226357421875,-0.6798930168151855,-0.8772025108337402,-0.9370672702789307
1748090020591226600,5.2422265625,-0.6731734871864319,-0.799011766910553,-0.9743300676345825
1748090020607004200,5.258004150390625,-0.6817256212234497,-0.817337691783905,-0.9865473508834839
1748090020622781700,5.27378173828125,-0.6548475623130798,-0.9083566069602966,-0.9376781582832336
1748090020638559200,5.289559326171875,-0.6145304441452026,-0.9633345007896423,-0.8875871896743774
1748090020654306300,5.305306396484375,-0.588874101638794,-0.912021815776825,-0.9272934198379517
1748090020670084000,5.321083984375,-0.5674937963485718,-0.7422012686729431,-0.9645562171936035
1748090020685831200,5.3368310546875,-0.5583308339118958,-0.513737678527832,-0.9083566069602966
1748090020701608700,5.352608642578125,-0.5375614166259766,-0.4282165467739105,-0.8521569967269897
1748090020717447200,5.368447265625,-0.5094616413116455,-0.4538728892803192,-0.7513642311096191
1748090020733194200,5.3841943359375,-0.33169981837272644,-0.49785518646240234,-0.7263187766075134
1748090020749033000,5.400032958984375,-0.31154128909111023,-0.2877175211906433,-0.6841690540313721
1748090020764780000,5.415780029296875,-0.3194825351238251,0.04153883829712868,-0.6230825781822205
1748090020780557600,5.4315576171875,-0.24068090319633484,0.09773843735456467,-0.5937610268592834
1748090020796396300,5.447396240234375,-0.1973094791173935,0.12828169763088226,-0.4813618063926697
1748090020812143400,5.463143310546875,-0.1820378452539444,0.045204028487205505,-0.21380282938480377
1748090020827921000,5.4789208984375,-0.12034045159816742,-0.2724458873271942,0.11728613078594208
1748090020843637500,5.494637451171875,-0.22846360504627228,-0.4398229718208313,0.4196644127368927
1748090020859445500,5.510445556640625,-0.24129177629947662,-0.5479460954666138,0.7049384713172913
1748090020875223000,5.52622314453125,-0.13866640627384186,-0.48258355259895325,0.5442809462547302
1748090020891031300,5.54203125,-0.07330382615327835,-0.3439171314239502,0.342695415019989
1748090020906839300,5.55783935546875,0.1111774742603302,-0.0708603709936142,0.23579397797584534
1748090020922647600,5.5736474609375,0.26511552929878235,0.2626720666885376,0.21380282938480377
1748090020938425000,5.589425048828125,0.31031954288482666,0.3127630054950714,0.24556782841682434
1748090020954202600,5.60520263671875,0.48380526900291443,0.4489859640598297,0.32131510972976685
1748090020970071800,5.62107177734375,0.5681046843528748,0.6346889734268188,0.31154128909111023
1748090020985941000,5.63694091796875,0.5870414972305298,0.8319984674453735,0.3023782968521118
1748090021001749000,5.6527490234375,0.5418374538421631,0.9615018963813782,0.36529740691185
1748090021017496000,5.66849609375,0.5503895878791809,1.084285855293274,0.4813618063926697
1748090021033273600,5.684273681640625,0.5729916095733643,1.0659598112106323,0.4697553813457489
1748090021049081900,5.700081787109375,0.5687155723571777,1.0543533563613892,0.4447098970413208
1748090021064951000,5.715950927734375,0.5473352670669556,1.072068452835083,0.4996877610683441
1748090021080759000,5.731759033203125,0.5687155723571777,1.053742527961731,0.5485569834709167
1748090021096536600,5.74753662109375,0.5925393104553223,1.1691961288452148,0.5571091175079346
1748090021112283600,5.76328369140625,0.608421802520752,1.3439035415649414,0.5778785347938538
1748090021128152800,5.77915283203125,0.5626068711280823,1.3921618461608887,0.6157521605491638
1748090021143960800,5.7949609375,0.42210787534713745,1.2009611129760742,0.6236934065818787
1748090021167642600,5.818642578125,0.242513507604599,0.8497135639190674,0.5729916095733643
1748090021183450600,5.83445068359375,0.17898350954055786,0.7061602473258972,0.5180137157440186
1748090021199197700,5.85019775390625,0.17837265133857727,0.6957755088806152,0.5400048494338989
1748090021215006000,5.866005859375,0.17898350954055786,0.817948579788208,0.5540547966957092
1748090021230783500,5.881783447265625,0.20341812074184418,0.9456194043159485,0.5351179838180542
1748090021246652700,5.897652587890625,0.2119702398777008,1.035416603088379,0.4990769028663635
1748090021262460700,5.913460693359375,0.19853121042251587,0.9724974632263184,0.4538728892803192
1748090021278238200,5.92923828125,0.17837265133857727,0.7299839854240417,0.46731191873550415
1748090021294015700,5.945015625,0.2076941877603531,0.6108652353286743,0.5229006409645081
1748090021309854500,5.9608544921875,0.2773328125476837,0.6298020482063293,0.5540547966957092
1748090021325662500,5.976662353515625,0.33292156457901,0.7806857824325562,0.5204572081565857
1748090021341470700,5.992470703125,0.37751471996307373,0.8381071090698242,0.4746423065662384
1748090021357217800,6.0082177734375,0.394008070230484,0.9450085163116455,0.484416127204895
1748090021373025800,6.02402587890625,0.3500257730484009,0.8539896011352539,0.4801400899887085
1748090021388772900,6.03977294921875,0.35674530267715454,0.7684684991836548,0.5271766781806946
1748090021404611600,6.055611572265625,0.3836233615875244,0.7360926270484924,0.5100724697113037
1748090021420450300,6.0714501953125,0.5088507533073425,0.5601634383201599,0.45692721009254456
1748090021436227800,6.087227783203125,0.5552765130996704,0.26145032048225403,0.4440990388393402
1748090021452005400,6.10300537109375,0.4740314185619354,-0.23029619455337524,0.5723807215690613
1748090021467874600,6.11887451171875,0.33658674359321594,-0.5002986192703247,0.7996225953102112
1748090021483682600,6.1346826171875,0.22846360504627228,-0.252287358045578,1.0311405658721924
1748090021499551700,6.1505517578125,0.1820378452539444,0.23090706765651703,1.004873275756836
1748090021515329300,6.166329345703125,0.17898350954055786,0.4092797040939331,0.6927211880683899
1748090021531137500,6.182137451171875,0.28588494658470154,0.40194934606552124,0.5681046843528748
1748090021546976000,6.19797607421875,0.4746423065662384,-0.12950342893600464,0.5583308339118958
1748090021562753500,6.21375341796875,0.588263213634491,-0.22540926933288574,0.7134906053543091
1748090021578653200,6.229653076171875,0.5803219676017761,0.17898350954055786,0.7941248416900635
1748090021594431000,6.245430908203125,0.41722095012664795,0.5271766781806946,0.5656611919403076
1748090021610178000,6.261177978515625,0.5222898125648499,0.8002334833145142,0.4807509481906891
1748090021625925000,6.276925048828125,0.8240572214126587,0.8289441466331482,0.5577199459075928
1748090021641702700,6.29270263671875,1.0115928649902344,0.4306600093841553,0.5583308339118958
1748090021657510700,6.3085107421875,1.1985175609588623,0.3323107063770294,0.5900958180427551
1748090021673257700,6.3242578125,1.1301007270812988,0.4489859640598297,0.43799036741256714
1748090021689127000,6.340126953125,0.8503243923187256,0.8136724829673767,0.28588494658470154
1748090021704965600,6.355965576171875,0.6139195561408997,1.062294602394104,0.25595253705978394
1748090021720773600,6.371773681640625,0.5552765130996704,1.0482447147369385,0.26939156651496887
1748090021736582000,6.387581787109375,0.598647952079773,0.8808676600456238,0.3445279896259308
1748090021752329000,6.403328857421875,0.627358615398407,0.5998696684837341,0.44715335965156555
1748090021768076000,6.419075927734375,0.5674937963485718,0.3781255781650543,0.5424483418464661
1748090021783884000,6.434884033203125,0.3390302062034607,0.2620611786842346,0.5503895878791809
1748090021799753200,6.450753173828125,0.16982053220272064,0.14782938361167908,0.4642575979232788
1748090021815591700,6.466591796875,0.08735372871160507,0.045204028487205505,0.4489859640598297
1748090021831308300,6.482308349609375,0.02015855349600315,-0.09285151958465576,0.48319441080093384
1748090021847085800,6.4980859375,-0.021380282938480377,-0.294437050819397,0.5375614166259766
1748090021862833000,6.5138330078125,-0.0354301854968071,-0.5577199459075928,0.5742133259773254
1748090021878702000,6.5297021484375,-0.005497787147760391,-0.6896668672561646,0.5448917746543884
1748090021894571300,6.5455712890625,0.009773843921720982,-0.749531626701355,0.4331034719944
1748090021910348800,6.561348876953125,-0.0959058403968811,-0.7024950385093689,0.17898350954055786
1748090021926157000,6.577156982421875,-0.39156460762023926,-0.6133087277412415,-0.1661553531885147
1748090021941904100,6.592904052734375,-0.6310238242149353,-0.5204572081565857,-0.3952298164367676
1748090021957742600,6.60874267578125,-0.7544185519218445,-0.16004669666290283,-0.5265658497810364
1748090021973550800,6.62455078125,-0.7770205736160278,0.3854559659957886,-0.5656611919403076
1748090021989328400,6.640328369140625,-0.769690215587616,1.0616837739944458,-0.5687155723571777
1748090022005106000,6.65610595703125,-0.7739662528038025,1.1508700847625732,-0.4948008358478546
1748090022020914200,6.6719140625,-0.9492846131324768,0.5876523852348328,-0.45814892649650574
1748090022036722200,6.68772216796875,-1.1447614431381226,-0.31520646810531616,-0.39156460762023926
1748090022052591400,6.70359130859375,-1.2131783962249756,-0.9046914577484131,-0.31581732630729675
1748090022068338400,6.71933837890625,-1.2113457918167114,-1.0238101482391357,-0.3878994286060333
1748090022084116000,6.735115966796875,-1.188132882118225,-0.8026769161224365,-0.5693264007568359
1748090022099985200,6.750985107421875,-1.4404202699661255,-0.08918632566928864,-0.608421802520752
1748090022115762700,6.7667626953125,-1.6242907047271729,0.20525072515010834,-0.6475171446800232
1748090022131601400,6.782601318359375,-1.3439035415649414,-0.5693264007568359,-0.9248499870300293
1748090022147317800,6.79831787109375,-1.3213015794754028,-0.7641924023628235,-0.8827002644538879
1748090022163156500,6.814156494140625,-1.289536476135254,-0.8301658630371094,-0.9346238374710083
1748090022178964500,6.829964599609375,-1.2406673431396484,-0.7953465580940247,-1.0494664907455444
1748090022194711600,6.845711669921875,-1.2565498352050781,-0.6004805564880371,-1.0629055500030518
1748090022210580700,6.861580810546875,-1.3322970867156982,-0.6096435189247131,-1.006095051765442
1748090022226327800,6.877327880859375,-1.386053204536438,-0.7910705208778381,-0.9633345007896423
1748090022242105300,6.893105224609375,-1.3066407442092896,-0.9175195693969727,-0.9334021210670471
1748090022257883100,6.908883056640625,-1.1441506147384644,-0.9779952764511108,-0.9083566069602966
1748090022273752000,6.924751953125,-0.9896016716957092,-0.9627236127853394,-0.8784242272377014
1748090022289710800,6.9407109375,-0.9437867999076843,-0.8839219808578491,-0.8509352803230286
1748090022305488600,6.956488525390625,-0.9651671051979065,-0.9230173826217651,-0.8484918475151062
1748090022321296600,6.972296630859375,-0.9126327037811279,-1.0677924156188965,-0.8491026759147644
1748090022337043700,6.988043701171875,-0.808174729347229,-1.1459832191467285,-0.770301103591919
1748090022352882400,7.00388232421875,-0.6261368989944458,-1.1582005023956299,-0.6969972252845764
1748090022368751600,7.019751708984375,-0.47219884395599365,-1.2113457918167114,-0.6572909951210022
1748090022384529200,7.035529052734375,-0.4147774875164032,-1.1679743528366089,-0.5913175344467163
1748090022400337200,7.051337158203125,-0.394008070230484,-1.0879509449005127,-0.5503895878791809
1748090022416175900,7.06717578125,-0.34086281061172485,-1.026253581047058,-0.5345070958137512
1748090022432045000,7.083045166015625,-0.29504790902137756,-0.99876469373703,-0.5064072608947754
1748090022447883500,7.098883544921875,-0.26511552929878235,-0.9224064946174622,-0.4086688458919525
1748090022463661000,7.1146611328125,-0.16493362188339233,-0.9767735004425049,-0.24923302233219147
1748090022479438800,7.13043896484375,-0.04642575979232788,-1.130711555480957,-0.07757988572120667
1748090022495216400,7.14621630859375,0.12339477986097336,-1.0445796251296997,-0.04092797264456749
1748090022511054800,7.162054931640625,0.30115658044815063,-0.6969972252845764,-0.04459316283464432
1748090022526924000,7.177924072265625,0.4294382631778717,-0.3536909818649292,-0.03420845419168472
1748090022542732300,7.193732177734375,0.42149701714515686,-0.08307767659425735,0.04581489413976669
1748090022558601500,7.2096015625,0.3744603991508484,-0.1014036312699318,0.17409659922122955
1748090022574409500,7.225409423828125,0.23640485107898712,-0.43615779280662537,0.32986724376678467
1748090022590248200,7.241248291015625,0.2223549485206604,-0.8625417351722717,0.41172316670417786
1748090022606147800,7.25714794921875,0.26450464129447937,-1.1386528015136719,0.4349360466003418
1748090022621925400,7.27292529296875,0.27550023794174194,-1.0971139669418335,0.42699480056762695
1748090022637763800,7.288763916015625,0.3023782968521118,-0.9718865752220154,0.4398229718208313
1748090022653633000,7.304633056640625,0.3390302062034607,-0.960280179977417,0.4550946056842804
1748090022669349600,7.320349609375,0.37079519033432007,-1.3842206001281738,0.4544837474822998
1748090022685188400,7.336188232421875,0.40683624148368835,-1.8887953758239746,0.5192354321479797
1748090022700935400,7.351935302734375,0.4190535545349121,-1.9908097982406616,0.5448917746543884
1748090022716774000,7.36777392578125,0.35552358627319336,-1.8790215253829956,0.5241223573684692
1748090022732490500,7.383490478515625,0.24556782841682434,-1.5949691534042358,0.5375614166259766
1748090022748329200,7.3993291015625,0.25473082065582275,-1.1722503900527954,0.5839871764183044
1748090022764106800,7.415106689453125,0.39584067463874817,-0.8350527882575989,0.6334672570228577
1748090022779853800,7.430853759765625,0.5338962078094482,-0.6493497490882874,0.7171558141708374
1748090022795661800,7.446661865234375,0.6487388610839844,-0.607200026512146,0.7440338730812073
1748090022811500500,7.46250048828125,0.7568620443344116,-0.5754350423812866,0.8148942589759827
1748090022827369700,7.47836962890625,0.7202101349830627,-0.5369505286216736,0.8967501521110535
1748090022843208200,7.494208251953125,0.5027421116828918,-0.35185837745666504,0.9352346658706665
1748090022858986000,7.509986083984375,0.3738495409488678,-0.23090706765651703,1.0311405658721924
1748090022874794000,7.5257939453125,0.3885102868080139,-0.3396410644054413,1.0965031385421753
1748090022890632700,7.5416328125,0.5393940210342407,-0.5222898125648499,1.074512004852295
1748090022906410200,7.55741015625,0.3292563557624817,-0.7122688889503479,1.0403034687042236
1748090022922248700,7.573248779296875,0.14416420459747314,-0.9896016716957092,1.1099421977996826
1748090022937995800,7.588995849609375,0.12950342893600464,-1.1801916360855103,1.2785409688949585
1748090022953773600,7.604773681640625,0.19547687470912933,-1.0903944969177246,1.4801265001296997
1748090022969551000,7.620551025390625,0.2669481039047241,-0.8234463334083557,1.5222761631011963
1748090022985359000,7.636359130859375,0.3604104816913605,-0.394618958234787,1.4398094415664673
1748090023001167400,7.65216748046875,0.46303585171699524,-0.12828169763088226,1.367727279663086
1748090023016883700,7.6678837890625,0.6646214127540588,-0.11972958594560623,1.3744467496871948
1748090023032692000,7.68369189453125,0.7360926270484924,-0.10506882518529892,1.4795156717300415
1748090023048500000,7.6995,0.7250970602035522,0.27550023794174194,1.580308437347412
1748090023064277500,7.715277587890625,0.6157521605491638,0.5503895878791809,1.5735888481140137
1748090023080085800,7.731085693359375,0.5552765130996704,0.655458390712738,1.4666874408721924
1748090023095863300,7.74686328125,0.6114761233329773,0.656680166721344,1.4721852540969849
1748090023111702000,7.762701904296875,0.6988298296928406,0.8118399381637573,1.5070046186447144
1748090023127479600,7.7784794921875,0.6621779203414917,0.9822713136672974,1.4715744256973267
1748090023143348700,7.7943486328125,0.504574716091156,0.8655960559844971,1.3603968620300293
1748090023159248400,7.810248291015625,0.35124751925468445,0.5900958180427551,1.3066407442092896
1748090023174995500,7.825995361328125,0.3335324227809906,0.4550946056842804,1.188132882118225
1748090023190834000,7.841833984375,0.39217549562454224,0.3225368559360504,1.0219775438308716
1748090023206672600,7.857672607421875,0.4386012554168701,0.2620611786842346,0.9553932547569275
1748090023222450200,7.8734501953125,0.3903428912162781,0.32620203495025635,0.8148942589759827
1748090023238258400,7.889258544921875,0.27061331272125244,0.45631635189056396,0.6450737118721008
1748090023254066400,7.90506640625,0.09834930300712585,0.5326744914054871,0.4349360466003418
1748090023269813500,7.9208134765625,-0.07024950534105301,0.2779437005519867,0.2871066629886627
1748090023285591000,7.936591064453125,-0.15515977144241333,-0.0959058403968811,0.21441370248794556
1748090023301429800,7.9524296875,-0.18448130786418915,-0.3219259977340698,0.19120082259178162
1748090023317299000,7.968298828125,-0.18081611394882202,-0.3536909818649292,0.04092797264456749
1748090023333076500,7.984076416015625,-0.242513507604599,-0.24984388053417206,-0.22663100063800812
1748090023348823600,7.999823486328125,-0.3579670190811157,-0.2571742534637451,-0.6304129362106323
1748090023364570600,8.015570556640625,-0.3988949954509735,-0.4178318381309509,-0.846659243106842
1748090023380348200,8.03134814453125,-0.455705463886261,-0.6206390857696533,-0.9761626720428467
1748090023396187000,8.047186767578125,-0.5161811113357544,-0.6731734871864319,-1.0891727209091187
1748090023411995000,8.062994873046875,-0.5760459303855896,-0.5852088928222656,-1.1771373748779297
1748090023427833600,8.07883349609375,-0.6291912198066711,-0.485027015209198,-1.2956452369689941
1748090023443702800,8.094702880859375,-0.6389650702476501,-0.4092797040939331,-1.4190399646759033
1748090023459480300,8.110480224609375,-0.6255260109901428,-0.36590829491615295,-1.5968017578125
1748090023475318800,8.12631884765625,-0.6261368989944458,-0.3988949954509735,-1.7373007535934448
1748090023491096600,8.1420966796875,-0.656069278717041,-0.4098905920982361,-1.7983872890472412
1748090023506874000,8.1578740234375,-0.7116580009460449,-0.32559117674827576,-1.7336355447769165
1748090023522651600,8.173651611328125,-0.8087855577468872,-0.192422553896904,-1.6126842498779297
1748090023538520800,8.189520751953125,-0.8313875794410706,-0.027488935738801956,-1.567480206489563
1748090023554390000,8.20539013671875,-0.7422012686729431,-0.10567969083786011,-1.5937473773956299
1748090023570198000,8.221197998046875,-0.6359107494354248,-0.16554448008537292,-1.5821410417556763
1748090023586036700,8.23703662109375,-0.5571091175079346,-0.3439171314239502,-1.4110987186431885
1748090023601875200,8.252875244140625,-0.5271766781806946,-0.5174028873443604,-1.263269305229187
1748090023617744400,8.268744384765625,-0.578489363193512,-0.5754350423812866,-1.2852604389190674
1748090023633613600,8.284613525390625,-0.6664539575576782,-0.6548475623130798,-1.3096951246261597
1748090023649391000,8.30039111328125,-0.7287622094154358,-0.7116580009460449,-1.2046263217926025
1748090023665199400,8.316199462890625,-0.7538077235221863,-0.8185594081878662,-1.0922271013259888
1748090023681037800,8.332037841796875,-0.7263187766075134,-0.8228355050086975,-1.053742527961731
1748090023696815400,8.3478154296875,-0.6823364496231079,-0.6780604124069214,-1.1001683473587036
1748090023712684500,8.3636845703125,-0.6725626587867737,-0.598647952079773,-1.1435397863388062
1748090023728462000,8.379462158203125,-0.6969972252845764,-0.5717698931694031,-1.06351637840271
1748090023744270300,8.395270263671875,-0.6994407176971436,-0.5919284224510193,-0.9755517840385437
1748090023760078300,8.411078369140625,-0.5693264007568359,-0.6157521605491638,-0.8674286603927612
1748090023775886600,8.426886474609375,-0.5021312236785889,-0.5571091175079346,-0.8210029006004333
1748090023791725000,8.44272509765625,-0.4715879559516907,-0.4105014503002167,-0.8118399381637573
1748090023807533300,8.458533203125,-0.4703662395477295,-0.2687807083129883,-0.8301658630371094
1748090023823433000,8.474432861328125,-0.45875978469848633,-0.1869247704744339,-0.8148942589759827
1748090023839210500,8.49021044921875,-0.394618958234787,-0.27611109614372253,-0.7183775305747986
1748090023855018500,8.5060185546875,-0.3237585723400116,-0.4593706727027893,-0.5839871764183044
1748090023870826800,8.52182666015625,-0.4031710624694824,-0.384845107793808,-0.5907067060470581
1748090023886604300,8.537604248046875,-0.4129449129104614,-0.3549126982688904,-0.588874101638794
1748090023902412300,8.553412353515625,-0.3988949954509735,-0.3017674386501312,-0.5015203952789307
1748090023918251000,8.5692509765625,-0.45204028487205505,-0.28038713335990906,-0.4050036668777466
1748090023934059000,8.58505908203125,-0.5558874011039734,-0.2840523421764374,-0.27061331272125244
1748090023949897700,8.600897705078125,-0.5229006409645081,-0.37201693654060364,-0.3127630054950714
1748090023965705700,8.616705810546875,-0.32559117674827576,-0.21013765037059784,-0.2919935882091522
1748090023981452800,8.632452880859375,-0.22907446324825287,0.005497787147760391,-0.22540926933288574
1748090023997261000,8.648260986328125,-0.16249015927314758,0.04703662544488907,-0.1160643994808197
1748090024013038600,8.66403857421875,-0.07757988572120667,0.10751228034496307,0.09040805697441101
1748090024028877300,8.679877197265625,-0.03237585723400116,0.10262536257505417,0.2480112910270691
1748090024044654800,8.69565478515625,0.001832595793530345,0.08491026610136032,0.44593164324760437
1748090024060432400,8.711432373046875,0.02626720629632473,0.04642575979232788,0.5913175344467163
1748090024076210000,8.7272099609375,0.16432274878025055,-0.05619960278272629,0.6805039048194885
1748090024091987500,8.742987548828125,0.09162978827953339,0.11301007121801376,0.656069278717041
1748090024107887400,8.758887451171875,0.018325956538319588,0.4593706727027893,0.46853363513946533
1748090024123665000,8.774664794921875,-0.12889257073402405,0.9431759119033813,0.2217440903186798
1748090024139473000,8.790472900390625,0.006719517521560192,0.778853178024292,0.006719517521560192
1748090024155220000,8.806219970703125,0.01038470957428217,0.5949827432632446,0.1973094791173935
1748090024171058700,8.82205859375,-0.07819075137376785,0.3481931984424591,0.3543018400669098
1748090024186927900,8.837927978515625,-0.1160643994808197,0.27122417092323303,0.42088615894317627
1748090024202735900,8.85373583984375,-0.12767083942890167,0.25106561183929443,0.3995058834552765
1748090024226539500,8.87753955078125,-0.0507018156349659,0.2773328125476837,0.3591887652873993
1748090024242256100,8.893256103515625,-0.09162978827953339,0.2974913716316223,0.31154128909111023
1748090024258094800,8.9090947265625,-0.16920967400074005,0.2076941877603531,0.3066543638706207
1748090024273933300,8.924933349609375,-0.18509216606616974,0.031154127791523933,0.3982841372489929
1748090024289650000,8.94064990234375,-0.10567969083786011,-0.17043140530586243,0.5589417219161987
1748090024305488600,8.956488525390625,-0.02687807008624077,-0.15760323405265808,0.6261368989944458
1748090024321266200,8.97226611328125,0.04459316283464432,0.13255776464939117,0.5894849896430969
1748090024337043700,8.988043701171875,0.10690141469240189,0.35124751925468445,0.5717698931694031
1748090024352790800,9.003790771484375,0.18387043476104736,0.36163222789764404,0.6304129362106323
1748090024368629500,9.01962939453125,0.22968533635139465,0.2528982162475586,0.6817256212234497
1748090024384498700,9.035498779296875,0.2675589919090271,0.16737708449363708,0.7031059265136719
1748090024400276200,9.051276123046875,0.2968805134296417,0.17592918872833252,0.7110471725463867
1748090024416114700,9.06711474609375,0.31520646810531616,0.26939156651496887,0.7067710757255554
1748090024431953400,9.082953369140625,0.39706242084503174,0.413555771112442,0.7055493593215942
1748090024447700500,9.098700439453125,0.5009095072746277,0.5448917746543884,0.7134906053543091
1748090024463539200,9.114539306640625,0.588263213634491,0.6976081132888794,0.8032878041267395
1748090024479286300,9.130286376953125,0.6200281977653503,0.7281513810157776,0.9382890462875366
1748090024495124700,9.146124755859375,0.6120869517326355,0.7470881938934326,1.0531316995620728
1748090024510902300,9.16190234375,0.6359107494354248,0.8032878041267395,1.06657075881958
1748090024526771500,9.177771484375,0.7287622094154358,0.8943067193031311,1.0329731702804565
1748090024542640600,9.193640625,0.7867944240570068,0.9712757468223572,1.0195341110229492
1748090024558448600,9.20944873046875,0.8344419002532959,0.9743300676345825,0.9999864101409912
1748090024574287400,9.225287353515625,0.8148942589759827,0.8558222055435181,1.056796908378601
1748090024590065000,9.24106494140625,0.6988298296928406,0.7324274182319641,1.1575896739959717
1748090024605873200,9.256873046875,0.5479460954666138,0.6682865619659424,1.2235630750656128
1748090024621681200,9.27268115234375,0.49296826124191284,0.627358615398407,1.2015719413757324
1748090024637397800,9.288397705078125,0.503963828086853,0.6426302194595337,1.1459832191467285
1748090024653267000,9.304266845703125,0.5369505286216736,0.7116580009460449,1.086118459701538
1748090024669136100,9.32013623046875,0.5571091175079346,0.8197811841964722,1.037249207496643
1748090024684883200,9.33588330078125,0.5161811113357544,0.8692612648010254,1.0286970138549805
1748090024700721700,9.3517216796875,0.4807509481906891,0.8582656979560852,1.0378600358963013
1748090024716530000,9.367530029296875,0.4642575979232788,0.826500654220581,1.0054842233657837
1748090024732368400,9.383368408203125,0.4593706727027893,0.6841690540313721,0.9963212013244629
1748090024748176600,9.3991767578125,0.47708576917648315,0.5711590051651001,1.0555751323699951
1748090024764015000,9.41501513671875,0.5088507533073425,0.6261368989944458,1.0641272068023682
1748090024779884300,9.43088427734375,0.5601634383201599,0.8356636762619019,1.0042624473571777
1748090024795661800,9.446661865234375,0.5674937963485718,1.06657075881958,0.8582656979560852
1748090024811500500,9.46250048828125,0.2376265823841095,1.2999212741851807,0.48747047781944275
1748090024827339300,9.47833935546875,0.23090706765651703,0.8057312369346619,0.3732386529445648
1748090024843086300,9.49408642578125,0.34208452701568604,0.06841690838336945,0.26022860407829285
1748090024858924800,9.5099248046875,0.21930062770843506,-0.11239920556545258,-0.08124507963657379
1748090024874702300,9.525702392578125,-0.03176499158143997,-0.09040805697441101,-0.3628539443016052
1748090024890480000,9.541480224609375,-0.3176499307155609,-0.13500121235847473,-0.4147774875164032
1748090024906288000,9.5572880859375,-0.5564982295036316,-0.1765400618314743,-0.5106833577156067
1748090024922126800,9.573126953125,-0.7147123217582703,-0.313373863697052,-0.5791002511978149
1748090024937965300,9.58896533203125,-0.8313875794410706,-0.6933320760726929,-0.5662720799446106
1748090024953712400,9.60471240234375,-0.750142514705658,-0.9755517840385437,-0.7128797173500061
1748090024969490000,9.620489990234375,-0.7012733221054077,-1.2718214988708496,-0.8032878041267395
1748090024985298200,9.636298095703125,-0.7812966704368591,-1.4978415966033936,-0.8332201838493347
1748090025001045200,9.652045166015625,-0.9040805697441101,-1.5173892974853516,-0.9010262489318848
1748090025016914400,9.66791455078125,-0.9651671051979065,-1.3408491611480713,-0.9761626720428467
1748090025032692000,9.68369189453125,-0.8991936445236206,-1.0739010572433472,-1.1074986457824707
1748090025048469500,9.699469482421875,-0.7232644557952881,-0.8051204085350037,-1.3408491611480713
1748090025064338700,9.715338623046875,-0.6243042945861816,-0.827111542224884,-1.4526375532150269
1748090025080116200,9.7311162109375,-0.5167919993400574,-1.0409144163131714,-1.5253305435180664
1748090025095985400,9.7469853515625,-0.5167919993400574,-1.1643091440200806,-1.5515977144241333
1748090025111732500,9.762732421875,-0.5229006409645081,-1.1563678979873657,-1.7244726419448853
1748090025127571200,9.7785712890625,-0.44776421785354614,-1.13926362991333,-1.9175059795379639
1748090025143409700,9.79440966796875,-0.3732386529445648,-1.1496484279632568,-2.0384573936462402
1748090025159187200,9.810187255859375,-0.42271876335144043,-1.1288789510726929,-2.1697933673858643
1748090025175026000,9.82602587890625,-0.49235737323760986,-1.0335839986801147,-2.285857677459717
1748090025190803500,9.841803466796875,-0.5760459303855896,-0.8546004891395569,-1.9853121042251587
1748090025206642200,9.85764208984375,-0.6951646208763123,-0.9071348905563354,-1.6786576509475708
1748090025222480600,9.873480712890625,-0.6719517707824707,-1.0488556623458862,-1.4886785745620728
1748090025238349800,9.889349853515625,-0.6010913848876953,-1.0378600358963013,-1.4178181886672974
1748090025254158000,9.905157958984375,-0.5308418869972229,-0.8973610401153564,-1.540602207183838
1748090025269935600,9.920935546875,-0.48380526900291443,-0.808174729347229,-1.6762142181396484
1748090025285743600,9.93674365234375,-0.4758640229701996,-0.7067710757255554,-1.5357152223587036
1748090025301582300,9.952582275390625,-0.5265658497810364,-0.6383541822433472,-1.2864822149276733
1748090025317359900,9.96835986328125,-0.5100724697113037,-0.513737678527832,-1.3103059530258179
1748090025333229000,9.98422900390625,-0.43737950921058655,-0.23945917189121246,-1.3548991680145264
1748090025348976000,9.99997607421875,-0.36102136969566345,-0.12339477986097336,-1.2553280591964722
1748090025364753700,10.015753662109375,-0.33292156457901,-0.25045475363731384,-0.9547823667526245
1748090025380531200,10.03153125,-0.2736676335334778,-0.4715879559516907,-0.4080579876899719
1748090025396339500,10.04733935546875,-0.18814650177955627,-0.4080579876899719,-0.1563815027475357
1748090025412178000,10.063177978515625,-0.11545353382825851,-0.09346238523721695,-0.15332718193531036
1748090025427955700,10.078955810546875,-0.028099801391363144,0.12095131725072861,-0.1508837193250656
1748090025443763700,10.094763671875,0.08735372871160507,0.22113321721553802,0.025045474991202354
1748090025459541200,10.110541259765625,0.1569923609495163,0.18814650177955627,0.2932153046131134
1748090025475380000,10.1263798828125,0.22418753802776337,0.0910189226269722,0.5277875661849976
1748090025491249200,10.142249267578125,0.2993239760398865,0.15882496535778046,0.7031059265136719
1748090025507057200,10.15805712890625,0.3335324227809906,0.30054569244384766,0.6994407176971436
1748090025522865200,10.173865234375,0.3543018400669098,0.5668829679489136,0.6145304441452026
1748090025538612200,10.1896123046875,0.35246923565864563,0.6206390857696533,0.6591235995292664
1748090025554451000,10.205450927734375,0.4300491213798523,0.485027015209198,0.8576548099517822
1748090025570350600,10.2213505859375,0.4899139404296875,0.4715879559516907,1.0696250200271606
1748090025586128100,10.237128173828125,0.5595525503158569,0.6346889734268188,1.2406673431396484
1748090025601966800,10.252966796875,0.6102544069290161,0.8497135639190674,1.235169529914856
1748090025617744400,10.268744384765625,0.5998696684837341,0.9425650835037231,1.1545352935791016
1748090025633705200,10.284705322265625,0.5693264007568359,0.8051204085350037,1.1820242404937744
1748090025649543700,10.300543701171875,0.5699372887611389,0.617584764957428,1.3164145946502686
1748090025665352000,10.31635205078125,0.5852088928222656,0.5687155723571777,1.5125023126602173
1748090025681312500,10.3323125,0.5955936312675476,0.6914994716644287,1.6218472719192505
1748090025697334300,10.348334228515625,0.5937610268592834,0.8472700715065002,1.5931365489959717
1748090025713356000,10.36435595703125,0.6010913848876953,0.99876469373703,1.5497651100158691
1748090025729377800,10.380377685546875,0.6499606370925903,1.0005972385406494,1.5515977144241333
1748090025745338400,10.39633837890625,0.6872233748435974,0.79840087890625,1.633453607559204
1748090025761299200,10.41229931640625,0.7446447610855103,0.5815436840057373,1.7660114765167236
1748090025777320700,10.42832080078125,0.8283332586288452,0.5821545720100403,1.7611244916915894
1748090025809364200,10.4603642578125,0.817337691783905,1.084285855293274,1.5741997957229614
1748090025825263900,10.476263916015625,0.7727445363998413,1.1563678979873657,1.5057828426361084
1748090025841255200,10.492255126953125,0.769690215587616,1.091616153717041,1.4324790239334106
1748090025857246500,10.50824658203125,0.8026769161224365,0.8210029006004333,1.376279354095459
1748090025873207000,10.52420703125,0.8155050873756409,0.6139195561408997,1.3750576972961426
1748090025897194000,10.548194091796875,0.6579018831253052,0.8258898258209229,1.2956452369689941
1748090025921211100,10.572211181640625,0.46364670991897583,1.147204875946045,1.0506882667541504
1748090025937172000,10.588171875,0.36529740691185,1.0800096988677979,0.9529497623443604
1748090025953163000,10.6041630859375,0.3445279896259308,0.6695083379745483,0.9639453291893005
1748090025969184800,10.620184814453125,0.38179078698158264,0.35124751925468445,0.9126327037811279
1748090025985145600,10.6361455078125,0.3390302062034607,0.2919935882091522,0.7293730974197388
1748090026001106200,10.652106201171875,0.1875356286764145,0.3323107063770294,0.5540547966957092
1748090026017097500,10.668097412109375,-0.021380282938480377,0.22052235901355743,0.4190535545349121
1748090026033088800,10.6840888671875,-0.17776179313659668,-0.19547687470912933,0.4331034719944
1748090026057045000,10.708044921875,-0.252287358045578,-0.7415903806686401,0.413555771112442
1748090026081031700,10.73203173828125,-0.2480112910270691,-0.6279694437980652,0.1264491081237793
1748090026097023000,10.74802294921875,-0.2669481039047241,-0.4544837474822998,-0.25534167885780334
1748090026113014300,10.76401416015625,-0.33169981837272644,-0.3445279896259308,-0.5406157374382019
1748090026129005300,10.78000537109375,-0.394618958234787,-0.21135938167572021,-0.7122688889503479
1748090026144966100,10.795966064453125,-0.45692721009254456,-0.17409659922122955,-0.9266825914382935
1748090026168922400,10.81992236328125,-0.6102544069290161,-0.3017674386501312,-0.9853256344795227
1748090026184913700,10.83591357421875,-0.7043276429176331,-0.4300491213798523,-1.0054842233657837
1748090026200874200,10.851874267578125,-0.7819074988365173,-0.5558874011039734,-1.0775662660598755
1748090026216896000,10.86789599609375,-0.8423831462860107,-0.6114761233329773,-1.2333369255065918
1748090026232856800,10.88385693359375,-0.9187413454055786,-0.6707300543785095,-1.3194689750671387
1748090026248909000,10.899908935546875,-0.9523389339447021,-0.8570439219474792,-1.3390166759490967
1748090026264869600,10.91586962890625,-0.9242390990257263,-0.9529497623443604,-1.3451253175735474
1748090026280861000,10.93186083984375,-0.8772025108337402,-0.9431759119033813,-1.3683381080627441
1748090026296852000,10.94785205078125,-0.8258898258209229,-0.8943067193031311,-1.4379768371582031
1748090026312812800,10.963812744140625,-0.7861835956573486,-0.9248499870300293,-1.521665334701538
1748090026328865000,10.979864990234375,-0.7806857824325562,-0.9853256344795227,-1.5583171844482422
1748090026344795100,10.995795166015625,-0.7867944240570068,-0.998153805732727,-1.5827518701553345
1748090026360786400,11.011786376953125,-0.7770205736160278,-0.9248499870300293,-1.6218472719192505
1748090026376777700,11.02777783203125,-0.7513642311096191,-0.7904596328735352,-1.6059647798538208
1748090026392768800,11.043768798828125,-0.749531626701355,-0.7568620443344116,-1.5057828426361084
1748090026408729600,11.0597294921875,-0.740368664264679,-0.8436049222946167,-1.3487904071807861
1748090026424720600,11.075720703125,-0.7281513810157776,-0.7550294399261475,-1.263269305229187
1748090026440681500,11.091681396484375,-0.7159340381622314,-0.5827654600143433,-1.2583824396133423
1748090026456672500,11.107672607421875,-0.6860016584396362,-0.4190535545349121,-1.2577714920043945
1748090026472725000,11.12372509765625,-0.6676757335662842,-0.35124751925468445,-1.1655309200286865
1748090026488685600,11.139685546875,-0.6395758986473083,-0.4129449129104614,-0.9773843884468079
1748090026512703000,11.163702880859375,-0.6047565937042236,-0.5418374538421631,-0.8106181621551514
1748090026536628700,11.187628662109375,-0.5760459303855896,-0.6206390857696533,-0.7379252314567566
1748090026552589300,11.20358935546875,-0.5455026626586914,-0.5424483418464661,-0.6884451508522034
1748090026568672300,11.21967236328125,-0.45631635189056396,-0.3799581825733185,-0.6438519954681396
1748090026584541200,11.235541259765625,-0.3481931984424591,-0.21135938167572021,-0.6029239892959595
1748090026600563000,11.25156298828125,-0.2938261926174164,-0.11178833991289139,-0.5522221922874451
1748090026616554200,11.26755419921875,-0.23457226157188416,-0.1459967941045761,-0.4282165467739105
1748090026632545500,11.283545654296875,-0.21868975460529327,-0.2919935882091522,-0.2718350291252136
1748090026648506000,11.299506103515625,-0.17409659922122955,-0.4349360466003418,-0.11545353382825851
1748090026664436200,11.315436279296875,-0.08918632566928864,-0.3579670190811157,-0.024434609338641167
1748090026680427500,11.331427490234375,0.013439035043120384,-0.18875735998153687,0.0024434609804302454
1748090026696418800,11.347418701171875,0.10873401165008545,0.06780604273080826,0.04153883829712868
1748090026712409900,11.363409912109375,0.16982053220272064,0.23396138846874237,0.13805554807186127
1748090026728462000,11.379462158203125,0.25473082065582275,0.30604347586631775,0.3341432809829712
1748090026744392400,11.395392333984375,0.3640756905078888,0.3390302062034607,0.5900958180427551
1748090026760353000,11.41135302734375,0.4758640229701996,0.2376265823841095,0.7507534027099609
1748090026776313900,11.42731396484375,0.627358615398407,0.27000242471694946,0.8289441466331482
1748090026792274400,11.4432744140625,0.7428121566772461,0.3988949954509735,0.6579018831253052
1748090026808326700,11.45932666015625,0.8014551997184753,0.7776314616203308,0.5387831330299377
1748090026824318000,11.47531787109375,0.8747590184211731,1.0598511695861816,0.5760459303855896
1748090026840309000,11.49130908203125,0.8723155856132507,1.0977247953414917,0.6340781450271606
1748090026856269800,11.507269775390625,0.8539896011352539,1.102611780166626,0.3701843321323395
1748090026872230400,11.52323046875,0.8686503767967224,1.2467759847640991,0.09407325088977814
1748090026904182500,11.5551826171875,0.6860016584396362,1.0806206464767456,-0.05619960278272629
1748090026928199700,11.57919970703125,0.30970868468284607,1.0543533563613892,-0.036041051149368286
1748090026944191000,11.59519091796875,0.06902777403593063,1.0115928649902344,-0.15515977144241333
1748090026960151600,11.611151611328125,-0.17104226350784302,0.6524040699005127,-0.2767219543457031
1748090026976142800,11.627142822265625,-0.39584067463874817,0.13255776464939117,-0.24862214922904968
1748090026992134100,11.643134033203125,-0.6108652353286743,-0.45692721009254456,-0.19303341209888458
1748090027008094700,11.6590947265625,-0.7709119319915771,-0.7904596328735352,-0.14355333149433136
1748090027024086000,11.6750859375,-0.8197811841964722,-0.9181304574012756,-0.06902777403593063
1748090027040107800,11.691107666015625,-0.7971791625022888,-0.931569516658783,0.006108652334660292
1748090027056038000,11.707037841796875,-0.6994407176971436,-0.8313875794410706,-0.045204028487205505
1748090027072029200,11.723029296875,-0.6475171446800232,-0.5772676467895508,-0.16554448008537292
1748090027088020200,11.739020263671875,-0.6591235995292664,-0.2968805134296417,-0.22846360504627228
1748090027103981000,11.75498095703125,-0.6780604124069214,-0.29565876722335815,-0.13011430203914642
1748090027119941600,11.770941650390625,-0.675616979598999,-0.43188172578811646,0.0659734457731247
1748090027135902500,11.78690234375,-0.6719517707824707,-0.47342056035995483,0.2681698501110077
1748090027151893500,11.8028935546875,-0.626747727394104,-0.504574716091156,0.4300491213798523
1748090027167884800,11.818884765625,-0.5558874011039734,-0.5662720799446106,0.5412266254425049
1748090027183815000,11.83481494140625,-0.46731191873550415,-0.6090326309204102,0.47769662737846375
1748090027199775700,11.850775634765625,-0.35552358627319336,-0.6762278079986572,0.3878994286060333
1748090027215797500,11.866797607421875,-0.2168571650981903,-0.79840087890625,0.24984388053417206
1748090027231727600,11.8827275390625,-0.06963863968849182,-0.7684684991836548,0.13255776464939117
1748090027247749400,11.898749267578125,0.1258382350206375,-0.403781920671463,0.006719517521560192
1748090027263710000,11.9147099609375,0.32070425152778625,0.06963863968849182,-0.060475658625364304
1748090027279701200,11.930701171875,0.5204572081565857,0.6328563690185547,-0.15882496535778046
1748090027295692300,11.9466923828125,0.6352998614311218,1.0971139669418335,-0.2632829248905182
1748090027311683600,11.96268359375,0.6969972252845764,1.2736539840698242,-0.3439171314239502
1748090027327735800,11.97873583984375,0.6823364496231079,1.2327260971069336,-0.3194825351238251
1748090027343696600,11.994696533203125,0.6096435189247131,0.9425650835037231,-0.19364428520202637
1748090027359687700,12.010687744140625,0.5216789245605469,0.6603453159332275,0.0012217304902151227
1748090027375679000,12.026678955078125,0.32681289315223694,0.7544185519218445,0.1612684279680252
1748090027391670300,12.042670166015625,0.1973094791173935,0.8625417351722717,0.3243694305419922
1748090027407630800,12.058630859375,0.2370157092809677,0.6450737118721008,0.2822197377681732
1748090027423530500,12.074530517578125,0.1569923609495163,0.5143485069274902,0.1215621829032898
1748090027439491300,12.0904912109375,0.022602014243602753,0.33536502718925476,0.10323622822761536
1748090027455482400,12.106482421875,-0.10201449692249298,-0.10445795953273773,0.34513887763023376
1748090027471473700,12.1224736328125,-0.16371189057826996,-0.5644394755363464,0.6407976150512695
1748090027487465000,12.13846484375,-0.1667662113904953,-0.8142833709716797,0.8313875794410706
1748090027503425500,12.154425537109375,-0.1270599663257599,-0.7373143434524536,0.7770205736160278
1748090027519386400,12.170386474609375,-0.01160643994808197,-0.5650503635406494,0.5265658497810364
1748090027535377400,12.18637744140625,0.15454891324043274,-0.27550023794174194,0.24923302233219147
1748090027551368700,12.20236865234375,0.20525072515010834,0.08124507963657379,0.01160643994808197
1748090027567329300,12.218329345703125,0.20586158335208893,0.26145032048225403,-0.1411098688840866
1748090027583290000,12.2342900390625,0.21135938167572021,0.21868975460529327,-0.11423180252313614
1748090027599250700,12.250250732421875,0.18081611394882202,0.1765400618314743,-0.00427605677396059
1748090027623237600,12.274237548828125,0.10995574295520782,0.3170390725135803,-0.08857546001672745
1748090027639228700,12.290228759765625,0.04459316283464432,0.4648684561252594,-0.2718350291252136
1748090027655220000,12.306219970703125,-0.0354301854968071,0.41661009192466736,-0.39217549562454224
1748090027671211300,12.322211181640625,-0.11911872029304504,-0.00855211354792118,-0.3439171314239502
1748090027687171800,12.338171875,-0.17287486791610718,-0.5186246037483215,-0.2076941877603531
1748090027703132700,12.354132568359375,-0.20097467303276062,-0.8118399381637573,-0.09773843735456467
1748090027719093200,12.37009326171875,-0.12889257073402405,-0.7202101349830627,-0.1014036312699318
1748090027735023400,12.3860234375,-0.01710422709584236,-0.40072759985923767,-0.22479841113090515
1748090027750984200,12.401984130859375,0.07330382615327835,0.05742133408784866,-0.3982841372489929
1748090027767006000,12.418005859375,0.07452555745840073,0.32681289315223694,-0.4599815309047699
1748090027782997000,12.4339970703125,0.018325956538319588,0.4043927788734436,-0.42577308416366577
1748090027798957800,12.449957763671875,-0.048258353024721146,0.29504790902137756,-0.36590829491615295
1748090027814949000,12.46594921875,-0.10506882518529892,0.1514945775270462,-0.3188716471195221
1748090027830940200,12.481940185546875,-0.1466076523065567,-0.07757988572120667,-0.2938261926174164
1748090027846901000,12.49790087890625,-0.19058994948863983,-0.34025195240974426,-0.23579397797584534
1748090027870826800,12.52182666015625,-0.2626720666885376,-0.5876523852348328,-0.1814269721508026
1748090027886787300,12.537787353515625,-0.25595253705978394,-0.5821545720100403,-0.09346238523721695
1748090027902778600,12.553778564453125,-0.16310101747512817,-0.38240164518356323,-0.1014036312699318
1748090027918739200,12.5697392578125,-0.08918632566928864,-0.08918632566928864,-0.15760323405265808
1748090027934700000,12.585699951171875,-0.00366519158706069,-0.0006108652451075613,-0.18020524084568024
1748090027950660600,12.60166064453125,0.009773843921720982,-0.04581489413976669,-0.10018189996480942
1748090027966682400,12.617682373046875,0.00733038317412138,-0.10262536257505417,0.04398229718208313
1748090027982673700,12.633673583984375,0.02076941914856434,-0.192422553896904,0.21319197118282318
1748090027998634200,12.64963427734375,0.059864792972803116,-0.1771509200334549,0.2785545587539673
1748090028014625500,12.66562548828125,0.10934487730264664,-0.08979719132184982,0.24129177629947662
1748090028030616800,12.681616943359375,0.1514945775270462,-0.06352998316287994,0.24434609711170197
1748090028046577400,12.697577392578125,0.19364428520202637,-0.0959058403968811,0.2938261926174164
1748090028062538200,12.713538330078125,0.19853121042251587,-0.14233160018920898,0.36651915311813354
1748090028078498800,12.729498779296875,0.2125810980796814,-0.13011430203914642,0.42088615894317627
1748090028094490000,12.745489990234375,0.24678955972194672,-0.0910189226269722,0.4080579876899719
1748090028110420200,12.761420166015625,0.28099802136421204,0.012828170321881771,0.33108896017074585
1748090028126472400,12.777472412109375,0.28955012559890747,0.19425514340400696,0.21624629199504852
1748090028142433000,12.79343310546875,0.2272418737411499,0.3225368559360504,0.11301007121801376
1748090028158393900,12.809393798828125,0.13500121235847473,0.35674530267715454,0.12278391420841217
1748090028174385200,12.82538525390625,0.11545353382825851,0.20891591906547546,0.2675589919090271
1748090028190376200,12.841376220703125,0.15454891324043274,0.1062905490398407,0.42699480056762695
1748090028206337000,12.8573369140625,0.2021963894367218,0.10873401165008545,0.49296826124191284
1748090028222236700,12.873236572265625,0.16432274878025055,0.1313360333442688,0.4789183437824249
1748090028238197200,12.889197265625,0.14049901068210602,0.054367005825042725,0.5186246037483215
1748090028254158000,12.905157958984375,0.1667662113904953,-0.001832595793530345,0.5736024379730225
1748090028270149000,12.921149169921875,0.16004669666290283,0.08796459436416626,0.5894849896430969
1748090028286140400,12.937140380859375,0.12889257073402405,0.2968805134296417,0.607810914516449
1748090028302040000,12.9530400390625,0.11423180252313614,0.3335324227809906,0.6878342628479004
1748090028318000600,12.969000732421875,0.12034045159816742,0.23273965716362,0.7776314616203308
1748090028333961500,12.98496142578125,0.13866640627384186,0.15882496535778046,0.8778133392333984
1748090028349952800,13.000952880859375,0.16432274878025055,0.2431243658065796,0.8955284357070923
1748090028365913300,13.016913330078125,0.2125810980796814,0.37751471996307373,0.8827002644538879
1748090028381813000,13.03281298828125,0.252287358045578,0.4092797040939331,0.8845328688621521
1748090028397773800,13.04877392578125,0.2968805134296417,0.33719760179519653,0.8930850028991699
1748090028413734400,13.064734375,0.3341432809829712,0.08857546001672745,0.9993755221366882
1748090028429725700,13.0807255859375,0.3982841372489929,-0.056810468435287476,1.0952813625335693
1748090028445716700,13.096716796875,0.513737678527832,0.05803219974040985,1.0989465713500977
1748090028461616400,13.112616455078125,0.5974262356758118,0.36102136969566345,1.024420976638794
1748090028477577200,13.1285771484375,0.5809328556060791,0.646906316280365,0.9737191796302795
1748090028493537800,13.144537841796875,0.5674937963485718,0.7312057018280029,0.9224064946174622
1748090028509529000,13.160529052734375,0.6261368989944458,0.5302310585975647,0.8710938692092896
1748090028525489700,13.17648974609375,0.7134906053543091,0.2730567753314972,0.8875871896743774
1748090028541420000,13.192419921875,0.79840087890625,0.27550023794174194,0.8936958312988281
1748090028557380600,13.208380615234375,0.8246681094169617,0.5161811113357544,0.8649851679801941
1748090028573310700,13.224310791015625,0.7324274182319641,0.9926560521125793,0.7782423496246338
1748090028589271600,13.240271484375,0.646906316280365,1.236391305923462,0.7098253965377808
1748090028605262800,13.256262939453125,0.5943718552589417,1.179580807685852,0.6695083379745483
1748090028621223400,13.272223388671875,0.578489363193512,0.8442157506942749,0.6890559792518616
1748090028637214700,13.288214599609375,0.5900958180427551,0.5015203952789307,0.7489207983016968
1748090028653175300,13.30417529296875,0.6120869517326355,0.2981022298336029,0.7922922372817993
1748090028669166600,13.32016650390625,0.6004805564880371,0.342695415019989,0.8319984674453735
1748090028685127200,13.336127197265625,0.5155702829360962,0.5662720799446106,0.8607091307640076
1748090028701088000,13.352087890625,0.42088615894317627,0.8057312369346619,0.8912523984909058
1748090028717018000,13.36801806640625,0.42088615894317627,0.9181304574012756,0.8814785480499268
1748090028733009400,13.384009521484375,0.45692721009254456,0.93095862865448,0.7965682744979858
1748090028749000400,13.40000048828125,0.504574716091156,0.788016140460968,0.7232644557952881
1748090028764961300,13.415961181640625,0.5497786998748779,0.4105014503002167,0.6420193910598755
1748090028780861000,13.43186083984375,0.4746423065662384,-0.04398229718208313,0.394008070230484
1748090028804847600,13.45584765625,0.31459560990333557,-0.18875735998153687,-0.07696902006864548
1748090028820808400,13.471808349609375,0.2278527319431305,-0.06230825558304787,-0.25595253705978394
1748090028836769000,13.48776904296875,0.14477506279945374,0.19853121042251587,-0.24984388053417206
1748090028852729900,13.503729736328125,0.054367005825042725,0.5314527750015259,-0.3292563557624817
1748090028868782000,13.519781982421875,-0.1612684279680252,0.9816604256629944,-0.5919284224510193
1748090028884773000,13.535773193359375,-0.44715335965156555,1.1191051006317139,-0.8411614298820496
1748090028900672800,13.5516728515625,-0.6481280326843262,0.7806857824325562,-0.9456194043159485
1748090028916633600,13.567633544921875,-0.778853178024292,0.09040805697441101,-0.9169087409973145
1748090028932594200,13.58359423828125,-0.8100073337554932,-0.2767219543457031,-0.8503243923187256
1748090028948555000,13.599554931640625,-0.8142833709716797,-0.4703662395477295,-0.8741481900215149
1748090028964576800,13.61557666015625,-0.8729264140129089,-0.6713408827781677,-0.9553932547569275
1748090028980476400,13.631476318359375,-0.9468411207199097,-0.9712757468223572,-1.0696250200271606
1748090028996467500,13.647467529296875,-0.9859365224838257,-1.1942415237426758,-1.2095131874084473
1748090029012428300,13.66342822265625,-1.0305296182632446,-1.0781772136688232,-1.2962560653686523
1748090029028450000,13.679449951171875,-1.036027431488037,-0.8258898258209229,-1.3524556159973145
1748090029044410600,13.69541064453125,-1.0195341110229492,-0.6212499737739563,-1.4031574726104736
1748090029060340700,13.7113408203125,-1.0036516189575195,-0.578489363193512,-1.4850133657455444
1748090029076362500,13.727362548828125,-0.9279043078422546,-0.5876523852348328,-1.519832730293274
1748090029092323300,13.7433232421875,-0.911410927772522,-0.5662720799446106,-1.453248381614685
1748090029108375600,13.75937548828125,-0.9169087409973145,-0.5198463201522827,-1.2907582521438599
1748090029124336000,13.775336181640625,-0.9028588533401489,-0.42699480056762695,-1.2198978662490845
1748090029140297000,13.791296875,-0.9071348905563354,-0.3188716471195221,-1.2180652618408203
1748090029156318700,13.807318603515625,-0.9101892113685608,-0.36590829491615295,-1.187522053718567
1748090029172279300,13.823279296875,-0.8863654732704163,-0.45692721009254456,-1.1594222784042358
1748090029188240100,13.839240234375,-0.8014551997184753,-0.46181413531303406,-1.1215485334396362
1748090029204292400,13.855292236328125,-0.7324274182319641,-0.3335324227809906,-1.1074986457824707
1748090029220192000,13.87119189453125,-0.7018841505050659,-0.29626965522766113,-1.0384708642959595
1748090029236152600,13.887152587890625,-0.6951646208763123,-0.3286454975605011,-0.9657779335975647
1748090029252113400,13.903113525390625,-0.7324274182319641,-0.3646865487098694,-0.9040805697441101
1748090029268104400,13.9191044921875,-0.7250970602035522,-0.4660901725292206,-0.8014551997184753
1748090029284156700,13.93515673828125,-0.7250970602035522,-0.4789183437824249,-0.7055493593215942
1748090029300056300,13.951056396484375,-0.7122688889503479,-0.41172316670417786,-0.6414085030555725
1748090029316078000,13.967078125,-0.6340781450271606,-0.29565876722335815,-0.5577199459075928
1748090029332039000,13.983038818359375,-0.5393940210342407,-0.07452555745840073,-0.5009095072746277
1748090029347999500,13.99899951171875,-0.43799036741256714,0.08857546001672745,-0.39584067463874817
1748090029364082400,14.01508251953125,-0.3323107063770294,-0.036651913076639175,-0.24862214922904968
1748090029379982000,14.030982177734375,-0.24923302233219147,-0.16249015927314758,-0.12400564551353455
1748090029395942700,14.046942626953125,-0.1814269721508026,-0.25595253705978394,0.015882495790719986
1748090029411903200,14.0629033203125,-0.08979719132184982,-0.32681289315223694,0.08246681094169617
1748090029427864000,14.078864013671875,0.006719517521560192,-0.2687807083129883,0.08796459436416626
1748090029443916300,14.094916259765625,0.09651670604944229,-0.10934487730264664,0.02626720629632473
1748090029459816000,14.11081591796875,0.15577064454555511,0.10873401165008545,-0.016493361443281174
1748090029475807200,14.12680712890625,0.21930062770843506,0.38117989897727966,-0.027488935738801956
1748090029491767800,14.142767822265625,0.20036379992961884,0.5198463201522827,-0.005497787147760391
1748090029507789600,14.15878955078125,0.16493362188339233,0.2791654169559479,0.0708603709936142
1748090029523750400,14.17475048828125,0.1362229436635971,-0.14477506279945374,0.11362093687057495
1748090029539711000,14.1907109375,0.06108652427792549,-0.2730567753314972,-0.009773843921720982
1748090029555671600,14.206671630859375,-0.05253441259264946,-0.15027284622192383,-0.2932153046131134
1748090029571662800,14.222662841796875,-0.07452555745840073,-0.05803219974040985,-0.3274237811565399
1748090029587654100,14.238654052734375,-0.03787364438176155,-0.016493361443281174,-0.24434609711170197
1748090029603676000,14.254676025390625,-0.02626720629632473,-0.06963863968849182,-0.23151792585849762
1748090029619606000,14.27060595703125,-0.059864792972803116,-0.003054326167330146,-0.21807889640331268
1748090029635566600,14.286566650390625,-0.12767083942890167,0.06291911751031876,-0.16493362188339233
1748090029651558000,14.302557861328125,-0.16065755486488342,-0.005497787147760391,-0.10995574295520782
1748090029667518500,14.3185185546875,-0.16310101747512817,-0.07696902006864548,-0.09468411654233932
1748090029683540200,14.334540283203125,-0.1466076523065567,-0.13316862285137177,-0.07024950534105301
1748090029699501000,14.3505009765625,-0.1270599663257599,-0.20402899384498596,-0.033597588539123535
1748090029715492000,14.3664921875,-0.08246681094169617,-0.20830504596233368,-0.018936822190880775
1748090029731453000,14.382452880859375,0.0024434609804302454,-0.18081611394882202,-0.02076941914856434
1748090029747444200,14.3984443359375,0.09773843735456467,-0.17470745742321014,-0.014049900695681572
1748090029763496400,14.414496337890625,0.1417207419872284,-0.08918632566928864,-0.01038470957428217
1748090029779426600,14.430426513671875,0.1563815027475357,-0.02932153269648552,-0.00366519158706069
1748090029795387100,14.44638720703125,0.15577064454555511,0.048258353024721146,-0.018325956538319588
1748090029811378400,14.46237841796875,0.14782938361167908,0.19608774781227112,-0.04398229718208313
1748090029827369700,14.47836962890625,0.13316862285137177,0.32009339332580566,-0.01160643994808197
1748090029843391500,14.4943916015625,0.07757988572120667,0.28588494658470154,0.05192354694008827
1748090029859352000,14.51035205078125,0.039095375686883926,0.060475658625364304,0.08857546001672745
1748090029875313000,14.52631298828125,-0.00855211354792118,-0.22968533635139465,0.05864306539297104
1748090029891304000,14.542303955078125,-0.012828170321881771,-0.38606682419776917,-0.010995574295520782
1748090029907264800,14.5582646484375,0.005497787147760391,-0.3701843321323395,-0.06719517707824707
1748090029923317000,14.57431689453125,0.039095375686883926,-0.28527405858039856,-0.11789698898792267
1748090029939247000,14.5902470703125,0.05803219974040985,-0.252287358045578,-0.12461651116609573
1748090029955207700,14.606207763671875,0.05314527451992035,-0.09773843735456467,-0.09834930300712585
1748090029971229400,14.6222294921875,0.0403171069920063,0.1111774742603302,-0.08552113175392151
1748090029987220700,14.638220703125,0.05009094998240471,0.27977627515792847,-0.11178833991289139
1748090030003212000,14.6542119140625,0.025045474991202354,0.42760565876960754,-0.14782938361167908
1748090030019172600,14.670172607421875,-0.02626720629632473,0.36590829491615295,-0.1362229436635971
1748090030035164000,14.686163818359375,-0.07635815441608429,0.19914206862449646,-0.08185594528913498
1748090030051155000,14.702155029296875,-0.12889257073402405,0.010995574295520782,-0.018936822190880775
1748090030067146200,14.718146240234375,-0.11545353382825851,-0.12767083942890167,0.06291911751031876
1748090030083107000,14.734107177734375,-0.04764748737215996,-0.21135938167572021,0.09224065393209457
1748090030099067600,14.750067626953125,0.027488935738801956,-0.08674286305904388,0.039095375686883926
1748090030115028200,14.7660283203125,0.0861319974064827,-0.01466076634824276,-0.00366519158706069
1748090030131019500,14.78201953125,0.10934487730264664,0.048258353024721146,0.012828170321881771
1748090030147010800,14.7980107421875,0.09162978827953339,0.04398229718208313,0.09896016865968704
1748090030162971400,14.813971435546875,0.054367005825042725,0.02321287989616394,0.2021963894367218
1748090030178932200,14.82993212890625,-0.04642575979232788,0.010995574295520782,0.16737708449363708
1748090030194892800,14.845892822265625,-0.12339477986097336,-0.08796459436416626,0.04459316283464432
1748090030210884000,14.861884033203125,-0.19364428520202637,-0.04398229718208313,0.00855211354792118
1748090030226875400,14.87787548828125,-0.2272418737411499,0.02687807008624077,0.0555887371301651
1748090030242836000,14.8938359375,-0.2791654169559479,0.02932153269648552,0.18020524084568024
1748090030258735600,14.909735595703125,-0.2632829248905182,-0.11972958594560623,0.27122417092323303
1748090030274757400,14.92575732421875,-0.23090706765651703,-0.2681698501110077,0.29626965522766113
1748090030290748700,14.941748779296875,-0.21930062770843506,-0.2871066629886627,0.27000242471694946
1748090030306739700,14.95773974609375,-0.19975294172763824,-0.20830504596233368,0.2125810980796814
1748090030322700500,14.973700439453125,-0.17348572611808777,-0.20097467303276062,0.1563815027475357
1748090030338661000,14.9896611328125,-0.05192354694008827,-0.22907446324825287,0.11728613078594208
1748090030354652400,15.00565234375,0.039706241339445114,-0.20586158335208893,0.12095131725072861
1748090030370613000,15.021613037109375,0.14844025671482086,-0.16004669666290283,0.04642575979232788
1748090030386665200,15.037665283203125,0.19914206862449646,-0.08429940044879913,-0.03481931984424591
1748090030402626000,15.0536259765625,0.2174680233001709,0.05619960278272629,-0.12095131725072861
1748090030418556200,15.06955615234375,0.20830504596233368,0.14966198801994324,-0.1411098688840866
1748090030434578000,15.085577880859375,0.2272418737411499,0.1362229436635971,-0.16065755486488342
1748090030450538500,15.10153857421875,0.2217440903186798,0.06658431142568588,-0.07819075137376785
1748090030466591000,15.117591064453125,0.2021963894367218,0.1014036312699318,-0.09040805697441101
1748090030482582000,15.13358203125,0.10323622822761536,0.16432274878025055,-0.21624629199504852
1748090030498481700,15.149481689453125,0.06780604273080826,0.08124507963657379,-0.1765400618314743
1748090030514503400,15.16550341796875,0.04153883829712868,0.039706241339445114,-0.09162978827953339
1748090030530464300,15.18146435546875,-0.01710422709584236,0.042760565876960754,-0.05375614017248154
1748090030546424800,15.1974248046875,-0.010995574295520782,0.05925392732024193,-0.039706241339445114
1748090030562477000,15.21347705078125,0.024434609338641167,0.031154127791523933,-0.07024950534105301
1748090030578315800,15.229315673828125,0.030543262138962746,-0.04153883829712868,-0.08552113175392151
1748090030594276400,15.2452763671875,0.02626720629632473,0.02871066704392433,-0.11789698898792267
1748090030610237200,15.2612373046875,-0.051312681287527084,0.11545353382825851,-0.17531833052635193
1748090030626197800,15.27719775390625,-0.11850785464048386,0.03420845419168472,-0.11484266817569733
1748090030642219500,15.293219482421875,-0.1820378452539444,-0.1820378452539444,0.04642575979232788
1748090030658210800,15.3092109375,-0.23029619455337524,-0.4392121136188507,0.14477506279945374
1748090030674141000,15.325140869140625,-0.22602014243602753,-0.6285803318023682,0.18020524084568024
1748090030690101500,15.3411015625,-0.17287486791610718,-0.5864306092262268,0.20036379992961884
1748090030706092800,15.3570927734375,-0.10934487730264664,-0.29993483424186707,0.18814650177955627
1748090030722053400,15.373053466796875,-0.09162978827953339,0.0708603709936142,0.12461651116609573
1748090030738014200,15.38901416015625,-0.13805554807186127,0.26083946228027344,0.06780604273080826
1748090030754036000,15.405035888671875,-0.19364428520202637,0.3072652220726013,0.08185594528913498
1748090030769996500,15.42099658203125,-0.23884831368923187,0.22846360504627228,0.1716531366109848
1748090030785957400,15.436957275390625,-0.18875735998153687,0.17287486791610718,0.242513507604599
1748090030802040000,15.4530400390625,-0.13866640627384186,0.09162978827953339,0.24190263450145721
1748090030817939700,15.468939697265625,-0.13744467496871948,-0.06780604273080826,0.15271630883216858
1748090030833900500,15.484900634765625,-0.15271630883216858,-0.17776179313659668,0.07269296050071716
1748090030849891600,15.5008916015625,-0.1362229436635971,-0.182648703455925,0.05314527451992035
1748090030865883000,15.5168828125,-0.08491026610136032,-0.15393804013729095,0.05009094998240471
1748090030881935000,15.53293505859375,-0.031154127791523933,-0.01771509274840355,0.04092797264456749
1748090030897865200,15.548865234375,-0.00733038317412138,0.08002334833145142,-0.024434609338641167
1748090030913826000,15.564825927734375,0.001832595793530345,0.09651670604944229,-0.08857546001672745
1748090030929847800,15.580847900390625,-0.02626720629632473,-0.015271631069481373,-0.12889257073402405
1748090030945838800,15.5968388671875,-0.03848451003432274,-0.2064724564552307,-0.08124507963657379
1748090030961830100,15.612830078125,-0.024434609338641167,-0.30604347586631775,-0.02932153269648552
1748090030977729800,15.628729736328125,0.029932396486401558,-0.32009339332580566,-0.015882495790719986
1748090030993751600,15.64475146484375,0.10812314599752426,-0.22968533635139465,-0.013439035043120384
1748090031009712000,15.660712158203125,0.20830504596233368,-0.0403171069920063,-0.004886921960860491
1748090031025734000,15.67673388671875,0.2724458873271942,0.2076941877603531,-0.03420845419168472
1748090031041725200,15.69272509765625,0.2785545587539673,0.3604104816913605,-0.05803219974040985
1748090031057685800,15.708685791015625,0.26083946228027344,0.41111230850219727,-0.05375614017248154
1748090031073677000,15.724677001953125,0.21074850857257843,0.35063666105270386,-0.033597588539123535
1748090031089637600,15.7406376953125,0.08735372871160507,0.2376265823841095,-0.029932396486401558
1748090031105598500,15.756598388671875,-0.051312681287527084,0.07696902006864548,-0.010995574295520782
1748090031121650700,15.772650634765625,-0.1319468915462494,-0.06658431142568588,0.04642575979232788
1748090031137550300,15.78855029296875,-0.17287486791610718,-0.17776179313659668,0.14477506279945374
1748090031153511000,15.804510986328125,-0.17898350954055786,-0.20586158335208893,0.2028072625398636
1748090031169471700,15.8204716796875,-0.1466076523065567,-0.21135938167572021,0.2535090744495392
1748090031185463000,15.836463134765625,-0.12278391420841217,-0.10201449692249298,0.2730567753314972
1748090031201545700,15.852545654296875,-0.10934487730264664,0.02687807008624077,0.3078760802745819
1748090031217445400,15.8684453125,-0.09407325088977814,0.10445795953273773,0.4050036668777466
1748090031233406000,15.884406005859375,-0.08735372871160507,0.1417207419872284,0.5296201705932617
1748090031249366800,15.90036669921875,-0.09468411654233932,0.1411098688840866,0.6994407176971436
1748090031265357800,15.91635791015625,-0.10018189996480942,0.08124507963657379,0.8307767510414124
1748090031281318700,15.932318603515625,-0.11301007121801376,0.09040805697441101,0.911410927772522
1748090031297279200,15.948279296875,-0.10567969083786011,0.07880161702632904,1.0329731702804565
1748090031313301000,15.964301025390625,-0.07513642311096191,-0.03848451003432274,1.0897835493087769
1748090031329261800,15.98026171875,-0.05314527451992035,-0.18631389737129211,1.1246029138565063
1748090031345222400,15.996222412109375,-0.03298672288656235,-0.26083946228027344,1.1386528015136719
1748090031361274600,16.012274658203125,0.0354301854968071,-0.24495697021484375,1.1160508394241333
1748090031377174300,16.02817431640625,0.1007927656173706,-0.2474004179239273,1.1032226085662842
1748090031393135000,16.044135009765625,0.1362229436635971,-0.25473082065582275,1.151481032371521
1748090031409095700,16.060095703125,0.16065755486488342,-0.3237585723400116,1.2082914113998413
1748090031425087000,16.0760869140625,0.2168571650981903,-0.3341432809829712,1.2510520219802856
1748090031441047600,16.092047607421875,0.30115658044815063,-0.2981022298336029,1.3096951246261597
1748090031456978000,16.10797802734375,0.5174028873443604,-0.07941248267889023,1.4110987186431885
1748090031472938500,16.1239384765625,0.5931501388549805,0.1319468915462494,1.3756685256958008
1748090031488899000,16.139899169921875,0.588263213634491,0.3335324227809906,1.2596040964126587
1748090031504860000,16.15585986328125,0.6035348773002625,0.3982841372489929,1.2107349634170532
1748090031520912100,16.171912109375,0.5681046843528748,0.242513507604599,1.2803735733032227
1748090031536811800,16.187811767578125,0.5919284224510193,-0.025656340643763542,1.4453071355819702
1748090031552772600,16.203772705078126,0.7159340381622314,-0.10201449692249298,1.5204435586929321
1748090031568733200,16.219733154296875,0.9053022861480713,0.21868975460529327,1.4306464195251465
1748090031584724500,16.235724365234375,0.9248499870300293,0.8692612648010254,1.177748203277588
1748090031600715500,16.251715576171875,0.9560040831565857,1.2528846263885498,0.9260717034339905
1748090031616646000,16.26764599609375,1.0390818119049072,1.341460108757019,0.7336491346359253
1748090031632637000,16.283636962890625,1.073290228843689,1.299310326576233,0.7037167549133301
1748090031648597800,16.29959765625,1.0543533563613892,1.2180652618408203,0.7055493593215942
1748090031664650000,16.31564990234375,0.9352346658706665,1.1447614431381226,0.66584312915802
1748090031680610600,16.331610595703125,0.7391469478607178,1.0629055500030518,0.5974262356758118
1748090031696541000,16.347541015625,0.47708576917648315,0.8399397134780884,0.5082398653030396
1748090031712532000,16.363531982421875,0.3280346393585205,0.35246923565864563,0.475253164768219
1748090031728462000,16.379462158203125,0.2828305959701538,-0.15027284622192383,0.513737678527832
1748090031744453400,16.395453369140625,0.24617868661880493,-0.4660901725292206,0.627358615398407
1748090031760475100,16.41147509765625,0.18081611394882202,-0.455705463886261,0.7153232097625732
1748090031776466400,16.427466552734376,0.08368854224681854,-0.37751471996307373,0.7037167549133301
1748090031792457500,16.44345751953125,0.004886921960860491,-0.3121521472930908,0.5894849896430969
1748090031808479200,16.459479248046875,-0.006108652334660292,-0.2968805134296417,0.45326200127601624
1748090031824440000,16.475440185546876,0.018325956538319588,-0.23640485107898712,0.3341432809829712
1748090031840461800,16.4914619140625,0.059864792972803116,-0.22418753802776337,0.294437050819397
1748090031856452900,16.507452880859375,0.08918632566928864,-0.2724458873271942,0.33475416898727417
1748090031872413700,16.52341357421875,0.05192354694008827,-0.3066543638706207,0.3738495409488678
1748090031888435500,16.539435546875,-0.006108652334660292,-0.2840523421764374,0.3549126982688904
1748090031904396000,16.55539599609375,-0.06291911751031876,-0.2119702398777008,0.23335053026676178
1748090031920356600,16.571356689453125,-0.0959058403968811,-0.16737708449363708,0.03420845419168472
1748090031936287000,16.587286865234375,-0.13011430203914642,-0.08674286305904388,-0.3084869384765625
1748090031952278000,16.603278076171875,-0.18509216606616974,0.1814269721508026,-0.5937610268592834
1748090031968208400,16.61920849609375,-0.25961771607398987,0.3579670190811157,-0.7079927921295166
1748090031984169000,16.6351689453125,-0.33169981837272644,0.3695734739303589,-0.6951646208763123
1748090032000160300,16.65116015625,-0.3732386529445648,0.29504790902137756,-0.5931501388549805
1748090032016120800,16.667120849609375,-0.4746423065662384,0.10873401165008545,-0.48808133602142334
1748090032032112000,16.683112060546875,-0.5607742667198181,-0.1417207419872284,-0.4996877610683441
1748090032048042200,16.699042236328125,-0.626747727394104,-0.34086281061172485,-0.5949827432632446
1748090032064003000,16.715003173828126,-0.646906316280365,-0.6505714654922485,-0.7629706859588623
1748090032080055300,16.73105517578125,-0.6811147332191467,-0.8228355050086975,-0.8710938692092896
1748090032096016000,16.747015869140625,-0.6988298296928406,-0.8662069439888,-0.949895441532135
1748090032112007200,16.763007080078125,-0.694553792476654,-0.8625417351722717,-1.0195341110229492
1748090032127967700,16.7789677734375,-0.694553792476654,-0.8472700715065002,-1.0903944969177246
1748090032143959000,16.794958984375,-0.6884451508522034,-0.7055493593215942,-1.254717230796814
1748090032159919600,16.810919677734375,-0.6633996367454529,-0.5174028873443604,-1.4373658895492554
1748090032175819300,16.8268193359375,-0.6707300543785095,-0.30054569244384766,-1.5497651100158691
1748090032191810600,16.842810546875,-0.7079927921295166,-0.36224308609962463,-1.4868459701538086
1748090032207740700,16.85874072265625,-0.7385360598564148,-0.5393940210342407,-1.3561208248138428
1748090032223732000,16.87473193359375,-0.7409795522689819,-0.7214318513870239,-1.2718214988708496
1748090032239753700,16.890753662109375,-0.7336491346359253,-0.7134906053543091,-1.3243558406829834
1748090032255745000,16.9067451171875,-0.7629706859588623,-0.7226535677909851,-1.4104878902435303
1748090032271736000,16.922736083984375,-0.7544185519218445,-0.9425650835037231,-1.3475687503814697
1748090032287757800,16.9387578125,-0.7415903806686401,-1.083064079284668,-1.235169529914856
1748090032303749000,16.9547490234375,-0.750142514705658,-1.0219775438308716,-1.1575896739959717
1748090032319771000,16.97077099609375,-0.7513642311096191,-0.8014551997184753,-1.1453723907470703
1748090032335762000,16.986761962890625,-0.7672467231750488,-0.7116580009460449,-1.1789699792861938
1748090032351722800,17.00272265625,-0.7782423496246338,-0.6108652353286743,-1.2137892246246338
1748090032367683300,17.018683349609375,-0.789237916469574,-0.4807509481906891,-1.2082914113998413
1748090032383674600,17.034674560546875,-0.7745771408081055,-0.4612032473087311,-1.1362093687057495
1748090032399635200,17.05063525390625,-0.7635815739631653,-0.598647952079773,-0.9914342761039734
1748090032415596000,17.066595947265625,-0.7373143434524536,-0.7367035150527954,-0.9199630618095398
1748090032431617800,17.08261767578125,-0.7061602473258972,-0.8436049222946167,-0.8472700715065002
1748090032447608800,17.09860888671875,-0.66584312915802,-0.8784242272377014,-0.7385360598564148
1748090032463600000,17.11460009765625,-0.5748242139816284,-0.8881980776786804,-0.5876523852348328
1748090032479560700,17.130560791015625,-0.40072759985923767,-0.7709119319915771,-0.4709770977497101
1748090032495491000,17.146490966796875,-0.2076941877603531,-0.4386012554168701,-0.45142942667007446
1748090032511482000,17.162482177734375,0.006719517521560192,0.11239920556545258,-0.45692721009254456
1748090032527473400,17.178473388671875,0.11301007121801376,0.42210787534713745,-0.423329621553421
1748090032543464700,17.194464599609375,0.182648703455925,0.5283984541893005,-0.3243694305419922
1748090032559455700,17.210455810546875,0.20341812074184418,0.42699480056762695,-0.2064724564552307
1748090032575355400,17.22635546875,0.2321287989616394,0.28099802136421204,-0.15943582355976105
1748090032591316200,17.242316162109375,0.23518311977386475,0.11545353382825851,-0.23640485107898712
1748090032607307500,17.2583076171875,0.2272418737411499,0.1007927656173706,-0.3793473243713379
1748090032623268000,17.27426806640625,0.20341812074184418,0.1814269721508026,-0.4489859640598297
1748090032639289900,17.290289794921875,0.2675589919090271,0.10506882518529892,-0.44226643443107605
1748090032655281200,17.30628125,0.2816088795661926,0.06658431142568588,-0.49724429845809937
1748090032671241700,17.32224169921875,0.2571742534637451,0.03481931984424591,-0.5736024379730225
1748090032687202300,17.338202392578125,0.21807889640331268,0.005497787147760391,-0.5338962078094482
1748090032703193600,17.354193603515625,0.23945917189121246,-0.06902777403593063,-0.30970868468284607
1748090032719154400,17.370154541015626,0.2877175211906433,-0.1215621829032898,-0.004886921960860491
1748090032735054000,17.38605419921875,0.27061331272125244,-0.17592918872833252,0.26022860407829285
1748090032751014700,17.4020146484375,0.24678955972194672,-0.2816088795661926,0.39645153284072876
1748090032767036400,17.418036376953125,0.19975294172763824,-0.3494149148464203,0.37690386176109314
1748090032783027700,17.43402783203125,0.2028072625398636,-0.45265114307403564,0.33108896017074585
1748090032799049500,17.450049560546876,0.11789698898792267,-0.6395758986473083,0.38179078698158264
1748090032815040500,17.46604052734375,-0.03848451003432274,-0.7867944240570068,0.48197266459465027
1748090032831031800,17.48203173828125,-0.152105450630188,-0.8283332586288452,0.5809328556060791
1748090032846992400,17.497992431640625,-0.09712757170200348,-0.6414085030555725,0.617584764957428
1748090032862983700,17.513983642578125,0.03787364438176155,-0.37751471996307373,0.6004805564880371
1748090032878944300,17.5299443359375,0.1319468915462494,-0.11667526513338089,0.4948008358478546
1748090032894905000,17.545905029296875,0.09285151958465576,0.02076941914856434,0.40133845806121826
1748090032910896400,17.561896484375,-0.015882495790719986,0.05375614017248154,0.29626965522766113
1748090032926826500,17.577826416015625,-0.07696902006864548,0.10201449692249298,0.2028072625398636
1748090032942817500,17.593817626953125,-0.12522737681865692,0.0555887371301651,0.11362093687057495
1748090032958900500,17.609900390625,-0.13866640627384186,-0.039706241339445114,0.0555887371301651
1748090032974800100,17.625800048828125,-0.13377949595451355,-0.13561208546161652,0.07819075137376785
1748090032990760700,17.6417607421875,-0.07757988572120667,-0.1160643994808197,0.13805554807186127
1748090033006782500,17.657782470703125,-0.014049900695681572,0.027488935738801956,0.2321287989616394
1748090033022773800,17.673773681640625,0.07024950534105301,0.16065755486488342,0.38728857040405273
1748090033038764800,17.689764892578125,0.16004669666290283,0.27550023794174194,0.6328563690185547
1748090033054725600,17.7057255859375,0.2822197377681732,0.23518311977386475,0.7715228199958801
1748090033070717000,17.721717041015626,0.4440990388393402,0.3274237811565399,0.8546004891395569
1748090033086708000,17.7377080078125,0.5656611919403076,0.4092797040939331,0.9059131741523743
1748090033102729700,17.753729736328125,0.5968153476715088,0.39584067463874817,0.9944885969161987
1748090033118690600,17.769690673828126,0.5564982295036316,0.29138273000717163,1.1844676733016968
1748090033134620700,17.78562060546875,0.5375614166259766,0.16798794269561768,1.3298536539077759
1748090033150581200,17.801581298828125,0.5320636034011841,0.25595253705978394,1.433700680732727
1748090033166542000,17.8175419921875,0.598647952079773,0.5149593949317932,1.4141530990600586
1748090033182502700,17.833502685546875,0.7305948138237,0.7446447610855103,1.4275920391082764
1748090033198524400,17.8495244140625,0.8888089060783386,0.8894197940826416,1.5149458646774292
1748090033214515700,17.865515625,1.0403034687042236,0.960280179977417,1.5906931161880493
1748090033230476300,17.881476318359375,1.130711555480957,1.0714576244354248,1.5949691534042358
1748090033246437000,17.89743701171875,1.1301007270812988,1.1093312501907349,1.6102408170700073
1748090033262397700,17.913397705078125,1.0793988704681396,1.024420976638794,1.6383405923843384
1748090033278419500,17.92941943359375,1.0525208711624146,0.9291260242462158,1.7024813890457153
1748090033294410800,17.94541064453125,1.1172724962234497,0.8820894360542297,1.7831156253814697
1748090033310371300,17.961371337890625,1.2290608882904053,0.8741481900215149,1.6988162994384766
1748090033326362600,17.977362548828125,1.2583824396133423,0.9969320893287659,1.5619823932647705
1748090033342353700,17.993353759765625,1.1740829944610596,1.027475357055664,1.4410310983657837
1748090033358314500,18.009314453125,0.988379955291748,0.8973610401153564,1.3683381080627441
1748090033374244600,18.02524462890625,0.8057312369346619,0.6035348773002625,1.4196507930755615
1748090033390236000,18.04123583984375,0.6841690540313721,0.35185837745666504,1.4269812107086182
1748090033406166000,18.057166015625,0.5522221922874451,0.4612032473087311,1.3145819902420044
1748090033422126800,18.073126953125,0.41233405470848083,0.6829473376274109,1.1129964590072632
1748090033438179000,18.089178955078125,0.24068090319633484,1.0012081861495972,0.8014551997184753
1748090033454078700,18.10507861328125,0.06902777403593063,1.0684033632278442,0.5277875661849976
1748090033470039300,18.121039306640625,-0.08857546001672745,0.6688974499702454,0.42271876335144043
1748090033486030600,18.137030517578125,-0.2626720666885376,-0.11484266817569733,0.4948008358478546
1748090033501991200,18.1529912109375,-0.40683624148368835,-0.6872233748435974,0.6102544069290161
1748090033518013000,18.169012939453125,-0.5198463201522827,-1.0525208711624146,0.5748242139816284
1748090033533943000,18.184943115234375,-0.5613851547241211,-1.0873401165008545,0.33658674359321594
1748090033549934300,18.200934326171875,-0.5821545720100403,-0.8478809595108032,-0.021380282938480377
1748090033565956000,18.2169560546875,-0.6157521605491638,-0.41661009192466736,-0.4153883755207062
1748090033581947400,18.232947509765626,-0.6450737118721008,-0.20525072515010834,-0.6023131608963013
1748090033597969000,18.248968994140625,-0.6493497490882874,-0.2779437005519867,-0.6890559792518616
1748090033613960200,18.264960205078125,-0.6352998614311218,-0.39156460762023926,-0.6933320760726929
1748090033629921000,18.280921142578126,-0.626747727394104,-0.4282165467739105,-0.7202101349830627
1748090033645942800,18.29694287109375,-0.6481280326843262,-0.5534439086914062,-0.807563841342926
1748090033661933800,18.312933837890625,-0.6994407176971436,-0.6737843751907349,-0.9376781582832336
1748090033677955600,18.32895556640625,-0.808174729347229,-0.6670648455619812,-1.1142182350158691
1748090033693947000,18.34494677734375,-0.9150761365890503,-0.5473352670669556,-1.207069754600525
1748090033709938000,18.36093798828125,-0.9669997096061707,-0.41661009192466736,-1.2150110006332397
1748090033725898800,18.376898681640625,-0.959669291973114,-0.36102136969566345,-1.2180652618408203
1748090033741890000,18.39289013671875,-0.9150761365890503,-0.375071257352829,-1.2302825450897217
1748090033757850600,18.4088505859375,-0.8399397134780884,-0.384845107793808,-1.2638801336288452
1748090033773750300,18.424750244140625,-0.7800748944282532,-0.29565876722335815,-1.3182471990585327
1748090033789710800,18.4407109375,-0.7458664774894714,-0.16554448008537292,-1.3952162265777588
1748090033805671700,18.456671630859375,-0.7299839854240417,-0.06108652427792549,-1.4960089921951294
1748090033821632300,18.47263232421875,-0.7666358947753906,-0.09834930300712585,-1.5625933408737183
1748090033837623600,18.48862353515625,-0.8240572214126587,-0.32620203495025635,-1.538158655166626
1748090033853614800,18.50461474609375,-0.8845328688621521,-0.5375614166259766,-1.3811663389205933
1748090033869575400,18.520575439453125,-0.9388998746871948,-0.7428121566772461,-1.1954632997512817
1748090033885536300,18.536536376953126,-0.9804387092590332,-1.0390818119049072,-1.0231993198394775
1748090033901496800,18.552496826171875,-1.0054842233657837,-1.1441506147384644,-0.9486737251281738
1748090033917518600,18.5685185546875,-1.006095051765442,-1.083064079284668,-0.930347740650177
1748090033933418200,18.584418212890625,-0.9437867999076843,-0.9327912330627441,-0.9071348905563354
1748090033949378800,18.60037890625,-0.8802568316459656,-0.8411614298820496,-0.7666358947753906
1748090033965400600,18.616400634765625,-0.7806857824325562,-0.8399397134780884,-0.6976081132888794
1748090033981392000,18.632391845703125,-0.7330383062362671,-0.6664539575576782,-0.7312057018280029
1748090033997383200,18.648383056640625,-0.6707300543785095,-0.4612032473087311,-0.8301658630371094
1748090034013313300,18.664313232421875,-0.6206390857696533,-0.3530801236629486,-0.7635815739631653
1748090034029304600,18.6803046875,-0.5803219676017761,-0.41111230850219727,-0.5998696684837341
1748090034045234700,18.696234619140625,-0.5070181488990784,-0.4386012554168701,-0.4813618063926697
1748090034061195300,18.7121953125,-0.4447098970413208,-0.29016098380088806,-0.45753806829452515
1748090034077247500,18.72824755859375,-0.38240164518356323,-0.2021963894367218,-0.494189977645874
1748090034093208300,18.744208251953125,-0.35552358627319336,-0.23029619455337524,-0.49235737323760986
1748090034109169000,18.7601689453125,-0.2987131178379059,-0.3805690407752991,-0.41661009192466736
1748090034125190700,18.776190673828125,-0.21013765037059784,-0.5064072608947754,-0.294437050819397
1748090034141151500,18.7921513671875,-0.12522737681865692,-0.5180137157440186,-0.23151792585849762
1748090034157142500,18.808142578125,-0.06841690838336945,-0.42271876335144043,-0.19547687470912933
1748090034173133800,18.8241337890625,-0.007941247895359993,-0.2070833146572113,-0.13988813757896423
1748090034189064000,18.84006396484375,0.05742133408784866,-0.033597588539123535,-0.09224065393209457
1748090034205055200,18.85605517578125,0.16310101747512817,0.13255776464939117,-0.03420845419168472
1748090034221046500,18.872046630859376,0.252287358045578,0.22846360504627228,0.006108652334660292
1748090034237007000,18.888007080078125,0.294437050819397,0.27611109614372253,0.04337143152952194
1748090034252906800,18.90390673828125,0.30115658044815063,0.24862214922904968,0.1014036312699318
1748090034268898000,18.91989794921875,0.3078760802745819,0.1966986060142517,0.16920967400074005
1748090034284828200,18.935828125,0.31031954288482666,0.13255776464939117,0.2565633952617645
1748090034300819500,18.9518193359375,0.3090978264808655,0.07330382615327835,0.342695415019989
1748090034316841200,18.96784130859375,0.30970868468284607,0.033597588539123535,0.42149701714515686
1748090034332832300,18.983832275390625,0.3139847218990326,0.03848451003432274,0.484416127204895
1748090034348793000,18.99979296875,0.3121521472930908,0.1612684279680252,0.5192354321479797
1748090034364784000,19.0157841796875,0.3090978264808655,0.24678955972194672,0.5962044596672058
1748090034380775400,19.031775390625,0.3176499307155609,0.25595253705978394,0.7006624341011047
1748090034396766700,19.0477666015625,0.3127630054950714,0.24373523890972137,0.7733554244041443
1748090034412696800,19.06369677734375,0.3219259977340698,0.24190263450145721,0.8362745046615601
1748090034428657400,19.079657470703125,0.33536502718925476,0.3023782968521118,0.8704829812049866
1748090034444618200,19.0956181640625,0.3634648323059082,0.38240164518356323,0.9254608750343323
1748090034460609300,19.111609375,0.394008070230484,0.35552358627319336,1.0024298429489136
1748090034476600600,19.1276005859375,0.40072759985923767,0.2919935882091522,1.0604621171951294
1748090034492530700,19.14353076171875,0.4098905920982361,0.2278527319431305,1.1050552129745483
1748090034508522000,19.15952197265625,0.4184426963329315,0.2125810980796814,1.1606439352035522
1748090034524513300,19.17551318359375,0.455705463886261,0.24007004499435425,1.2345587015151978
1748090034540504300,19.19150439453125,0.5112941861152649,0.3176499307155609,1.2638801336288452
1748090034556495600,19.20749560546875,0.5583308339118958,0.3897320330142975,1.2736539840698242
1748090034572395300,19.223395263671875,0.5925393104553223,0.3854559659957886,1.289536476135254
1748090034588386600,19.239386474609375,0.6188064813613892,0.2883284091949463,1.3658946752548218
1748090034604347100,19.25534716796875,0.6414085030555725,0.21502456068992615,1.5693128108978271
1748090034620338400,19.27133837890625,0.6548475623130798,0.2987131178379059,1.742187738418579
1748090034636329700,19.287329833984376,0.6682865619659424,0.5057964324951172,1.76723313331604
1748090034652259800,19.303259765625,0.6774495840072632,0.8246681094169617,1.6823228597640991
1748090034668251000,19.3192509765625,0.7122688889503479,1.0012081861495972,1.6181820631027222
1748090034684181200,19.33518115234375,0.7678576111793518,1.0409144163131714,1.642616629600525
1748090034700141800,19.351141845703125,0.827111542224884,0.9737191796302795,1.7269160747528076
1748090034716133000,19.367133056640625,0.8753699064254761,0.9896016716957092,1.7892242670059204
1748090034732032800,19.38303271484375,0.9004153609275818,1.0531316995620728,1.653001308441162
1748090034748024000,19.399024169921876,0.9034696817398071,1.301142930984497,1.3671164512634277
1748090034764045600,19.415045654296875,0.8405506014823914,1.4489723443984985,0.8289441466331482
1748090034780036900,19.431036865234375,0.7141014933586121,0.769079327583313,0.17776179313659668
1748090034796028200,19.447028076171875,0.5546656250953674,0.6236934065818787,-0.0959058403968811
1748090034811958300,19.462958251953125,0.35613444447517395,0.7031059265136719,-0.14416420459747314
1748090034827949600,19.478949462890625,0.04337143152952194,0.7226535677909851,-0.01038470957428217
1748090034843910100,19.49491015625,-0.4453207552433014,0.17959438264369965,0.18631389737129211
1748090034859871000,19.51087109375,-0.8301658630371094,-0.7483099102973938,0.29993483424186707
1748090034875923200,19.526923095703125,-1.0085384845733643,-1.4422528743743896,0.3549126982688904
1748090034891822800,19.54282275390625,-0.9902125597000122,-1.9938641786575317,0.33719760179519653
1748090034907814000,19.55881396484375,-0.8112290501594543,-2.015855312347412,0.2272418737411499
1748090034923774700,19.574774658203125,-0.5338962078094482,-1.5931365489959717,-0.12828169763088226
1748090034939766000,19.59076611328125,-0.35674530267715454,-0.8387179970741272,-0.7098253965377808
1748090034955726600,19.6067265625,-0.29993483424186707,-0.20097467303276062,-1.1227703094482422
1748090034971687200,19.622687255859375,-0.33658674359321594,0.39706242084503174,-1.4294246435165405
1748090034987648000,19.63864794921875,-0.4141666293144226,0.5852088928222656,-1.5839735269546509
1748090035003608600,19.654608642578125,-0.4807509481906891,0.20952677726745605,-1.6242907047271729
1748090035019569400,19.6705693359375,-0.5412266254425049,-0.21502456068992615,-1.4960089921951294
1748090035035621600,19.68662158203125,-0.5833762884140015,-0.3793473243713379,-1.3854423761367798
1748090035051521300,19.702521240234375,-0.6603453159332275,-0.394618958234787,-1.2773191928863525
1748090035067481900,19.71848193359375,-0.6817256212234497,-0.4184426963329315,-1.2693779468536377
1748090035083503600,19.734503662109375,-0.6334672570228577,-0.3732386529445648,-1.2944234609603882
1748090035099495000,19.750494873046875,-0.6139195561408997,-0.11789698898792267,-1.2870930433273315
1748090035115516700,19.7665166015625,-0.5937610268592834,0.07941248267889023,-1.218676209449768
1748090035131508000,19.782508056640626,-0.6120869517326355,0.022602014243602753,-1.0305296182632446
1748090035147438000,19.79843798828125,-0.6866125464439392,-0.3805690407752991,-0.8313875794410706
1748090035163398700,19.814398681640625,-0.7654141783714294,-0.5681046843528748,-0.7745771408081055
1748090035179390000,19.830389892578125,-0.8045095205307007,-0.598647952079773,-0.8491026759147644
1748090035195350500,19.8463505859375,-0.7611380815505981,-0.7024950385093689,-0.9095783233642578
1748090035211341800,19.862341796875,-0.7257078886032104,-0.9841039180755615,-0.8460483551025391
1748090035227302400,19.878302490234375,-0.7299839854240417,-1.2705997228622437,-0.7562511563301086
1748090035243263200,19.89426318359375,-0.7519751191139221,-1.2968668937683105,-0.7434229850769043
1748090035259223800,19.910223876953125,-0.769690215587616,-1.0476338863372803,-0.8442157506942749
1748090035275306800,19.926306640625,-0.7177666425704956,-0.816726803779602,-0.9627236127853394
1748090035291206400,19.942206298828125,-0.6414085030555725,-0.607810914516449,-0.9388998746871948
1748090035307167000,19.9581669921875,-0.6059783101081848,-0.6163630485534668,-0.8539896011352539
