time,seconds_elapsed,z,y,x
1749912812042886000,0.125885986328125,-0.5843750238418579,0.14409999549388885,1.369362473487854
1749912812052899000,0.135899169921875,-0.7335624694824219,-0.09556250274181366,1.6484874486923218
1749912812062912500,0.14591259765625,-1.0861124992370605,-0.6430875062942505,1.560075044631958
1749912812072925400,0.155925537109375,-1.5676374435424805,-2.139775037765503,0.7397499680519104
1749912812082938600,0.165938720703125,-1.6636124849319458,-3.1997625827789307,-0.020762499421834946
1749912812092951800,0.175951904296875,-1.4526875019073486,-3.320075035095215,-0.08579999953508377
1749912812102965200,0.18596533203125,-1.2119250297546387,-2.9387874603271484,0.19965000450611115
1749912812112978400,0.195978515625,-1.0936750173568726,-2.8461124897003174,0.3871999979019165
1749912812122991600,0.20599169921875,-1.1031625270843506,-2.8737499713897705,0.4446749985218048
1749912812133004800,0.2160048828125,-1.1116875410079956,-2.521199941635132,0.43408748507499695
1749912812143017700,0.226017822265625,-1.193774938583374,-2.0141000747680664,0.38183748722076416
1749912812153031200,0.23603125,-1.2150875329971313,-2.156825065612793,0.557699978351593
1749912812173057500,0.2560576171875,-1.367437481880188,-1.4143249988555908,0.6481750011444092
1749912812183071000,0.266071044921875,-1.532575011253357,-1.1448249816894531,0.5341874957084656
1749912812193084200,0.276084228515625,-1.6389999389648438,-0.8443874716758728,0.2881999909877777
1749912812203097000,0.28609716796875,-1.7114624977111816,-0.4833124876022339,-0.04427500069141388
1749912812213110300,0.2961103515625,-1.708299994468689,-0.14781250059604645,-0.3488374948501587
1749912812223123700,0.306123779296875,-1.6699374914169312,-0.18507499992847443,-0.40851250290870667
1749912812233137000,0.316136962890625,-1.7296124696731567,-0.5950999855995178,-0.21147499978542328
1749912812243150000,0.326150146484375,-1.8617500066757202,-1.034000039100647,0.21353749930858612
1749912812253163300,0.336163330078125,-2.013000011444092,-1.4548875093460083,0.761062502861023
1749912812263176400,0.346176513671875,-2.1205248832702637,-1.5901875495910645,1.2075250148773193
1749912812273189600,0.356189697265625,-2.0704751014709473,-1.0969749689102173,1.417349934577942
1749912812283203000,0.366203125,-1.7850250005722046,-0.9105250239372253,1.3576749563217163
1749912812293216300,0.37621630859375,-1.4984749555587769,-0.9242749810218811,0.9752874970436096
1749912812303229400,0.3862294921875,-1.2480875253677368,-0.8007999658584595,0.43834999203681946
1749912812313242600,0.39624267578125,-1.026574969291687,-0.767799973487854,-0.2125750035047531
1749912812323256000,0.406256103515625,-0.7016624808311462,-1.375,-0.8505749702453613
1749912812333269000,0.41626904296875,-0.1615625023841858,-1.7584874629974365,-1.1424875259399414
1749912812343282700,0.42628271484375,0.5468375086784363,-1.4889874458312988,-1.044450044631958
1749912812353295600,0.436295654296875,1.2244374752044678,-1.5666749477386475,-1.1350624561309814
1749912812363308800,0.446308837890625,1.44388747215271,-1.4037375450134277,-1.1691625118255615
1749912812373322200,0.456322265625,1.1998250484466553,-1.5741000175476074,-1.0956000089645386
1749912812383335700,0.466335693359375,0.9336249828338623,-1.7807624340057373,-0.981612503528595
1749912812393348900,0.476348876953125,0.8398500084877014,-1.7744375467300415,-0.7930999994277954
1749912812403362000,0.486362060546875,0.863224983215332,-1.709399938583374,-0.5790125131607056
1749912812413375200,0.496375244140625,1.0220375061035156,-1.6274499893188477,-0.3723500072956085
1749912812423388400,0.506388427734375,1.3149124383926392,-1.7275500297546387,-0.17737500369548798
1749912812433401900,0.51640185546875,1.6515125036239624,-2.1920249462127686,0.01223750039935112
1749912812443415000,0.5264150390625,1.8379625082015991,-2.9558374881744385,0.09006249904632568
1749912812453428200,0.53642822265625,1.8166500329971313,-3.524674892425537,0.04743750020861626
1749912812463441400,0.54644140625,1.6238750219345093,-3.590674877166748,0.03135000169277191
1749912812473454600,0.55645458984375,1.3458499908447266,-3.4234750270843506,0.0719124972820282
1749912812483467800,0.5664677734375,1.1477124691009521,-3.2924375534057617,0.17737500369548798
1749912812493481200,0.576481201171875,1.3362250328063965,-3.2731873989105225,0.4010874927043915
1749912812503494400,0.586494384765625,2.091512441635132,-3.5864124298095703,0.657800018787384
1749912812513507600,0.596507568359375,2.9937875270843506,-4.120187282562256,0.7174749970436096
1749912812523520800,0.606520751953125,3.588200092315674,-4.479062557220459,0.37661248445510864
1749912812533534000,0.616533935546875,3.8960623741149902,-4.847700119018555,-0.2498375028371811
1749912812543547100,0.626547119140625,4.323275089263916,-4.976537704467773,-0.8581374883651733
1749912812553560600,0.636560546875,4.970900058746338,-4.531312465667725,-1.092437505722046
1749912812563573800,0.64657373046875,5.397012233734131,-3.524674892425537,-0.8570374846458435
1749912812573587000,0.6565869140625,5.21482515335083,-2.5541999340057373,-0.7845749855041504
1749912812583600400,0.666600341796875,4.8313374519348145,-2.6233625411987305,-0.9795500040054321
1749912812593613600,0.676613525390625,4.862275123596191,-3.178449869155884,-1.2586749792099
1749912812603626800,0.686626708984375,4.9314374923706055,-3.4479498863220215,-1.5771249532699585
1749912812613640200,0.69664013671875,4.848387241363525,-3.414949893951416,-1.9478249549865723
1749912812623653400,0.7066533203125,4.352012634277344,-2.879112482070923,-2.177999973297119
1749912812633666600,0.71666650390625,3.552037477493286,-1.9896249771118164,-2.01286244392395
1749912812643679700,0.7266796875,3.1173999309539795,-1.2513874769210815,-1.7859874963760376
1749912812653693000,0.73669287109375,3.0108375549316406,-0.7442874908447266,-1.5228124856948853
1749912812663706400,0.746706298828125,3.2271249294281006,-0.4907374978065491,-1.2436875104904175
1749912812673719600,0.756719482421875,3.498687505722046,-0.42253750562667847,-1.0051250457763672
1749912812683732700,0.766732666015625,3.8130123615264893,-0.638824999332428,-0.7995625138282776
1749912812693746000,0.776745849609375,4.040987491607666,-1.016950011253357,-0.5395500063896179
1749912812703759400,0.78675927734375,4.088837623596191,-1.2695374488830566,-0.17201249301433563
1749912812713772500,0.7967724609375,4.007850170135498,-1.458050012588501,0.22632500529289246
1749912812723785700,0.80678564453125,3.965362548828125,-1.5347750186920166,0.5736500024795532
1749912812733799200,0.816799072265625,4.017475128173828,-1.4975124597549438,0.7942000031471252
1749912812743812400,0.826812255859375,4.047312259674072,-1.3238500356674194,0.9059875011444092
1749912812753825500,0.836825439453125,3.958899974822998,-0.8986999988555908,0.9497125148773193
1749912812763838700,0.846838623046875,3.820437431335449,-0.2595999836921692,1.0071874856948853
1749912812783865000,0.866864990234375,3.1418750286102295,0.9303249716758728,0.908050000667572
1749912812793878500,0.87687841796875,2.7018749713897705,1.487475037574768,0.8590999841690063
1749912812803891700,0.8868916015625,2.2097625732421875,1.9327000379562378,0.7547374963760376
1749912812813905200,0.8969052734375,1.6483500003814697,2.302299976348877,0.7163749933242798
1749912812823918300,0.90691845703125,1.0891374349594116,2.7678749561309814,0.73232501745224
1749912812833931500,0.916931640625,0.5746124982833862,3.212137460708618,0.7089499831199646
1749912812843944700,0.92694482421875,0.16128750145435333,3.532787561416626,0.6769124865531921
1749912812853958100,0.936958251953125,-0.12209999561309814,3.58489990234375,0.6609625220298767
1749912812863971300,0.946971435546875,-0.25533750653266907,3.6073124408721924,0.5927624702453613
1749912812883997700,0.966997802734375,-0.6280999779701233,3.4251248836517334,0.25189998745918274
1749912812894011100,0.97701123046875,-0.9040625095367432,3.4038124084472656,-0.29026249051094055
1749912812904024300,0.9870244140625,-0.9700624942779541,3.4390125274658203,-1.184012532234192
1749912812914037500,0.99703759765625,-0.9178124666213989,3.160987377166748,-1.919087529182434
1749912812934063900,1.01706396484375,-0.9200124740600586,2.0381624698638916,-2.1576499938964844
1749912812944077300,1.027077392578125,-1.2128875255584717,1.3255000114440918,-1.73580002784729
1749912812954090800,1.0370908203125,-1.551687479019165,0.5883625149726868,-1.1083874702453613
1749912812964104000,1.04710400390625,-1.6901500225067139,-0.3053874969482422,-0.381974995136261
1749912812974117000,1.0571171875,-1.5112625360488892,-1.3227499723434448,0.16568750143051147
1749912812984130300,1.06713037109375,-1.2810875177383423,-1.874537467956543,0.5543999671936035
1749912812994143500,1.0771435546875,-1.1798875331878662,-1.9810999631881714,0.8505749702453613
1749912813004157000,1.087156982421875,-1.0946375131607056,-2.270812511444092,0.9497125148773193
1749912813014170000,1.097170166015625,-1.0723625421524048,-2.685237407684326,0.9411875009536743
1749912813024183300,1.107183349609375,-1.0488499402999878,-2.857800006866455,0.8835750222206116
1749912813034196500,1.117196533203125,-0.951912522315979,-2.5297250747680664,0.7803124785423279
1749912813044210000,1.1272099609375,-0.8742250204086304,-1.8287500143051147,0.6674249768257141
1749912813054223000,1.13722314453125,-0.7634000182151794,-1.2354375123977661,0.49582499265670776
1749912813064236300,1.147236328125,-0.6675624847412109,-0.9935749769210815,0.29452499747276306
1749912813074249500,1.15724951171875,-0.5311625003814697,-0.8082249760627747,0.03355000168085098
1749912813084263000,1.167262939453125,-0.32133749127388,-0.46626248955726624,-0.23485000431537628
1749912813094276000,1.177276123046875,0.037675000727176666,-0.05609999969601631,-0.3936625123023987
1749912813104289500,1.18728955078125,0.37853750586509705,0.18246249854564667,-0.38830000162124634
1749912813114302700,1.197302734375,0.4797374904155731,0.4115374982357025,-0.2040500044822693
1749912813124316000,1.20731591796875,0.40411248803138733,0.5073750019073486,0.09322500228881836
1749912813134329000,1.2173291015625,0.25712499022483826,0.22082500159740448,0.37331250309944153
1749912813144342300,1.22734228515625,0.04399999976158142,-0.07218749821186066,0.5832750201225281
1749912813154355700,1.237355712890625,-0.21697500348091125,-0.14561249315738678,0.6972625255584717
1749912813164369000,1.247368896484375,-0.6217749714851379,-0.09336250275373459,0.7845749855041504
1749912813174382000,1.257382080078125,-1.2597750425338745,0.0929500013589859,0.769587516784668
1749912813184395300,1.267395263671875,-1.7690750360488892,0.26977500319480896,0.5256624817848206
1749912813194408700,1.27740869140625,-2.136475086212158,0.41359999775886536,0.19552500545978546
1749912813204422000,1.287421875,-2.267512559890747,0.4349125027656555,-0.2657875120639801
1749912813214435000,1.29743505859375,-2.1972498893737793,0.36355000734329224,-0.7504749894142151
1749912813224448300,1.3074482421875,-1.7978124618530273,0.466949999332428,-1.202162504196167
1749912813234461400,1.31746142578125,-1.0318000316619873,0.6575250029563904,-1.5504499673843384
1749912813244475000,1.327474853515625,-0.42996248602867126,0.716237485408783,-1.7209500074386597
1749912813254488000,1.337488037109375,-0.22220000624656677,0.7875999808311462,-1.7945125102996826
1749912813264501200,1.347501220703125,-0.37991249561309814,0.8109750151634216,-1.8999749422073364
1749912813274514700,1.3575146484375,-0.7708249688148499,0.688462495803833,-2.0990750789642334
1749912813284527900,1.36752783203125,-1.3268749713897705,0.4690124988555908,-2.2599499225616455
1749912813294541000,1.377541015625,-1.8286124467849731,0.11316250264644623,-2.257887601852417
1749912813304554200,1.38755419921875,-2.0374748706817627,-0.48124998807907104,-2.144862413406372
1749912813314567700,1.397567626953125,-1.9053374528884888,-1.1138875484466553,-2.0436625480651855
1749912813324580900,1.407580810546875,-1.642300009727478,-1.6295125484466553,-1.9893499612808228
1749912813334594000,1.417593994140625,-1.449387550354004,-1.743499994277954,-1.8370000123977661
1749912813344607200,1.427607177734375,-1.2566125392913818,-1.6838250160217285,-1.552649974822998
1749912813354620400,1.437620361328125,-1.1074249744415283,-1.873437523841858,-1.2724249362945557
1749912813364634000,1.447634033203125,-1.0701625347137451,-2.251699924468994,-1.0392249822616577
1749912813374647000,1.45764697265625,-1.2597750425338745,-2.7449123859405518,-1.027400016784668
1749912813384660200,1.46766015625,-1.5868874788284302,-3.045212507247925,-1.145650029182434
1749912813394673700,1.477673583984375,-1.892549991607666,-3.0420498847961426,-1.259637475013733
1749912813404686800,1.487686767578125,-2.101412534713745,-2.5445749759674072,-1.2479499578475952
1749912813414700300,1.4977001953125,-2.0971500873565674,-1.4271124601364136,-1.109487533569336
1749912813424713500,1.50771337890625,-2.0246875286102295,-0.18617500364780426,-0.8485124707221985
1749912813434726700,1.5177265625,-1.966112494468689,0.5053125023841858,-0.7984625101089478
1749912813444739800,1.52773974609375,-1.8499250411987305,0.6117374897003174,-0.8463125228881836
1749912813454753000,1.5377529296875,-1.9362750053405762,0.22714999318122864,-0.8761500120162964
1749912813474779600,1.557779541015625,-2.5062124729156494,-1.2897499799728394,-0.23594999313354492
1749912813484792800,1.567792724609375,-2.0374748706817627,-1.8884249925613403,-0.09116250276565552
1749912813494806000,1.577805908203125,-1.393012523651123,-2.1132373809814453,-0.12086249887943268
1749912813504819500,1.5878193359375,-0.9817500114440918,-1.9128999710083008,-0.1625249981880188
1749912813514832600,1.59783251953125,-0.8327000141143799,-1.410062551498413,-0.3414124846458435
1749912813524845800,1.607845703125,-0.7964000105857849,-0.7303999662399292,-0.5235999822616577
1749912813534859300,1.617859375,-0.7645000219345093,-0.25107499957084656,-0.6151750087738037
1749912813544872400,1.62787255859375,-0.7378249764442444,-0.06462500244379044,-0.8879749774932861
1749912813554885400,1.637885498046875,-0.7730249762535095,-0.39806249737739563,-1.0679625272750854
1749912813564898800,1.64789892578125,-0.877387523651123,-0.2723875045776367,-0.8485124707221985
1749912813574912300,1.657912353515625,-0.9860125184059143,0.03753750026226044,-0.7046874761581421
1749912813584925400,1.667925537109375,-0.9976999759674072,0.20061250030994415,-0.8335250020027161
1749912813594938600,1.677938720703125,-0.7750874757766724,0.3870624899864197,-0.9517750144004822
1749912813604951800,1.687951904296875,-0.5066875219345093,0.6107749938964844,-0.9081875085830688
1749912813614965000,1.697965087890625,-0.353237509727478,0.8461750149726868,-0.6844750046730042
1749912813624978400,1.707978515625,-0.37991249561309814,0.8419125080108643,-0.4479750096797943
1749912813634991600,1.71799169921875,-0.7293000221252441,0.5031124949455261,-0.2881999909877777
1749912813645004800,1.7280048828125,-1.2907124757766724,0.04606249928474426,-0.12196250259876251
1749912813655018200,1.738018310546875,-1.858449935913086,-0.3587374985218048,-0.052799999713897705
1749912813665031400,1.748031494140625,-2.266550064086914,-0.6121500134468079,-0.15826250612735748
1749912813675044600,1.758044677734375,-2.4860000610351562,-0.519474983215332,-0.37345001101493835
1749912813685057800,1.768057861328125,-2.480637550354004,-0.19249999523162842,-0.6716874837875366
1749912813695071000,1.778071044921875,-2.2622873783111572,0.13983750343322754,-0.9081875085830688
1749912813705084200,1.788084228515625,-1.9362750053405762,0.47327500581741333,-0.8581374883651733
1749912813715097600,1.79809765625,-1.727412462234497,0.7407125234603882,-0.5384500026702881
1749912813725111000,1.808111083984375,-1.534637451171875,0.6193000078201294,-0.11233749985694885
1749912813735124000,1.8181240234375,-1.191575050354004,0.27623748779296875,0.2806375026702881
1749912813745137400,1.828137451171875,-0.7272375226020813,-0.05087500065565109,0.6470749974250793
1749912813755150600,1.838150634765625,-0.32766249775886536,-0.15523749589920044,0.8101499676704407
1749912813765164000,1.8481640625,0.013199999928474426,-0.2223374992609024,0.6172375082969666
1749912813775177200,1.85817724609375,0.15798750519752502,-0.29906249046325684,0.2870999872684479
1749912813785190400,1.8681904296875,0.045099999755620956,-0.36616250872612,0.013337500393390656
1749912813795203600,1.87820361328125,-0.15936249494552612,-0.6814500093460083,-0.22536249458789825
1749912813805216800,1.888216796875,-0.3287625014781952,-1.2641749382019043,-0.40851250290870667
1749912813815230200,1.898230224609375,-0.41401249170303345,-1.3887499570846558,-0.6983624696731567
1749912813825243400,1.908243408203125,-0.4470124840736389,-1.2769625186920166,-1.035925030708313
1749912813835256800,1.9182568359375,-0.43312498927116394,-1.1555500030517578,-1.2297999858856201
1749912813845270000,1.92827001953125,-0.36176249384880066,-0.014574999921023846,-1.5589749813079834
1749912813855283200,1.938283203125,-0.06462500244379044,0.8376500010490417,-2.041599988937378
1749912813865296600,1.948296630859375,0.22948749363422394,0.6065124869346619,-2.5049750804901123
1749912813875309800,1.958309814453125,0.5533000230789185,0.7822374701499939,-2.553925037384033
1749912813885323000,1.968322998046875,0.7397499680519104,1.4991624355316162,-2.2664124965667725
1749912813895336200,1.978336181640625,0.7779750227928162,1.4011249542236328,-2.017124891281128
1749912813905349400,1.988349365234375,0.8739500045776367,0.45938751101493835,-1.9915499687194824
1749912813915362800,1.99836279296875,0.9314249753952026,-0.9882124662399292,-2.100174903869629
1749912813925376000,2.0083759765625,0.9484750032424927,-1.7190250158309937,-2.1363375186920166
1749912813935389200,2.01838916015625,1.1508749723434448,-1.3205499649047852,-1.9978749752044678
1749912813945402400,2.02840234375,1.4854124784469604,-0.7303999662399292,-1.634600043296814
1749912813955415600,2.03841552734375,1.6472499370574951,-0.2723875045776367,-1.0381250381469727
1749912813965429000,2.048428955078125,1.5258375406265259,-0.0668250024318695,-0.4883999824523926
1749912813975442400,2.0584423828125,1.3671624660491943,0.01732499897480011,-0.21779999136924744
1749912813985455600,2.06845556640625,1.1402875185012817,0.12498749792575836,-0.26468750834465027
1749912813995468800,2.07846875,1.0986249446868896,0.1494625061750412,-0.4852375090122223
1749912814005482000,2.08848193359375,1.1753499507904053,0.06737499684095383,-0.6737499833106995
1749912814015495400,2.098495361328125,1.112512469291687,0.0002749999985098839,-0.7558375000953674
1749912814025508600,2.108508544921875,0.7556999921798706,-0.09129999577999115,-0.7430499792098999
1749912814035521800,2.118521728515625,0.15166249871253967,-0.040150001645088196,-0.632224977016449
1749912814045535000,2.128534912109375,-0.6153125166893005,0.07163749635219574,-0.4542999863624573
1749912814055548200,2.138548095703125,-1.424912452697754,0.201712504029274,-0.2870999872684479
1749912814065561300,2.148561279296875,-2.0981125831604004,0.5170000195503235,-0.22316250205039978
1749912814075574800,2.15857470703125,-2.5264248847961426,1.0346875190734863,-0.30524998903274536
1749912814085588000,2.168587890625,-2.721400022506714,1.8815499544143677,-0.5321249961853027
1749912814095601200,2.17860107421875,-2.704349994659424,2.8232874870300293,-0.7942000031471252
1749912814105614600,2.188614501953125,-2.618000030517578,3.6562623977661133,-0.9721249938011169
1749912814115627800,2.198627685546875,-2.1855623722076416,3.8341875076293945,-0.9475125074386597
1749912814125641000,2.208640869140625,-1.119249939918518,3.240875005722046,-0.677049994468689
1749912814135654400,2.218654296875,0.12292499840259552,2.1595749855041504,-0.2732124924659729
1749912814145667600,2.22866748046875,1.0976624488830566,1.0005874633789062,0.14217500388622284
1749912814155680800,2.2386806640625,1.6526124477386475,-0.19456249475479126,0.48413750529289246
1749912814165694200,2.248694091796875,1.8134875297546387,-1.0628750324249268,0.6802124977111816
1749912814175707400,2.258707275390625,1.7176499366760254,-1.4932500123977661,0.862262487411499
1749912814185720600,2.268720458984375,1.5940375328063965,-1.6838250160217285,1.0657625198364258
1749912814195733800,2.278733642578125,1.5886750221252441,-1.707337498664856,1.1829124689102173
1749912814205747200,2.288747314453125,1.6174124479293823,-1.5134625434875488,1.1904749870300293
1749912814215760400,2.298760498046875,1.553612470626831,-1.015987515449524,1.1147124767303467
1749912814225773800,2.30877392578125,1.304324984550476,-0.3170749843120575,0.9006249904632568
1749912814235787000,2.318787109375,0.9388499855995178,0.3987500071525574,0.5022875070571899
1749912814245800200,2.32880029296875,0.5511000156402588,0.9952250123023987,-0.07727500051259995
1749912814255813400,2.3388134765625,0.18150000274181366,1.3021249771118164,-0.7206375002861023
1749912814265826800,2.348826904296875,-0.09336250275373459,1.2604625225067139,-1.220312476158142
1749912814275840000,2.358840087890625,-0.23182499408721924,1.0048500299453735,-1.485550045967102
1749912814285853200,2.368853271484375,-0.2733500003814697,0.8493375182151794,-1.5824874639511108
1749912814295866400,2.378866455078125,-0.1667875051498413,0.8471375107765198,-1.5930750370025635
1749912814305879800,2.3888798828125,0.07603749632835388,0.8439750075340271,-1.5930750370025635
1749912814315893200,2.398893310546875,0.4606249928474426,0.6628875136375427,-1.7050000429153442
1749912814325906400,2.408906494140625,0.8728500008583069,0.30387499928474426,-1.9872875213623047
1749912814335919600,2.418919677734375,1.0784125328063965,-0.07741250097751617,-2.4112000465393066
1749912814345932800,2.428932861328125,1.2094500064849854,-0.38747498393058777,-2.925724983215332
1749912814355946200,2.4389462890625,1.4405875205993652,-0.8571749925613403,-3.410412549972534
1749912814365959400,2.44895947265625,1.8433250188827515,-1.7648124694824219,-3.6884374618530273
1749912814375972600,2.45897265625,2.4601500034332275,-1.9416375160217285,-3.251737594604492
1749912814385985800,2.46898583984375,2.720025062561035,-1.6871249675750732,-2.3494625091552734
1749912814395999200,2.478999267578125,2.6987125873565674,-1.5305124521255493,-1.4738625288009644
1749912814406012400,2.489012451171875,2.5815625190734863,-1.358912467956543,-0.8047875165939331
1749912814416025600,2.499025634765625,2.3823249340057373,-1.152250051498413,-0.5491750240325928
1749912814426039000,2.5090390625,2.1394999027252197,-0.7943375110626221,-0.7834749817848206
1749912814436052200,2.51905224609375,1.9050624370574951,-0.3255999982357025,-1.3661999702453613
1749912814446065400,2.5290654296875,1.6685625314712524,0.47437500953674316,-2.058650016784668
1749912814456078800,2.539078857421875,1.4607999324798584,1.2817749977111816,-2.7095749378204346
1749912814466092000,2.549092041015625,1.427799940109253,1.4246374368667603,-3.2230000495910645
1749912814476105200,2.559105224609375,1.7219125032424927,0.9729499816894531,-3.45523738861084
1749912814486118400,2.569118408203125,2.2757625579833984,0.2910875082015991,-3.3912999629974365
1749912814496131800,2.5791318359375,2.9565250873565674,-0.25850000977516174,-3.0365500450134277
1749912814506145300,2.589145263671875,3.5211000442504883,-0.3735874891281128,-2.5177624225616455
1749912814516158200,2.599158203125,3.727762460708618,-0.260699987411499,-2.0224874019622803
1749912814526171600,2.609171630859375,3.4795749187469482,-0.15523749589920044,-1.6581125259399414
1749912814536184800,2.619184814453125,2.712599992752075,0.2250874936580658,-1.5589749813079834
1749912814546198000,2.629197998046875,1.518412470817566,0.5937250256538391,-1.7209500074386597
1749912814556211500,2.63921142578125,0.23375000059604645,0.7662875056266785,-1.9392999410629272
1749912814566224600,2.649224609375,-0.7602375149726868,0.44343748688697815,-2.1012749671936035
1749912814576237800,2.65923779296875,-1.2694000005722046,-0.31075000762939453,-2.25885009765625
1749912814586251000,2.6692509765625,-1.2171499729156494,-0.997837483882904,-2.4495625495910645
1749912814596264200,2.67926416015625,-0.6525750160217285,-1.4729000329971313,-2.649899959564209
1749912814606277600,2.689277587890625,0.1868624985218048,-1.732912540435791,-2.7691125869750977
1749912814616291000,2.699291015625,1.0656249523162842,-1.773337483406067,-2.6721749305725098
1749912814626304300,2.70930419921875,1.829437494277954,-1.7190250158309937,-2.2226874828338623
1749912814636317400,2.7193173828125,2.3152248859405518,-1.6263500452041626,-1.4216125011444092
1749912814646330600,2.72933056640625,2.507999897003174,-1.5751999616622925,-0.620537519454956
1749912814656344000,2.739343994140625,2.4707374572753906,-1.5433000326156616,-0.045237500220537186
1749912814666357200,2.749357177734375,2.2928125858306885,-1.5560874938964844,0.345674991607666
1749912814676370400,2.759370361328125,2.008462429046631,-1.4984749555587769,0.5416125059127808
1749912814686383600,2.769383544921875,1.5833125114440918,-1.265275001525879,0.5757125020027161
1749912814696397000,2.77939697265625,1.0230000019073486,-0.8764249682426453,0.5043500065803528
1749912814706410200,2.78941015625,0.4222624897956848,-0.4736874997615814,0.38513749837875366
1749912814716423700,2.799423583984375,-0.13282500207424164,-0.16692499816417694,0.2763749957084656
1749912814726436900,2.809436767578125,-0.611050009727478,0.09624999761581421,0.20391249656677246
1749912814736450000,2.819449951171875,-1.0052624940872192,0.3198249936103821,0.19016249477863312
1749912814746463500,2.82946337890625,-1.3375999927520752,0.4499000012874603,0.23058749735355377
1749912814756476700,2.8394765625,-1.6209875345230103,0.5010499954223633,0.3264249861240387
1749912814766489900,2.84948974609375,-1.8691749572753906,0.5798375010490417,0.46392500400543213
1749912814776503000,2.8595029296875,-2.076937437057495,0.6938250064849854,0.620537519454956
1749912814786516500,2.8695166015625,-2.2376749515533447,0.8888000249862671,0.7621625065803528
1749912814796529700,2.87952978515625,-1.9479625225067139,1.3286625146865845,0.7908999919891357
1749912814806543000,2.889543212890625,-1.3301750421524048,1.5779500007629395,0.5779125094413757
1749912814816556300,2.899556396484375,-0.933899998664856,1.443750023841858,-0.020762499421834946
1749912814826569500,2.909569580078125,-0.8879749774932861,0.9846374988555908,-0.7749499678611755
1749912814836582700,2.919582763671875,-0.7528125047683716,0.19744999706745148,-1.2394249439239502
1749912814846596000,2.92959619140625,-0.47891250252723694,-0.6643999814987183,-1.3928749561309814
1749912814856609300,2.939609375,-0.2690874934196472,-1.025475025177002,-1.2447874546051025
1749912814866622500,2.94962255859375,-0.015537500381469727,-1.0458250045776367,-0.8974624872207642
1749912814876635600,2.9596357421875,0.3689124882221222,-1.0543500185012817,-0.44151249527931213
1749912814886649000,2.969649169921875,0.7440124750137329,-1.1768624782562256,0.050599999725818634
1749912814896662300,2.979662353515625,1.0230000019073486,-1.2076624631881714,0.45223748683929443
1749912814906675700,2.98967578125,1.2083499431610107,-1.1032999753952026,0.7473124861717224
1749912814916689000,2.99968896484375,1.2989624738693237,-0.9967374801635742,0.9784500002861023
1749912814926702000,3.0097021484375,1.3256374597549438,-0.8977375030517578,1.137125015258789
1749912814936715300,3.01971533203125,1.3714250326156616,-0.7602375149726868,1.2266374826431274
1749912814946728700,3.029728759765625,1.5428874492645264,-0.5983999967575073,1.2820500135421753
1749912814956742000,3.039741943359375,1.8581750392913818,-0.4620000123977661,1.351212501525879
1749912814966755000,3.049755126953125,2.2140250205993652,-0.3053874969482422,1.435362458229065
1749912814976768500,3.0597685546875,2.576200008392334,-0.06998749822378159,1.545087456703186
1749912814986781700,3.06978173828125,2.860687494277954,0.20377500355243683,1.608062505722046
1749912814996795000,3.079794921875,3.019362449645996,0.4147000014781952,1.5834499597549438
1749912815006808300,3.089808349609375,3.0449373722076416,0.6000499725341797,1.4535125494003296
1749912815016821500,3.099821533203125,2.8883249759674072,0.8089125156402588,1.2255375385284424
1749912815026834700,3.109834716796875,2.517625093460083,0.992062509059906,0.9293624758720398
1749912815036847900,3.119847900390625,1.9274749755859375,1.1379499435424805,0.5927624702453613
1749912815046861300,3.129861328125,1.1369874477386475,1.38833749294281,0.12196250259876251
1749912815056874500,3.13987451171875,0.12182500213384628,1.9742250442504883,-0.7046874761581421
1749912815066887700,3.1498876953125,-0.8668000102043152,2.236299991607666,-1.477025032043457
1749912815076900900,3.15990087890625,-1.5164874792099,1.951812505722046,-1.8412624597549438
1749912815086914300,3.169914306640625,-1.8489625453948975,1.7143499851226807,-1.910562515258789
1749912815096927500,3.179927490234375,-1.8638124465942383,1.7324999570846558,-1.6942750215530396
1749912815106941000,3.18994091796875,-1.515524983406067,1.7877750396728516,-1.1702624559402466
1749912815116954000,3.1999541015625,-0.8582749962806702,1.7899750471115112,-0.3669874966144562
1749912815126967300,3.20996728515625,-0.008112499490380287,1.721774935722351,0.5651249885559082
1749912815136980700,3.219980712890625,0.8621249794960022,1.5332624912261963,1.3087249994277954
1749912815146994000,3.229993896484375,1.5247374773025513,1.427799940109253,1.6729625463485718
1749912815157007000,3.240007080078125,1.8283374309539795,1.6748875379562378,1.6484874486923218
1749912815167020300,3.250020263671875,1.7250750064849854,2.3141250610351562,1.0296000242233276
1749912815177033500,3.260033447265625,1.2915375232696533,2.3588125705718994,-0.06875000149011612
1749912815187047000,3.270046875,0.7992874979972839,1.7740249633789062,-0.5971624851226807
1749912815197060400,3.280060302734375,0.48510000109672546,0.9398124814033508,-0.7271000146865845
1749912815207073500,3.290073486328125,0.39022499322891235,0.171875,-0.6472125053405762
1749912815217086700,3.300086669921875,0.40727499127388,-0.3128125071525574,-0.428725004196167
1749912815227100200,3.31010009765625,0.44247499108314514,-0.4151124954223633,-0.14973749220371246
1749912815237113300,3.32011328125,0.46584999561309814,-0.2457125037908554,0.1293874979019165
1749912815247126500,3.33012646484375,0.46488749980926514,0.03657500073313713,0.36162498593330383
1749912815257140000,3.340139892578125,0.5053125023841858,0.3198249936103821,0.5054500102996826
1749912815267153000,3.35015283203125,0.5351499915122986,0.5468375086784363,0.5288249850273132
1749912815277166300,3.360166259765625,0.45526251196861267,0.6458374857902527,0.42762500047683716
1749912815287179800,3.3701796875,0.25066250562667847,0.40617498755455017,0.21037499606609344
1749912815297193000,3.38019287109375,-0.0006874999962747097,-0.12430000305175781,-0.052799999713897705
1749912815307206100,3.3902060546875,-0.1615625023841858,-0.6803500056266785,-0.23485000431537628
1749912815317219300,3.40021923828125,-0.23828749358654022,-1.060675024986267,-0.2732124924659729
1749912815327232800,3.410232666015625,-0.24461250007152557,-1.2258124351501465,-0.18906250596046448
1749912815337246000,3.420245849609375,-0.13282500207424164,-1.1948750019073486,-0.04001250118017197
1749912815347259100,3.430259033203125,0.10271249711513519,-0.9370625019073486,0.1443749964237213
1749912815357272600,3.4402724609375,0.39352500438690186,-0.5706250071525574,0.36162498593330383
1749912815367285800,3.45028564453125,0.6886000037193298,-0.2532750070095062,0.5875374674797058
1749912815377299200,3.46029931640625,0.9345874786376953,-0.02736249938607216,0.7845749855041504
1749912815387312400,3.4703125,1.1093499660491943,0.0929500013589859,0.9315624833106995
1749912815397325600,3.48032568359375,1.221137523651123,0.1685750037431717,1.0604000091552734
1749912815407338800,3.4903388671875,1.2563375234603882,0.2782999873161316,1.21274995803833
1749912815417352000,3.50035205078125,1.2159124612808228,0.4263874888420105,1.411987543106079
1749912815427365400,3.510365478515625,1.1241999864578247,0.5574250221252441,1.608062505722046
1749912815437378600,3.520378662109375,1.0124125480651855,0.6586250066757202,1.6794250011444092
1749912815447391700,3.530391845703125,0.9186375141143799,0.7214624881744385,1.5791875123977661
1749912815457405200,3.5404052734375,0.8867374658584595,0.7683500051498413,1.3363624811172485
1749912815467418600,3.550418701171875,0.8663874864578247,0.8365499973297119,1.0305625200271606
1749912815477431800,3.560431884765625,0.8504375219345093,0.9942625164985657,0.7110124826431274
1749912815487445000,3.570445068359375,0.8600624799728394,1.2265000343322754,0.4105750024318695
1749912815497458200,3.580458251953125,0.8791750073432922,1.3894374370574951,0.16142499446868896
1749912815507471600,3.5904716796875,0.8813750147819519,1.4096499681472778,-0.02928750030696392
1749912815517484800,3.60048486328125,0.8557999730110168,1.295662522315979,-0.16775000095367432
1749912815527498000,3.610498046875,0.8248624801635742,1.085837483406067,-0.27541249990463257
1749912815537511200,3.62051123046875,0.7929624915122986,0.8930624723434448,-0.3564000129699707
1749912815547524600,3.630524658203125,0.7790749669075012,0.8461750149726868,-0.37441250681877136
1749912815557537800,3.640537841796875,0.8185374736785889,0.9303249716758728,-0.33508750796318054
1749912815567551200,3.65055126953125,0.8845375180244446,1.0665874481201172,-0.22536249458789825
1749912815577564400,3.660564453125,0.9345874786376953,1.2722874879837036,-0.06338749825954437
1749912815587577600,3.67057763671875,0.92826247215271,1.3297624588012695,0.12622499465942383
1749912815597590800,3.6805908203125,0.8419125080108643,1.139050006866455,0.31693750619888306
1749912815607604200,3.690604248046875,0.7023500204086304,0.7501999735832214,0.49582499265670776
1749912815617617400,3.700617431640625,0.6033499836921692,0.2708750069141388,0.6342874765396118
1749912815627630600,3.710630615234375,0.5255249738693237,-0.08071249723434448,0.7451124787330627
1749912815637643800,3.720643798828125,0.421162486076355,-0.3969624936580658,0.8633624911308289
1749912815647657200,3.7306572265625,0.3381125032901764,-0.676087498664856,0.9506750106811523
1749912815657670400,3.74067041015625,0.28806251287460327,-0.7240750193595886,0.9795500040054321
1749912815667683600,3.75068359375,0.26881250739097595,-0.5344625115394592,0.9954999685287476
1749912815677696800,3.76069677734375,0.2634499967098236,-0.31075000762939453,0.9986624717712402
1749912815687710200,3.770710205078125,0.2517625093460083,-0.052937500178813934,0.9762499928474426
1749912815697723400,3.780723388671875,0.20817500352859497,0.17613749206066132,0.8729875087738037
1749912815707736600,3.790736572265625,0.14630000293254852,0.2367749959230423,0.6375874876976013
1749912815717749800,3.800749755859375,0.10161250084638596,0.09831249713897705,0.30937498807907104
1749912815727763200,3.81076318359375,0.06861250102519989,0.10573749989271164,-0.12306249886751175
1749912815737776600,3.820776611328125,0.04193750023841858,0.29218751192092896,-0.7271000146865845
1749912815747789800,3.830789794921875,0.0035749999806284904,0.1676124930381775,-1.3107874393463135
1749912815757803000,3.840802978515625,0.025987500324845314,-0.2937000095844269,-1.7678375244140625
1749912815767816400,3.85081640625,0.09735000133514404,-0.7559750080108643,-2.1279499530792236
1749912815777829600,3.86082958984375,0.19538749754428864,-0.9998999834060669,-2.3355751037597656
1749912815787842800,3.8708427734375,0.29122498631477356,-0.9179499745368958,-2.309037446975708
1749912815797856000,3.88085595703125,0.3221625089645386,-0.5142499804496765,-2.0436625480651855
1749912815807869200,3.890869140625,0.28380000591278076,-0.09872499853372574,-1.5845500230789185
1749912815817882400,3.90088232421875,0.2677125036716461,0.07383749634027481,-1.0870749950408936
1749912815827895800,3.910895751953125,0.29122498631477356,0.029012499377131462,-0.7015249729156494
1749912815837909200,3.9209091796875,0.30937498807907104,0.12594999372959137,-0.39682498574256897
1749912815847922400,3.93092236328125,0.3987500071525574,0.2964499890804291,-0.13791249692440033
1749912815857935600,3.940935546875,0.6161375045776367,0.6395124793052673,0.08896250277757645
1749912815867948800,3.95094873046875,0.9464125037193298,1.0836374759674072,0.19016249477863312
1749912815877962200,3.960962158203125,1.203125,1.5343624353408813,-0.26372501254081726
1749912815887975400,3.970975341796875,1.1136125326156616,1.620574951171875,-1.276687502861023
1749912815897988600,3.980988525390625,0.6661875247955322,1.038949966430664,-2.3600499629974365
1749912815908001800,3.991001708984375,-0.04441250115633011,-0.2712875008583069,-3.242112398147583
1749912815918015200,4.00101513671875,-0.8443874716758728,-1.5922499895095825,-3.802424907684326
1749912815928028400,4.0110283203125,-1.515524983406067,-2.2452375888824463,-3.915450096130371
1749912815938041600,4.02104150390625,-2.023587465286255,-1.8319125175476074,-3.4359874725341797
1749912815948055000,4.031054931640625,-2.3677499294281006,-1.10013747215271,-2.6999499797821045
1749912815958068200,4.041068115234375,-2.102375030517578,-1.201337456703186,-2.5592875480651855
1749912815968081400,4.051081298828125,-1.4473249912261963,-1.3972749710083008,-2.787262439727783
1749912815978094600,4.061094482421875,-0.8634999990463257,-1.3685375452041626,-3.0365500450134277
1749912815988108000,4.07110791015625,-0.5801125168800354,-0.9637374877929688,-2.643437385559082
1749912815998121200,4.081121337890625,-0.39902499318122864,-0.8102874755859375,-1.96913743019104
1749912816008134700,4.091134765625,-0.20418749749660492,-0.9924749732017517,-1.2894749641418457
1749912816018147800,4.10114794921875,-0.16788749396800995,-1.2204500436782837,-0.5864375233650208
1749912816028161000,4.1111611328125,-0.2073500007390976,-1.0851500034332275,0.028187500312924385
1749912816038174500,4.121174560546875,-0.39476248621940613,-0.5035250186920166,0.4489375054836273
1749912816048187600,4.131187744140625,-0.7580375075340271,0.28049999475479126,0.5160375237464905
1749912816058200800,4.141200927734375,-1.1585749387741089,0.8930624723434448,0.19222499430179596
1749912816078227500,4.1612275390625,-1.8254499435424805,0.6096749901771545,-1.1638000011444092
1749912816088241000,4.171240966796875,-1.8404375314712524,0.11852499842643738,-1.6857500076293945
1749912816098254000,4.181254150390625,-1.6858874559402466,-0.2063875049352646,-1.9969124794006348
1749912816108267300,4.191267333984375,-1.5761624574661255,-0.329862505197525,-2.089587450027466
1749912816118280400,4.201280517578125,-1.6304750442504883,-0.23938749730587006,-1.9137250185012817
1749912816128294000,4.2112939453125,-1.3620749711990356,-0.13282500207424164,-1.8988749980926514
1749912816138307000,4.22130712890625,-1.1490875482559204,-0.08387500047683716,-1.7891499996185303
1749912816148320300,4.2313203125,-1.101099967956543,-0.045512501150369644,-1.534500002861023
1749912816158333400,4.24133349609375,-1.0957374572753906,-0.06792499870061874,-1.259637475013733
1749912816168346600,4.2513466796875,-1.0147500038146973,-0.15207499265670776,-1.0551749467849731
1749912816178360000,4.261360107421875,-0.9509499669075012,-0.22866250574588776,-0.8377875089645386
1749912816188373500,4.27137353515625,-0.9530124664306641,-0.23196250200271606,-0.6353874802589417
1749912816198386700,4.28138671875,-0.9541124701499939,-0.17338749766349792,-0.4852375090122223
1749912816208400000,4.29139990234375,-0.951912522315979,-0.010312499478459358,-0.4575999975204468
1749912816218413300,4.301413330078125,-0.9092875123023987,-0.05719999969005585,-0.5128750205039978
1749912816228426500,4.311426513671875,-0.8816499710083008,-0.2149125039577484,-0.6396499872207642
1749912816238439700,4.321439697265625,-0.768762469291687,-0.3704249858856201,-0.7590000033378601
1749912816248452900,4.331452880859375,-0.7122499942779541,-0.4907374978065491,-0.668524980545044
1749912816258466000,4.341466064453125,-0.5812125205993652,-0.48551249504089355,-0.4437125027179718
1749912816268479500,4.3514794921875,-0.4342249929904938,-0.4736874997615814,-0.16032500565052032
1749912816278493000,4.361492919921875,-0.2829749882221222,-0.426800012588501,0.11879999935626984
1749912816288506000,4.371506103515625,-0.1391499936580658,-0.33838748931884766,0.3488374948501587
1749912816298519300,4.381519287109375,0.018562499433755875,-0.22550000250339508,0.5075125098228455
1749912816308532500,4.391532470703125,0.20487499237060547,-0.15303750336170197,0.6300249695777893
1749912816318546000,4.4015458984375,0.39022499322891235,-0.11797499656677246,0.7260000109672546
1749912816328559000,4.41155908203125,0.5297874808311462,-0.011412499472498894,0.8122124671936035
1749912816338572300,4.421572265625,0.6342874765396118,0.20061250030994415,0.9699249863624573
1749912816348585500,4.43158544921875,0.716237485408783,0.558525025844574,1.1723250150680542
1749912816358599200,4.44159912109375,0.6554625034332275,1.0495375394821167,1.368262529373169
1749912816368612000,4.451612060546875,0.7950249910354614,1.7164125442504883,1.5291374921798706
1749912816378625500,4.46162548828125,0.899524986743927,2.251149892807007,1.5824874639511108
1749912816388638700,4.471638671875,0.8674874901771545,2.2544500827789307,1.675162434577942
1749912816398652200,4.481652099609375,1.036887526512146,2.3854875564575195,1.486512541770935
1749912816408665300,4.491665283203125,1.178512454032898,2.841437578201294,1.109487533569336
1749912816418678500,4.501678466796875,1.4416874647140503,2.143625020980835,1.303362488746643
1749912816428691700,4.511691650390625,1.5695624351501465,1.3755500316619873,1.7496874332427979
1749912816438705000,4.521704833984375,1.444849967956543,1.2317249774932861,2.0703375339508057
1749912816448718300,4.53171826171875,1.16902494430542,1.4320625066757202,1.9648749828338623
1749912816458731800,4.541731689453125,0.8856375217437744,1.0315250158309937,1.6803874969482422
1749912816468745000,4.551744873046875,0.6886000037193298,0.36038750410079956,1.3789875507354736
1749912816478758100,4.561758056640625,0.6895624995231628,-0.14877499639987946,1.0679625272750854
1749912816488771300,4.571771240234375,0.7471749782562256,-0.6675624847412109,1.1232374906539917
1749912816498784800,4.58178466796875,0.7875999808311462,-1.0756624937057495,1.5408250093460083
1749912816508798000,4.5917978515625,1.222237467765808,-1.358912467956543,1.96693754196167
1749912816518811100,4.60181103515625,1.653712511062622,-1.383525013923645,2.0703375339508057
1749912816528824300,4.61182421875,1.8155499696731567,-1.2610124349594116,2.000075101852417
1749912816538837800,4.621837646484375,1.88691246509552,-1.0372999906539917,1.8572125434875488
1749912816548851000,4.631850830078125,1.7484500408172607,-0.7826499938964844,1.717787504196167
1749912816558864400,4.641864501953125,1.4544750452041626,-0.7101874947547913,1.5654374361038208
1749912816568877600,4.651877685546875,1.2808125019073486,-0.572825014591217,1.4236749410629272
1749912816578890800,4.661890869140625,1.2105499505996704,-0.1424500048160553,1.3661999702453613
1749912816588904000,4.671904052734375,1.287274956703186,0.5755749940872192,1.3395249843597412
1749912816598917400,4.68191748046875,1.4641000032424927,1.221137523651123,1.2735249996185303
1749912816608930800,4.691930908203125,1.6984000205993652,1.5332624912261963,1.1584374904632568
1749912816618943700,4.70194384765625,1.8891124725341797,1.5268000364303589,1.0561374425888062
1749912816628957200,4.711957275390625,1.9849499464035034,1.4746874570846558,1.102062463760376
1749912816638970400,4.721970458984375,1.8581750392913818,1.5097500085830688,1.2064249515533447
1749912816648983800,4.73198388671875,1.7602750062942505,1.5151125192642212,1.2266374826431274
1749912816658997000,4.7419970703125,1.8231124877929688,1.6322624683380127,1.1669625043869019
1749912816669010200,4.75201025390625,1.88691246509552,1.8676625490188599,1.0774500370025635
1749912816679023400,4.7620234375,2.0136873722076416,2.2138874530792236,1.0433499813079834
1749912816689036800,4.772036865234375,2.262012481689453,2.620887517929077,1.0262999534606934
1749912816699050000,4.782050048828125,2.4099624156951904,2.9213249683380127,0.9784500002861023
1749912816709063200,4.792063232421875,2.267237424850464,3.0650124549865723,0.9336249828338623
1749912816719076600,4.80207666015625,1.9413625001907349,3.044800043106079,0.9219374656677246
1749912816729089800,4.81208984375,1.635562539100647,2.886125087738037,0.9336249828338623
1749912816739103000,4.82210302734375,1.4481500387191772,2.8158624172210693,0.8911374807357788
1749912816749116400,4.832116455078125,1.3831125497817993,2.954324960708618,0.7440124750137329
1749912816759129600,4.842129638671875,1.404425024986267,3.119462490081787,0.5554999709129333
1749912816769142800,4.852142822265625,1.471524953842163,3.206774950027466,0.36162498593330383
1749912816779156000,4.862156005859375,1.6728249788284302,3.289824962615967,0.2209624946117401
1749912816789169400,4.87216943359375,1.8911750316619873,3.0118000507354736,0.29452499747276306
1749912816799182600,4.8821826171875,2.0350000858306885,2.2618749141693115,0.5682874917984009
1749912816809196000,4.892196044921875,2.0818874835968018,1.5577374696731567,0.7354875206947327
1749912816819209200,4.902209228515625,2.0244123935699463,1.1753499507904053,0.6897000074386597
1749912816829222400,4.912222412109375,1.8070249557495117,0.9249625205993652,0.5310249924659729
1749912816839235800,4.92223583984375,1.42683744430542,0.6000499725341797,0.369049996137619
1749912816849249000,4.9322490234375,0.9154750108718872,0.12168750166893005,0.24447499215602875
1749912816859262200,4.94226220703125,0.3359124958515167,-0.49390000104904175,0.141075000166893
1749912816869275400,4.952275390625,-0.20514999330043793,-1.2374999523162842,0.05486249923706055
1749912816879288600,4.96228857421875,-0.5908374786376953,-2.073775053024292,0.0005499999970197678
1749912816889302000,4.972302001953125,-0.7367249727249146,-2.8535375595092773,-0.015399999916553497
1749912816899315200,4.982315185546875,-0.5865749716758728,-3.3285999298095703,0.007974999956786633
1749912816909328600,4.99232861328125,-0.22866250574588776,-3.1102499961853027,0.07081250101327896
1749912816919341800,5.002341796875,-0.0017874999903142452,-2.003512382507324,0.10064999759197235
1749912816929355000,5.01235498046875,0.08236250281333923,-0.768762469291687,0.10064999759197235
1749912816939368400,5.022368408203125,0.09941250085830688,-0.038087498396635056,0.11453749984502792
1749912816949381600,5.032381591796875,0.04193750023841858,0.23567499220371246,0.15386250615119934
1749912816959394800,5.042394775390625,-0.11467500030994415,0.34759998321533203,0.1816374957561493
1749912816969408300,5.052408203125,-0.3020874857902527,0.430649995803833,0.19965000450611115
1749912816979421400,5.06242138671875,-0.4620000123977661,0.4945875108242035,0.21779999136924744
1749912816989434600,5.0724345703125,-0.5865749716758728,0.5766749978065491,0.19648750126361847
1749912816999447800,5.08244775390625,-0.6888750195503235,0.6863999962806702,0.06655000150203705
1749912817009461200,5.092461181640625,-0.7867749929428101,0.7310875058174133,-0.15606249868869781
1749912817019474400,5.102474365234375,-0.8614374995231628,0.5713124871253967,-0.38940000534057617
1749912817029487600,5.112487548828125,-0.9530124664306641,0.29961249232292175,-0.6162750124931335
1749912817039501000,5.1225009765625,-1.1064624786376953,0.06104999780654907,-0.8538749814033508
1749912817049514200,5.13251416015625,-1.3046000003814697,-0.07315000146627426,-1.1031625270843506
1749912817059527400,5.14252734375,-1.5581499338150024,-0.060362499207258224,-1.3235750198364258
1749912817069540600,5.15254052734375,-1.8712375164031982,0.09941250085830688,-1.525012493133545
1749912817079554000,5.162553955078125,-2.198349952697754,0.37097498774528503,-1.692212462425232
1749912817089567500,5.1725673828125,-2.4945249557495117,0.7501999735832214,-1.793412446975708
1749912817099580700,5.18258056640625,-2.7714500427246094,1.2243000268936157,-1.727412462234497
1749912817109593900,5.19259375,-3.006850004196167,1.9710625410079956,-1.6049000024795532
1749912817119607000,5.20260693359375,-3.099524974822998,2.748762369155884,-1.4333000183105469
1749912817129620500,5.212620361328125,-3.116575002670288,3.0970499515533447,-1.1691625118255615
1749912817139633700,5.222633544921875,-3.1080498695373535,3.1109375953674316,-0.9550749659538269
1749912817149647000,5.232647216796875,-3.023900032043457,2.6336750984191895,-0.7132124900817871
1749912817159660300,5.242660400390625,-2.8982250690460205,1.693037509918213,-0.381974995136261
1749912817169673500,5.252673583984375,-2.779974937438965,0.6778749823570251,-0.11563749611377716
1749912817179686700,5.262686767578125,-2.625425100326538,-0.2788499891757965,0.04207500070333481
1749912817189700000,5.2727001953125,-2.5264248847961426,-0.8412249684333801,-0.12416250258684158
1749912817199713300,5.28271337890625,-2.4646875858306885,-1.2150875329971313,-0.47244998812675476
1749912817209726500,5.2927265625,-2.4135375022888184,-1.7488625049591064,-0.6045874953269958
1749912817219739600,5.30273974609375,-2.4869625568389893,-2.170712471008301,-0.6056874990463257
1749912817229752800,5.3127529296875,-2.639312505722046,-2.3368124961853027,-0.6546375155448914
1749912817239766300,5.322766357421875,-2.804450035095215,-2.101412534713745,-0.8623999953269958
1749912817249779700,5.33277978515625,-2.9301249980926514,-1.4899499416351318,-1.102062463760376
1749912817259793000,5.34279296875,-2.997225046157837,-0.8519499897956848,-1.184012532234192
1749912817269806000,5.35280615234375,-2.832087516784668,-0.6419875025749207,-0.99013751745224
1749912817279819500,5.362819580078125,-2.446537494659424,-0.8806874752044678,-0.7163749933242798
1749912817289832700,5.372832763671875,-2.036375045776367,-1.2406624555587769,-0.5002250075340271
1749912817299846000,5.382845947265625,-1.6975749731063843,-1.4867874383926392,-0.31693750619888306
1749912817309859300,5.392859375,-1.4877499341964722,-1.5208874940872192,-0.16885000467300415
1749912817319872500,5.40287255859375,-1.4238125085830688,-1.3162875175476074,-0.0719124972820282
1749912817329885700,5.4128857421875,-1.4717999696731567,-0.9574124813079834,-0.04427500069141388
1749912817339899100,5.422899169921875,-1.5357375144958496,-0.5834124684333801,-0.08896250277757645
1749912817349912300,5.432912353515625,-1.5453624725341797,-0.335224986076355,-0.1634874939918518
1749912817359925500,5.442925537109375,-1.5037000179290771,-0.2297624945640564,-0.21779999136924744
1749912817369938700,5.452938720703125,-1.4408625364303589,-0.24901250004768372,-0.2199999988079071
1749912817379952000,5.4629521484375,-1.3642749786376953,-0.329862505197525,-0.14121249318122864
1749912817389965300,5.47296533203125,-1.2640374898910522,-0.381012499332428,0.0005499999970197678
1749912817399978500,5.482978515625,-1.119249939918518,-0.40974998474121094,0.147537499666214
1749912817409991700,5.49299169921875,-0.9211124777793884,-0.43642500042915344,0.2583625018596649
1749912817420005000,5.503005126953125,-0.6601374745368958,-0.4736874997615814,0.3371500074863434
1749912817430018300,5.513018310546875,-0.3469125032424927,-0.527037501335144,0.40851250290870667
1749912817440031500,5.523031494140625,-0.020899999886751175,-0.5898749828338623,0.49486249685287476
1749912817450045000,5.533044921875,0.27527499198913574,-0.6282374858856201,0.5875374674797058
1749912817460058000,5.54305810546875,0.5405125021934509,-0.630299985408783,0.6631624698638916
1749912817470071300,5.5530712890625,0.8025875091552734,-0.6260374784469604,0.7226999998092651
1749912817480084500,5.56308447265625,1.102887511253357,-0.5589374899864197,0.8005250096321106
1749912817490098000,5.573097900390625,1.44388747215271,-0.26179999113082886,0.9454500079154968
1749912817500111400,5.583111328125,1.7975374460220337,0.26551249623298645,1.2149499654769897
1749912817510124500,5.59312451171875,2.0893125534057617,0.8152375221252441,1.5984375476837158
1749912817520137700,5.6031376953125,2.138400077819824,1.555537462234497,1.7741625308990479
1749912817530151000,5.61315087890625,1.8070249557495117,2.732675075531006,1.5685999393463135
1749912817540164400,5.623164306640625,1.3575375080108643,3.36118745803833,1.6240124702453613
1749912817550177500,5.633177490234375,1.020937442779541,3.078900098800659,1.7688000202178955
1749912817560190700,5.643190673828125,0.8409500122070312,2.342862606048584,1.5919749736785889
1749912817570204000,5.653203857421875,0.696025013923645,1.5747874975204468,1.1265374422073364
1749912817580217000,5.663217041015625,0.5522000193595886,0.8621249794960022,0.6439124941825867
1749912817590230500,5.67323046875,0.6172375082969666,0.142037495970726,0.45649999380111694
1749912817600244000,5.683243896484375,1.0070500373840332,-0.42899999022483826,0.49802500009536743
1749912817610257200,5.693257080078125,1.4001624584197998,-0.9040625095367432,0.6535375118255615
1749912817620270300,5.703270263671875,1.601462483406067,-1.2588125467300415,0.8144124746322632
1749912817630283800,5.71328369140625,1.645187497138977,-1.5262500047683716,0.9369249939918518
1749912817640297000,5.723296875,1.5673625469207764,-1.8244874477386475,1.010349988937378
1749912817650310100,5.73331005859375,1.4991624355316162,-1.9970500469207764,0.9549375176429749
1749912817660323300,5.7433232421875,1.5397249460220337,-1.9160624742507935,0.7845749855041504
1749912817670336800,5.753336669921875,1.5673625469207764,-1.5901875495910645,0.5992249846458435
1749912817680350200,5.76335009765625,1.452412486076355,-1.1288750171661377,0.5011875033378601
1749912817690363400,5.77336328125,1.2893375158309937,-0.6282374858856201,0.5202999711036682
1749912817700376600,5.78337646484375,1.169987440109253,-0.2595999836921692,0.6268625259399414
1749912817710389800,5.7933896484375,1.1508749723434448,-0.12319999933242798,0.7280625104904175
1749912817720403200,5.8034033203125,1.2159124612808228,-0.1956624984741211,0.7525374889373779
1749912817730416400,5.81341650390625,1.2819124460220337,-0.36822500824928284,0.6887375116348267
1749912817740429600,5.8234296875,1.3095500469207764,-0.5152124762535095,0.5629249811172485
1749912817750443000,5.833443115234375,1.2850749492645264,-0.5770875215530396,0.414837509393692
1749912817760456200,5.843456298828125,1.2159124612808228,-0.5578374862670898,0.2817375063896179
1749912817770469400,5.853469482421875,1.1274999380111694,-0.4769875109195709,0.18369999527931213
1749912817780482800,5.86348291015625,1.0602624416351318,-0.33742499351501465,0.10807500034570694
1749912817790496000,5.87349609375,1.0485750436782837,-0.14781250059604645,0.052662499248981476
1749912817800509200,5.88350927734375,1.0848749876022339,0.06311249732971191,0.0037124999798834324
1749912817810522400,5.8935224609375,1.130662441253662,0.25382500886917114,-0.03891250118613243
1749912817820535800,5.903535888671875,1.1488125324249268,0.4232249855995178,-0.0494999997317791
1749912817830549000,5.913549072265625,1.1508749723434448,0.6000499725341797,-0.018699999898672104
1749912817840562400,5.9235625,1.1625624895095825,0.7833374738693237,0.04633750021457672
1749912817850575600,5.93357568359375,1.1913000345230103,0.9526000022888184,0.1069749966263771
1749912817860588800,5.9435888671875,1.221137523651123,1.0410125255584717,0.12196250259876251
1749912817870602200,5.953602294921875,1.2489124536514282,1.0421124696731567,0.10807500034570694
1749912817880615400,5.963615478515625,1.2808125019073486,0.9792749881744385,0.08249999582767487
1749912817890628900,5.97362890625,1.3010250329971313,0.8749125003814697,0.06875000149011612
1749912817900642000,5.98364208984375,1.295799970626831,0.7364500164985657,0.07823749631643295
1749912817910655200,5.9936552734375,1.2509750127792358,0.6011499762535095,0.09748750180006027
1749912817920668400,6.00366845703125,1.1732875108718872,0.47437500953674316,0.12196250259876251
1749912817930681900,6.013681884765625,1.0709874629974365,0.34443750977516174,0.15386250615119934
1749912817940695000,6.023695068359375,0.9484750032424927,0.18136249482631683,0.18906250596046448
1749912817950708200,6.033708251953125,0.8344874978065491,-0.014574999921023846,0.23058749735355377
1749912817960721400,6.043721435546875,0.7545999884605408,-0.1615625023841858,0.2689499855041504
1749912817970734800,6.05373486328125,0.7034500241279602,-0.21271249651908875,0.2891624867916107
1749912817980748300,6.063748291015625,0.6554625034332275,-0.1765500009059906,0.2913624942302704
1749912817990761500,6.073761474609375,0.605412483215332,-0.07315000146627426,0.27431249618530273
1749912818000774700,6.083774658203125,0.5405125021934509,0.07590000331401825,0.2391124963760376
1749912818010787800,6.093787841796875,0.4487999975681305,0.23045000433921814,0.19126249849796295
1749912818020801300,6.10380126953125,0.3392125070095062,0.3572250008583069,0.12622499465942383
1749912818030814500,6.113814453125,0.21559999883174896,0.45196250081062317,0.043175000697374344
1749912818040827600,6.12382763671875,0.10587500035762787,0.5201625227928162,-0.04743750020861626
1749912818050840800,6.1338408203125,0.023787500336766243,0.5755749940872192,-0.1251250058412552
1749912818060854500,6.1438544921875,-0.03904999792575836,0.6362124681472778,-0.16568750143051147
1749912818070867700,6.15386767578125,-0.08910000324249268,0.716237485408783,-0.16458749771118164
1749912818080881000,6.163880859375,-0.13282500207424164,0.7961249947547913,-0.11659999936819077
1749912818090894300,6.173894287109375,-0.16362500190734863,0.8578624725341797,-0.04207500070333481
1749912818100907500,6.183907470703125,-0.17008750140666962,0.891962468624115,0.04413750022649765
1749912818110920700,6.193920654296875,-0.14767499268054962,0.8930624723434448,0.12828749418258667
1749912818120934000,6.203933837890625,-0.10188750177621841,0.863224983215332,0.20611250400543213
1749912818130947300,6.213947265625,-0.0635249987244606,0.8152375221252441,0.27541249990463257
1749912818140960500,6.22396044921875,-0.05609999969601631,0.7587249875068665,0.3488374948501587
1749912818150973700,6.2339736328125,-0.08799999952316284,0.7108749747276306,0.3979249894618988
1749912818160987100,6.243987060546875,-0.13598750531673431,0.6756749749183655,0.3936625123023987
1749912818171000300,6.254000244140625,-0.20308749377727509,0.6608250141143799,0.2700499892234802
1749912818181013500,6.264013427734375,-0.3511750102043152,0.6352499723434448,-0.06655000150203705
1749912818191027000,6.27402685546875,-0.6142125129699707,0.5053125023841858,-0.6066499948501587
1749912818201040100,6.2840400390625,-0.9391250014305115,0.16431249678134918,-1.1958374977111816
1749912818211053300,6.29405322265625,-1.257712483406067,-0.3128125071525574,-1.6911125183105469
1749912818221066800,6.304066650390625,-1.5399999618530273,-0.7368624806404114,-2.0043375492095947
1749912818231080000,6.314079833984375,-1.8115625381469727,-0.9147874712944031,-2.1363375186920166
1749912818241093000,6.324093017578125,-2.0565874576568604,-0.7933750152587891,-2.120387554168701
1749912818251106300,6.334106201171875,-2.233412504196167,-0.5003625154495239,-2.0021374225616455
1749912818261119700,6.34411962890625,-2.3101375102996826,-0.1691250056028366,-1.875362515449524
1749912818271133200,6.35413330078125,-2.3282876014709473,0.11219999939203262,-1.727412462234497
1749912818281146000,6.36414599609375,-2.3197624683380127,0.39765000343322754,-1.4887125492095947
1749912818291159600,6.37415966796875,-2.318662405014038,0.6458374857902527,-1.1063250303268433
1749912818301173000,6.384173095703125,-2.352762460708618,0.64267498254776,-0.5597624778747559
1749912818311186200,6.394186279296875,-2.466749906539917,0.41359999775886536,0.06971249729394913
1749912818321199400,6.404199462890625,-2.6745123863220215,0.34113749861717224,0.603487491607666
1749912818331212800,6.414212890625,-2.858762502670288,0.6958875060081482,0.9421499967575073
1749912818341226000,6.42422607421875,-2.887500047683716,1.187037467956543,1.110450029373169
1749912818351239200,6.4342392578125,-2.7405123710632324,1.1976250410079956,1.1488125324249268
1749912818361252400,6.44425244140625,-2.468950033187866,0.48179998993873596,1.0381250381469727
1749912818371265800,6.454265869140625,-2.170574903488159,-0.6888750195503235,0.7408499717712402
1749912818391292200,6.474292236328125,-1.8776999711990356,-2.4359500408172607,-0.3254624903202057
1749912818401305600,6.4843056640625,-1.9703749418258667,-2.496725082397461,-0.779212474822998
1749912818411319000,6.494319091796875,-2.094949960708618,-2.159024953842163,-0.9849125146865845
1749912818421332200,6.504332275390625,-2.135512590408325,-1.857487440109253,-0.898562490940094
1749912818431345400,6.514345458984375,-2.0513625144958496,-1.8298499584197998,-0.6023874878883362
1749912818441358600,6.524358642578125,-1.9127625226974487,-1.8937875032424927,-0.22110000252723694
1749912818451372000,6.5343720703125,-1.7754000425338745,-1.7147624492645264,0.1443749964237213
1749912818461385200,6.54438525390625,-1.644362449645996,-1.266237497329712,0.39682498574256897
1749912818471398400,6.5543984375,-1.5442625284194946,-0.7112874984741211,0.5193374752998352
1749912818481411600,6.56441162109375,-1.4792250394821167,-0.13928750157356262,0.5543999671936035
1749912818491425000,6.574425048828125,-1.441962480545044,0.3572250008583069,0.5171374678611755
1749912818501438200,6.584438232421875,-1.4152874946594238,0.6011499762535095,0.43188750743865967
1749912818511451600,6.59445166015625,-1.3695000410079956,0.4786374866962433,0.35530000925064087
1749912818521464800,6.60446484375,-1.2981375455856323,0.04399999976158142,0.34773749113082886
1749912818531478000,6.61447802734375,-1.191575050354004,-0.5291000008583069,0.4020499885082245
1749912818541491500,6.624491455078125,-1.0286375284194946,-1.0564124584197998,0.4628250002861023
1749912818551505000,6.6345048828125,-0.8038250207901001,-1.3824249505996704,0.49059998989105225
1749912818561518000,6.64451806640625,-0.519474983215332,-1.4271124601364136,0.4937624931335449
1749912818571531300,6.65453125,-0.19346250593662262,-1.2406624555587769,0.49802500009536743
1749912818581544700,6.664544677734375,0.1260875016450882,-1.024512529373169,0.5352874994277954
1749912818591558000,6.674557861328125,0.41909998655319214,-0.867900013923645,0.6268625259399414
1749912818601571000,6.684571044921875,0.6938250064849854,-0.7581750154495239,0.7547374963760376
1749912818611584500,6.69458447265625,0.9708874821662903,-0.6516125202178955,0.878350019454956
1749912818621597700,6.70459765625,1.2637624740600586,-0.46309998631477356,0.9688249826431274
1749912818631611100,6.714611083984375,1.5801500082015991,-0.13708749413490295,1.0509124994277954
1749912818641624300,6.724624267578125,1.8507499694824219,0.2975499927997589,1.1360249519348145
1749912818651637500,6.734637451171875,1.9274749755859375,0.8376500010490417,1.2064249515533447
1749912818661651000,6.74465087890625,1.6717250347137451,1.5811125040054321,1.22017502784729
1749912818671664000,6.7546640625,1.2893375158309937,2.603837490081787,1.193637490272522
1749912818681677600,6.764677490234375,1.0678249597549438,3.314300060272217,1.1222749948501587
1749912818691690800,6.774690673828125,1.0400500297546387,3.0746374130249023,0.9475125074386597
1749912818701704000,6.784703857421875,1.1529375314712524,2.473900079727173,0.7493749856948853
1749912818711717000,6.794717041015625,1.3479125499725342,2.321549892425537,0.6897000074386597
1749912818721730600,6.80473046875,1.4948999881744385,2.222412586212158,0.7217375040054321
1749912818731743700,6.81474365234375,1.4693249464035034,1.4586000442504883,0.6939625144004822
1749912818741757000,6.8247568359375,1.480049967765808,0.254925012588501,0.6098124980926514
1749912818751770000,6.83477001953125,1.5940375328063965,-0.731499969959259,0.4894999861717224
1749912818761783600,6.844783447265625,1.737862467765808,-1.4484249353408813,0.37331250309944153
1749912818771797000,6.854796875,1.8603750467300415,-2.015199899673462,0.32436248660087585
1749912818781810200,6.86481005859375,1.8965375423431396,-2.218562602996826,0.30195000767707825
1749912818791823400,6.8748232421875,1.7729250192642212,-2.0620875358581543,0.2593249976634979
1749912818801836800,6.8848369140625,1.5322999954223633,-1.9108375310897827,0.21037499606609344
1749912818811850000,6.89485009765625,1.303225040435791,-1.8053749799728394,0.13901250064373016
1749912818821863200,6.90486328125,1.1391874551773071,-1.659350037574768,0.043175000697374344
1749912818831876600,6.914876708984375,1.0528374910354614,-1.4282125234603882,-0.01759999990463257
1749912818841889800,6.924889892578125,1.0411499738693237,-1.1235125064849854,0.006874999962747097
1749912818851903200,6.9349033203125,1.0795124769210815,-0.9029625058174133,0.06655000150203705
1749912818861916400,6.94491650390625,1.110450029373169,-0.867900013923645,0.07823749631643295
1749912818871929600,6.9549296875,1.111412525177002,-0.9531499743461609,0.035612501204013824
1749912818881943000,6.964943115234375,1.0773124694824219,-1.044724941253662,-0.03464999794960022
1749912818891956200,6.974956298828125,1.0272624492645264,-1.0393625497817993,-0.0943249985575676
1749912818901969700,6.9849697265625,0.9857375025749207,-0.8690000176429749,-0.09212499856948853
1749912818911982800,6.99498291015625,0.9794124960899353,-0.5237374901771545,-0.002749999985098839
1749912818921996000,7.00499609375,1.0305625200271606,-0.13282500207424164,0.10807500034570694
1749912818932009500,7.015009521484375,1.1241999864578247,0.1494625061750412,0.1592250019311905
1749912818942022700,7.025022705078125,1.2233375310897827,0.3007124960422516,0.13158750534057617
1749912818952035800,7.035035888671875,1.313812494277954,0.4030124843120575,0.06971249729394913
1749912818962049000,7.045049072265625,1.3947999477386475,0.5275874733924866,0.03244999796152115
1749912818972062500,7.0550625,1.4672625064849854,0.6916249990463257,0.035612501204013824
1749912818982075600,7.06507568359375,1.5195125341415405,0.8291249871253967,0.050599999725818634
1749912818992089000,7.075089111328125,1.5482499599456787,0.8727124929428101,0.06544999778270721
1749912819002102300,7.085102294921875,1.5695624351501465,0.8365499973297119,0.09006249904632568
1749912819012115500,7.095115478515625,1.5833125114440918,0.754462480545044,0.13474999368190765
1749912819022128600,7.105128662109375,1.5801500082015991,0.6523000001907349,0.1816374957561493
1749912819032142000,7.11514208984375,1.5343624353408813,0.5511000156402588,0.22852499783039093
1749912819042155300,7.1251552734375,1.435362458229065,0.4562250077724457,0.28283751010894775
1749912819052168700,7.135168701171875,1.2839750051498413,0.34113749861717224,0.368087500333786
1749912819062182000,7.145181884765625,1.112512469291687,0.18466250598430634,0.4820750057697296
1749912819072195000,7.155195068359375,0.9761124849319458,0.006737499963492155,0.6066499948501587
1749912819082208500,7.16520849609375,0.8952624797821045,-0.09019999951124191,0.695062518119812
1749912819092221700,7.1752216796875,0.8376500010490417,-0.06462500244379044,0.7365875244140625
1749912819102235000,7.18523486328125,0.7588624954223633,0.04179999977350235,0.7376874685287476
1749912819112248000,7.195248046875,0.6448749899864197,0.15262499451637268,0.7004249691963196
1749912819122261500,7.205261474609375,0.5181000232696533,0.2367749959230423,0.6385499835014343
1749912819132274700,7.215274658203125,0.40521249175071716,0.2815999984741211,0.5768125057220459
1749912819142288100,7.2252880859375,0.3306874930858612,0.31349998712539673,0.5202999711036682
1749912819152301300,7.23530126953125,0.28806251287460327,0.3539249897003174,0.46172499656677246
1749912819162314800,7.245314697265625,0.24860000610351562,0.39765000343322754,0.4031499922275543
1749912819172328000,7.255327880859375,0.19538749754428864,0.4380750060081482,0.36272498965263367
1749912819182341000,7.265341064453125,0.11219999939203262,0.5489000082015991,0.38940000534057617
1749912819192354600,7.2753544921875,-0.01347499992698431,0.8450750112533569,0.5384500026702881
1749912819202367700,7.28536767578125,-0.14561249315738678,1.2445124387741089,0.7473124861717224
1749912819212381000,7.295380859375,-0.2232999950647354,1.695099949836731,0.9208375215530396
1749912819222394400,7.305394287109375,-0.25107499957084656,2.377924919128418,1.019974946975708
1749912819232407600,7.315407470703125,-0.2638624906539917,3.1322500705718994,0.9048874974250793
1749912819242420700,7.325420654296875,-0.3020874857902527,3.4805374145507812,0.5202999711036682
1749912819252434200,7.33543408203125,-0.40974998474121094,3.196049928665161,-0.04743750020861626
1749912819262447400,7.345447265625,-0.5780500173568726,2.3236124515533447,-0.620537519454956
1749912819272460500,7.35546044921875,-0.7804499864578247,1.1316249370574951,-1.0572375059127808
1749912819282473700,7.3654736328125,-1.0115875005722046,-0.0518375001847744,-1.284250020980835
1749912819292487400,7.3754873046875,-1.2449250221252441,-0.9765250086784363,-1.3226125240325928
1749912819302500600,7.38550048828125,-1.433437466621399,-1.4889874458312988,-1.2661000490188599
1749912819312513500,7.395513427734375,-1.5548499822616577,-1.5390374660491943,-1.1978999376296997
1749912819322527000,7.40552685546875,-1.6326749324798584,-1.1598124504089355,-1.1702624559402466
1749912819332540200,7.4155400390625,-1.6838250160217285,-0.547249972820282,-1.2223750352859497
1749912819342553300,7.42555322265625,-1.717924952507019,0.0919874981045723,-1.342824935913086
1749912819352566800,7.43556689453125,-1.7690750360488892,0.6810374855995178,-1.4876124858856201
1749912819362580000,7.445580078125,-1.8072999715805054,1.1635249853134155,-1.5963749885559082
1749912819372593200,7.45559326171875,-1.8106000423431396,1.4832124710083008,-1.633637547492981
1749912819382606600,7.465606689453125,-1.81802499294281,1.6898750066757202,-1.5739624500274658
1749912819392620000,7.4756201171875,-1.8627125024795532,1.9017624855041504,-1.394937515258789
1749912819402633200,7.48563330078125,-1.9564875364303589,2.040362596511841,-1.0648000240325928
1749912819412646400,7.495646484375,-2.094949960708618,1.8187124729156494,-0.5534374713897705
1749912819422659800,7.505659912109375,-2.326087474822998,1.206149935722351,-0.02186249941587448
1749912819432673300,7.51567333984375,-2.6435749530792236,0.7119749784469604,0.29026249051094055
1749912819442686500,7.5256865234375,-2.8939623832702637,0.6352499723434448,0.2806375026702881
1749912819452699400,7.535699462890625,-2.972749948501587,0.45512500405311584,0.0952875018119812
1749912819462712800,7.545712890625,-2.904550075531006,-0.15207499265670776,-0.0943249985575676
1749912819472726000,7.55572607421875,-2.7479374408721924,-0.9094250202178955,-0.2083124965429306
1749912819482739500,7.565739501953125,-2.5381124019622803,-1.5069999694824219,-0.2679874897003174
1749912819492752600,7.575752685546875,-2.3388750553131104,-1.6763999462127686,-0.34677499532699585
1749912819502765800,7.585765869140625,-2.2196624279022217,-1.3983750343322754,-0.47561249136924744
1749912819512779300,7.595779296875,-2.1972498893737793,-1.016950011253357,-0.640749990940094
1749912819522792400,7.60579248046875,-2.2313499450683594,-0.7581750154495239,-0.7441499829292297
1749912819532806000,7.615805908203125,-2.270812511444092,-0.6377249956130981,-0.6983624696731567
1749912819542819000,7.625819091796875,-2.288825035095215,-0.6612374782562256,-0.5427125096321106
1749912819552832300,7.635832275390625,-2.2760374546051025,-0.7720624804496765,-0.39256250858306885
1749912819562845400,7.645845458984375,-2.233412504196167,-0.9563124775886536,-0.29672500491142273
1749912819572858600,7.655858642578125,-2.173875093460083,-1.1618750095367432,-0.2529999911785126
1749912819582872000,7.6658720703125,-2.105674982070923,-1.3355374336242676,-0.22316250205039978
1749912819592885200,7.67588525390625,-2.0215249061584473,-1.4260125160217285,-0.16458749771118164
1749912819602898400,7.6858984375,-1.9075374603271484,-1.377062439918518,-0.07727500051259995
1749912819612911900,7.695911865234375,-1.7477624416351318,-1.1288750171661377,-0.0037124999798834324
1749912819622925300,7.70592529296875,-1.5474250316619873,-0.731499969959259,0.028187500312924385
1749912819632938500,7.7159384765625,-1.3461250066757202,-0.33742499351501465,0.018562499433755875
1749912819642951700,7.72595166015625,-1.1713625192642212,-0.1264999955892563,-0.020762499421834946
1749912819652965000,7.735965087890625,-1.0371625423431396,-0.17434999346733093,-0.058024998754262924
1749912819662978600,7.745978515625,-0.9211124777793884,-0.44288748502731323,-0.07727500051259995
1749912819672991700,7.75599169921875,-0.785812497138977,-0.7880125045776367,-0.06875000149011612
1749912819683005000,7.7660048828125,-0.6132500171661377,-1.043624997138977,-0.03464999794960022
1749912819693018400,7.776018310546875,-0.4151124954223633,-1.1320375204086304,0.016499999910593033
1749912819703031600,7.786031494140625,-0.19346250593662262,-1.0595749616622925,0.08470000326633453
1749912819713044700,7.796044677734375,0.04936249926686287,-0.867900013923645,0.17737500369548798
1749912819723058200,7.80605810546875,0.2890250086784363,-0.647350013256073,0.30841249227523804
1749912819733071000,7.816071044921875,0.5277249813079834,-0.4460499882698059,0.46076250076293945
1749912819743084500,7.82608447265625,0.8057500123977661,-0.23828749358654022,0.603487491607666
1749912819753097700,7.83609765625,1.1423499584197998,0.030112499371170998,0.7099124789237976
1749912819763111200,7.846111083984375,1.5204750299453735,0.3922874927520752,0.8186749815940857
1749912819773124000,7.8561240234375,1.9243124723434448,0.8993874788284302,0.9923374652862549
1749912819783137500,7.866137451171875,2.2438623905181885,1.5012249946594238,1.1797499656677246
1749912819793151000,7.87615087890625,2.2299749851226807,2.098937511444092,1.2618374824523926
1749912819803164000,7.886163818359375,1.7740249633789062,2.4716999530792236,1.2457499504089355
1749912819813177300,7.89617724609375,1.0570999383926392,3.0533249378204346,0.9933000206947327
1749912819823190500,7.9061904296875,0.5670499801635742,4.186737537384033,0.521399974822998
1749912819833203700,7.91620361328125,0.613937497138977,4.437125205993652,0.26042500138282776
1749912819843217200,7.926217041015625,1.0252000093460083,3.5806374549865723,0.26688748598098755
1749912819853230300,7.936230224609375,1.442787528038025,2.0424249172210693,0.38087499141693115
1749912819863243500,7.946243408203125,1.4948999881744385,0.27197501063346863,0.39998748898506165
1749912819873257000,7.956257080078125,1.4981999397277832,-0.8657000064849854,0.15716250240802765
1749912819883270100,7.966270263671875,1.6238750219345093,-1.385587453842163,-0.11990000307559967
1749912819893283300,7.976283447265625,1.8060624599456787,-1.550724983215332,-0.1742125004529953
1749912819903296500,7.986296630859375,1.977524995803833,-1.6785999536514282,-0.05912499874830246
1749912819913310000,7.99631005859375,2.0659375190734863,-1.940537452697754,0.12622499465942383
1749912819923323400,8.006323486328125,2.053149938583374,-2.212237596511841,0.2934249937534332
1749912819933336600,8.016336669921875,1.9966374635696411,-2.2985875606536865,0.382937490940094
1749912819943349800,8.026349853515624,1.894474983215332,-2.1195623874664307,0.369049996137619
1749912819953363200,8.03636328125,1.6994999647140503,-1.6710374355316162,0.3073124885559082
1749912819963376400,8.04637646484375,1.44388747215271,-1.0734624862670898,0.26358750462532043
1749912819973389600,8.0563896484375,1.2467124462127686,-0.5717250108718872,0.3041499853134155
1749912819983402800,8.06640283203125,1.2073874473571777,-0.37578749656677246,0.4446749985218048
1749912819993416200,8.076416259765624,1.2744874954223633,-0.48124998807907104,0.6396499872207642
1749912820003429400,8.086429443359375,1.4001624584197998,-0.6879125237464905,0.8463125228881836
1749912820013442800,8.09644287109375,1.5599374771118164,-0.7730249762535095,1.0433499813079834
1749912820023456000,8.1064560546875,1.6792874336242676,-0.6505125164985657,1.1819499731063843
1749912820033469200,8.11646923828125,1.670762538909912,-0.4045250117778778,1.204224944114685
1749912820043482400,8.126482421875,1.5290000438690186,-0.14561249315738678,1.0966999530792236
1749912820053495800,8.136495849609375,1.3373249769210815,0.09941250085830688,0.9091500043869019
1749912820063509200,8.14650927734375,1.16902494430542,0.3007124960422516,0.6844750046730042
1749912820073522200,8.156522216796875,1.0582000017166138,0.48069998621940613,0.4787749946117401
1749912820083535600,8.16653564453125,1.0070500373840332,0.6682500243186951,0.3531000018119812
1749912820093548800,8.176548828125,1.0230000019073486,0.8525000214576721,0.3190000057220459
1749912820103562200,8.186562255859375,1.0880374908447266,1.011312484741211,0.3392125070095062
1749912820113575400,8.196575439453126,1.155137538909912,1.11347496509552,0.37014999985694885
1749912820123588600,8.206588623046875,1.194599986076355,1.1444125175476074,0.38513749837875366
1749912820133601800,8.216601806640625,1.2009249925613403,1.11347496509552,0.37014999985694885
1749912820143615500,8.226615478515624,1.1742500066757202,1.0665874481201172,0.33605000376701355
1749912820153628700,8.236628662109375,1.1232374906539917,1.0250624418258667,0.28283751010894775
1749912820163641900,8.246641845703126,1.0624624490737915,0.9761124849319458,0.2050125002861023
1749912820173655000,8.256655029296875,1.0049874782562256,0.8738124966621399,0.09006249904632568
1749912820183668200,8.266668212890625,0.953837513923645,0.7151374816894531,-0.04853750020265579
1749912820193681700,8.276681640625,0.9143750071525574,0.5392749905586243,-0.1859000027179718
1749912820203694800,8.28669482421875,0.8898999691009521,0.35186249017715454,-0.29672500491142273
1749912820213708000,8.2967080078125,0.8760125041007996,0.1568875014781952,-0.359562486410141
1749912820223721200,8.30672119140625,0.8782125115394592,-0.009212499484419823,-0.3521375060081482
1749912820233734700,8.316734619140625,0.9058499932289124,-0.09872499853372574,-0.2572624981403351
1749912820243747800,8.326747802734374,0.9484750032424927,-0.14451250433921814,-0.10491249710321426
1749912820253761300,8.33676123046875,0.9612625241279602,-0.24901250004768372,0.03244999796152115
1749912820263774500,8.3467744140625,0.9240000247955322,-0.4076874852180481,0.12622499465942383
1749912820273787600,8.35678759765625,0.8430125117301941,-0.547249972820282,0.18273749947547913
1749912820283800800,8.36680078125,0.7258625030517578,-0.6260374784469604,0.20721249282360077
1749912820293814000,8.37681396484375,0.6001874804496765,-0.6260374784469604,0.19016249477863312
1749912820303827700,8.38682763671875,0.4904625117778778,-0.5429875254631042,0.15289999544620514
1749912820313841000,8.3968408203125,0.4020499885082245,-0.39063748717308044,0.10491249710321426
1749912820323854000,8.40685400390625,0.32848748564720154,-0.21917499601840973,0.0494999997317791
1749912820333867300,8.4168671875,0.24969999492168427,-0.07315000146627426,-0.015399999916553497
1749912820343880400,8.42688037109375,0.15592500567436218,0.06531249731779099,-0.06655000150203705
1749912820353894000,8.436893798828125,0.04399999976158142,0.2527250051498413,-0.07507500052452087
1749912820363907000,8.446906982421876,-0.0826374962925911,0.5116375088691711,-0.028187500312924385
1749912820373920300,8.456920166015625,-0.19030000269412994,0.7992874979972839,0.05376249924302101
1749912820383933400,8.466933349609375,-0.24034999310970306,1.0324875116348267,0.1251250058412552
1749912820393947000,8.47694677734375,-0.22439999878406525,1.1933624744415283,0.16458749771118164
1749912820403960300,8.486960205078125,-0.17434999346733093,1.3393875360488892,0.1859000027179718
1749912820413973500,8.496973388671876,-0.14135000109672546,1.488437533378601,0.1816374957561493
1749912820423986700,8.506986572265625,-0.1615625023841858,1.6035250425338745,0.16142499446868896
1749912820434000100,8.517000244140625,-0.24461250007152557,1.628000020980835,0.13255000114440918
1749912820444013300,8.527013427734374,-0.3788124918937683,1.547012448310852,0.09844999760389328
1749912820454026500,8.537026611328125,-0.5578374862670898,1.3820124864578247,0.05596249923110008
1749912820464040000,8.5470400390625,-0.7506124973297119,1.1262625455856323,-0.043175000697374344
1749912820474053000,8.55705322265625,-0.9327999949455261,0.7321875095367432,-0.24131250381469727
1749912820484066300,8.56706640625,-1.0595749616622925,0.23045000433921814,-0.5630624890327454
1749912820494079700,8.577079833984374,-1.126675009727478,-0.18081249296665192,-0.9582374691963196
1749912820504093000,8.587093017578125,-1.1895124912261963,-0.37894999980926514,-1.3267375230789185
1749912820514106000,8.597106201171876,-1.28534996509552,-0.36506250500679016,-1.5910124778747559
1749912820524119300,8.607119384765625,-1.3897124528884888,-0.17118750512599945,-1.7326375246047974
1749912820534132700,8.6171328125,-1.4612125158309937,0.08662500232458115,-1.7539499998092651
1749912820544146000,8.62714599609375,-1.4834874868392944,0.25382500886917114,-1.6686999797821045
1749912820554159400,8.637159423828125,-1.4942125082015991,0.31459999084472656,-1.4759249687194824
1749912820564172500,8.647172607421876,-1.5527875423431396,0.3922874927520752,-1.1211750507354736
1749912820574185700,8.657185791015625,-1.6966124773025513,0.5798375010490417,-0.5427125096321106
1749912820584199200,8.66719921875,-1.8968124389648438,0.8684499859809875,0.17627499997615814
1749912820594212400,8.67721240234375,-2.201512575149536,1.1412500143051147,0.7749499678611755
1749912820604225500,8.6872255859375,-2.5679500102996826,1.6302000284194946,1.0008624792099
1749912820614238700,8.69723876953125,-2.773512601852417,2.133037567138672,0.8559374809265137
1749912820624252200,8.707252197265625,-2.7544000148773193,2.0062625408172607,0.5182374715805054
1749912820634265600,8.717265625,-2.5786750316619873,1.046375036239624,0.1816374957561493
1749912820644278800,8.72727880859375,-2.3368124961853027,-0.39916250109672546,0.010037500411272049
1749912820654292000,8.7372919921875,-2.113100051879883,-1.909737467765808,-0.0644875019788742
1749912820664305200,8.74730517578125,-1.9607499837875366,-3.119874954223633,-0.2381500005722046
1749912820674318600,8.757318603515625,-1.8702750205993652,-3.7035624980926514,-0.47464999556541443
1749912820684331800,8.767331787109375,-1.8489625453948975,-3.629037380218506,-0.6642624735832214
1749912820694345000,8.777344970703124,-1.8947499990463257,-3.0804123878479004,-0.7760499715805054
1749912820704358400,8.7873583984375,-1.9788999557495117,-2.445574998855591,-0.7771499752998352
1749912820714371600,8.79737158203125,-2.0565874576568604,-1.982200026512146,-0.6599999666213989
1749912820724385000,8.807385009765625,-2.084362506866455,-1.6050374507904053,-0.47561249136924744
1749912820734398200,8.817398193359375,-2.057687520980835,-1.1650375127792358,-0.29356250166893005
1749912820744411400,8.827411376953124,-2.013962507247925,-0.6111875176429749,-0.1443749964237213
1749912820754424800,8.8374248046875,-1.991687536239624,-0.05609999969601631,-0.022962499409914017
1749912820764438000,8.84743798828125,-2.002274990081787,0.3891249895095825,0.06544999778270721
1749912820774451200,8.857451171875,-2.0278499126434326,0.613937497138977,0.08249999582767487
1749912820784464400,8.86746435546875,-2.043799877166748,0.5670499801635742,0.01223750039935112
1749912820794477800,8.877477783203124,-2.019325017929077,0.33371248841285706,-0.10711249709129333
1749912820804491000,8.887490966796875,-1.9586875438690186,-0.007149999961256981,-0.1975875049829483
1749912820814504400,8.89750439453125,-1.8595499992370605,-0.31075000762939453,-0.18809999525547028
1749912820824517600,8.907517578125,-1.7221875190734863,-0.4907374978065491,-0.07411249727010727
1749912820834530800,8.91753076171875,-1.5485249757766724,-0.5515124797821045,0.09006249904632568
1749912820844544000,8.9275439453125,-1.3524500131607056,-0.5248374938964844,0.2465374916791916
1749912820854557400,8.937557373046875,-1.1383625268936157,-0.4045250117778778,0.36162498593330383
1749912820864570600,8.947570556640626,-0.9083250164985657,-0.23512500524520874,0.42666250467300415
1749912820874584000,8.957583984375,-0.6675624847412109,-0.07108750194311142,0.4628250002861023
1749912820884597000,8.967596923828125,-0.4129124879837036,0.02694999985396862,0.4926624894142151
1749912820894610400,8.9776103515625,-0.14561249315738678,0.03437500074505806,0.5288249850273132
1749912820904623600,8.98762353515625,0.12718750536441803,-0.02736249938607216,0.5757125020027161
1749912820914637000,8.997636962890626,0.40411248803138733,-0.12319999933242798,0.6226000189781189
1749912820924650200,9.007650146484375,0.6821374893188477,-0.23938749730587006,0.6683874726295471
1749912820934663400,9.017663330078125,0.9666249752044678,-0.357637494802475,0.686537504196167
1749912820944676600,9.027676513671874,1.278749942779541,-0.4641999900341034,0.6854375004768372
1749912820954689800,9.037689697265625,1.6429874897003174,-0.5248374938964844,0.7334250211715698
1749912820964703500,9.047703369140624,2.008462429046631,-0.38005000352859497,0.8207374811172485
1749912820974716700,9.057716552734375,2.2032999992370605,0.06104999780654907,0.9208375215530396
1749912820984729900,9.067729736328126,2.1276750564575195,0.512737512588501,1.1413874626159668
1749912820994743000,9.077742919921874,1.895437479019165,0.9686874747276306,1.3406250476837158
1749912821004756200,9.087756103515625,1.5652999877929688,1.7846125364303589,1.1776875257492065
1749912821014769400,9.097769287109376,1.1881375312805176,2.9308125972747803,0.8079500198364258
1749912821024782800,9.107782958984375,1.0911999940872192,3.450700044631958,0.6396499872207642
1749912821034796000,9.117796142578126,1.1966625452041626,3.131150007247925,0.5821750164031982
1749912821044809200,9.127809326171874,1.2935999631881714,2.3236124515533447,0.5554999709129333
1749912821054822700,9.13782275390625,1.2978625297546387,1.3723875284194946,0.5202999711036682
1749912821064836000,9.147836181640624,1.378849983215332,0.48399999737739563,0.38087499141693115
1749912821074849300,9.157849365234375,1.5940375328063965,-0.2447499930858612,0.16142499446868896
1749912821084862500,9.167862548828126,1.8655999898910522,-0.8742250204086304,0.02928750030696392
1749912821094875600,9.177875732421874,2.080787420272827,-1.3824249505996704,0.01759999990463257
1749912821104889000,9.18788916015625,2.1608123779296875,-1.7551875114440918,0.11123749613761902
1749912821114902300,9.19790234375,2.1063625812530518,-1.9075374603271484,0.22206249833106995
1749912821124915500,9.20791552734375,1.9456249475479126,-1.7670124769210815,0.2593249976634979
1749912821134929000,9.217928955078126,1.7154500484466553,-1.3631750345230103,0.18053749203681946
1749912821144942000,9.227942138671875,1.5002624988555908,-0.9509499669075012,0.04743750020861626
1749912821154955300,9.237955322265625,1.3299000263214111,-0.6953374743461609,-0.050599999725818634
1749912821164968400,9.247968505859374,1.2168749570846558,-0.5291000008583069,-0.07837499678134918
1749912821174982000,9.25798193359375,1.1892374753952026,-0.42899999022483826,-0.03671250119805336
1749912821184995000,9.2679951171875,1.2467124462127686,-0.4609000086784363,0.01223750039935112
1749912821195008300,9.27800830078125,1.3319624662399292,-0.6313999891281128,0.023924998939037323
1749912821205021400,9.288021484375,1.404425024986267,-0.8338000178337097,-0.0016499999910593033
1749912821215035000,9.298034912109374,1.436324954032898,-0.9679999947547913,-0.04853750020265579
1749912821225048000,9.308048095703125,1.4289000034332275,-0.9829875230789185,-0.09858749806880951
1749912821235061500,9.3180615234375,1.4118499755859375,-0.850849986076355,-0.13695000112056732
1749912821245074700,9.32807470703125,1.4203749895095825,-0.5770875215530396,-0.1518000066280365
1749912821255087900,9.338087890625,1.44388747215271,-0.21697500348091125,-0.14121249318122864
1749912821265101000,9.34810107421875,1.461899995803833,0.08552499860525131,-0.11659999936819077
1749912821275114500,9.358114501953125,1.4854124784469604,0.2708750069141388,-0.10175000131130219
1749912821285127700,9.368127685546876,1.5322999954223633,0.39338749647140503,-0.09858749806880951
1749912821295140900,9.378140869140625,1.6057250499725342,0.5062749981880188,-0.09322500228881836
1749912821305154000,9.388154052734375,1.6909749507904053,0.5852000117301941,-0.09006249904632568
1749912821315167500,9.39816748046875,1.7719625234603882,0.6065124869346619,-0.08579999953508377
1749912821325181000,9.408180908203125,1.8145874738693237,0.5264874696731567,-0.08896250277757645
1749912821335194000,9.418194091796876,1.8177499771118164,0.3817000091075897,-0.07507500052452087
1749912821345207300,9.428207275390625,1.776224970817566,0.19951249659061432,-0.043175000697374344
1749912821355220500,9.438220458984375,1.6994999647140503,-0.02419999986886978,-0.0016499999910593033
1749912821365233700,9.448233642578124,1.6068249940872192,-0.2723875045776367,0.05596249923110008
1749912821375247000,9.4582470703125,1.5045249462127686,-0.5174124836921692,0.147537499666214
1749912821385260300,9.46826025390625,1.3937000036239624,-0.7997000217437744,0.2806375026702881
1749912821395273500,9.4782734375,1.2819124460220337,-1.0905125141143799,0.4372499883174896
1749912821405286700,9.48828662109375,1.1827750205993652,-1.3227499723434448,0.5906999707221985
1749912821415300000,9.498300048828124,1.1221375465393066,-1.4537874460220337,0.7163749933242798
1749912821425313500,9.5083134765625,1.0678249597549438,-1.4975124597549438,0.8133124709129333
1749912821435326700,9.51832666015625,0.9772124886512756,-1.5475624799728394,0.870787501335144
1749912821445340000,9.52833984375,0.8302249908447266,-1.633774995803833,0.8857749700546265
1749912821455353300,9.538353271484375,0.6374499797821045,-1.681762456893921,0.8815125226974487
1749912821465366500,9.548366455078124,0.444537490606308,-1.6732374429702759,0.870787501335144
1749912821475379700,9.558379638671875,0.2624875009059906,-1.6039375066757202,0.8590999841690063
1749912821485393200,9.56839306640625,0.09418749809265137,-1.4836249351501465,0.8303624987602234
1749912821495406300,9.57840625,-0.047575000673532486,-1.3248125314712524,0.779212474822998
1749912821505419500,9.58841943359375,-0.15193749964237213,-1.1459250450134277,0.6972625255584717
1749912821515433000,9.598432861328124,-0.2457125037908554,-0.9190499782562256,0.612975001335144
1749912821525446100,9.608446044921875,-0.3543374836444855,-0.6175125241279602,0.5406500101089478
1749912821535459300,9.618459228515626,-0.4609000086784363,-0.22343750298023224,0.49059998989105225
1749912821545472800,9.62847265625,-0.5396875143051147,0.24529999494552612,0.4702500104904175
1749912821555486000,9.63848583984375,-0.5376250147819519,0.6650875210762024,0.44261249899864197
1749912821565499100,9.6484990234375,-0.41084998846054077,0.9025499820709229,0.368087500333786
1749912821575512600,9.6585126953125,-0.2616625130176544,1.139050006866455,0.3104749917984009
1749912821585525800,9.66852587890625,-0.17434999346733093,1.5065875053405762,0.3414124846458435
1749912821595539000,9.6785390625,-0.054999999701976776,1.8240749835968018,0.39682498574256897
1749912821605552000,9.68855224609375,0.17077499628067017,1.912487506866455,0.41909998655319214
1749912821615565600,9.698565673828124,0.4254249930381775,1.7473499774932861,0.4255625009536743
1749912821625578800,9.708578857421875,0.6289250254631042,1.3403500318527222,0.4244624972343445
1749912821635592000,9.718592041015626,0.7449749708175659,0.7001500129699707,0.39682498574256897
1749912821645605000,9.728605224609375,0.7397499680519104,-0.09446249902248383,0.359562486410141
1749912821655618600,9.73861865234375,0.6161375045776367,-0.933899998664856,0.35846251249313354
1749912821665632000,9.748632080078124,0.444537490606308,-1.6934499740600586,0.382937490940094
1749912821675645200,9.758645263671875,0.31363749504089355,-2.1962873935699463,0.36272498965263367
1749912821685658400,9.768658447265626,0.24860000610351562,-2.332550048828125,0.24131250381469727
1749912821695671600,9.778671630859375,0.19744999706745148,-2.1216249465942383,-0.005912499967962503
1749912821705685000,9.78868505859375,0.11329999566078186,-1.624150037765503,-0.38403749465942383
1749912821715698200,9.7986982421875,-0.023099999874830246,-0.9915124773979187,-0.8740875124931335
1749912821725711400,9.80871142578125,-0.1966249942779541,-0.3587374985218048,-1.4067624807357788
1749912821735724500,9.818724609375,-0.42143750190734863,0.22288750112056732,-1.9170249700546265
1749912821745738000,9.828738037109375,-0.6931374669075012,0.6927250027656555,-2.347262382507324
1749912821755751200,9.838751220703125,-0.9828500151634216,1.0133750438690186,-2.6690125465393066
1749912821765764600,9.8487646484375,-1.2597750425338745,1.1987249851226807,-2.8778750896453857
1749912821775777800,9.85877783203125,-1.4877499341964722,1.261562466621399,-2.9757750034332275
1749912821785791000,9.868791015625,-1.6678749322891235,1.104949951171875,-2.9172000885009766
1749912821795804400,9.878804443359375,-1.8222874402999878,0.6032124757766724,-2.684000015258789
1749912821805817600,9.888817626953125,-1.9522249698638916,-0.21587499976158142,-2.3036749362945557
1749912821815830800,9.898830810546874,-2.0556249618530273,-1.1501874923706055,-1.8253124952316284
1749912821825844200,9.90884423828125,-2.1077375411987305,-1.9523625373840332,-1.3087249994277954
1749912821835857400,9.918857421875,-2.0565874576568604,-2.3784749507904053,-0.8740875124931335
1749912821845870600,9.92887060546875,-1.9533250331878662,-2.2431750297546387,-0.5906999707221985
1749912821855883800,9.9388837890625,-1.9416375160217285,-1.6572874784469604,-0.4553999900817871
1749912821865897200,9.948897216796874,-2.0565874576568604,-1.1576124429702759,-0.41923749446868896
1749912821875910400,9.958910400390625,-2.171674966812134,-0.9733625054359436,-0.44907498359680176
1749912821885923600,9.968923583984376,-2.2068750858306885,-1.0010000467300415,-0.5119125247001648
1749912821895937000,9.97893701171875,-2.153524875640869,-1.1459250450134277,-0.5875374674797058
1749912821905950200,9.9889501953125,-2.0832624435424805,-1.4335750341415405,-0.612012505531311
1749912821915963400,9.99896337890625,-2.0513625144958496,-1.7807624340057373,-0.5384500026702881
1749912821925976600,10.0089765625,-2.0002124309539795,-1.8585875034332275,-0.4021874964237213
1749912821935990000,10.018989990234376,-1.9106999635696411,-1.2524875402450562,-0.22426250576972961
1749912821946003500,10.02900341796875,-1.8510249853134155,-0.15839999914169312,-0.01223750039935112
1749912821956016400,10.039016357421875,-1.8510249853134155,1.037850022315979,0.19552500545978546
1749912821966029800,10.04902978515625,-1.8968124389648438,1.9082249402999878,0.391462504863739
1749912821976043000,10.05904296875,-1.9351749420166016,2.1382625102996826,0.6237000226974487
1749912821986056200,10.06905615234375,-1.9223874807357788,1.9145499467849731,0.8559374809265137
1749912821996069600,10.079069580078125,-1.8489625453948975,1.4895374774932861,0.9890375137329102
1749912822006082800,10.089082763671875,-1.7381374835968018,0.9229000210762024,0.9838125109672546
1749912822016096000,10.099095947265624,-1.5932124853134155,0.12925000488758087,0.878350019454956
1749912822026109400,10.109109375,-1.4664374589920044,-0.8412249684333801,0.7462124824523926
1749912822036123000,10.119122802734376,-1.402500033378601,-1.7562874555587769,0.6257625222206116
1749912822046136000,10.129135986328125,-1.401537537574768,-2.380537509918213,0.5150749683380127
1749912822056149200,10.139149169921875,-1.4473249912261963,-2.6692874431610107,0.406312495470047
1749912822066162400,10.149162353515624,-1.5016374588012695,-2.716175079345703,0.34347498416900635
1749912822076176000,10.15917578125,-1.5059000253677368,-2.6692874431610107,0.3712500035762787
1749912822086189000,10.16918896484375,-1.4035999774932861,-2.6735498905181885,0.4787749946117401
1749912822096202200,10.1792021484375,-1.1787874698638916,-2.775712490081787,0.6172375082969666
1749912822106215400,10.18921533203125,-0.8901749849319458,-2.9291625022888184,0.7312250137329102
1749912822116228900,10.199228759765624,-0.5758500099182129,-3.0314624309539795,0.7984625101089478
1749912822126242000,10.209241943359375,-0.2807750105857849,-3.0186750888824463,0.8314625024795532
1749912822136255500,10.21925537109375,-0.03904999792575836,-2.8759500980377197,0.8633624911308289
1749912822146268700,10.2292685546875,0.1527625024318695,-2.617037534713745,0.915612518787384
1749912822156281900,10.23928173828125,0.3199625015258789,-2.2815375328063965,0.9923374652862549
1749912822166295000,10.249294921875,0.43931248784065247,-1.939574956893921,1.0902374982833862
1749912822176308500,10.25930859375,0.5064125061035156,-1.650825023651123,1.2064249515533447
1749912822186321700,10.26932177734375,0.549037516117096,-1.3792624473571777,1.3491499423980713
1749912822196334800,10.2793349609375,0.5863000154495239,-1.1448249816894531,1.4907749891281128
1749912822206348000,10.28934814453125,0.6619250178337097,-0.9850500226020813,1.6154874563217163
1749912822216361200,10.299361328125,0.8057500123977661,-0.8380625247955322,1.7380000352859497
1749912822226374700,10.309374755859375,1.0357874631881714,-0.6334624886512756,1.8881499767303467
1749912822236387800,10.319387939453126,1.378849983215332,-0.3895374834537506,2.092750072479248
1749912822246401300,10.3294013671875,1.8262749910354614,-0.14451250433921814,2.3622500896453857
1749912822256414500,10.33941455078125,2.2959749698638916,-0.045512501150369644,2.5400373935699463
1749912822266427600,10.349427734375,2.6123623847961426,-0.3630000054836273,1.828474998474121
1749912822276441000,10.359441162109375,2.3993749618530273,-0.3544749915599823,0.5373499989509583
1749912822286454300,10.369454345703126,1.7996000051498413,0.10999999940395355,0.3306874930858612
1749912822296467500,10.379467529296875,0.916575014591217,-0.02419999986886978,0.8804125189781189
1749912822306480600,10.389480712890625,0.0035749999806284904,-0.7954375147819519,1.543025016784668
1749912822316493800,10.399493896484374,-0.527999997138977,-1.1118249893188477,1.7050000429153442
1749912822326507300,10.40950732421875,-0.44811248779296875,-0.7346624732017517,1.251112461090088
1749912822336520400,10.4195205078125,-0.2307250052690506,-0.4162124991416931,0.678012490272522
1749912822346534000,10.429533935546875,-0.37248748540878296,-0.4278999865055084,0.2583625018596649
1749912822356547000,10.439547119140625,-0.7272375226020813,-0.7698624730110168,0.007974999956786633
1749912822366560300,10.449560302734374,-1.0627374649047852,-1.4921499490737915,-0.14011250436306
1749912822376573400,10.459573486328125,-1.2342000007629395,-2.334749937057495,-0.3030500113964081
1749912822386586600,10.469586669921876,-1.2171499729156494,-2.631887435913086,-0.557699978351593
1749912822396600000,10.47960009765625,-1.257712483406067,-1.6284124851226807,-0.6290624737739563
1749912822406613200,10.48961328125,-1.4643750190734863,0.05458749830722809,-0.48413750529289246
1749912822416626400,10.49962646484375,-1.367437481880188,0.9207000136375427,-0.6226000189781189
1749912822426639600,10.5096396484375,-0.9040625095367432,1.1464749574661255,-1.0040249824523926
1749912822436653000,10.519653076171876,-0.3511750102043152,1.37128746509552,-1.1413874626159668
1749912822446666200,10.529666259765625,0.022824998944997787,1.3734874725341797,-0.8388875126838684
1749912822456679700,10.5396796875,0.20487499237060547,0.7694500088691711,-0.5139750242233276
1749912822466692900,10.54969287109375,0.32532501220703125,-0.19030000269412994,-0.34251248836517334
1749912822476706000,10.5597060546875,0.5053125023841858,-1.2460249662399292,-0.24667499959468842
1749912822486719200,10.56971923828125,0.7684875130653381,-2.4125750064849854,-0.11659999936819077
1749912822496732400,10.579732421875,1.0187374353408813,-3.4649999141693115,-0.0016499999910593033
1749912822506745900,10.589745849609375,1.1263999938964844,-4.107399940490723,0.058024998754262924
1749912822516759000,10.599759033203124,1.0687874555587769,-4.448262691497803,0.0952875018119812
1749912822526772200,10.609772216796875,0.908050000667572,-4.635674953460693,0.12402500212192535
1749912822536785700,10.61978564453125,0.7290250062942505,-4.724087238311768,0.11769999563694
1749912822546798800,10.629798828125,0.559624969959259,-4.667712688446045,0.07507500052452087
1749912822556812300,10.639812255859376,0.41690000891685486,-4.40880012512207,0.04743750020861626
1749912822566825500,10.649825439453124,0.3273875117301941,-3.7578749656677246,0.1975875049829483
1749912822576838700,10.659838623046875,0.2997500002384186,-2.6713500022888184,0.567187488079071
1749912822586852000,10.66985205078125,0.3199625015258789,-1.6615500450134277,0.8559374809265137
1749912822596865300,10.679865234375,0.3807374835014343,-1.0714000463485718,0.9198749661445618
1749912822606878500,10.68987841796875,0.466949999332428,-0.784850001335144,0.8750500082969666
1749912822616891600,10.6998916015625,0.5831375122070312,-0.6612374782562256,0.8079500198364258
1749912822626904800,10.70990478515625,0.7173374891281128,-0.6175125241279602,0.7473124861717224
1749912822636918300,10.719918212890626,0.8441125154495239,-0.6026625037193298,0.7078499794006348
1749912822646931700,10.729931640625,0.9570000171661377,-0.5802500247955322,0.6897000074386597
1749912822656945000,10.73994482421875,1.0326249599456787,-0.5365250110626221,0.695062518119812
1749912822666958000,10.7499580078125,1.0592999458312988,-0.4716250002384186,0.7174749970436096
1749912822676971500,10.759971435546875,1.037987470626831,-0.4012250006198883,0.7473124861717224
1749912822686984700,10.769984619140626,0.9836750030517578,-0.3544749915599823,0.7845749855041504
1749912822696998000,10.779997802734375,0.9132750034332275,-0.37674999237060547,0.8292624950408936
1749912822707011000,10.790010986328125,0.8515374660491943,-0.47905001044273376,0.8835750222206116
1749912822717024300,10.800024169921874,0.8057500123977661,-0.6260374784469604,0.9506750106811523
1749912822727037700,10.81003759765625,0.7727500200271606,-0.767799973487854,1.0242375135421753
1749912822737051000,10.82005078125,0.7386500239372253,-0.8860499858856201,1.100962519645691
1749912822747064300,10.830064208984375,0.6991875171661377,-0.979687511920929,1.1712249517440796
1749912822757077500,10.840077392578126,0.633187472820282,-1.0595749616622925,1.2223750352859497
1749912822767090700,10.850090576171874,0.5319874882698059,-1.142762541770935,1.2457499504089355
1749912822777104100,10.860104248046875,0.421162486076355,-1.2386000156402588,1.2372249364852905
1749912822787117300,10.870117431640624,0.33701249957084656,-1.3386999368667603,1.2159124612808228
1749912822797130500,10.880130615234375,0.30291250348091125,-1.4217499494552612,1.193637490272522
1749912822807143700,10.890143798828126,0.3242250084877014,-1.4739999771118164,1.1701250076293945
1749912822817157000,10.9001572265625,0.3881624937057495,-1.4932500123977661,1.1606374979019165
1749912822827170300,10.91017041015625,0.4871625006198883,-1.4782625436782837,1.1584374904632568
1749912822837183500,10.92018359375,0.6193000078201294,-1.440999984741211,1.1734249591827393
1749912822847196700,10.93019677734375,0.7662875056266785,-1.3792624473571777,1.210687518119812
1749912822857210000,10.940210205078126,0.9229000210762024,-1.291812539100647,1.2746249437332153
1749912822867223300,10.950223388671875,1.0624624490737915,-1.2044999599456787,1.3437875509262085
1749912822877236700,10.96023681640625,1.169987440109253,-1.1479874849319458,1.3832499980926514
1749912822887250000,10.97025,1.2329624891281128,-1.13423752784729,1.3843499422073364
1749912822897263000,10.98026318359375,1.2372249364852905,-1.1726000308990479,1.3437875509262085
1749912822907276300,10.9902763671875,1.1679250001907349,-1.2695374488830566,1.2607375383377075
1749912822917289700,11.000289794921875,1.055037498474121,-1.4302749633789062,1.137125015258789
1749912822927303000,11.010302978515625,0.9442124962806702,-1.6306124925613403,0.9805124998092651
1749912822937316400,11.02031640625,0.8663874864578247,-1.7584874629974365,0.8079500198364258
1749912822947329300,11.030329345703125,0.8035500049591064,-1.5112625360488892,0.7280625104904175
1749912822957342500,11.040342529296876,0.6224625110626221,-0.19676250219345093,0.7440124750137329
1749912822967356000,11.05035595703125,0.2167000025510788,1.453374981880188,0.4820750057697296
1749912822977369300,11.060369384765625,-0.2307250052690506,2.285249948501587,0.002612499985843897
1749912822987382500,11.070382568359374,-0.5919374823570251,2.4620749950408936,-0.5193374752998352
1749912822997395700,11.080395751953125,-0.926337480545044,2.2937750816345215,-1.0509124994277954
1749912823007409000,11.090408935546876,-1.2716000080108643,2.2863500118255615,-1.5888124704360962
1749912823017422300,11.10042236328125,-1.6401000022888184,2.5058000087738037,-2.114062547683716
1749912823027435500,11.110435546875,-2.076937437057495,2.4620749950408936,-2.5220248699188232
1749912823037449000,11.120448974609374,-2.554062604904175,1.9337999820709229,-2.753162384033203
1749912823047462000,11.1304619140625,-2.9493749141693115,1.1549999713897705,-2.8000500202178955
1749912823057475300,11.140475341796876,-3.198662519454956,0.5446375012397766,-2.643437385559082
1749912823067488500,11.150488525390625,-3.320075035095215,0.202674999833107,-2.1598498821258545
1749912823077502000,11.160501953125,-3.3519749641418457,-0.12856249511241913,-1.5878499746322632
1749912823087515100,11.17051513671875,-3.2902374267578125,-0.48647499084472656,-1.210687518119812
1749912823097528300,11.1805283203125,-3.1356875896453857,-0.7954375147819519,-1.044450044631958
1749912823107541800,11.190541748046876,-2.904550075531006,-1.0382624864578247,-1.0114500522613525
1749912823117555000,11.200554931640625,-2.603149890899658,-1.2417625188827515,-1.0306999683380127
1749912823127568100,11.210568115234375,-2.2622873783111572,-1.440999984741211,-1.0487124919891357
1749912823137581300,11.220581298828124,-1.9331125020980835,-1.5613124370574951,-1.0316624641418457
1749912823147594500,11.230594482421875,-1.650825023651123,-1.6061375141143799,-0.9389874935150146
1749912823157607700,11.240607666015626,-1.4291750192642212,-1.625249981880188,-0.7121124863624573
1749912823167621400,11.250621337890625,-1.2960749864578247,-1.6582499742507935,-0.3573625087738037
1749912823177634600,11.260634521484375,-1.201200008392334,-1.7392375469207764,0.0719124972820282
1749912823187647700,11.270647705078124,-1.1159499883651733,-1.8489625453948975,0.5416125059127808
1749912823197661000,11.280660888671875,-1.0670000314712524,-1.9149625301361084,0.9933000206947327
1749912823207674000,11.290674072265626,-1.060675024986267,-1.9800000190734863,1.3906749486923218
1749912823217687600,11.3006875,-1.120212435722351,-2.007775068283081,1.6964750289916992
1749912823227700700,11.31070068359375,-1.2364000082015991,-1.9182624816894531,1.8583124876022339
1749912823237714000,11.3207138671875,-1.3727999925613403,-1.726449966430664,1.8380999565124512
1749912823247727000,11.33072705078125,-1.5005375146865845,-1.541100025177002,1.6334999799728394
1749912823257740500,11.340740478515626,-1.6187875270843506,-1.475100040435791,1.2894749641418457
1749912823267754000,11.35075390625,-1.7221875190734863,-1.5751999616622925,0.9017249941825867
1749912823277767200,11.36076708984375,-1.799875020980835,-1.8042750358581543,0.566224992275238
1749912823287780400,11.3707802734375,-1.8532249927520752,-2.100450038909912,0.35846251249313354
1749912823297793500,11.38079345703125,-1.8552874326705933,-2.4114749431610107,0.3349500000476837
1749912823307806700,11.390806640625,-1.7594499588012695,-2.6841375827789307,0.5086125135421753
1749912823317820000,11.40081982421875,-1.5559500455856323,-2.857800006866455,0.8281624913215637
1749912823327833300,11.410833251953125,-1.2704999446868896,-2.913212537765503,1.1424875259399414
1749912823337846500,11.420846435546874,-0.9700624942779541,-2.913212537765503,1.3096874952316284
1749912823347859700,11.430859619140625,-0.7068874835968018,-2.8535375595092773,1.3182125091552734
1749912823357873000,11.440872802734376,-0.47148749232292175,-2.6787750720977783,1.2394249439239502
1749912823367886000,11.450885986328124,-0.2648249864578247,-2.429487466812134,1.1158125400543213
1749912823377899500,11.4608994140625,-0.11783749610185623,-2.0578250885009766,1.0029250383377075
1749912823387913000,11.470912841796874,-0.020899999886751175,-1.5624125003814697,0.9464125037193298
1749912823397926100,11.480926025390625,0.08566249907016754,-1.0308375358581543,0.9762499928474426
1749912823407939300,11.490939208984376,0.2591874897480011,-0.5770875215530396,1.0636999607086182
1749912823417952500,11.500952392578125,0.5160375237464905,-0.15839999914169312,1.1957000494003296
1749912823427965700,11.510965576171875,0.8419125080108643,0.28049999475479126,1.3906749486923218
1749912823437979100,11.520979248046874,1.2009249925613403,0.7577624917030334,1.669800043106079
1749912823447992300,11.530992431640625,1.5897749662399292,1.1966625452041626,1.9915499687194824
1749912823458005500,11.541005615234376,1.9966374635696411,1.4852750301361084,2.22694993019104
1749912823468018700,11.551018798828125,2.320587396621704,1.4500750303268433,2.172637462615967
1749912823478032100,11.5610322265625,2.2789249420166016,0.24529999494552612,0.9145125150680542
1749912823488045600,11.571045654296874,1.7441874742507935,-0.9563124775886536,-0.1667875051498413
1749912823498058800,11.581058837890625,1.278749942779541,-1.091612458229065,0.16775000095367432
1749912823508072000,11.591072021484376,0.8461750149726868,-1.291812539100647,0.8292624950408936
1749912823518085000,11.601085205078125,0.4680500030517578,-1.6391375064849854,1.1488125324249268
1749912823528098300,11.611098388671875,0.2283875048160553,-1.7115999460220337,0.9858750104904175
1749912823538111700,11.62111181640625,0.14313749969005585,-1.6923500299453735,0.5799750089645386
1749912823548125000,11.631125,0.11866249889135361,-2.10471248626709,0.16458749771118164
1749912823558138000,11.64113818359375,0.08882500231266022,-3.061300039291382,-0.13695000112056732
1749912823568151800,11.65115185546875,0.04619999974966049,-3.8846499919891357,-0.38513749837875366
1749912823578165000,11.6611650390625,-0.05073750019073486,-4.35022497177124,-0.6237000226974487
1749912823588178200,11.67117822265625,-0.2807750105857849,-3.897437572479248,-0.7749499678611755
1749912823598191400,11.68119140625,-0.6260374784469604,-2.5595624446868896,-0.7365875244140625
1749912823608204500,11.69120458984375,-0.7378249764442444,-1.7360750436782837,-0.7899374961853027
1749912823618218000,11.701218017578125,-0.5428500175476074,-1.2065625190734863,-0.8857749700546265
1749912823628231200,11.711231201171875,-0.19456249475479126,-0.7027624845504761,-0.9039250016212463
1749912823638244400,11.721244384765624,0.19112500548362732,-0.4417875111103058,-0.8101499676704407
1749912823648257800,11.7312578125,0.5394124984741211,-0.6186124682426453,-0.5895999670028687
1749912823658271000,11.74127099609375,0.8163374662399292,-1.1939125061035156,-0.3104749917984009
1749912823668284200,11.7512841796875,0.9697874784469604,-2.049299955368042,-0.03148749843239784
1749912823678297300,11.76129736328125,0.9942625164985657,-3.0868749618530273,0.24763749539852142
1749912823688310500,11.771310546875,0.9154750108718872,-4.206399917602539,0.5449125170707703
1749912823698323700,11.78132373046875,0.7343875169754028,-5.183199882507324,0.7866374850273132
1749912823708337200,11.791337158203126,0.511775016784668,-5.773349761962891,0.8974624872207642
1749912823718350600,11.8013505859375,0.29548749327659607,-5.943850040435791,0.8953999876976013
1749912823728363800,11.81136376953125,0.10051249712705612,-5.732924938201904,0.8016250133514404
1749912823738377000,11.821376953125,-0.03368749842047691,-5.205612659454346,0.6385499835014343
1749912823748390100,11.83139013671875,-0.10188750177621841,-4.300175189971924,0.4596624970436096
1749912823758403300,11.8414033203125,-0.21587499976158142,-2.867424964904785,0.382937490940094
1749912823768416800,11.851416748046875,-0.367125004529953,-1.044724941253662,0.4127750098705292
1749912823778430000,11.861429931640625,-0.43216249346733093,0.6096749901771545,0.4096125066280365
1749912823788443100,11.871443115234374,-0.39806249737739563,1.8229750394821167,0.32862499356269836
1749912823798456300,11.881456298828125,-0.3106124997138977,2.652787446975708,0.22522500157356262
1749912823808469800,11.8914697265625,-0.19346250593662262,3.1013123989105225,0.15289999544620514
1749912823818483200,11.901483154296875,-0.05609999969601631,3.2599875926971436,0.13474999368190765
1749912823828496400,11.911496337890625,0.0919874981045723,3.216399908065796,0.1634874939918518
1749912823838509600,11.921509521484374,0.24213749170303345,3.0234875679016113,0.2092749923467636
1749912823848522800,11.931522705078125,0.3955875039100647,2.7402374744415283,0.25616249442100525
1749912823858536000,11.941535888671876,0.5468375086784363,2.408862590789795,0.30841249227523804
1749912823868549000,11.951549072265625,0.6682500243186951,2.0350000858306885,0.368087500333786
1749912823878562600,11.9615625,0.7440124750137329,1.6504124402999878,0.4468750059604645
1749912823888575700,11.97157568359375,0.780174970626831,1.312712550163269,0.557699978351593
1749912823898589000,11.9815888671875,0.7950249910354614,1.0879000425338745,0.7141749858856201
1749912823908602400,11.991602294921876,0.817437469959259,1.047474980354309,0.9602999687194824
1749912823918615300,12.001615234375,0.8568999767303467,1.2253999710083008,1.3213750123977661
1749912823928629000,12.01162890625,0.890999972820282,1.4405875205993652,1.6772249937057495
1749912823938642200,12.02164208984375,0.8941624760627747,1.4991624355316162,1.8881499767303467
1749912823948655400,12.0316552734375,0.8674874901771545,1.387237548828125,1.9350374937057495
1749912823958668500,12.04166845703125,0.8324249982833862,1.1583000421524048,1.8742624521255493
1749912823968681700,12.051681640625,0.8324249982833862,0.8621249794960022,1.7635749578475952
1749912823978695200,12.061695068359375,0.8782125115394592,0.5468375086784363,1.6666375398635864
1749912823988708400,12.071708251953124,0.9442124962806702,0.31349998712539673,1.6431249380111694
1749912823998721500,12.081721435546875,1.0007250308990479,0.20803749561309814,1.7113250494003296
1749912824008734700,12.091734619140626,1.020937442779541,0.17710000276565552,1.8392000198364258
1749912824018748000,12.101747802734375,1.0155750513076782,0.14726249873638153,1.9552500247955322
1749912824028761000,12.111760986328125,1.0007250308990479,0.05678749829530716,2.0373375415802
1749912824038774300,12.121774169921874,0.9942625164985657,-0.01993750035762787,2.112962484359741
1749912824048787700,12.13178759765625,0.982574999332428,0.10793749988079071,2.2226874828338623
1749912824058801200,12.14180126953125,0.9453125,0.7534999847412109,2.151324987411499
1749912824068814300,12.151814453125,0.8834375143051147,1.4926999807357788,1.5419249534606934
1749912824078827500,12.16182763671875,0.7833374738693237,1.6737874746322632,0.5352874994277954
1749912824088841000,12.171841064453124,0.65972501039505,1.2476749420166016,-0.4212999939918518
1749912824098854100,12.181854248046875,0.5926250219345093,0.490325003862381,-1.0392249822616577
1749912824108867300,12.191867431640626,0.6395124793052673,-0.3554374873638153,-1.3960374593734741
1749912824118880500,12.201880615234375,0.6800749897956848,-1.0714000463485718,-1.634600043296814
1749912824128894000,12.21189404296875,0.6554625034332275,-1.5859249830245972,-1.784887433052063
1749912824138907400,12.221907470703124,0.5670499801635742,-2.022624969482422,-1.8221499919891357
1749912824148920300,12.23192041015625,0.44673749804496765,-2.207974910736084,-1.4801875352859497
1749912824158933500,12.24193359375,0.2773374915122986,-1.7776000499725342,-0.6131125092506409
1749912824168947200,12.251947265625,-0.14135000109672546,-1.3727999925613403,0.05912499874830246
1749912824178960400,12.26196044921875,-0.7389249801635742,-0.8870124816894531,0.38609999418258667
1749912824188973600,12.2719736328125,-1.2619750499725342,-0.06572499871253967,0.36588749289512634
1749912824198986800,12.28198681640625,-1.5698374509811401,0.853600025177002,0.0015124999918043613
1749912824209000200,12.292000244140626,-1.7850250005722046,1.4671249389648438,-0.6375874876976013
1749912824219013400,12.302013427734375,-2.042837381362915,1.6770875453948975,-1.4088250398635864
1749912824229026600,12.312026611328125,-2.3538625240325928,1.4938000440597534,-2.148162603378296
1749912824239040000,12.3220400390625,-2.675612449645996,1.0784125328063965,-2.74257493019104
1749912824249053200,12.33205322265625,-2.9258625507354736,0.5531625151634216,-3.151637554168701
1749912824259066400,12.34206640625,-3.055799961090088,-0.0017874999903142452,-3.399825096130371
1749912824269079600,12.35207958984375,-3.0771124362945557,-0.45141249895095825,-3.5030875205993652
1749912824279093000,12.362093017578125,-3.058000087738037,-0.40658751130104065,-3.3262624740600586
1749912824289106200,12.372106201171874,-3.0804123878479004,0.09515000134706497,-2.677537441253662
1749912824299119400,12.382119384765625,-3.0685875415802,0.22082500159740448,-1.8796249628067017
1749912824309132800,12.3921328125,-2.962162494659424,-0.14135000109672546,-1.1083874702453613
1749912824319146000,12.40214599609375,-2.785337448120117,-0.9498500227928162,-0.3797749876976013
1749912824329159200,12.4121591796875,-2.5616250038146973,-1.9512624740600586,0.2839374840259552
1749912824339172400,12.42217236328125,-2.2782375812530518,-2.628725051879883,0.8559374809265137
1749912824349185500,12.432185546875,-1.9383374452590942,-2.582937479019165,1.3736250400543213
1749912824359199000,12.442198974609376,-1.617687463760376,-1.8191249370574951,1.800837516784668
1749912824369212200,12.452212158203125,-1.4536499977111816,-0.42253750562667847,2.0340375900268555
1749912824379225300,12.462225341796875,-1.5633749961853027,1.2552374601364136,1.9989750385284424
1749912824389238800,12.47223876953125,-1.918125033378601,2.625149965286255,1.6581125259399414
1749912824399252000,12.482251953125,-2.2930874824523926,3.0778000354766846,1.0210750102996826
1749912824409265200,12.49226513671875,-2.5062124729156494,2.294874906539917,0.30195000767707825
1749912824419278300,12.5022783203125,-2.580737590789795,0.4232249855995178,-0.23058749735355377
1749912824429291800,12.512291748046875,-2.5455374717712402,-1.7542250156402588,-0.4703874886035919
1749912824439305000,12.522304931640624,-2.4166998863220215,-3.1273000240325928,-0.45649999380111694
1749912824449318100,12.532318115234375,-2.2302498817443848,-3.4457499980926514,-0.29782500863075256
1749912824459331300,12.542331298828126,-2.0565874576568604,-3.0494749546051025,-0.08689999580383301
1749912824469344500,12.552344482421875,-1.8882875442504883,-2.342175006866455,0.13474999368190765
1749912824479358000,12.56235791015625,-1.7668750286102295,-1.5017750263214111,0.3573625087738037
1749912824489371100,12.57237109375,-1.6710374355316162,-0.5856124758720398,0.5288249850273132
1749912824499384600,12.582384521484375,-1.6017374992370605,0.23897500336170197,0.6140750050544739
1749912824509397500,12.5923974609375,-1.5527875423431396,0.6767749786376953,0.5992249846458435
1749912824519411000,12.602410888671875,-1.4399000406265259,0.7875999808311462,0.5406500101089478
1749912824529424100,12.612424072265625,-1.2790249586105347,0.6159999966621399,0.510812520980835
1749912824539437600,12.6224375,-1.1031625270843506,0.21972499787807465,0.4969249963760376
1749912824549450800,12.63245068359375,-0.9103875160217285,-0.19786250591278076,0.46598750352859497
1749912824559464000,12.6424638671875,-0.685575008392334,-0.4045250117778778,0.44577500224113464
1749912824569477000,12.65247705078125,-0.44811248779296875,-0.44385001063346863,0.4255625009536743
1749912824579490600,12.662490478515625,-0.21367499232292175,-0.35227498412132263,0.4255625009536743
1749912824589503700,12.672503662109374,0.021724998950958252,-0.2106499969959259,0.4820750057697296
1749912824599517000,12.682516845703125,0.2591874897480011,-0.055137500166893005,0.5853375196456909
1749912824609530000,12.692530029296876,0.4871625006198883,0.05142499879002571,0.7004249691963196
1749912824619543600,12.70254345703125,0.7077124714851379,0.022687500342726707,0.7973625063896179
1749912824629556700,12.712556640625,0.936787486076355,-0.13928750157356262,0.8665249943733215
1749912824639570200,12.722570068359374,1.1668249368667603,-0.2670249938964844,0.898562490940094
1749912824649583400,12.732583251953125,1.3479125499725342,-0.18081249296665192,0.8740875124931335
