time,seconds_elapsed,z,y,x
1751214507793568800,0.13956884765625,-0.9644918441772461,-0.10043025016784668,-0.059181928634643555
1751214507803562500,0.1495625,-0.8654575347900391,-0.19623231887817383,-0.20444250106811523
1751214507813556500,0.159556396484375,-0.8219461441040039,-0.28711509704589844,-0.3695979714393616
1751214507823550500,0.169550537109375,-0.7824316024780273,-0.3288055658340454,-0.43306881189346313
1751214507833544400,0.17954443359375,-0.743830680847168,-0.4069051742553711,-0.4213661551475525
1751214507843538400,0.189538330078125,-1.1121344566345215,-0.9422030448913574,0.06629675626754761
1751214507853532400,0.199532470703125,-1.401097297668457,-0.8546675443649292,-0.65865159034729
1751214507863526400,0.2095263671875,-2.393653392791748,-0.6122181415557861,-1.0488307476043701
1751214507873520400,0.219520263671875,-2.9918861389160156,-0.9194515943527222,-0.8044232130050659
1751214507883514400,0.229514404296875,-2.937939167022705,-1.3245548009872437,-0.8377126455307007
1751214507893508400,0.23950830078125,-2.5875916481018066,-1.6811115741729736,-1.1357028484344482
1751214507903502000,0.249502197265625,-2.0480518341064453,-2.13810133934021,-1.2847203016281128
1751214507913496000,0.25949609375,-1.478518009185791,-2.6266932487487793,-1.268760323524475
1751214507923490000,0.269489990234375,-0.980252742767334,-2.7929611206054688,-1.9984108209609985
1751214507933484000,0.279484130859375,-0.9763092994689941,-2.470667600631714,-3.6290106773376465
1751214507943478000,0.28947802734375,-1.8527846336364746,-2.692018747329712,-4.919231414794922
1751214507953472000,0.299471923828125,-3.0720627307891846,-3.8108201026916504,-4.982442855834961
1751214507963466000,0.309466064453125,-4.128722667694092,-4.850002765655518,-3.944063663482666
1751214507973460000,0.3194599609375,-5.171894073486328,-5.958582401275635,-2.126793622970581
1751214507983454000,0.329453857421875,-5.838676929473877,-7.10502290725708,-0.1620044708251953
1751214507993448000,0.339447998046875,-6.117441654205322,-7.428800106048584,0.7329483032226562
1751214508003441700,0.349441650390625,-5.2726569175720215,-6.661780834197998,0.21173381805419922
1751214508013435600,0.359435546875,-2.6763834953308105,-5.815831661224365,-0.42688608169555664
1751214508023429600,0.3694296875,1.2029368877410889,-5.308696746826172,-0.8687582015991211
1751214508033423600,0.379423583984375,1.1839079856872559,-5.728880405426025,-0.0675654411315918
1751214508043417600,0.38941748046875,-0.647544264793396,-6.654514312744141,2.5951685905456543
1751214508053411600,0.39941162109375,-2.327502489089966,-6.359549522399902,4.108486652374268
1751214508063405600,0.409405517578125,-2.482217311859131,-5.305434226989746,4.786130428314209
1751214508073399600,0.419399658203125,-0.5874993801116943,-4.836737632751465,5.552733898162842
1751214508083393500,0.4293935546875,1.273945927619934,-5.101511478424072,6.677363872528076
1751214508093387500,0.439387451171875,1.9732991456985474,-5.082283020019531,7.845276355743408
1751214508103381200,0.44938134765625,1.0586752891540527,-4.64636754989624,8.868781089782715
1751214508113375200,0.459375244140625,-0.7075183391571045,-3.9723386764526367,9.383993148803711
1751214508123369200,0.469369140625,-1.7700291872024536,-3.021055221557617,9.373550415039062
1751214508133363200,0.47936328125,-1.769946813583374,-2.213280200958252,9.428691864013672
1751214508143357200,0.489357177734375,-1.0020577907562256,-1.7654151916503906,9.349672317504883
1751214508153351200,0.49935107421875,-0.2910592555999756,-1.4733085632324219,9.54545783996582
1751214508163345200,0.50934521484375,-0.1275792121887207,-1.4434504508972168,10.49537467956543
1751214508173339100,0.519339111328125,0.006324291229248047,-1.1671137809753418,11.378397941589355
1751214508183333000,0.5293330078125,-0.457173228263855,-0.5204157829284668,11.843671798706055
1751214508193327000,0.5393271484375,-3.9693331718444824,0.3864774703979492,12.727884292602539
1751214508203320800,0.54932080078125,-13.673759460449219,1.607621669769287,14.805868148803711
1751214508213314800,0.559314697265625,-10.810771942138672,3.6795363426208496,13.485580444335938
1751214508223308800,0.569308837890625,-4.885364055633545,4.179049491882324,11.859598159790039
1751214508233302800,0.579302734375,-0.598456084728241,2.9974517822265625,12.099947929382324
1751214508243296800,0.589296875,1.6928297281265259,1.892404556274414,12.635345458984375
1751214508253290800,0.599290771484375,0.8229235410690308,2.1926989555358887,12.221946716308594
1751214508263284700,0.60928466796875,-1.6181797981262207,3.751082420349121,9.896862030029297
1751214508273278700,0.61927880859375,-2.53240966796875,4.272562026977539,6.810591220855713
1751214508283272700,0.629272705078125,-1.9811575412750244,3.7698287963867188,4.928566932678223
1751214508293266700,0.6392666015625,1.4829423427581787,3.212578773498535,4.075560569763184
1751214508303260400,0.649260498046875,3.0876989364624023,2.79599666595459,4.0609822273254395
1751214508313254400,0.65925439453125,-1.4780977964401245,3.0231375694274902,3.558861255645752
1751214508323248400,0.669248291015625,-3.296386241912842,3.716646671295166,2.173922538757324
1751214508333242400,0.679242431640625,-2.6720526218414307,3.663715362548828,1.0186824798583984
1751214508343236400,0.689236328125,-2.2439239025115967,3.2594876289367676,1.2966365814208984
1751214508353230300,0.699230224609375,-1.4095053672790527,3.0601234436035156,2.5812320709228516
1751214508363224300,0.709224365234375,-0.9709115028381348,3.186246871948242,4.5091986656188965
1751214508373218300,0.71921826171875,-0.9743067026138306,3.573385715484619,5.7894206047058105
1751214508383212300,0.72921240234375,-2.098487615585327,3.9903335571289062,5.268832206726074
1751214508393206300,0.739206298828125,-3.5516533851623535,3.961544990539551,3.764139175415039
1751214508403200000,0.749199951171875,-4.511050701141357,3.471662998199463,2.991199016571045
1751214508413194000,0.759194091796875,-4.5477142333984375,3.0802736282348633,2.5886125564575195
1751214508423188000,0.76918798828125,-4.556286811828613,2.534900665283203,2.618560314178467
1751214508433182000,0.779181884765625,-4.879987716674805,2.143681526184082,3.920712471008301
1751214508443176000,0.789176025390625,-2.90608811378479,2.7108044624328613,5.415457725524902
1751214508453170000,0.799169921875,-1.9431400299072266,2.3913979530334473,4.622255325317383
1751214508463164000,0.809163818359375,-2.1455516815185547,1.6835198402404785,3.7432799339294434
1751214508473158000,0.819157958984375,-0.3411630392074585,1.5089259147644043,3.8718667030334473
1751214508483152000,0.82915185546875,0.6966844201087952,1.6930508613586426,3.1986870765686035
1751214508493145900,0.839145751953125,-0.01095205545425415,2.3720507621765137,1.41217041015625
1751214508503139800,0.849139892578125,-0.2508591413497925,2.4261386394500732,-0.10709095001220703
1751214508513134000,0.859134033203125,-0.7206231355667114,1.8360347747802734,-1.867133617401123
1751214508523128000,0.869128173828125,0.1815434694290161,1.1227192878723145,-3.642125129699707
1751214508533122000,0.8791220703125,1.3170557022094727,-0.5218629837036133,-4.788578510284424
1751214508543116000,0.889115966796875,2.9208526611328125,-2.9491357803344727,-5.445169448852539
1751214508553110000,0.899110107421875,3.043710470199585,-5.624134063720703,-6.431948661804199
1751214508563104000,0.90910400390625,2.9629173278808594,-6.390515327453613,-8.070096969604492
1751214508573098000,0.919097900390625,2.0989880561828613,-4.805913925170898,-10.690823554992676
1751214508583092000,0.929092041015625,0.8311481475830078,-2.8425283432006836,-11.79037094116211
1751214508593086000,0.9390859375,-0.436983585357666,-2.5142669677734375,-10.188024520874023
1751214508603080200,0.949080078125,-0.7567350268363953,-2.6376824378967285,-7.732538223266602
1751214508613074200,0.95907421875,-0.9590957164764404,-2.4475598335266113,-5.9596662521362305
1751214508623068200,0.969068115234375,-1.8957993984222412,-1.7046828269958496,-5.085369110107422
1751214508633062100,0.979062255859375,-3.0263328552246094,-1.1178655624389648,-4.579720497131348
1751214508643056000,0.98905615234375,-4.036542892456055,-0.44115686416625977,-4.937123775482178
1751214508653050000,0.999050048828125,-4.871078014373779,0.9469375610351562,-6.446824550628662
1751214508663044000,1.009044189453125,-4.602747440338135,0.9155263900756836,-6.71943998336792
1751214508673038000,1.0190380859375,-2.934898614883423,-1.4199609756469727,-3.788496494293213
1751214508683032000,1.029031982421875,-1.8019475936889648,-3.159609794616699,-0.5426669120788574
1751214508693026000,1.039026123046875,-0.5955653786659241,-3.3401527404785156,1.5939645767211914
1751214508703020300,1.049020263671875,1.365840196609497,-1.4770350456237793,2.182065963745117
1751214508713014300,1.05901416015625,2.528553009033203,0.41026878356933594,2.2631049156188965
1751214508723008300,1.06900830078125,2.6248559951782227,1.3981046676635742,2.3485398292541504
1751214508733002200,1.079002197265625,2.513291120529175,1.4606151580810547,2.790309429168701
1751214508742996200,1.088996337890625,2.097612142562866,1.021453857421875,3.5046091079711914
1751214508752990200,1.098990234375,1.7812151908874512,-0.2743721008300781,5.3073039054870605
1751214508762984200,1.108984130859375,2.4775285720825195,-1.1039495468139648,5.7079386711120605
1751214508772978200,1.118978271484375,2.208850860595703,-0.3820476531982422,5.52423620223999
1751214508782972200,1.12897216796875,1.9117861986160278,0.04226207733154297,4.742042541503906
1751214508792966100,1.138966064453125,2.792337417602539,1.0700364112854004,3.2824032306671143
1751214508802960400,1.14896044921875,3.0464372634887695,2.5297040939331055,2.016942262649536
1751214508812954400,1.158954345703125,2.512681245803833,3.1635732650756836,1.111957311630249
1751214508822948400,1.1689482421875,2.078681230545044,3.578852653503418,0.3208897113800049
1751214508832942300,1.1789423828125,1.8346030712127686,3.9394307136535645,-0.3004772663116455
1751214508842936300,1.188936279296875,1.7983131408691406,4.085096836090088,-0.6887800693511963
1751214508852930300,1.198930419921875,1.3000314235687256,4.276684761047363,-1.1500378847122192
1751214508862924300,1.20892431640625,0.36580926179885864,4.688291072845459,-1.5054129362106323
1751214508872918300,1.218918212890625,-0.14763814210891724,5.268075942993164,-1.8871128559112549
1751214508882912300,1.228912353515625,-0.37126782536506653,4.402198791503906,-2.1240644454956055
1751214508892906200,1.23890625,-0.4734494686126709,-1.4405593872070312,-0.8625330924987793
1751214508902900200,1.248900146484375,-1.063396692276001,-9.437704086303711,0.7684521675109863
1751214508912894200,1.258894287109375,-0.010065615177154541,-15.839752197265625,1.5443615913391113
1751214508922888200,1.26888818359375,0.7570214867591858,-19.507976531982422,0.6673953533172607
1751214508932882200,1.278882080078125,1.3764671087265015,-19.011032104492188,-1.04813814163208
1751214508942876200,1.288876220703125,1.8170833587646484,-15.199917793273926,-1.6771080493927002
1751214508952870100,1.2988701171875,2.392463207244873,-10.238597869873047,-1.1454135179519653
1751214508962864000,1.308864013671875,4.313215732574463,-6.185817718505859,-0.0890975147485733
1751214508972857900,1.31885791015625,5.3369903564453125,-2.9659223556518555,0.859859049320221
1751214508982851800,1.328851806640625,3.010026693344116,-0.4832763671875,0.9450533986091614
1751214508992845800,1.338845703125,0.7519054412841797,1.1529512405395508,0.6732872724533081
1751214509002839800,1.34883984375,-0.8282629251480103,2.1255030632019043,0.32686877250671387
1751214509012833800,1.358833740234375,-2.0289649963378906,2.4450178146362305,0.2677750587463379
1751214509022827800,1.368827880859375,-3.1359047889709473,2.2214279174804688,0.30737054347991943
1751214509032821800,1.37882177734375,-3.9640092849731445,1.9084181785583496,-0.44434648752212524
1751214509042815700,1.388815673828125,-4.500726699829102,1.2834224700927734,-1.7892738580703735
1751214509052809700,1.398809814453125,-4.8295063972473145,0.49455833435058594,-3.158076047897339
1751214509062803700,1.4088037109375,-4.554743766784668,-0.08416461944580078,-4.395504474639893
1751214509072797400,1.41879736328125,-3.3474607467651367,-0.3962392807006836,-5.12610387802124
1751214509082791400,1.42879150390625,-0.3627990484237671,-0.6487770080566406,-5.134469985961914
1751214509092785400,1.438785400390625,0.7908602952957153,-0.7501363754272461,-4.635509490966797
1751214509102779400,1.448779296875,0.006042003631591797,-0.3187837600708008,-3.380910634994507
1751214509112773400,1.4587734375,-1.1572636365890503,0.1552562713623047,-2.395846366882324
1751214509122767400,1.468767333984375,-1.8378785848617554,0.3179769515991211,-1.682474136352539
1751214509132761300,1.47876123046875,-2.018742084503174,0.47765350341796875,-1.1375257968902588
1751214509142755300,1.48875537109375,-1.8958417177200317,0.6487932205200195,-0.8865547776222229
1751214509152749300,1.498749267578125,-1.5366674661636353,0.6544466018676758,-0.7193624973297119
1751214509162743300,1.508743408203125,-1.1212528944015503,0.4517078399658203,-0.4534435272216797
1751214509172737000,1.518737060546875,-0.7519149780273438,0.15999794006347656,-0.09544658660888672
1751214509182731000,1.52873095703125,-0.5181673765182495,-0.13013744354248047,0.2666388750076294
1751214509192725000,1.53872509765625,-0.49197015166282654,-0.38083648681640625,0.6463408470153809
1751214509202719000,1.548718994140625,-0.6233670711517334,-0.5635538101196289,1.107804298400879
1751214509212713000,1.558712890625,-0.8362531661987305,-0.6072359085083008,1.446000099182129
1751214509222707000,1.56870703125,-1.0153234004974365,-0.42726802825927734,1.71083664894104
1751214509232701000,1.578700927734375,-0.679427981376648,-0.40583324432373047,2.1295552253723145
1751214509242695000,1.58869482421875,0.10095083713531494,-0.7176637649536133,2.7211241722106934
1751214509252689000,1.59868896484375,0.7017461061477661,-0.8354692459106445,5.044887065887451
1751214509262683000,1.608682861328125,2.8443150520324707,-0.8743562698364258,3.4891910552978516
1751214509272676600,1.618676513671875,5.350532531738281,-0.8925666809082031,2.5730209350585938
1751214509282670600,1.628670654296875,6.045303821563721,-1.1226739883422852,1.880849003791809
1751214509292664600,1.63866455078125,5.288097381591797,-1.0227184295654297,-0.3200265169143677
1751214509302658600,1.648658447265625,4.172647476196289,-0.2354869842529297,-1.9801700115203857
1751214509312652500,1.658652587890625,2.718893051147461,0.13498497009277344,-2.6095476150512695
1751214509322646500,1.668646484375,1.7136054039001465,0.3916749954223633,-2.6085994243621826
1751214509332640500,1.678640625,1.1986770629882812,0.6735353469848633,-2.4781320095062256
1751214509342634500,1.688634521484375,0.6535850763320923,0.9086475372314453,-2.4248874187469482
1751214509352628500,1.69862841796875,-0.22999674081802368,0.9348831176757812,-2.2522027492523193
1751214509362622500,1.70862255859375,-1.22268545627594,0.7678842544555664,-1.8097538948059082
1751214509372616200,1.7186162109375,-1.946829080581665,0.6851043701171875,-1.364750623703003
1751214509382610200,1.728610107421875,-2.283496379852295,0.4675712585449219,-0.8589187264442444
1751214509392604200,1.738604248046875,-2.2688584327697754,0.1407155990600586,-0.21470975875854492
1751214509402598100,1.74859814453125,-2.083552837371826,-0.10816287994384766,0.42334067821502686
1751214509412592000,1.758592041015625,-1.9250164031982422,-0.2639646530151367,0.911719799041748
1751214509422586400,1.76858642578125,-1.9432032108306885,-0.41582202911376953,1.146287441253662
1751214509432580400,1.778580322265625,-1.9293792247772217,-0.5104913711547852,1.1181740760803223
1751214509442574300,1.78857421875,-1.6559257507324219,-0.5775480270385742,1.0488545894622803
1751214509452568300,1.798568359375,-1.4084599018096924,-0.46586036682128906,0.6808313131332397
1751214509462562300,1.808562255859375,-1.1620811223983765,-0.07788944244384766,0.18124735355377197
1751214509472556300,1.818556396484375,-0.8194195628166199,-0.0681905746459961,0.0825192928314209
1751214509482550300,1.82855029296875,-0.27410411834716797,-0.15868854522705078,0.07602012157440186
1751214509492544300,1.838544189453125,0.14908850193023682,-0.32558631896972656,0.026547670364379883
1751214509502538200,1.848538330078125,0.2806124687194824,-0.4023265838623047,-0.11853545904159546
1751214509512532500,1.858532470703125,0.07977676391601562,-0.3513660430908203,-0.2817230820655823
1751214509522526500,1.8685263671875,-0.3991295099258423,-0.29656028747558594,-0.35288721323013306
1751214509532520400,1.8785205078125,-0.9830300807952881,-0.2275686264038086,-0.34259575605392456
1751214509542514400,1.888514404296875,-1.6153223514556885,-0.12013816833496094,-0.3120119571685791
1751214509552508400,1.89850830078125,-2.11181902885437,-0.02643299102783203,-0.24583786725997925
1751214509562502400,1.90850244140625,-2.2960898876190186,0.029947280883789062,-0.1818481683731079
1751214509572496400,1.918496337890625,-2.164316177368164,-0.007853507995605469,-0.11985456943511963
1751214509582490400,1.928490478515625,-1.7238291501998901,-0.14420604705810547,-0.03684121370315552
1751214509592484400,1.938484375,-1.1601080894470215,-0.21701622009277344,0.04651069641113281
1751214509602478300,1.948478271484375,-0.6199889779090881,-0.24140644073486328,0.0914989709854126
1751214509612472600,1.95847265625,-0.13484954833984375,-0.2133045196533203,0.155193030834198
1751214509622466600,1.968466552734375,0.2832484245300293,-0.13331890106201172,0.23196274042129517
1751214509632460500,1.97846044921875,0.5281835794448853,-0.059067726135253906,0.2880929708480835
1751214509642454500,1.98845458984375,0.6669217348098755,0.02853107452392578,0.2993006110191345
1751214509652448500,1.998448486328125,0.733817458152771,0.12952613830566406,0.22742843627929688
1751214509662442500,2.0084423828125,0.7250640392303467,0.2343740463256836,0.07812374830245972
1751214509672436500,2.0184365234375,0.6746910810470581,0.3192329406738281,-0.1620064377784729
1751214509682430500,2.028430419921875,0.5354201793670654,0.3459148406982422,-0.4905608892440796
1751214509692424400,2.038424560546875,0.3759629726409912,0.35286712646484375,-0.7719066143035889
1751214509702418400,2.04841845703125,0.254364013671875,0.34977054595947266,-0.9581290483474731
1751214509712412700,2.05841259765625,0.24796581268310547,0.3844003677368164,-1.0487102270126343
1751214509722406700,2.06840673828125,0.28140342235565186,0.41387939453125,-1.044093132019043
1751214509732400600,2.078400634765625,0.4362539052963257,0.4097156524658203,-0.9350087642669678
1751214509742394600,2.08839453125,0.7113571166992188,0.3720684051513672,-0.6895302534103394
1751214509752388600,2.098388671875,1.0669612884521484,0.36307811737060547,-0.34355056285858154
1751214509762382600,2.108382568359375,1.3388965129852295,0.3634653091430664,-0.07549679279327393
1751214509772376600,2.11837646484375,1.4503308534622192,0.32558536529541016,0.13240110874176025
1751214509782370600,2.12837060546875,1.430690050125122,0.2640962600708008,0.2648234963417053
1751214509792364500,2.138364501953125,1.3045766353607178,0.17914581298828125,0.3411839008331299
1751214509802358800,2.14835888671875,1.1007856130599976,0.09469413757324219,0.3851053714752197
1751214509812352800,2.158352783203125,0.9192883968353271,0.024883270263671875,0.402166485786438
1751214509822346800,2.1683466796875,0.7498054504394531,-0.020951271057128906,0.4117213487625122
1751214509832340700,2.1783408203125,0.5636367797851562,-0.06679821014404297,0.4521525502204895
1751214509842334700,2.188334716796875,0.36230623722076416,-0.08378219604492188,0.47043222188949585
1751214509852328700,2.19832861328125,0.21452414989471436,-0.05269908905029297,0.4383241534233093
1751214509862322700,2.20832275390625,0.14988672733306885,-0.0641021728515625,0.3845033645629883
1751214509872316700,2.218316650390625,0.10634183883666992,-0.060565948486328125,0.29015952348709106
1751214509882310700,2.228310546875,0.06457662582397461,-0.027899742126464844,0.1794428825378418
1751214509892304600,2.2383046875,-0.02338707447052002,-0.009166717529296875,0.023655176162719727
1751214509902298600,2.248298583984375,-0.10472023487091064,-0.004452705383300781,-0.17551517486572266
1751214509912292600,2.258292724609375,-0.18866121768951416,-0.042387962341308594,-0.27837812900543213
1751214509922286600,2.26828662109375,-0.24087607860565186,-0.10831451416015625,-0.26151740550994873
1751214509932280600,2.278280517578125,-0.27997660636901855,-0.17335033416748047,-0.12112414836883545
1751214509942274600,2.288274658203125,-0.281976580619812,-0.19925403594970703,0.046259403228759766
1751214509952268500,2.2982685546875,-0.2524944543838501,-0.15305805206298828,0.17941218614578247
1751214509962262500,2.308262451171875,-0.1875220537185669,-0.04956531524658203,0.2839251160621643
1751214509972256500,2.318256591796875,-0.08728229999542236,0.034699440002441406,0.3597872257232666
1751214509982250500,2.32825048828125,0.05231618881225586,0.12831783294677734,0.33099114894866943
1751214509992244200,2.338244140625,0.2116459608078003,0.1215047836303711,0.2697853446006775
1751214510002238200,2.34823828125,0.40823400020599365,0.0049591064453125,0.08532798290252686
1751214510012232200,2.358232177734375,0.639592170715332,-0.04010009765625,-0.19282817840576172
1751214510022226200,2.36822607421875,0.9128526449203491,-0.028655052185058594,-0.45933258533477783
1751214510032220200,2.37822021484375,1.1940711736679077,0.05804920196533203,-0.6902353763580322
1751214510042214100,2.388214111328125,1.461021065711975,0.12937450408935547,-0.8857272863388062
1751214510052208000,2.3982080078125,1.74307382106781,0.16159820556640625,-1.1407378911972046
1751214510062202000,2.4082021484375,2.0099427700042725,0.28815650939941406,-1.3315000534057617
1751214510072196000,2.418196044921875,2.0410642623901367,0.5179462432861328,-1.2962285280227661
1751214510082190000,2.428190185546875,1.7184126377105713,0.6168851852416992,-1.02632737159729
1751214510092183800,2.438183837890625,1.1164249181747437,0.6857099533081055,-0.71671462059021
1751214510102177800,2.448177734375,0.4249643087387085,0.5675287246704102,-0.3472728729248047
1751214510112171800,2.458171875,-0.17512643337249756,0.3448219299316406,-0.0031119585037231445
1751214510122165800,2.468165771484375,-0.5328978300094604,-0.033675193786621094,0.5201417803764343
1751214510142153700,2.48815380859375,-0.2907981872558594,-0.47751903533935547,1.2834248542785645
1751214510152147700,2.498147705078125,0.1487795114517212,-0.5155324935913086,1.4098445177078247
1751214510162141700,2.5081416015625,0.5245394706726074,-0.43820858001708984,1.4001842737197876
1751214510172135700,2.5181357421875,0.7223609685897827,-0.3651580810546875,1.2686201333999634
1751214510182129700,2.528129638671875,0.6293212175369263,-0.5061025619506836,1.0350335836410522
1751214510192123400,2.538123291015625,0.3943183422088623,-0.5505552291870117,0.7504758238792419
1751214510202117400,2.548117431640625,0.18457281589508057,-0.4133625030517578,0.5128207206726074
1751214510212111400,2.558111328125,0.03433334827423096,-0.21920394897460938,0.2659931778907776
1751214510222105300,2.568105224609375,-0.06483948230743408,-0.04442024230957031,-0.013073980808258057
1751214510232099300,2.578099365234375,-0.05055558681488037,0.18258953094482422,-0.270354688167572
1751214510242093300,2.58809326171875,-0.3060339689254761,0.17041873931884766,-0.6915141940116882
1751214510252087300,2.59808740234375,-0.27344810962677,0.4631795883178711,-1.1006430387496948
1751214510262081300,2.608081298828125,0.05397355556488037,0.7204856872558594,-1.2756069898605347
1751214510272075300,2.6180751953125,0.38764822483062744,0.7038354873657227,-1.246774673461914
1751214510282069200,2.6280693359375,0.5670614242553711,0.6857757568359375,-1.2556281089782715
1751214510292063000,2.63806298828125,0.6197222471237183,0.7090921401977539,-1.2946069240570068
1751214510302057000,2.648056884765625,0.4986755847930908,0.7118635177612305,-1.3421311378479004
1751214510312051000,2.658051025390625,0.11198759078979492,0.6754674911499023,-1.4302539825439453
1751214510322045000,2.668044921875,-0.42231225967407227,0.5762577056884766,-1.3735918998718262
1751214510332039000,2.678038818359375,-0.9153934717178345,0.2669849395751953,-0.9055492877960205
1751214510342033000,2.688032958984375,-1.4143133163452148,-0.13663196563720703,-0.3215920925140381
1751214510352027000,2.69802685546875,-1.8231863975524902,-0.3810758590698242,0.2324489951133728
1751214510362020900,2.708020751953125,-2.137688159942627,-0.42388248443603516,0.6123279929161072
1751214510372014800,2.718014892578125,-2.6052136421203613,-0.41857242584228516,0.7403667569160461
1751214510382008800,2.7280087890625,-3.0356757640838623,-0.5460128784179688,0.8853585124015808
1751214510392002800,2.7380029296875,-3.1649656295776367,-0.7051515579223633,0.9085255861282349
1751214510401997000,2.7479970703125,-3.097686767578125,-0.981541633605957,0.7531501650810242
1751214510411991000,2.757990966796875,-2.7567501068115234,-1.1599836349487305,0.5206273794174194
1751214510421985000,2.767985107421875,-2.208815574645996,-1.1503467559814453,0.34605908393859863
1751214510431979000,2.77797900390625,-1.3844399452209473,-0.9540262222290039,0.22579479217529297
1751214510441973000,2.787972900390625,-0.344814658164978,-0.6681890487670898,0.1374739408493042
1751214510451967000,2.797967041015625,0.6438397169113159,-0.6327276229858398,0.11454212665557861
1751214510461961000,2.8079609375,1.3644816875457764,-0.7658462524414062,0.2638819217681885
1751214510471955000,2.817954833984375,2.0150399208068848,-0.8235311508178711,0.5806170701980591
1751214510481949000,2.827948974609375,2.4999947547912598,-0.9109888076782227,0.9837409257888794
1751214510491943000,2.83794287109375,2.728341579437256,-0.9376363754272461,1.3514068126678467
1751214510501937200,2.847937255859375,2.7680068016052246,-0.6373786926269531,1.6434519290924072
1751214510511931100,2.85793115234375,2.5647876262664795,-0.5131187438964844,2.1303586959838867
1751214510521925000,2.867925048828125,2.044463634490967,-0.6443948745727539,2.726992130279541
1751214510571895000,2.91789501953125,-1.0819551944732666,-2.873379707336426,0.4135916233062744
1751214510581889000,2.927888916015625,-1.3222016096115112,-2.508450508117676,-0.0844728946685791
1751214510591883300,2.93788330078125,-1.2877799272537231,-1.9488849639892578,0.20939326286315918
1751214510601877200,2.947877197265625,-1.3453810214996338,-2.3013811111450195,0.7069711685180664
1751214510611871200,2.957871337890625,-1.182053804397583,-2.922578811645508,1.1863164901733398
1751214510621865200,2.967865234375,-0.6164417266845703,-3.304849624633789,1.6537222862243652
1751214510631859200,2.977859130859375,0.18998253345489502,-3.343369483947754,2.0044190883636475
1751214510641853200,2.987853271484375,0.8341679573059082,-3.115860939025879,2.130666732788086
1751214510651847200,2.99784716796875,0.7976428270339966,-2.775515556335449,2.028996229171753
1751214510661841200,3.007841064453125,0.10753917694091797,-2.3991518020629883,1.5525012016296387
1751214510671835100,3.017835205078125,-1.0115748643875122,-1.992936134338379,0.8566362857818604
1751214510681829000,3.0278291015625,-2.2355475425720215,-1.6104345321655273,0.2957115173339844
1751214510691823400,3.0378232421875,-3.479642868041992,-1.1613264083862305,-0.032285451889038086
1751214510701817300,3.0478173828125,-4.764233112335205,-0.7128944396972656,-0.09270989894866943
1751214510711811300,3.057811279296875,-6.0363287925720215,-0.37006187438964844,0.16672265529632568
1751214510721805300,3.067805419921875,-6.994279861450195,-0.242218017578125,0.6777904033660889
1751214510731799300,3.07779931640625,-7.351174354553223,-0.4864931106567383,1.3702969551086426
1751214510741793300,3.087793212890625,-6.988014221191406,-0.9352960586547852,1.953126072883606
1751214510751787300,3.097787353515625,-5.952165126800537,-1.3644742965698242,2.341212749481201
1751214510761781200,3.10778125,-4.4163737297058105,-1.7555618286132812,2.4162755012512207
1751214510771775200,3.117775146484375,-2.5171492099761963,-2.1281614303588867,2.157442808151245
1751214510781769200,3.127769287109375,-0.5540576577186584,-2.30617618560791,1.5943191051483154
1751214510791763500,3.137763427734375,1.0986567735671997,-2.2809228897094727,0.8916996121406555
1751214510801757400,3.14775732421875,2.4233896732330322,-2.13900089263916,0.08551216125488281
1751214510811751400,3.15775146484375,3.651364326477051,-1.809194564819336,-0.8246944546699524
1751214510821745400,3.167745361328125,4.2078776359558105,-1.4498224258422852,-1.729036808013916
1751214510831739400,3.177739501953125,3.685619592666626,-0.9377231597900391,-2.864482879638672
1751214510841733400,3.1877333984375,3.2031185626983643,-0.3414125442504883,-3.91597318649292
1751214510851727400,3.197727294921875,2.7988719940185547,-0.26710987091064453,-3.8263885974884033
1751214510861721300,3.207721435546875,1.8993124961853027,-0.4164762496948242,-3.0352680683135986
1751214510871715300,3.21771533203125,0.4636680483818054,-0.8030357360839844,-2.135389804840088
1751214510881709600,3.22770947265625,-1.4708800315856934,-1.1497488021850586,-1.1759966611862183
1751214510891703600,3.23770361328125,-3.3229148387908936,-1.4960517883300781,-0.0649244487285614
1751214510901697500,3.247697509765625,-3.719832420349121,-1.7857723236083984,1.0107349157333374
1751214510911691500,3.25769140625,-2.03044056892395,-2.0333471298217773,1.5781558752059937
1751214510921685500,3.267685546875,0.4622460603713989,-2.199249267578125,1.4249110221862793
1751214510931679500,3.277679443359375,2.650545358657837,-2.3774356842041016,0.9690706729888916
1751214510941673500,3.287673583984375,3.767256259918213,-2.2226791381835938,0.33371710777282715
1751214510951667200,3.297667236328125,3.528031826019287,-1.9545860290527344,-0.28180158138275146
1751214510961661200,3.3076611328125,2.3027191162109375,-1.6938552856445312,-0.7302130460739136
1751214510971655200,3.3176552734375,0.573346734046936,-1.4384441375732422,-1.2458288669586182
1751214510981649200,3.327649169921875,-0.723233699798584,-1.3720474243164062,-1.7786436080932617
1751214510991643100,3.33764306640625,-0.6060295104980469,-1.298905372619629,-2.0142123699188232
1751214511001637000,3.34763720703125,0.4475669860839844,-1.026820182800293,-2.2196903228759766
1751214511021625000,3.367625,1.9199484586715698,-0.28787899017333984,-2.392054796218872
1751214511031619000,3.377619140625,1.9712692499160767,0.07032203674316406,-2.2731423377990723
1751214511041613000,3.387613037109375,1.6029142141342163,0.709416389465332,-2.2471609115600586
1751214511051606800,3.397606689453125,1.1625115871429443,0.9001216888427734,-2.0217461585998535
1751214511061600800,3.407600830078125,2.357283353805542,0.8336429595947266,-2.106444835662842
1751214511071594800,3.4175947265625,3.108863353729248,1.3911857604980469,-2.379932165145874
1751214511081588700,3.427588623046875,3.2468249797821045,1.7687506675720215,-2.578413724899292
1751214511091582700,3.437582763671875,3.3931119441986084,1.6902785301208496,-2.7282345294952393
1751214511101576700,3.44757666015625,3.640425682067871,1.5076851844787598,-3.0188446044921875
1751214511111570700,3.45757080078125,3.8425140380859375,1.4872183799743652,-3.720635414123535
1751214511121564700,3.467564697265625,3.615710973739624,1.4123501777648926,-4.037128925323486
1751214511131558700,3.47755859375,3.2048470973968506,1.6260461807250977,-3.845709800720215
1751214511141552600,3.487552734375,2.6409828662872314,1.9386324882507324,-3.6147780418395996
1751214511151546400,3.49754638671875,2.36146879196167,2.246732711791992,-3.6908199787139893
1751214511161540400,3.507540283203125,2.4629621505737305,2.559567451477051,-4.0131049156188965
1751214511171534300,3.517534423828125,2.466503620147705,2.77293062210083,-4.321384429931641
1751214511181528300,3.5275283203125,2.2259395122528076,3.0743937492370605,-4.4644246101379395
1751214511191522300,3.537522216796875,1.966662883758545,3.258294105529785,-4.238044738769531
1751214511201516300,3.547516357421875,1.7106411457061768,3.2626452445983887,-3.8186802864074707
1751214511211510300,3.55751025390625,1.6922783851623535,3.25999116897583,-3.326934337615967
1751214511221504300,3.567504150390625,1.9747424125671387,3.2270665168762207,-3.018883228302002
1751214511231498200,3.577498291015625,2.140535354614258,3.369997501373291,-2.8799099922180176
1751214511241492200,3.5874921875,2.0798168182373047,3.539854049682617,-2.638606071472168
1751214511251486000,3.59748583984375,1.869375467300415,3.636355400085449,-2.4098422527313232
1751214511261480000,3.60747998046875,1.6482460498809814,3.578794002532959,-2.245065927505493
1751214511271474000,3.617473876953125,1.5596611499786377,3.291470527648926,-2.2194998264312744
1751214511281468000,3.627468017578125,1.7190499305725098,3.023501396179199,-2.30159854888916
1751214511291462000,3.6374619140625,1.9273736476898193,2.7506790161132812,-2.478569984436035
1751214511301456000,3.647455810546875,2.1117000579833984,2.4626388549804688,-2.6081225872039795
1751214511311449900,3.657449951171875,1.9524352550506592,2.282108783721924,-2.786761522293091
1751214511321443800,3.66744384765625,0.924191951751709,2.188385486602783,-2.95916748046875
1751214511331437800,3.677437744140625,-1.422990322113037,1.938784122467041,-2.6237783432006836
1751214511341431800,3.687431884765625,-3.7445249557495117,0.929471492767334,-1.816662311553955
1751214511351425800,3.69742578125,-3.5745410919189453,-0.7658634185791016,-0.23893451690673828
1751214511361420000,3.707419921875,-1.8333425521850586,-2.106332778930664,1.1964223384857178
1751214511371414000,3.7174140625,0.2867922782897949,-3.036503791809082,1.0772995948791504
1751214511381408000,3.727407958984375,2.4230546951293945,-3.7127561569213867,-0.25722479820251465
1751214511391402000,3.737402099609375,3.1941964626312256,-4.2535858154296875,-1.6676530838012695
1751214511401396000,3.74739599609375,2.059213161468506,-5.166926383972168,-2.2278270721435547
1751214511411390000,3.757389892578125,1.0489920377731323,-6.034395217895508,-1.8347076177597046
1751214511421384000,3.767384033203125,2.3788747787475586,-6.030815124511719,-1.081475853919983
1751214511431378000,3.7773779296875,4.755591869354248,-5.684879302978516,-0.44800734519958496
1751214511441372000,3.787371826171875,5.233827114105225,-5.67911434173584,0.39409327507019043
1751214511451366000,3.797365966796875,2.5645570755004883,-6.1042985916137695,3.1982367038726807
1751214511461360000,3.807360107421875,-1.6913424730300903,-6.390721321105957,6.2278337478637695
1751214511471354000,3.81735400390625,-1.79549241065979,-5.664850234985352,6.272503852844238
1751214511481348000,3.82734814453125,0.6892416477203369,-4.2953386306762695,3.9040439128875732
1751214511491342000,3.837342041015625,0.776993989944458,-3.1679773330688477,1.9634218215942383
1751214511501336000,3.847336181640625,-1.0863726139068604,-2.0904035568237305,1.344365119934082
1751214511511330000,3.857330078125,-2.2742738723754883,-0.7562847137451172,0.7558166980743408
1751214511521324000,3.867323974609375,-2.3080620765686035,0.31894683837890625,0.12819898128509521
1751214511531318000,3.877318115234375,-1.8254119157791138,1.1798200607299805,-0.1837855577468872
1751214511541312000,3.88731201171875,-1.279975175857544,1.5161924362182617,-0.18051040172576904
1751214511551306000,3.897305908203125,-0.775057315826416,1.5296220779418945,-0.13959407806396484
1751214511561300200,3.90730029296875,-0.35615503787994385,1.2347145080566406,-0.12032008171081543
1751214511571294200,3.917294189453125,0.0001946091651916504,1.0379409790039062,-0.20509469509124756
1751214511581288200,3.9272880859375,0.10970249772071838,0.9821329116821289,-0.49763554334640503
1751214511591282200,3.9372822265625,0.3375992774963379,1.2062177658081055,-1.038535237312317
1751214511601276200,3.947276123046875,0.6132493019104004,1.4524240493774414,-1.6033166646957397
1751214511611270100,3.957270263671875,0.8011616468429565,1.6257991790771484,-2.143479824066162
1751214511621264100,3.96726416015625,0.7264520525932312,1.6406230926513672,-2.5408806800842285
1751214511631258000,3.977258056640625,0.5261720418930054,1.5782299041748047,-2.6944587230682373
1751214511641252000,3.987252197265625,0.24113526940345764,1.4528741836547852,-2.6230595111846924
1751214511651246300,3.997246337890625,0.07922154664993286,1.2357444763183594,-2.3085520267486572
1751214511661240300,4.007240234375,-0.006569266319274902,1.0128288269042969,-1.7522671222686768
1751214511671234300,4.017234375,0.008102312684059143,0.7600889205932617,-1.0292919874191284
1751214511681228300,4.027228271484375,0.1748407483100891,0.5874538421630859,-0.33339712023735046
1751214511691222300,4.03722216796875,0.41666102409362793,0.4661417007446289,0.1905331313610077
1751214511701216300,4.04721630859375,0.5511153936386108,0.33406543731689453,0.6511929035186768
1751214511711210200,4.057210205078125,0.6104632616043091,0.1866436004638672,1.037798523902893
1751214511721204200,4.067204345703125,0.5363920331001282,0.11960220336914062,1.3208527565002441
1751214511731198200,4.0771982421875,0.3961392343044281,0.12327766418457031,1.534519910812378
1751214511741192200,4.087192138671875,0.14746975898742676,0.07339096069335938,1.5693737268447876
1751214511751186400,4.0971865234375,-0.16933360695838928,0.09913825988769531,1.5315141677856445
1751214511761180400,4.107180419921875,-0.33737099170684814,0.19539260864257812,1.4637184143066406
1751214511771174400,4.11717431640625,-0.4905567169189453,0.16595935821533203,1.4690207242965698
1751214511781168400,4.12716845703125,-0.6463631391525269,0.04474925994873047,1.5749530792236328
1751214511791162400,4.137162353515625,-0.7386779189109802,0.10935115814208984,1.6186760663986206
1751214511801156400,4.14715625,-0.7144945859909058,0.13049602508544922,1.6739485263824463
1751214511811150300,4.157150390625,-0.7039960622787476,0.027716636657714844,1.6501588821411133
1751214511821144300,4.167144287109375,-0.8503997921943665,-0.11696434020996094,1.5738606452941895
1751214511831138300,4.17713818359375,-1.0478219985961914,-0.2790517807006836,1.5437055826187134
1751214511841132300,4.18713232421875,-1.1566059589385986,-0.33393096923828125,1.4779751300811768
1751214511851126500,4.19712646484375,-1.1887898445129395,-0.2914743423461914,1.2862402200698853
1751214511861120500,4.20712060546875,-1.345723032951355,-0.19039154052734375,0.961778461933136
1751214511871114500,4.217114501953125,-1.4015758037567139,-0.045165061950683594,0.8550052046775818
1751214511881108500,4.2271083984375,-1.189545750617981,0.12033748626708984,0.8500539660453796
1751214511891102500,4.2371025390625,-0.8565521240234375,0.4774665832519531,0.5665603280067444
1751214511901096400,4.247096435546875,-0.7347800731658936,0.7860937118530273,0.23425179719924927
1751214511911090400,4.25709033203125,-0.6570831537246704,0.9836969375610352,0.03862309455871582
1751214511921084400,4.26708447265625,-0.513847827911377,1.0750551223754883,-0.1572887897491455
1751214511931078400,4.277078369140625,-0.41448259353637695,1.0603265762329102,-0.28042924404144287
1751214511941072600,4.28707275390625,-0.4156726598739624,0.8635187149047852,-0.2697688341140747
1751214511951066600,4.297066650390625,-0.47533202171325684,0.39928150177001953,-0.16635560989379883
1751214511961060600,4.307060546875,-0.8074484467506409,-0.059368133544921875,-0.1519923210144043
1751214511971054600,4.3170546875,-1.1021521091461182,-0.45987510681152344,-0.17082464694976807
1751214511981048600,4.327048583984375,-1.1466443538665771,-0.7688198089599609,-0.09704482555389404
1751214511991042600,4.33704248046875,-0.9554071426391602,-0.9670619964599609,0.1677616834640503
1751214512001036500,4.34703662109375,-0.6692186594009399,-0.9829158782958984,0.53788822889328
1751214512011030500,4.357030517578125,-0.31883758306503296,-0.812006950378418,0.8294886946678162
1751214512021024500,4.3670244140625,0.13689398765563965,-0.5267448425292969,0.9240697026252747
1751214512031018200,4.377018310546875,0.5380899906158447,-0.22818756103515625,0.900077223777771
1751214512041012200,4.38701220703125,0.7400721311569214,-0.16954708099365234,0.9047187566757202
1751214512051006200,4.397006103515625,0.8391599655151367,-0.192352294921875,0.8027352690696716
1751214512061000200,4.407000244140625,0.926803469657898,-0.3105964660644531,0.5987098217010498
1751214512070994200,4.416994140625,1.042055606842041,-0.49051570892333984,0.2882601022720337
1751214512080988200,4.42698828125,1.275080919265747,-0.6176166534423828,-0.1459261178970337
1751214512090982100,4.436982177734375,1.4137142896652222,-0.912236213684082,-0.6063454151153564
1751214512100976000,4.44697607421875,1.6135520935058594,-1.226609230041504,-1.0235364437103271
1751214512110970000,4.45697021484375,1.8287571668624878,-1.5519828796386719,-1.3807463645935059
1751214512120964000,4.466964111328125,1.8915655612945557,-1.9222345352172852,-1.6097750663757324
1751214512130957800,4.476957763671875,1.7271438837051392,-2.4996776580810547,-1.4673811197280884
1751214512140951800,4.486951904296875,1.5110472440719604,-3.297271728515625,-0.9961928129196167
1751214512150945800,4.49694580078125,1.33713698387146,-3.9171619415283203,-0.4004913568496704
1751214512160939800,4.506939697265625,1.15878427028656,-4.192013740539551,0.20725739002227783
1751214512170933800,4.516933837890625,0.8716937303543091,-4.284616470336914,0.7107410430908203
1751214512180927700,4.526927734375,0.5064311027526855,-4.433847427368164,1.0525808334350586
1751214512190921700,4.536921630859375,0.05073344707489014,-4.7870635986328125,1.3374640941619873
1751214512200915700,4.546915771484375,-0.48302578926086426,-5.223435401916504,1.530509352684021
1751214512210909700,4.55690966796875,-0.9444566369056702,-5.646129608154297,1.643550157546997
1751214512220903700,4.566903564453125,-1.3603800535202026,-5.905865669250488,1.735400676727295
1751214512230897400,4.5768974609375,-1.672394871711731,-5.558037757873535,1.6987321376800537
1751214512240891400,4.586891357421875,-1.9183062314987183,-4.527878761291504,1.3630532026290894
1751214512250885400,4.596885498046875,-2.2858757972717285,-3.5059213638305664,0.942497968673706
1751214512260879400,4.60687939453125,-3.1018407344818115,-2.6937255859375,0.5396314859390259
1751214512270873300,4.616873291015625,-4.718531608581543,-1.8427867889404297,0.0589979887008667
1751214512280867300,4.626867431640625,-6.563939571380615,-1.1010589599609375,-0.2255319356918335
1751214512290861300,4.636861328125,-7.878575325012207,-0.6971244812011719,0.025722146034240723
1751214512300855300,4.646855224609375,-8.512778282165527,-0.7111740112304688,0.7342926263809204
1751214512310849300,4.656849365234375,-8.281574249267578,-1.0854473114013672,1.6848671436309814
1751214512320843300,4.66684326171875,-7.513265609741211,-1.5005388259887695,2.549499273300171
1751214512330837000,4.6768369140625,-6.614449501037598,-1.685959815979004,3.4033427238464355
1751214512340831000,4.6868310546875,-5.409956455230713,-1.786158561706543,4.103039741516113
1751214512350825000,4.696824951171875,-3.7375268936157227,-1.8969593048095703,4.265172481536865
1751214512360819000,4.70681884765625,-1.5880964994430542,-1.8232803344726562,3.6163625717163086
1751214512370813000,4.71681298828125,0.71847003698349,-1.7345991134643555,2.376150608062744
1751214512380807000,4.726806884765625,3.0503110885620117,-1.6078405380249023,1.099518060684204
1751214512390801000,4.73680078125,4.707409858703613,-1.4238576889038086,0.15064895153045654
1751214512400795100,4.746795166015625,5.6787872314453125,-0.986109733581543,-0.6628689169883728
1751214512410789000,4.7567890625,5.4981369972229,-0.6909503936767578,-1.335018515586853
1751214512420783000,4.766783203125,4.933012008666992,-0.40396690368652344,-1.8119906187057495
1751214512430777000,4.776777099609375,4.004737377166748,0.02759075164794922,-1.9805439710617065
1751214512440771000,4.78677099609375,2.8336451053619385,0.7462282180786133,-2.036912202835083
1751214512450765000,4.79676513671875,1.9495456218719482,1.6508703231811523,-2.08451247215271
1751214512460759000,4.806759033203125,1.0184783935546875,2.187140941619873,-2.0040206909179688
1751214512470753000,4.8167529296875,-0.22583532333374023,2.150425434112549,-1.3667285442352295
1751214512480747000,4.8267470703125,-1.5085147619247437,1.6654577255249023,-0.4243146479129791
1751214512490741000,4.836740966796875,-2.035954475402832,1.1427927017211914,0.4626545310020447
1751214512500735200,4.8467353515625,-1.4720962047576904,0.8344211578369141,1.0508179664611816
1751214512510729200,4.856729248046875,0.0030733346939086914,0.8307409286499023,1.0510411262512207
1751214512520723200,4.86672314453125,1.7706331014633179,0.6313199996948242,0.9915817975997925
1751214512530717200,4.87671728515625,3.0942320823669434,0.2102956771850586,0.7986387014389038
1751214512540711200,4.886711181640625,3.3826189041137695,-0.2536153793334961,0.6108818054199219
1751214512550705200,4.896705078125,2.657195806503296,-0.5367794036865234,0.19301772117614746
1751214512560699100,4.90669921875,1.4900834560394287,-0.6552228927612305,-0.7682902812957764
1751214512570693000,4.916693115234375,1.2447975873947144,-0.8055553436279297,-1.5107471942901611
1751214512580687000,4.92668701171875,1.2630952596664429,-0.3388671875,-2.373072862625122
1751214512590681000,4.93668115234375,1.2930474281311035,0.05591583251953125,-2.831329107284546
1751214512600675300,4.94667529296875,1.483949065208435,0.11676025390625,-2.880157947540283
1751214512610669300,4.95666943359375,1.9613792896270752,0.1699228286743164,-2.8948936462402344
1751214512620663300,4.966663330078125,2.261770725250244,0.13069534301757812,-2.800333261489868
1751214512630657300,4.9766572265625,2.399813175201416,0.028817176818847656,-2.623943328857422
1751214512640651300,4.9866513671875,2.3492848873138428,-0.18316078186035156,-2.3451321125030518
1751214512650645200,4.996645263671875,2.20908522605896,-0.34288787841796875,-2.029365301132202
1751214512660639200,5.00663916015625,2.016166925430298,-0.41351795196533203,-1.95371413230896
1751214512670633200,5.01663330078125,1.9284921884536743,-0.3189659118652344,-2.2083206176757812
1751214512680627200,5.026627197265625,2.02668833732605,-0.3697376251220703,-2.5056657791137695
1751214512690621400,5.036621337890625,2.208800792694092,-0.2680635452270508,-2.868791341781616
1751214512700615400,5.046615478515625,2.2786359786987305,0.0979299545288086,-3.217031955718994
1751214512710609400,5.056609375,2.0493836402893066,0.7061705589294434,-3.470883846282959
1751214512720603400,5.066603271484375,2.0354390144348145,1.356539249420166,-3.47890043258667
1751214512730597400,5.076597412109375,1.803818941116333,1.6578454971313477,-3.3443195819854736
1751214512740591400,5.08659130859375,1.812248706817627,1.9828681945800781,-3.3480384349823
1751214512750585300,5.09658544921875,1.6398429870605469,2.123425006866455,-3.4302279949188232
1751214512760579300,5.106579345703125,1.3905441761016846,1.9543986320495605,-3.26202392578125
1751214512770573300,5.1165732421875,1.3381476402282715,1.9384541511535645,-3.0705838203430176
1751214512780567300,5.1265673828125,1.3926200866699219,2.0132784843444824,-2.925717353820801
1751214512790561500,5.1365615234375,1.50538969039917,1.9928593635559082,-2.7259936332702637
1751214512800555500,5.146555419921875,1.5154075622558594,2.1687235832214355,-2.747015953063965
1751214512810549500,5.156549560546875,1.438197374343872,2.4265174865722656,-2.795269012451172
1751214512820543500,5.16654345703125,1.3162152767181396,2.574141502380371,-2.9065046310424805
1751214512830537500,5.176537353515625,1.2364039421081543,2.774852752685547,-3.1028170585632324
1751214512840531500,5.186531494140625,1.0641205310821533,2.784620761871338,-3.203824996948242
1751214512850525400,5.196525390625,1.0412888526916504,2.6757864952087402,-3.215885639190674
1751214512860519400,5.20651953125,1.1580681800842285,2.497340679168701,-3.0700531005859375
1751214512870513400,5.216513427734375,1.2295689582824707,2.306838035583496,-2.7310051918029785
1751214512880507400,5.22650732421875,1.1995437145233154,2.146402359008789,-2.4290120601654053
1751214512890501600,5.236501708984375,1.0652186870574951,1.986471176147461,-2.2065296173095703
1751214512900495600,5.24649560546875,0.9677627086639404,1.8211932182312012,-1.9911153316497803
1751214512910489600,5.256489501953125,1.0491340160369873,1.6403379440307617,-1.7996151447296143
1751214512920483600,5.266483642578125,1.1504478454589844,1.4817657470703125,-1.7101693153381348
1751214512930477600,5.2764775390625,1.194303035736084,1.359743595123291,-1.8146302700042725
1751214512940471600,5.286471435546875,1.2369627952575684,1.29365873336792,-2.0609822273254395
1751214512950465500,5.296465576171875,1.4140143394470215,1.3038344383239746,-2.372941017150879
1751214512960459500,5.30645947265625,1.3623180389404297,1.3290753364562988,-2.6042985916137695
1751214512970453500,5.31645361328125,0.6262555122375488,1.3776593208312988,-2.358711004257202
1751214512980447700,5.32644775390625,-1.3987183570861816,1.249783992767334,-1.7553186416625977
1751214512990441700,5.336441650390625,-2.700669050216675,0.3403749465942383,-0.7955954074859619
1751214513000435700,5.346435791015625,-2.3787338733673096,-1.324258804321289,0.6902894973754883
1751214513010429700,5.3564296875,-1.3489470481872559,-2.8256959915161133,2.169823169708252
1751214513020423700,5.366423583984375,-0.6482958793640137,-3.6633224487304688,2.969390869140625
1751214513030417700,5.376417724609375,-0.6135692596435547,-4.044455528259277,3.085521936416626
1751214513040411600,5.38641162109375,-0.44221997261047363,-4.245480537414551,2.542607545852661
1751214513050405600,5.396405517578125,-0.19452857971191406,-4.426275253295898,1.527233362197876
1751214513060399600,5.406399658203125,-0.4647862911224365,-4.381406784057617,-0.013717412948608398
1751214513070393600,5.4163935546875,-0.9123578071594238,-3.9331531524658203,-2.334054946899414
1751214513080387800,5.426387939453125,-0.22815442085266113,-3.401531219482422,-4.034418106079102
1751214513090381800,5.4363818359375,1.98612380027771,-2.754709243774414,-4.14015007019043
1751214513100375800,5.446375732421875,2.685072898864746,-2.535158157348633,-3.1824302673339844
1751214513110369800,5.456369873046875,1.7759320735931396,-2.910862922668457,-1.499211072921753
1751214513120363800,5.46636376953125,0.5689408183097839,-3.4099292755126953,0.5766122341156006
1751214513130357800,5.476357666015625,0.434248685836792,-3.8858680725097656,2.2388288974761963
1751214513140351700,5.486351806640625,0.7366089224815369,-4.033596992492676,2.808220863342285
1751214513150345700,5.496345703125,1.234458088874817,-3.7001943588256836,2.730120897293091
1751214513160339700,5.506339599609375,0.8380352854728699,-3.129702568054199,2.577604055404663
1751214513170333700,5.516333740234375,-0.19025906920433044,-2.3656721115112305,2.0457675457000732
1751214513180327700,5.52632763671875,-0.9561545848846436,-1.4262323379516602,0.9868416786193848
1751214513190321700,5.53632177734375,-1.4674341678619385,-0.5923690795898438,0.3882784843444824
1751214513200315600,5.546315673828125,-1.6935745477676392,0.10326290130615234,0.018788576126098633
1751214513210309600,5.5563095703125,-1.7827649116516113,0.6996212005615234,-0.21323466300964355
1751214513220303600,5.5663037109375,-1.6831640005111694,0.9581661224365234,-0.41448974609375
1751214513230297300,5.57629736328125,-1.5855836868286133,0.9846086502075195,-0.3963589668273926
1751214513240291300,5.586291259765625,-1.253896951675415,0.951268196105957,-0.36265885829925537
1751214513250285300,5.596285400390625,-0.9669160842895508,1.025613784790039,-0.33751726150512695
1751214513260279300,5.606279296875,-0.7552497386932373,1.1549930572509766,-0.36873698234558105
1751214513270273300,5.616273193359375,-0.5983939170837402,1.2055559158325195,-0.43409180641174316
1751214513280267300,5.626267333984375,-0.4433411657810211,1.2970924377441406,-0.572912335395813
1751214513290261200,5.63626123046875,-0.22727875411510468,1.4584903717041016,-0.8708814382553101
1751214513300255200,5.646255126953125,-0.15260954201221466,1.5705137252807617,-1.292458415031433
1751214513310249200,5.656249267578125,-0.270576536655426,1.7004528045654297,-1.656857967376709
1751214513320243200,5.6662431640625,-0.3803972005844116,1.8579487800598145,-1.8992338180541992
1751214513330237000,5.67623681640625,-0.23981420695781708,1.9235081672668457,-1.9848053455352783
1751214513340231000,5.68623095703125,0.11760330945253372,1.7921171188354492,-1.8713011741638184
1751214513350225000,5.696224853515625,0.45501509308815,1.4354228973388672,-1.7357600927352905
1751214513360219000,5.706218994140625,0.7651990056037903,1.207275390625,-1.4881609678268433
1751214513370212900,5.716212890625,0.9301698803901672,1.0260543823242188,-1.1391096115112305
1751214513380206800,5.726206787109375,1.1278613805770874,0.7960691452026367,-0.723007321357727
1751214513390200800,5.736200927734375,1.3723845481872559,0.5221776962280273,-0.27325528860092163
1751214513400194800,5.74619482421875,1.6123020648956299,0.3000526428222656,0.1510332226753235
1751214513410188800,5.756188720703125,1.6672650575637817,0.18689918518066406,0.4388737678527832
1751214513420182800,5.766182861328125,1.5522055625915527,0.06304168701171875,0.7140460014343262
1751214513430176500,5.776176513671875,1.360230565071106,-0.052349090576171875,1.0096098184585571
1751214513440170500,5.78617041015625,1.1706516742706299,-0.1544351577758789,1.3779385089874268
1751214513450164500,5.79616455078125,1.0419692993164062,-0.3004264831542969,1.7753870487213135
1751214513460158500,5.806158447265625,0.9491142630577087,-0.4471597671508789,2.1920337677001953
1751214513470152400,5.81615234375,0.7761053442955017,-0.5705080032348633,2.578124523162842
1751214513480146400,5.826146484375,0.5189366936683655,-0.5985479354858398,2.8747482299804688
1751214513490140400,5.836140380859375,0.11276334524154663,-0.6216955184936523,3.1418380737304688
1751214513500134400,5.846134521484375,-0.5069931149482727,-0.586543083190918,3.2229301929473877
1751214513510128400,5.85612841796875,-0.9497509598731995,-0.5781574249267578,2.986003875732422
1751214513520122400,5.866122314453125,-1.008315086364746,-0.3906841278076172,2.5136353969573975
1751214513530116400,5.876116455078125,-0.8808743953704834,-0.0682821273803711,1.9692914485931396
1751214513540110300,5.8861103515625,-0.9619927406311035,0.06310844421386719,1.510347843170166
1751214513550104300,5.896104248046875,-1.2686572074890137,0.008741378784179688,1.0854532718658447
1751214513560098300,5.906098388671875,-1.4727091789245605,0.00791168212890625,0.6539026498794556
1751214513570092300,5.91609228515625,-1.444058895111084,0.07970714569091797,0.3885704278945923
1751214513580086500,5.92608642578125,-1.4278901815414429,0.2573060989379883,0.18904781341552734
1751214513590080500,5.93608056640625,-1.3736025094985962,0.3825664520263672,-0.001618027687072754
1751214513600074500,5.946074462890625,-1.3057559728622437,0.4314994812011719,-0.23466777801513672
1751214513610068500,5.956068359375,-1.2438105344772339,0.41829872131347656,-0.46019506454467773
1751214513620062500,5.9660625,-1.1392909288406372,0.44335269927978516,-0.5958393812179565
1751214513630056400,5.976056396484375,-1.0296134948730469,0.46858787536621094,-0.6615417003631592
1751214513640050400,5.986050537109375,-0.7907277345657349,0.4606914520263672,-0.706041693687439
1751214513650044400,5.99604443359375,-0.49226266145706177,0.3714885711669922,-0.8142215013504028
1751214513660038400,6.006038330078125,-0.421150803565979,0.22928333282470703,-0.9110238552093506
1751214513670032600,6.01603271484375,-0.4901295304298401,0.12952136993408203,-0.8037433624267578
1751214513680026600,6.026026611328125,-0.5460191965103149,0.00537109375,-0.5514668226242065
1751214513690020600,6.0360205078125,-0.5268975496292114,-0.09528446197509766,-0.32260751724243164
1751214513700014600,6.0460146484375,-0.42856860160827637,-0.16290664672851562,-0.02731466293334961
1751214513710008600,6.056008544921875,-0.21739578247070312,-0.3358173370361328,0.44244813919067383
1751214513720002600,6.06600244140625,0.04802680015563965,-0.5369138717651367,1.0400420427322388
1751214513729996500,6.07599658203125,0.3447263240814209,-0.7801752090454102,1.6036297082901
1751214513739990500,6.085990478515625,0.5624350309371948,-0.9365549087524414,1.9728833436965942
1751214513749984500,6.095984619140625,0.6265695095062256,-0.8297357559204102,2.0426933765411377
1751214513759978500,6.105978515625,0.5252195596694946,-0.546809196472168,1.84629225730896
1751214513769972700,6.11597265625,0.391727089881897,-0.3797740936279297,1.6505045890808105
1751214513779966700,6.125966796875,0.31507015228271484,-0.3759479522705078,1.508833646774292
1751214513789960700,6.135960693359375,0.362496018409729,-0.44393253326416016,1.4059174060821533
1751214513799954700,6.14595458984375,0.47447311878204346,-0.45482826232910156,1.2747446298599243
1751214513809948700,6.15594873046875,0.596314549446106,-0.5335330963134766,1.1167845726013184
1751214513819942700,6.165942626953125,0.6796121597290039,-0.8519983291625977,1.0803738832473755
1751214513829936600,6.1759365234375,0.6860260963439941,-1.2564992904663086,1.1539325714111328
1751214513839930600,6.1859306640625,0.5453372001647949,-1.6744499206542969,1.3153347969055176
1751214513849924600,6.195924560546875,0.313936710357666,-2.0763139724731445,1.4385628700256348
1751214513859918600,6.205918701171875,0.15323162078857422,-2.566582679748535,1.4565234184265137
1751214513869912800,6.215912841796875,0.09857988357543945,-3.144603729248047,1.4313359260559082
1751214513879906800,6.22590673828125,0.10757982730865479,-3.8289623260498047,1.4151521921157837
1751214513889900800,6.23590087890625,0.0888364315032959,-4.595243453979492,1.306302547454834
1751214513899894800,6.245894775390625,0.0799412727355957,-5.471940040588379,1.10955011844635
1751214513909888800,6.255888671875,0.05982494354248047,-6.4780778884887695,0.862789511680603
1751214513919882800,6.2658828125,0.004542112350463867,-7.508488655090332,0.6064692735671997
1751214513929876700,6.275876708984375,-0.19331789016723633,-8.29117488861084,0.23595476150512695
1751214513939870700,6.28587060546875,-0.851083517074585,-8.421525955200195,-0.571581244468689
1751214513949864700,6.29586474609375,-2.1819541454315186,-6.819502830505371,-1.9708715677261353
1751214513959859000,6.30585888671875,-4.4182515144348145,-4.560113906860352,-2.731809139251709
1751214513969853000,6.31585302734375,-7.762365818023682,-3.0063905715942383,-2.47080135345459
1751214513979847000,6.325846923828125,-11.3059720993042,-2.001622200012207,-1.580651879310608
1751214513989841000,6.3358408203125,-13.981204986572266,-1.4584932327270508,-0.34752213954925537
1751214513999835000,6.3458349609375,-12.538172721862793,-1.0549373626708984,0.5734685659408569
1751214514009828900,6.355828857421875,-8.988736152648926,-1.144017219543457,0.9803021550178528
1751214514019822800,6.36582275390625,-6.380334377288818,-1.8875236511230469,1.0984926223754883
1751214514029816800,6.37581689453125,-5.049684047698975,-2.7503843307495117,0.9870104789733887
1751214514039810800,6.385810791015625,-3.8811185359954834,-3.168911933898926,0.8444356322288513
1751214514049804800,6.3958046875,-2.2882211208343506,-2.6056156158447266,0.550533652305603
1751214514059799000,6.405799072265625,-0.49938642978668213,-1.174123764038086,0.5968826413154602
1751214514069793000,6.41579296875,1.5636107921600342,-0.7432212829589844,1.5983067750930786
1751214514079787000,6.425787109375,3.857238292694092,-1.0864248275756836,2.0457236766815186
1751214514089781000,6.435781005859375,5.953814506530762,-1.0338106155395508,1.7269169092178345
1751214514099775000,6.44577490234375,9.52383041381836,-0.7174491882324219,1.6404308080673218
1751214514109769000,6.45576904296875,10.274153709411621,-0.43264293670654297,1.5767406225204468
1751214514119763000,6.465762939453125,8.983963966369629,-0.37137889862060547,0.9469435214996338
1751214514129757000,6.4757568359375,7.520618915557861,-0.12883281707763672,0.0564737394452095
1751214514139751000,6.4857509765625,6.635839462280273,0.3703956604003906,-0.510216236114502
1751214514149745000,6.495744873046875,5.325398921966553,0.9255390167236328,-0.5322559475898743
1751214514159739100,6.5057392578125,2.7506256103515625,1.1640949249267578,0.11838054656982422
1751214514169733000,6.515733154296875,-0.8154398202896118,0.8260536193847656,0.9460225105285645
1751214514179727000,6.52572705078125,-4.204916954040527,-0.0551910400390625,1.9085216522216797
1751214514189721000,6.53572119140625,-4.854514122009277,-0.5285549163818359,2.3503098487854004
1751214514199715000,6.545715087890625,-1.5153753757476807,-0.4506673812866211,1.2779693603515625
1751214514209709000,6.555708984375,1.7910159826278687,-0.41539859771728516,-0.24475312232971191
1751214514219703000,6.565703125,3.997403383255005,-0.4754486083984375,-1.4872606992721558
1751214514229697000,6.575697021484375,4.777370452880859,-0.3650846481323242,-2.326911687850952
1751214514239691000,6.58569091796875,4.493762016296387,0.06963920593261719,-2.631923198699951
1751214514249685000,6.59568505859375,3.2713775634765625,0.34956836700439453,-2.4839937686920166
1751214514259679200,6.60567919921875,2.00520396232605,0.3878793716430664,-2.4603934288024902
1751214514269673200,6.615673095703125,1.322389841079712,0.5855255126953125,-2.803600788116455
1751214514279667200,6.625667236328125,1.2293075323104858,0.5408420562744141,-3.0288033485412598
1751214514289661200,6.6356611328125,1.3828253746032715,0.24629497528076172,-3.024787425994873
1751214514299655200,6.6456552734375,1.7332522869110107,0.06127357482910156,-2.800713300704956
1751214514309649200,6.655649169921875,1.935380458831787,0.052562713623046875,-2.687577962875366
1751214514319643100,6.66564306640625,1.8127963542938232,-0.0387420654296875,-2.668031692504883
1751214514329637000,6.67563720703125,1.711362600326538,-0.17844867706298828,-2.8245949745178223
1751214514339631000,6.685631103515625,1.6017874479293823,-0.16493701934814453,-3.1699395179748535
1751214514349625000,6.695625,1.6070538759231567,0.09278011322021484,-3.4950790405273438
1751214514359618800,6.705618896484375,1.5860204696655273,0.38425540924072266,-3.612215995788574
1751214514369612800,6.71561279296875,1.5685484409332275,0.704826831817627,-3.573979377746582
1751214514379606800,6.725606689453125,1.6352291107177734,1.0310964584350586,-3.562211275100708
1751214514389600800,6.735600830078125,1.796385645866394,1.2168927192687988,-3.4951071739196777
1751214514399594800,6.7455947265625,1.6618354320526123,1.1772408485412598,-3.402973175048828
1751214514409588700,6.755588623046875,1.714730978012085,1.4202656745910645,-3.5852651596069336
1751214514419582700,6.765582763671875,1.464463472366333,1.301023006439209,-3.404668092727661
1751214514429576700,6.77557666015625,1.138572335243225,1.4447240829467773,-3.39398455619812
1751214514439570700,6.78557080078125,1.0335698127746582,1.7668724060058594,-3.3223323822021484
1751214514449564700,6.795564697265625,0.6722853183746338,1.6448688507080078,-3.010413885116577
1751214514459558400,6.805558349609375,0.5726525783538818,1.5983572006225586,-2.982464551925659
1751214514469552400,6.815552490234375,0.5513534545898438,1.5409436225891113,-3.0050268173217773
1751214514479546400,6.82554638671875,0.5862288475036621,1.7747740745544434,-3.103811025619507
1751214514489540400,6.835540283203125,0.4989817142486572,1.7071118354797363,-2.88277006149292
1751214514499534300,6.845534423828125,0.4870119094848633,1.5911197662353516,-2.689954996109009
1751214514509528300,6.8555283203125,0.4270470142364502,1.4313030242919922,-2.3800902366638184
1751214514519522300,6.865522216796875,0.35413146018981934,1.6286101341247559,-2.316276788711548
1751214514529516300,6.875516357421875,0.1634960174560547,1.6809239387512207,-2.2011778354644775
1751214514539510300,6.88551025390625,0.030156612396240234,1.7836065292358398,-2.3287947177886963
1751214514549504300,6.895504150390625,0.06264209747314453,2.0187225341796875,-2.559171199798584
1751214514559498000,6.905498046875,0.05292153358459473,2.215308666229248,-2.7384350299835205
1751214514569492000,6.915491943359375,-0.002521038055419922,2.283559799194336,-2.8053078651428223
1751214514579486000,6.92548583984375,0.07487654685974121,2.286454200744629,-2.8228025436401367
1751214514589480000,6.93547998046875,0.2146167755126953,2.339634418487549,-2.9221620559692383
1751214514599474000,6.945473876953125,0.3305954933166504,2.3814234733581543,-3.1754772663116455
1751214514609468000,6.955468017578125,0.3621177673339844,2.3980913162231445,-3.5918328762054443
1751214514619462000,6.9654619140625,-0.1291654109954834,2.44635009765625,-3.8864636421203613
1751214514629456000,6.975455810546875,-1.3231208324432373,2.331690788269043,-3.6391191482543945
1751214514639449900,6.985449951171875,-1.8175139427185059,1.677663803100586,-2.814270257949829
1751214514649443800,6.99544384765625,-1.6723616123199463,0.5710878372192383,-2.1691133975982666
1751214514659437800,7.005437744140625,-0.8262233734130859,-0.5723295211791992,-1.538630485534668
1751214514669431800,7.015431884765625,0.6278128623962402,-1.5316390991210938,-0.7604203224182129
1751214514679425800,7.02542578125,1.5479419231414795,-2.1675491333007812,-0.35590529441833496
1751214514689419800,7.035419677734375,1.9880608320236206,-2.59378719329834,-0.6272978782653809
1751214514699413800,7.045413818359375,2.4682090282440186,-3.1887617111206055,-1.1780197620391846
1751214514709407700,7.05540771484375,2.9448771476745605,-3.926325798034668,-1.6449737548828125
1751214514719401700,7.065401611328125,2.977649211883545,-4.879949569702148,-1.5555610656738281
1751214514729395700,7.075395751953125,2.6571364402770996,-5.805532455444336,-1.1356747150421143
1751214514739389700,7.0853896484375,3.152754545211792,-6.213665008544922,0.07414364814758301
1751214514749384000,7.095384033203125,3.353008270263672,-6.096905708312988,1.0009348392486572
1751214514759378000,7.1053779296875,3.374617338180542,-5.497760772705078,1.3712677955627441
1751214514769372000,7.115371826171875,2.399951457977295,-4.667376518249512,2.7732579708099365
1751214514779366000,7.125365966796875,0.4233100414276123,-4.179958343505859,4.04466438293457
1751214514789359900,7.13535986328125,0.6689904928207397,-4.04630184173584,4.038646697998047
1751214514799353900,7.145353759765625,1.6520471572875977,-3.8315811157226562,2.7504889965057373
1751214514809347800,7.155347900390625,0.4892081022262573,-2.927353858947754,2.1047515869140625
1751214514819341800,7.165341796875,-1.163132667541504,-1.665043830871582,2.0110630989074707
1751214514829335800,7.175335693359375,-1.567745327949524,-0.5991621017456055,1.6349704265594482
1751214514839329800,7.185329833984375,-1.3771090507507324,0.07129478454589844,0.8215939998626709
1751214514849324000,7.195323974609375,-1.7684029340744019,0.3860750198364258,0.1570453643798828
1751214514859318000,7.205318115234375,-1.971470832824707,0.5367708206176758,-0.011037468910217285
1751214514869312000,7.21531201171875,-1.851859211921692,0.6423664093017578,0.09769415855407715
1751214514879306000,7.225305908203125,-1.820113182067871,0.6022071838378906,0.17953252792358398
1751214514889300000,7.235300048828125,-1.8681449890136719,0.5644998550415039,0.23748302459716797
1751214514899294000,7.2452939453125,-1.7074613571166992,0.5578231811523438,0.08439886569976807
1751214514909288000,7.255287841796875,-1.7131644487380981,0.48638343811035156,-0.12417745590209961
1751214514919282000,7.265281982421875,-1.518988847732544,0.47941112518310547,-0.5277180671691895
1751214514929276000,7.27527587890625,-1.2278871536254883,0.4844856262207031,-1.0488684177398682
1751214514939270000,7.285269775390625,-0.9950159192085266,0.688298225402832,-1.5986874103546143
1751214514949264100,7.29526416015625,-0.7959216237068176,1.0622138977050781,-2.0966176986694336
1751214514959258000,7.305258056640625,-0.5326582193374634,1.3720769882202148,-2.3826050758361816
1751214514969252000,7.315252197265625,-0.28579914569854736,1.5942440032958984,-2.479851722717285
1751214514979246000,7.32524609375,0.04508626461029053,1.7002449035644531,-2.4312448501586914
1751214514989240000,7.335239990234375,0.3687247037887573,1.7141904830932617,-2.298597574234009
1751214514999234000,7.345234130859375,0.6014529466629028,1.6265678405761719,-2.081956386566162
1751214515009228000,7.35522802734375,0.7086929082870483,1.475677490234375,-1.8432068824768066
1751214515019222000,7.365221923828125,0.7474473118782043,1.323598861694336,-1.51557457447052
1751214515029216000,7.375216064453125,0.7800352573394775,1.1749505996704102,-1.1609925031661987
1751214515039210200,7.385210205078125,0.803210973739624,0.8863029479980469,-0.7788156270980835
1751214515049204200,7.395204345703125,0.8376544117927551,0.49607086181640625,-0.35910531878471375
1751214515059198200,7.4051982421875,0.8693029284477234,0.21933555603027344,0.12491798400878906
1751214515069192200,7.415192138671875,0.9024152755737305,0.03195476531982422,0.6651704907417297
1751214515079186200,7.425186279296875,0.8890379667282104,-0.06133556365966797,1.2012033462524414
1751214515089180200,7.43518017578125,0.8108896613121033,-0.05078887939453125,1.691481590270996
1751214515099174100,7.445174072265625,0.5827231407165527,0.054172515869140625,2.1203062534332275
1751214515109168000,7.455168212890625,0.2148190140724182,0.09136295318603516,2.5196518898010254
1751214515119162000,7.465162109375,-0.2672881484031677,0.02811908721923828,2.825721263885498
1751214515129156000,7.475156005859375,-0.7552093267440796,-0.062957763671875,2.990151882171631
1751214515139150300,7.485150390625,-1.08903968334198,-0.2863502502441406,3.0994653701782227
1751214515149144300,7.495144287109375,-1.2492177486419678,-0.4501810073852539,2.990729570388794
1751214515159138300,7.50513818359375,-1.173741340637207,-0.44444751739501953,2.7218942642211914
1751214515169132300,7.51513232421875,-0.9936670064926147,-0.4415626525878906,2.3894615173339844
1751214515179126300,7.525126220703125,-0.7165609002113342,-0.2891244888305664,1.9288108348846436
1751214515189120300,7.535120361328125,-0.55073082447052,-0.09343147277832031,1.5019348859786987
1751214515199114200,7.5451142578125,-0.7004722356796265,-0.07921504974365234,1.1294406652450562
1751214515209108200,7.555108154296875,-0.9235212206840515,-0.04546642303466797,0.7277562022209167
1751214515219102200,7.565102294921875,-0.9599975347518921,-0.06391048431396484,0.4658893346786499
1751214515229096200,7.57509619140625,-0.9057244062423706,-0.053254127502441406,0.33923113346099854
1751214515239090400,7.58509033203125,-0.8138027191162109,-0.003932952880859375,0.3562967777252197
1751214515249084400,7.59508447265625,-0.585436999797821,0.021882057189941406,0.48692071437835693
1751214515259078400,7.605078369140625,-0.2757531404495239,0.03356456756591797,0.577783465385437
1751214515269072400,7.615072265625,0.021880149841308594,-0.0024175643920898438,0.6136166453361511
1751214515279066400,7.62506640625,0.12000894546508789,-0.009771347045898438,0.5235185623168945
1751214515289060400,7.635060302734375,-0.0508573055267334,-0.026823997497558594,0.36189138889312744
1751214515299054300,7.645054443359375,-0.30043578147888184,-0.08211421966552734,0.23126018047332764
1751214515309048300,7.65504833984375,-0.4023941159248352,-0.1612234115600586,0.20456266403198242
1751214515319042300,7.665042236328125,-0.28597843647003174,-0.19246864318847656,0.3194464445114136
1751214515329036500,7.67503662109375,-0.14957904815673828,-0.04696369171142578,0.47813332080841064
1751214515339030500,7.685030517578125,-0.009463787078857422,0.059790611267089844,0.5746530294418335
1751214515349024500,7.6950244140625,-0.047769904136657715,0.09920883178710938,0.6565685272216797
1751214515359018500,7.7050185546875,-0.08254039287567139,0.08586311340332031,0.7664740681648254
1751214515369012500,7.715012451171875,-0.07988691329956055,0.14882659912109375,0.7614760994911194
1751214515379006500,7.72500634765625,-0.11041688919067383,0.15885639190673828,0.7483219504356384
1751214515389000400,7.73500048828125,-0.16396260261535645,0.14949798583984375,0.8087044358253479
1751214515398994400,7.744994384765625,-0.23672914505004883,-0.09391307830810547,0.959450900554657
1751214515408988400,7.754988525390625,-0.3290371894836426,-0.2746152877807617,0.970587432384491
1751214515418982400,7.764982421875,-0.5216732025146484,-0.41204357147216797,0.9057921171188354
1751214515428976400,7.774976318359375,-0.6549623608589172,-0.5254316329956055,0.8670005202293396
1751214515438970400,7.784970458984375,-0.7361445426940918,-0.6238813400268555,0.8244943618774414
1751214515448964400,7.79496435546875,-0.6622238755226135,-0.6448831558227539,0.7731117010116577
1751214515458958300,7.804958251953125,-0.3807189464569092,-0.6696491241455078,0.7120723724365234
1751214515468952300,7.814952392578125,0.008368968963623047,-0.8608837127685547,0.5971691608428955
1751214515478946300,7.8249462890625,0.4047156572341919,-1.189875602722168,0.4368782043457031
1751214515488940300,7.834940185546875,0.6799386739730835,-1.5710124969482422,0.1701599359512329
1751214515498934300,7.844934326171875,0.8189736604690552,-1.9525279998779297,-0.16527163982391357
1751214515508928300,7.85492822265625,0.8061714172363281,-2.3921775817871094,-0.3596600294113159
1751214515518922000,7.864921875,0.7188650369644165,-2.9132862091064453,-0.29283225536346436
1751214515528916000,7.874916015625,0.7181562185287476,-3.5289230346679688,-0.030915498733520508
1751214515538910000,7.884909912109375,0.8751591444015503,-4.194878578186035,0.19599151611328125
1751214515548904000,7.894904052734375,1.1567655801773071,-4.805940628051758,0.20402312278747559
1751214515558898000,7.90489794921875,1.4710474014282227,-5.3864336013793945,0.16390693187713623
1751214515568892000,7.914891845703125,1.5274152755737305,-5.826968193054199,0.08980774879455566
1751214515578886000,7.924885986328125,1.2838753461837769,-6.084930419921875,0.0491178035736084
1751214515588880000,7.9348798828125,0.8357892036437988,-6.059759140014648,0.1649864912033081
1751214515598873900,7.944873779296875,0.15482163429260254,-5.5602216720581055,0.41191041469573975
1751214515608867800,7.954867919921875,-0.5919409990310669,-4.854218482971191,0.7504045963287354
1751214515618861600,7.964861572265625,-1.3276735544204712,-4.190190315246582,0.9347208738327026
1751214515628855600,7.97485546875,-2.083052635192871,-3.6495018005371094,0.874264121055603
1751214515638849500,7.984849609375,-3.154670476913452,-3.093844413757324,0.6859803199768066
1751214515648843500,7.994843505859375,-4.7702555656433105,-2.2846498489379883,0.40297532081604004
1751214515658837500,8.00483740234375,-6.8615522384643555,-1.1357421875,0.24979758262634277
1751214515668831500,8.01483154296875,-8.950660705566406,0.0006160736083984375,0.5455185174942017
1751214515678825500,8.024825439453124,-9.785300254821777,0.32778072357177734,1.1933667659759521
1751214515688819500,8.0348193359375,-9.06470012664795,0.003139495849609375,1.8076509237289429
1751214515698813400,8.0448134765625,-7.728713512420654,-0.6549777984619141,2.488347053527832
1751214515708807400,8.054807373046875,-6.319462299346924,-1.3842401504516602,3.42425537109375
1751214515718801200,8.06480126953125,-4.632905960083008,-1.9030370712280273,3.8851757049560547
1751214515728795100,8.074795166015624,-2.628274440765381,-2.0457754135131836,3.7113037109375
1751214515748783000,8.094783203125,1.8380845785140991,-1.4843196868896484,2.2735280990600586
1751214515758777000,8.104777099609375,3.9577531814575195,-0.8588342666625977,1.1179951429367065
1751214515768771000,8.11477099609375,4.991497993469238,-0.3013172149658203,0.1239999532699585
1751214515778765000,8.12476513671875,5.437618255615234,-0.4602336883544922,-0.39410722255706787
1751214515788759000,8.134759033203125,6.6731977462768555,-0.3819847106933594,-0.4170963168144226
1751214515798753000,8.1447529296875,6.244609832763672,0.04401969909667969,-0.4613814353942871
1751214515808747000,8.1547470703125,5.128312587738037,0.8360595703125,-0.5754486322402954
1751214515818741000,8.164740966796876,3.6872849464416504,1.5629558563232422,-0.8361093401908875
1751214515828735000,8.17473486328125,2.3359930515289307,1.9662785530090332,-0.8307167291641235
1751214515838729000,8.18472900390625,0.9098196029663086,1.9502530097961426,-0.7318342924118042
1751214515848723000,8.194722900390625,-0.3982919454574585,1.5575599670410156,-0.6067588925361633
1751214515858717000,8.204717041015625,-1.215548038482666,1.1608400344848633,-0.5880010724067688
1751214515868711200,8.214711181640626,-1.1685314178466797,0.7598466873168945,-0.7410012483596802
1751214515878705200,8.224705078125,-0.26716864109039307,0.48873043060302734,-0.9927469491958618
1751214515888699100,8.23469921875,1.2297632694244385,0.49652862548828125,-1.3397523164749146
1751214515898693000,8.244693115234375,2.728260040283203,0.4932365417480469,-1.5413485765457153
1751214515908687000,8.25468701171875,3.6496992111206055,0.3084573745727539,-1.3889565467834473
1751214515918681000,8.26468115234375,3.7200803756713867,0.014581680297851562,-0.9657403826713562
1751214515928675000,8.274675048828126,2.8125345706939697,-0.22259140014648438,-0.578863263130188
1751214515938669000,8.2846689453125,1.3369654417037964,-0.37682533264160156,-0.29500913619995117
1751214515948663000,8.2946630859375,0.33986783027648926,-0.5509233474731445,-0.18096041679382324
1751214515958657000,8.304656982421875,0.5119811296463013,-0.6785860061645508,-0.4274260997772217
1751214515968651300,8.3146513671875,1.1432316303253174,-0.8586549758911133,-0.885645866394043
1751214515978645200,8.324645263671876,1.5394618511199951,-0.7886791229248047,-1.386654257774353
1751214515988639200,8.33463916015625,1.307771921157837,-0.49702930450439453,-1.872402548789978
1751214515998633200,8.34463330078125,0.934878945350647,-0.3185853958129883,-2.2030510902404785
1751214516008627200,8.354627197265625,0.8686466217041016,-0.2958555221557617,-2.3959226608276367
1751214516018621200,8.36462109375,0.9654901027679443,-0.3285970687866211,-2.5008938312530518
1751214516028615200,8.374615234375,1.0756314992904663,-0.20581722259521484,-2.627610921859741
1751214516038609200,8.384609130859374,1.1429721117019653,-0.017633438110351562,-2.785979986190796
1751214516048603100,8.39460302734375,1.2484594583511353,0.17031192779541016,-2.752216339111328
1751214516058597400,8.404597412109375,1.3191368579864502,0.27743053436279297,-2.783231258392334
1751214516068591400,8.41459130859375,1.4542820453643799,0.653594970703125,-3.0326128005981445
1751214516078585300,8.42458544921875,1.2929013967514038,0.6295351982116699,-3.140857696533203
1751214516088579300,8.434579345703124,1.3584240674972534,0.6820425987243652,-3.3150548934936523
1751214516098573300,8.4445732421875,1.5299423933029175,1.3120646476745605,-3.5941784381866455
1751214516108567300,8.4545673828125,0.9941384792327881,1.5978302955627441,-3.515596866607666
1751214516118561300,8.464561279296875,0.5869770050048828,1.3545069694519043,-3.283933162689209
1751214516128555300,8.47455517578125,0.923188328742981,1.8713064193725586,-3.441704750061035
1751214516138549200,8.48454931640625,0.9939194917678833,2.026397228240967,-3.262498617172241
1751214516148543200,8.494543212890624,0.8065030574798584,1.9873862266540527,-3.261500835418701
1751214516158537500,8.504537353515625,0.6991629600524902,1.3130097389221191,-2.8752949237823486
1751214516168531500,8.514531494140625,0.9057025909423828,1.522857666015625,-2.9617035388946533
1751214516178525400,8.524525390625,1.0133603811264038,1.8873753547668457,-2.9606006145477295
1751214516188519400,8.53451953125,0.892894983291626,2.056535243988037,-2.807546615600586
1751214516198513400,8.544513427734374,0.6991372108459473,1.961982250213623,-2.7921438217163086
1751214516208507400,8.55450732421875,0.6630649566650391,1.8951754570007324,-2.8329620361328125
1751214516218501400,8.56450146484375,0.7923266887664795,1.8657383918762207,-2.6487550735473633
1751214516228495400,8.574495361328125,0.8103294372558594,1.7631301879882812,-2.276890277862549
1751214516238489300,8.5844892578125,0.6948654651641846,1.7541894912719727,-1.9596025943756104
1751214516248483300,8.5944833984375,0.592247486114502,1.8390755653381348,-1.8740894794464111
1751214516258477600,8.6044775390625,0.6455070972442627,1.8653035163879395,-1.9853975772857666
1751214516298453500,8.64445361328125,1.0151772499084473,1.8718876838684082,-2.4963181018829346
1751214516308447500,8.654447509765625,0.8181201219558716,1.8721418380737305,-2.6332221031188965
1751214516318441500,8.66444140625,-0.013579607009887695,1.8148488998413086,-2.421637773513794
1751214516328435500,8.674435546875,-1.2776384353637695,1.530059814453125,-1.9314966201782227
1751214516338429400,8.684429443359376,-1.602165699005127,0.874786376953125,-1.608121633529663
1751214516348423700,8.694423583984374,-1.1323261260986328,0.1111135482788086,-1.4690837860107422
1751214516358417700,8.704417724609375,0.16495513916015625,-0.521026611328125,-1.6577174663543701
1751214516368411600,8.71441162109375,2.0934884548187256,-0.967498779296875,-1.8190135955810547
1751214516378405600,8.724405517578125,2.300837516784668,-1.3527450561523438,-1.6931171417236328
1751214516388399600,8.734399658203126,0.8957993984222412,-1.9125127792358398,-1.697352647781372
1751214516398393900,8.744393798828124,0.006276130676269531,-2.748904228210449,-2.007047414779663
1751214516408387800,8.754387939453125,0.0760796070098877,-3.7274856567382812,-2.4869532585144043
1751214516428375800,8.774375732421875,2.409013271331787,-5.247547149658203,-2.568631887435913
1751214516438369800,8.784369873046876,3.1365127563476562,-5.423327445983887,-2.1025304794311523
1751214516448363800,8.79436376953125,1.8164070844650269,-5.9496660232543945,0.26470422744750977
1751214516458358000,8.80435791015625,-0.6917617321014404,-7.322504043579102,3.8878583908081055
1751214516468352000,8.81435205078125,0.19968236982822418,-8.542742729187012,6.262539863586426
1751214516478346000,8.824345947265625,1.2891995906829834,-7.898101806640625,6.898786544799805
1751214516488340000,8.834340087890626,-0.38186323642730713,-5.2909650802612305,5.558064937591553
1751214516498334000,8.844333984375,-1.2147152423858643,-1.9929170608520508,3.1775007247924805
1751214516508328000,8.854327880859374,-0.6643912196159363,-0.3397073745727539,1.1251122951507568
1751214516518322000,8.864322021484375,-0.6996232867240906,-0.2957277297973633,-0.5275191068649292
1751214516528315600,8.874315673828125,-0.9351817965507507,-0.3086357116699219,-1.1475491523742676
1751214516538309600,8.8843095703125,-1.2691460847854614,0.24225425720214844,-1.201812982559204
1751214516548303600,8.8943037109375,-1.7277354001998901,0.8962011337280273,-0.842300534248352
1751214516558297600,8.904297607421874,-1.9388599395751953,1.3748998641967773,-0.4989664554595947
1751214516568291600,8.91429150390625,-1.922383427619934,1.792982578277588,-0.3307645320892334
1751214516578285600,8.92428564453125,-1.6567862033843994,1.6915502548217773,-0.1298506259918213
1751214516588279600,8.934279541015625,-1.1819206476211548,1.305333137512207,0.06505942344665527
1751214516598273500,8.9442734375,-0.5671554207801819,0.9308748245239258,0.20089507102966309
1751214516608267500,8.954267578125,-0.09700636565685272,0.7644405364990234,-0.01361227035522461
1751214516618261500,8.964261474609375,0.14631059765815735,0.6867504119873047,-0.3599017262458801
1751214516628255200,8.974255126953125,0.40111663937568665,0.5833892822265625,-0.7688607573509216
1751214516638249200,8.984249267578125,0.707094669342041,0.6506471633911133,-1.142075538635254
1751214516648243200,8.9942431640625,0.9379321932792664,0.7402915954589844,-1.3624111413955688
1751214516658237200,9.0042373046875,1.0930588245391846,0.9001264572143555,-1.3760545253753662
1751214516668231200,9.014231201171874,1.1102170944213867,1.0296478271484375,-1.2119860649108887
1751214516678225200,9.02422509765625,1.0943337678909302,1.0190057754516602,-0.8771991729736328
1751214516688219100,9.03421923828125,1.117681622505188,1.0500469207763672,-0.5124735832214355
1751214516698213000,9.044213134765625,1.265846610069275,1.1465873718261719,-0.18084995448589325
1751214516708207000,9.05420703125,1.3378654718399048,1.1890687942504883,0.09393750131130219
1751214516718201000,9.064201171875,1.2625657320022583,1.1633100509643555,0.36403727531433105
1751214516728194800,9.07419482421875,1.0217421054840088,1.0647144317626953,0.6529030799865723
1751214516738188800,9.084188720703125,0.7643508315086365,0.8648948669433594,0.9348351955413818
1751214516748182800,9.094182861328125,0.5022792816162109,0.750457763671875,1.0955793857574463
1751214516758176800,9.1041767578125,0.23768922686576843,0.7307348251342773,1.199394702911377
1751214516768170800,9.114170654296874,-0.00362551212310791,0.6765193939208984,1.2815282344818115
1751214516778164700,9.124164794921874,-0.15345892310142517,0.47339820861816406,1.3894827365875244
1751214516788158700,9.13415869140625,-0.23531755805015564,0.3129720687866211,1.446054458618164
1751214516798152700,9.144152587890625,-0.3104446232318878,0.27173805236816406,1.4703317880630493
1751214516808146700,9.154146728515625,-0.4497542083263397,0.2923622131347656,1.4565722942352295
1751214516818140700,9.164140625,-0.619290828704834,0.322418212890625,1.3657991886138916
1751214516828134400,9.174134521484374,-0.8844386339187622,0.24753189086914062,1.1743576526641846
1751214516838128400,9.18412841796875,-1.1522555351257324,0.12558460235595703,0.9547995328903198
1751214516848122400,9.194122314453125,-1.3641242980957031,0.0047397613525390625,0.7552729249000549
1751214516858116400,9.204116455078125,-1.5518672466278076,-0.06693267822265625,0.5046117305755615
1751214516868110300,9.2141103515625,-1.5188908576965332,-0.022653579711914062,0.33843159675598145
1751214516878104300,9.224104248046874,-1.3429875373840332,0.02736663818359375,0.30491000413894653
1751214516888098300,9.234098388671875,-1.1077184677124023,0.02070903778076172,0.3427010178565979
1751214516898092300,9.24409228515625,-0.7864179611206055,-0.004464149475097656,0.43254005908966064
1751214516908086300,9.254086181640625,-0.4106290936470032,-0.0819692611694336,0.5226044058799744
1751214516918080300,9.264080322265626,-0.1603938341140747,-0.2644491195678711,0.7264686822891235
1751214516928074200,9.27407421875,0.0004063844680786133,-0.4513883590698242,0.956298828125
1751214516938068200,9.284068115234374,0.04217076301574707,-0.5902023315429688,1.2109360694885254
1751214516948062500,9.2940625,0.02747941017150879,-0.6569509506225586,1.3508671522140503
1751214516958056400,9.304056396484375,0.05669581890106201,-0.6040134429931641,1.4716670513153076
1751214516968050400,9.314050537109376,0.010476231575012207,-0.44600582122802734,1.4587795734405518
1751214516978044400,9.32404443359375,-0.2993968725204468,-0.27851390838623047,1.3468719720840454
1751214516988038400,9.334038330078124,-0.5632054209709167,-0.18245315551757812,1.2327303886413574
1751214516998032400,9.344032470703125,-0.5600868463516235,-0.19559097290039062,1.163756012916565
1751214517008026400,9.3540263671875,-0.37272632122039795,-0.21732139587402344,1.0817888975143433
1751214517018020400,9.364020263671875,-0.16134190559387207,-0.18586349487304688,0.9059177041053772
1751214517028014300,9.374014404296876,-0.06120765209197998,-0.08749675750732422,0.6427547335624695
1751214517038008300,9.38400830078125,-0.020228981971740723,0.05824470520019531,0.36030113697052
1751214517048002600,9.39400244140625,-0.15152156352996826,0.13661861419677734,0.09319353103637695
1751214517057996500,9.40399658203125,-0.3238292932510376,0.21933555603027344,-0.1322622299194336
1751214517067990500,9.413990478515625,-0.4926997423171997,0.26821136474609375,-0.286368727684021
1751214517077984500,9.423984619140626,-0.6755927801132202,0.2309274673461914,-0.3923596143722534
1751214517087978500,9.433978515625,-0.7041189670562744,0.1078348159790039,-0.43090498447418213
1751214517097972500,9.443972412109375,-0.5708063840866089,0.03270721435546875,-0.4362051486968994
1751214517107966500,9.453966552734375,-0.3367525339126587,-0.06201457977294922,-0.28885388374328613
1751214517117960400,9.46396044921875,-0.1487187147140503,-0.13831329345703125,-0.06740844249725342
1751214517127954400,9.473954345703126,-0.16444897651672363,-0.1579141616821289,0.10753893852233887
1751214517137948400,9.483948486328124,-0.3899397850036621,-0.21580886840820312,0.25400614738464355
1751214517147942700,9.493942626953125,-0.6821910738945007,-0.2728738784790039,0.3519068956375122
1751214517157936600,9.5039365234375,-0.8462989330291748,-0.29014015197753906,0.3765676021575928
1751214517167930600,9.5139306640625,-0.7490126490592957,-0.2436838150024414,0.3702056407928467
1751214517177924600,9.523924560546876,-0.4660700559616089,-0.2009410858154297,0.30345451831817627
1751214517187918600,9.533918701171874,-0.2545764446258545,-0.2629280090332031,0.0962287187576294
1751214517197912600,9.54391259765625,-0.21093225479125977,-0.3868370056152344,-0.12539887428283691
1751214517207906600,9.553906494140625,-0.20475780963897705,-0.5439548492431641,-0.24544525146484375
1751214517217900500,9.563900634765625,-0.16746795177459717,-0.7771577835083008,-0.2249314785003662
1751214517227894500,9.57389453125,-0.016022086143493652,-0.9953699111938477,-0.12571585178375244
1751214517237888500,9.583888427734376,0.2675219774246216,-1.332575798034668,0.04261744022369385
1751214517247882800,9.5938828125,0.5858829021453857,-1.8267803192138672,0.2552450895309448
1751214517257876700,9.603876708984375,0.968985915184021,-2.334610939025879,0.5255191326141357
1751214517267870700,9.61387060546875,1.3563926219940186,-2.8418312072753906,0.8234379291534424
1751214517277864700,9.62386474609375,1.6565601825714111,-3.453462600708008,1.005070686340332
1751214517287858700,9.633858642578126,1.878656268119812,-4.078839302062988,1.0721710920333862
1751214517297852700,9.643852783203124,2.0035452842712402,-4.746770858764648,1.1261823177337646
1751214517307846700,9.6538466796875,2.1506845951080322,-5.409083366394043,1.2372682094573975
1751214517317840600,9.663840576171875,2.270756721496582,-6.00787353515625,1.3109426498413086
1751214517327834600,9.673834716796875,2.211571216583252,-6.385340690612793,1.3146772384643555
1751214517337828900,9.683828857421876,1.8684874773025513,-6.437442779541016,1.2573437690734863
1751214517347822800,9.69382275390625,1.1159062385559082,-6.074919700622559,1.2021856307983398
1751214517357816800,9.70381689453125,-0.19451558589935303,-5.408722877502441,1.1886162757873535
1751214517367810800,9.713810791015625,-2.0061399936676025,-4.582158088684082,1.2026653289794922
1751214517377804800,9.7238046875,-4.457498550415039,-3.8235416412353516,1.2326581478118896
1751214517387798800,9.733798828125,-7.407390594482422,-3.1297407150268555,1.3573130369186401
1751214517397792800,9.743792724609374,-10.202433586120605,-2.323967933654785,1.6666295528411865
1751214517407786800,9.753786865234375,-11.736186981201172,-1.1879816055297852,2.204899787902832
1751214517417780700,9.76378076171875,-10.19548511505127,-0.021093368530273438,2.8460960388183594
1751214517427774700,9.773774658203125,-7.599621772766113,0.2395153045654297,3.3460617065429688
1751214517437769000,9.78376904296875,-5.5960869789123535,-0.3174009323120117,3.5144495964050293
1751214517447763000,9.793762939453124,-4.217430591583252,-0.927678108215332,3.582587718963623
1751214517457757000,9.8037568359375,-3.327730417251587,-1.4295988082885742,3.574678421020508
1751214517467751000,9.8137509765625,-2.4350504875183105,-1.8189020156860352,3.360537528991699
1751214517477745000,9.823744873046875,-1.2640494108200073,-1.9387083053588867,2.8165392875671387
1751214517487739000,9.83373876953125,0.06757566332817078,-1.8237237930297852,2.1175544261932373
1751214517497732900,9.84373291015625,1.5842632055282593,-1.7805213928222656,1.5625483989715576
1751214517507726600,9.8537265625,3.03564453125,-1.4265766143798828,1.0345425605773926
1751214517517720600,9.863720458984375,3.9574015140533447,-1.201272964477539,0.1627100706100464
1751214517527714600,9.873714599609375,4.631223678588867,-1.1371335983276367,-0.5843203663825989
1751214517537708500,9.88370849609375,4.683404922485352,-1.1424379348754883,-0.8540178537368774
1751214517547702500,9.89370263671875,4.309726715087891,-0.8155727386474609,-1.0832065343856812
1751214517557696500,9.903696533203124,3.435340166091919,-0.10041046142578125,-1.376603603363037
1751214517567690500,9.9136904296875,2.9835519790649414,0.6289739608764648,-1.617260217666626
1751214517577684500,9.9236845703125,2.682727098464966,1.2004785537719727,-1.755359172821045
1751214517587678500,9.933678466796875,2.2072958946228027,1.318537712097168,-1.6582742929458618
1751214517597672400,9.94367236328125,1.6988410949707031,1.089639663696289,-1.3681596517562866
1751214517607666200,9.953666259765624,1.1608089208602905,0.796504020690918,-1.1123853921890259
1751214517617660200,9.96366015625,0.6885687112808228,0.48691844940185547,-0.8817673921585083
1751214517627654100,9.973654052734375,0.6646289825439453,0.5143184661865234,-0.7362010478973389
1751214517637648100,9.983648193359375,0.7109540700912476,0.4432830810546875,-0.5827479362487793
1751214517647642000,9.99364208984375,0.8040487766265869,0.3170299530029297,-0.521079421043396
1751214517657636000,10.003635986328124,0.9952699542045593,0.17335796356201172,-0.6740704774856567
1751214517667630000,10.013630126953124,1.4054193496704102,0.15095901489257812,-1.1104050874710083
1751214517677624000,10.0236240234375,1.8280324935913086,0.04450035095214844,-1.4802076816558838
1751214517687618000,10.0336181640625,1.9588736295700073,0.09300994873046875,-1.9979517459869385
1751214517697612000,10.043612060546875,1.729048728942871,0.19560718536376953,-2.467085361480713
1751214517707605800,10.053605712890626,1.6166330575942993,0.35706615447998047,-2.821370840072632
1751214517717599700,10.063599853515624,1.71787691116333,0.5105342864990234,-2.9692912101745605
1751214517727593700,10.07359375,1.783858060836792,0.5601472854614258,-2.841440200805664
1751214517737587700,10.083587646484375,1.9317021369934082,0.45340633392333984,-2.4269094467163086
1751214517747581700,10.093581787109375,2.023812770843506,0.23824119567871094,-1.8635103702545166
1751214517757575700,10.10357568359375,2.0037667751312256,0.06791973114013672,-1.3734301328659058
1751214517767569700,10.113569580078124,1.9965999126434326,-0.1529102325439453,-0.9676759243011475
1751214517777563600,10.123563720703125,2.0214829444885254,-0.2235097885131836,-0.8313920497894287
1751214517787557600,10.1335576171875,1.9865716695785522,0.051835060119628906,-1.2895212173461914
1751214517797551600,10.143551513671875,1.9840692281723022,0.2689523696899414,-1.96077561378479
1751214517817539300,10.163539306640626,1.949655532836914,0.017505645751953125,-2.5601720809936523
1751214517827533300,10.173533203125,1.7564374208450317,0.17160987854003906,-2.7131876945495605
1751214517837527300,10.18352734375,1.5804460048675537,0.23744583129882812,-2.6026604175567627
1751214517847521300,10.193521240234375,1.5288909673690796,0.23895263671875,-2.442394733428955
1751214517857515300,10.203515380859375,1.2971960306167603,0.4933352470397949,-2.633213758468628
1751214517867509200,10.21350927734375,0.9177879095077515,0.8435277938842773,-2.729626417160034
1751214517877503200,10.223503173828124,0.5682625770568848,1.0354232788085938,-2.6906838417053223
1751214517887497200,10.233497314453125,0.4120299816131592,1.14994478225708,-2.665947914123535
1751214517897491200,10.2434912109375,0.3001728057861328,1.153944492340088,-2.71797513961792
1751214517907485200,10.253485107421875,0.3131840229034424,1.2147774696350098,-2.7519211769104004
1751214517917479200,10.263479248046876,0.2196817398071289,1.3755741119384766,-2.854649543762207
1751214517927473200,10.27347314453125,0.09106254577636719,1.5215187072753906,-2.940459728240967
1751214517937467100,10.283467041015625,0.0029997825622558594,1.6621637344360352,-2.909844398498535
1751214517947461000,10.293461181640625,-0.10277104377746582,1.7349681854248047,-2.783601760864258
1751214517957455000,10.303455078125,-0.15034127235412598,1.9451565742492676,-2.7970023155212402
1751214517967449000,10.313448974609376,-0.22161865234375,2.054375171661377,-2.757762908935547
1751214517977443000,10.323443115234374,-0.3243699073791504,2.066840648651123,-2.771491050720215
1751214517987437000,10.33343701171875,-0.3617744445800781,2.0258941650390625,-2.8181118965148926
1751214517997431300,10.343431396484375,-0.3575124740600586,1.9938116073608398,-2.8256173133850098
1751214518007425300,10.35342529296875,-0.2945683002471924,1.9661707878112793,-2.761190891265869
1751214518017419300,10.363419189453126,-0.1766033172607422,1.9576659202575684,-2.57384991645813
1751214518027413200,10.373413330078124,0.05715465545654297,1.8484363555908203,-2.2126121520996094
1751214518037407200,10.3834072265625,0.4118034839630127,1.6612634658813477,-1.7130661010742188
1751214518047401200,10.393401123046875,0.7778310775756836,1.3612275123596191,-1.1781086921691895
1751214518057395200,10.403395263671875,1.1557204723358154,0.9850344657897949,-0.6915569305419922
1751214518067389200,10.41338916015625,1.5918288230895996,0.8543505668640137,-0.2918524742126465
1751214518077383200,10.423383056640626,1.6050084829330444,0.7293663024902344,0.2364182472229004
1751214518087377400,10.43337744140625,1.4128391742706299,0.532292366027832,0.6097707748413086
1751214518097371400,10.443371337890625,1.3834197521209717,0.3921384811401367,0.7470402717590332
1751214518107365400,10.453365478515625,1.457924485206604,0.4241933822631836,0.7594256401062012
1751214518117359400,10.463359375,1.1156065464019775,0.700963020324707,0.6734137535095215
1751214518127353300,10.473353271484376,0.4689573049545288,0.738368034362793,0.8322277069091797
1751214518137347300,10.483347412109374,0.1436474323272705,0.4584951400756836,0.927973747253418
1751214518147341300,10.49334130859375,0.24024605751037598,0.05386543273925781,0.7378621101379395
1751214518157335300,10.503335205078125,0.22060227394104004,-0.34874820709228516,0.46596574783325195
1751214518167329300,10.513329345703125,-0.22014355659484863,-0.5946464538574219,0.16617822647094727
1751214518177323300,10.5233232421875,-0.783341646194458,-0.6490993499755859,-0.22683382034301758
1751214518187317500,10.5333173828125,-1.4328813552856445,-0.5538845062255859,-0.74416184425354
1751214518197311500,10.5433115234375,-1.2885539531707764,-0.4692859649658203,-1.344038724899292
1751214518207305500,10.553305419921875,-1.1674771308898926,-0.3593101501464844,-2.072118043899536
1751214518217299500,10.563299560546875,-0.7760899066925049,-0.32012462615966797,-2.656292200088501
1751214518227293400,10.57329345703125,0.45766186714172363,-0.520263671875,-3.21494197845459
1751214518237287400,10.583287353515624,1.595123052597046,-0.9128379821777344,-3.569727897644043
1751214518247281400,10.593281494140625,1.5442161560058594,-1.4038400650024414,-3.846027374267578
1751214518257275400,10.603275390625,1.7204220294952393,-2.06247615814209,-3.935577392578125
1751214518297251600,10.64325146484375,0.4756886661052704,-7.022208213806152,2.128523826599121
1751214518307245600,10.65324560546875,2.353039503097534,-8.182738304138184,3.51767897605896
1751214518317239600,10.663239501953125,3.1411633491516113,-7.323592185974121,4.72598123550415
1751214518327233500,10.673233642578126,0.3578280508518219,-5.5481061935424805,5.972102165222168
1751214518337227500,10.6832275390625,-2.6948928833007812,-3.2817068099975586,4.832893371582031
1751214518347221500,10.693221435546874,-2.550692081451416,-1.6372604370117188,1.7408852577209473
1751214518357215500,10.703215576171875,-2.2510173320770264,-1.0333623886108398,-0.9082928895950317
1751214518367209500,10.71320947265625,-2.277068853378296,-0.7591266632080078,-1.9768493175506592
1751214518377203700,10.72320361328125,-2.23478627204895,-0.03980731964111328,-2.1132216453552246
1751214518387197700,10.73319775390625,-2.771470069885254,0.7597522735595703,-1.7080103158950806
1751214518397191700,10.743191650390624,-3.2282180786132812,1.2177543640136719,-1.3008207082748413
1751214518407185700,10.753185546875,-3.146099805831909,1.472163200378418,-0.9011399745941162
1751214518417179600,10.7631796875,-2.533975124359131,1.7044739723205566,-0.7589126825332642
1751214518427173600,10.773173583984375,-1.835405707359314,1.5848588943481445,-0.7502233386039734
1751214518437167600,10.783167724609376,-1.2881324291229248,1.1806268692016602,-0.614422619342804
1751214518447161600,10.79316162109375,-0.8726638555526733,0.8073453903198242,-0.4270443916320801
1751214518457155600,10.803155517578125,-0.44874897599220276,0.4888601303100586,-0.391162633895874
1751214518467149600,10.813149658203125,0.0028270483016967773,0.18705463409423828,-0.48904144763946533
1751214518477143600,10.8231435546875,0.415256530046463,0.0743560791015625,-0.7386747002601624
1751214518487137500,10.833137451171876,0.7494728565216064,0.06487655639648438,-0.9796977639198303
1751214518497131500,10.843131591796874,1.0237914323806763,0.33553600311279297,-1.1137961149215698
1751214518507125500,10.85312548828125,1.1880335807800293,0.5897665023803711,-1.129814624786377
1751214518517119500,10.863119384765625,1.2997444868087769,0.7225914001464844,-1.0469329357147217
1751214518527113200,10.87311328125,1.3413840532302856,0.7916469573974609,-0.8557734489440918
1751214518537107200,10.883107177734376,1.372032642364502,0.8544216156005859,-0.6180826425552368
1751214518547101200,10.89310107421875,1.4306551218032837,0.9443550109863281,-0.30489352345466614
1751214518557095200,10.90309521484375,1.496659278869629,0.9276065826416016,0.04944257438182831
1751214518567089200,10.913089111328125,1.4157661199569702,0.8474111557006836,0.38118210434913635
1751214518577083100,10.923083251953125,1.1495424509048462,0.7946548461914062,0.671043336391449
1751214518587077000,10.9330771484375,0.8524813652038574,0.7405824661254883,0.9527276158332825
1751214518597071000,10.943071044921876,0.5512605905532837,0.6708431243896484,1.2080614566802979
1751214518607065000,10.953065185546874,0.322075217962265,0.5807962417602539,1.4661922454833984
1751214518617059000,10.96305908203125,0.12571540474891663,0.4564323425292969,1.7117536067962646
1751214518627052800,10.973052734375,-0.050810664892196655,0.3267974853515625,1.9483476877212524
1751214518637046800,10.983046875,-0.08849358558654785,0.2161722183227539,2.159195899963379
1751214518647040800,10.993040771484376,-0.08496007323265076,0.19656085968017578,2.2793116569519043
1751214518657034800,11.00303466796875,-0.08486008644104004,0.2775449752807617,2.231492757797241
1751214518667028700,11.01302880859375,-0.14543640613555908,0.36342620849609375,2.0461585521698
1751214518677022700,11.023022705078125,-0.3330199718475342,0.30634307861328125,1.8093898296356201
1751214518687016700,11.0330166015625,-0.4745141565799713,0.2214183807373047,1.4838688373565674
1751214518697010700,11.0430107421875,-0.4881715178489685,0.1230936050415039,1.2095947265625
1751214518707004700,11.053004638671876,-0.5174077153205872,0.020867347717285156,0.9404385089874268
1751214518716998700,11.06299853515625,-0.45770958065986633,-0.07107353210449219,0.7781965136528015
1751214518726992400,11.072992431640625,-0.263258695602417,-0.062287330627441406,0.7241019010543823
1751214518736986400,11.082986328125,-0.08409148454666138,-0.10129451751708984,0.8023377060890198
1751214518746980400,11.09298046875,0.030831336975097656,-0.2978363037109375,0.9352861046791077
1751214518756974300,11.102974365234376,0.12826639413833618,-0.40320301055908203,1.0554670095443726
1751214518766968300,11.11296826171875,0.016771554946899414,-0.40825653076171875,1.1256269216537476
1751214518776962300,11.12296240234375,-0.3780003786087036,-0.3465747833251953,1.236887812614441
1751214518786956300,11.132956298828125,-0.5850329995155334,-0.3517942428588867,1.4318848848342896
1751214518796950300,11.1429501953125,-0.6132028698921204,-0.3422260284423828,1.6565731763839722
1751214518806944300,11.1529443359375,-0.4679175615310669,-0.2556791305541992,1.7713947296142578
1751214518816938200,11.162938232421874,-0.4983060359954834,-0.20705318450927734,1.724747657775879
1751214518826932000,11.172931884765624,-0.67928147315979,-0.15799331665039062,1.6034915447235107
1751214518836926000,11.182926025390625,-0.776136040687561,-0.06557941436767578,1.3848737478256226
1751214518846920000,11.192919921875,-0.8223186731338501,0.20846080780029297,1.017979621887207
1751214518856914000,11.202913818359375,-1.002952218055725,0.37711524963378906,0.7194375395774841
1751214518866908000,11.212907958984376,-1.2155283689498901,0.47907447814941406,0.44663095474243164
1751214518876902000,11.22290185546875,-1.3762389421463013,0.49087047576904297,0.20057857036590576
1751214518886895900,11.232895751953125,-1.2556718587875366,0.5129480361938477,0.02535545825958252
1751214518896889900,11.242889892578125,-0.84688401222229,0.43041229248046875,-0.04601943492889404
1751214518906883800,11.2528837890625,-0.43542808294296265,0.24329662322998047,-0.11564755439758301
1751214518916877800,11.2628779296875,-0.07313680648803711,0.13762855529785156,-0.3128906488418579
1751214518926871800,11.272871826171874,0.1848069429397583,0.1269550323486328,-0.5833559036254883
1751214518936865800,11.28286572265625,0.1858665943145752,0.04868507385253906,-0.6788207292556763
1751214518946859800,11.29285986328125,0.06187307834625244,-0.010718345642089844,-0.6142477989196777
1751214518956853800,11.302853759765625,0.0013304948806762695,0.015987396240234375,-0.49635183811187744
1751214518966847700,11.31284765625,0.04617047309875488,0.06150054931640625,-0.45836973190307617
1751214518976841700,11.322841796875,0.13089168071746826,0.09175872802734375,-0.4943056106567383
1751214518986835700,11.332835693359375,0.12472987174987793,0.08725166320800781,-0.5501158237457275
1751214518996830000,11.342829833984375,-0.042627573013305664,-0.03787994384765625,-0.5057883262634277
1751214519006824000,11.352823974609375,-0.20450544357299805,-0.1680278778076172,-0.3819326162338257
1751214519016818000,11.36281787109375,-0.26645565032958984,-0.18788719177246094,-0.22283411026000977
1751214519026812000,11.37281201171875,-0.1656121015548706,-0.2169342041015625,-0.09120368957519531
1751214519036806000,11.382805908203125,0.05269312858581543,-0.35560131072998047,-0.002121448516845703
1751214519046800000,11.3927998046875,0.22801709175109863,-0.5896835327148438,0.01131737232208252
1751214519056793900,11.4027939453125,0.321128249168396,-0.7997531890869141,-0.026506543159484863
1751214519066787800,11.412787841796876,0.3569343090057373,-1.0289039611816406,-0.00957024097442627
1751214519076781800,11.42278173828125,0.36087894439697266,-1.2912254333496094,0.06662881374359131
1751214519086775800,11.43277587890625,0.4062783718109131,-1.595937728881836,0.1968456506729126
1751214519096770000,11.44277001953125,0.5030155181884766,-1.8807039260864258,0.33738625049591064
1751214519106764000,11.452763916015625,0.6601375341415405,-2.1549997329711914,0.48241758346557617
1751214519116758000,11.462758056640626,0.904294490814209,-2.3520612716674805,0.6596872806549072
1751214519126752000,11.472751953125,1.2415580749511719,-2.505770683288574,0.9065045118331909
1751214519136746000,11.48274609375,1.5287725925445557,-2.602198600769043,1.2023894786834717
1751214519146740000,11.492739990234375,1.6007351875305176,-2.622403144836426,1.44065523147583
1751214519156734000,11.50273388671875,1.5666970014572144,-2.5044193267822266,1.6540558338165283
1751214519166728000,11.51272802734375,1.4370746612548828,-2.4871788024902344,1.822849154472351
1751214519176722000,11.522721923828126,1.0461337566375732,-2.679928779602051,1.9700260162353516
1751214519186716200,11.532716064453124,0.5029081106185913,-2.9622344970703125,1.9567806720733643
1751214519196710100,11.542710205078125,-0.11118113994598389,-3.271111488342285,1.8646167516708374
1751214519206704000,11.5527041015625,-0.7472188472747803,-3.4339847564697266,1.5470654964447021
1751214519216698000,11.562697998046875,-1.280011534690857,-3.4032955169677734,1.0702593326568604
1751214519226692000,11.572692138671876,-1.582789659500122,-3.1938552856445312,0.685206413269043
1751214519236686000,11.58268603515625,-1.5905778408050537,-2.787276268005371,0.4637131690979004
1751214519246680000,11.59268017578125,-1.3847754001617432,-2.2514476776123047,0.31393730640411377
1751214519256674000,11.602674072265625,-1.1519877910614014,-1.8403053283691406,0.2584116458892822
1751214519266668000,11.61266796875,-1.0386016368865967,-1.5392580032348633,0.19944214820861816
1751214519276662000,11.622662109375,-1.079488754272461,-1.1763725280761719,0.11808216571807861
1751214519286656300,11.63265625,-1.374043583869934,-0.7564888000488281,0.07156527042388916
1751214519296650200,11.642650146484375,-1.7577106952667236,-0.3176231384277344,0.03998374938964844
1751214519306644200,11.652644287109375,-2.2090678215026855,0.18810367584228516,-0.00975644588470459
1751214519316638200,11.66263818359375,-2.791613817214966,0.5075864791870117,-0.08644092082977295
1751214519326632200,11.672632080078126,-3.458247423171997,0.4793367385864258,-0.2237933874130249
1751214519336626200,11.682626220703124,-4.099473476409912,0.003991127014160156,-0.4299379587173462
1751214519346620200,11.6926201171875,-4.2217583656311035,-0.8126049041748047,-0.46941685676574707
1751214519356614100,11.7026142578125,-4.019936561584473,-1.4591493606567383,-0.43821024894714355
1751214519366608100,11.712608154296875,-3.5704333782196045,-1.55950927734375,-0.28848493099212646
1751214519376602000,11.72260205078125,-3.1149024963378906,-1.4733943939208984,0.2640951871871948
1751214519386596400,11.732596435546874,-2.8909573554992676,-1.420750617980957,0.8913214802742004
1751214519396590300,11.74259033203125,-2.7808051109313965,-1.4304218292236328,1.3592238426208496
1751214519406584300,11.752584228515625,-2.5101425647735596,-1.5835599899291992,1.7474241256713867
1751214519416578000,11.762578125,-1.903388261795044,-1.636378288269043,2.0289363861083984
1751214519426572000,11.772572021484375,-1.2272019386291504,-1.6755609512329102,2.2019081115722656
1751214519436566000,11.78256591796875,-0.3505600094795227,-1.5774555206298828,2.1792473793029785
1751214519446560000,11.79256005859375,0.673035740852356,-1.4386253356933594,1.9961566925048828
1751214519456554000,11.802553955078125,1.5882624387741089,-1.3310174942016602,1.806319236755371
1751214519466548000,11.8125478515625,1.818902850151062,-1.1207246780395508,1.4515893459320068
1751214519476542000,11.8225419921875,1.7268435955047607,-0.9183063507080078,0.9111819267272949
1751214519486536000,11.832535888671876,1.5058410167694092,-0.7624149322509766,0.23152494430541992
1751214519496530000,11.842530029296874,1.5221834182739258,-0.4480619430541992,-0.5075057744979858
1751214519506524000,11.85252392578125,1.7906091213226318,-0.07147502899169922,-0.9244784116744995
1751214519516517600,11.862517578125,1.9602055549621582,0.2432117462158203,-1.1036016941070557
1751214519526511600,11.87251171875,2.0480358600616455,0.582646369934082,-1.2546494007110596
1751214519536505600,11.882505615234376,2.080700397491455,0.8901119232177734,-1.3908872604370117
1751214519546499600,11.89249951171875,1.8771647214889526,1.0132369995117188,-1.3115363121032715
1751214519556493600,11.90249365234375,1.4200023412704468,0.9765052795410156,-1.067305564880371
1751214519566487600,11.912487548828125,1.045157551765442,0.9808464050292969,-0.7239385843276978
1751214519586475500,11.9324755859375,1.2431483268737793,0.5971927642822266,0.02744138240814209
1751214519596469500,11.942469482421876,1.541717767715454,0.2866239547729492,0.4769722819328308
1751214519606463500,11.95246337890625,1.7929152250289917,0.013345718383789062,0.6932098865509033
1751214519616457200,11.962457275390625,1.9427741765975952,-0.27535438537597656,0.7199466228485107
1751214519626451200,11.972451171875,2.0450150966644287,-0.6419878005981445,0.6691280603408813
1751214519636445200,11.982445068359375,2.209991931915283,-0.9958581924438477,0.4809368848800659
1751214519646439200,11.992439208984376,2.0319600105285645,-1.4229402542114258,0.2352360486984253
1751214519656433200,12.00243310546875,1.368619680404663,-1.8436708450317383,-0.05062150955200195
1751214519666427100,12.01242724609375,0.5375052690505981,-2.207761764526367,-0.27511072158813477
1751214519676421000,12.022421142578125,0.5438131093978882,-2.206218719482422,-0.5137002468109131
1751214519686415000,12.0324150390625,1.0757793188095093,-1.9972600936889648,-0.7494714260101318
1751214519696409000,12.0424091796875,1.4390590190887451,-1.9388513565063477,-0.7456820011138916
1751214519706403000,12.052403076171874,1.3024928569793701,-1.8723526000976562,-0.7697849273681641
1751214519716396800,12.062396728515624,1.1256532669067383,-1.592036247253418,-1.096351146697998
1751214519726390800,12.072390869140625,1.3642523288726807,-1.2495441436767578,-1.6581789255142212
1751214519736384800,12.082384765625,1.6643283367156982,-0.6275873184204102,-2.394223213195801
1751214519746378800,12.092378662109375,1.5003736019134521,-0.12580299377441406,-2.965350389480591
1751214519756372700,12.102372802734376,1.3530707359313965,0.45328330993652344,-3.4601101875305176
1751214519766366700,12.11236669921875,1.346558928489685,0.6275634765625,-3.7091310024261475
1751214519776360700,12.122360595703125,1.1479815244674683,0.5204839706420898,-3.6579818725585938
1751214519786354700,12.132354736328125,1.2427518367767334,0.9964094161987305,-3.8511059284210205
1751214519796348700,12.1423486328125,1.3316402435302734,1.3778014183044434,-4.0570878982543945
1751214519806342700,12.1523427734375,1.0852941274642944,1.6178030967712402,-4.136873245239258
1751214519816336400,12.16233642578125,1.03249192237854,1.7375307083129883,-4.054682731628418
1751214519826330400,12.172330322265625,1.025594711303711,1.6939401626586914,-3.8100521564483643
1751214519836324400,12.182324462890625,1.0472208261489868,1.7314491271972656,-3.534224033355713
1751214519846318300,12.192318359375,1.1284873485565186,1.7498350143432617,-3.2767038345336914
1751214519856312300,12.202312255859376,1.2621476650238037,1.8308701515197754,-3.1199393272399902
1751214519866306300,12.212306396484376,1.247201681137085,2.0327529907226562,-3.2442703247070312
1751214519876300300,12.22230029296875,1.1530466079711914,2.245960235595703,-3.4751927852630615
1751214519886294300,12.232294189453125,1.1106541156768799,2.3889880180358887,-3.4921863079071045
1751214519896288300,12.242288330078125,1.1197524070739746,2.4996285438537598,-3.3354225158691406
1751214519906282200,12.2522822265625,1.177821159362793,2.563925266265869,-3.059255838394165
1751214519916276200,12.262276123046876,0.9126384258270264,2.590945243835449,-2.860671043395996
1751214519926270200,12.272270263671874,0.6287393569946289,2.584620475769043,-2.6723568439483643
1751214519936264200,12.28226416015625,0.6329765319824219,2.5351505279541016,-2.3890633583068848
1751214519946258200,12.292258056640625,0.6116964817047119,2.408585548400879,-1.8989973068237305
1751214519956252200,12.302252197265625,0.4153897762298584,2.3721442222595215,-1.63850998878479
1751214519966246100,12.31224609375,0.13606524467468262,2.3631014823913574,-1.4733123779296875
1751214519976240000,12.322240234375,0.05314469337463379,2.2953696250915527,-1.5307071208953857
1751214519986234400,12.332234375,0.25537872314453125,2.083616256713867,-1.5922729969024658
1751214519996228400,12.342228271484375,0.2420191764831543,2.0011959075927734,-1.8516716957092285
1751214520006222300,12.352222412109375,0.23372650146484375,2.0440502166748047,-2.148785352706909
1751214520016216300,12.36221630859375,0.27351832389831543,2.0356874465942383,-2.4442083835601807
1751214520026210300,12.372210205078124,0.2854166030883789,2.004833221435547,-2.651407241821289
1751214520036204300,12.382204345703125,-0.09661865234375,1.8878560066223145,-2.0935230255126953
1751214520046198300,12.3921982421875,-1.2025277614593506,1.3497710227966309,-0.6647763252258301
1751214520056192300,12.402192138671875,-1.5653660297393799,0.2795381546020508,0.38138675689697266
1751214520066186200,12.412186279296876,-1.036287546157837,-0.7555150985717773,0.9642982482910156
1751214520076180500,12.422180419921874,-0.5091855525970459,-1.4751100540161133,1.0333242416381836
1751214520086174500,12.432174560546875,-0.5229933261871338,-1.9407224655151367,0.9022688865661621
1751214520096168400,12.44216845703125,-0.3460233211517334,-2.1187524795532227,0.6325740814208984
1751214520106162400,12.452162353515625,0.2687680721282959,-2.0693187713623047,0.2397761344909668
1751214520116156400,12.462156494140626,0.08495473861694336,-1.9692506790161133,-0.2480616569519043
1751214520126150400,12.472150390625,-0.2353973388671875,-1.9101734161376953,-0.926903247833252
1751214520136144400,12.482144287109374,-0.26910829544067383,-1.9509611129760742,-1.561593770980835
1751214520146138400,12.492138427734375,0.10237503051757812,-2.1226940155029297,-1.8002874851226807
1751214520156132400,12.50213232421875,0.28660881519317627,-2.093478202819824,-1.8879101276397705
1751214520166126300,12.512126220703125,0.8146030902862549,-1.8166255950927734,-1.8956446647644043
1751214520176120600,12.52212060546875,1.5748581886291504,-1.5981922149658203,-1.9478213787078857
1751214520186114600,12.532114501953124,2.3146865367889404,-1.733367919921875,-1.9885843992233276
1751214520196108500,12.542108642578125,2.2251315116882324,-2.029667854309082,-1.664839267730713
1751214520206102500,12.5521025390625,0.9325743317604065,-2.5351505279541016,-0.38672876358032227
1751214520216096500,12.562096435546875,-1.409071922302246,-3.7733592987060547,1.8561787605285645
1751214520226090500,12.572090576171876,-1.1324750185012817,-5.971549987792969,3.757275104522705
1751214520236084500,12.58208447265625,1.1539958715438843,-7.263430595397949,3.893073320388794
1751214520246078500,12.592078369140625,1.4962191581726074,-6.493127822875977,3.748699903488159
1751214520256072400,12.602072509765625,-0.2401423454284668,-4.37327766418457,2.6731491088867188
1751214520306042600,12.652042724609375,-0.9127539992332458,0.3641815185546875,-1.0642597675323486
1751214520316036600,12.66203662109375,-0.9475733637809753,0.7796764373779297,-0.8365523815155029
1751214520326030600,12.672030517578126,-0.7816022634506226,1.2863273620605469,-0.7167953252792358
1751214520336024600,12.682024658203124,-0.5377619862556458,1.7554526329040527,-0.8278253674507141
1751214520346018600,12.6920185546875,-0.17348513007164001,1.7959246635437012,-0.9280199408531189
1751214520356012500,12.702012451171875,0.1267034411430359,1.504500389099121,-0.9453134536743164
1751214520366006500,12.712006591796875,0.38364318013191223,0.9774904251098633,-0.8139617443084717
1751214520376000500,12.72200048828125,0.5623788833618164,0.4541444778442383,-0.6219912171363831
1751214520385994500,12.731994384765626,0.7440732717514038,-0.0514373779296875,-0.3816806674003601
1751214520395988500,12.741988525390624,0.9358740448951721,-0.42479515075683594,-0.18617814779281616
1751214520405982500,12.751982421875,1.1164829730987549,-0.5086088180541992,-0.027959227561950684
1751214520415976400,12.7619765625,1.0417773723602295,-0.15990352630615234,-0.048963963985443115
1751214520425970400,12.771970458984375,0.8502969741821289,0.2814807891845703,-0.07880780100822449
1751214520435964200,12.781964111328126,0.7237095832824707,0.6052646636962891,-0.051097139716148376
1751214520445958100,12.791958251953124,0.7280231714248657,0.8930702209472656,-0.009599000215530396
1751214520455952100,12.8019521484375,0.8583290576934814,1.1307945251464844,0.032493483275175095
1751214520465946000,12.811946044921875,0.9465261697769165,1.3568429946899414,0.015172917395830154
1751214520475940000,12.821940185546875,1.0250723361968994,1.4135723114013672,0.04075153172016144
1751214520485934000,12.83193408203125,0.9315636157989502,1.4302682876586914,0.1715238392353058
1751214520495928000,12.841927978515624,0.7528547048568726,1.426025390625,0.35524845123291016
1751214520505922000,12.851922119140625,0.5228660106658936,1.362593650817871,0.6249520182609558
1751214520515916000,12.861916015625,0.3132694661617279,1.2448406219482422,0.9987360835075378
1751214520525910000,12.871909912109375,0.0056005120277404785,1.01568603515625,1.4602185487747192
1751214520535903700,12.88190380859375,-0.32072603702545166,0.8046550750732422,1.8932043313980103
