time,seconds_elapsed,z,y,x
1747930370619466200,0.20346630859375,9.606888771057129,1.8051471710205078,-0.7871017456054688
1747930370629506600,0.213506591796875,9.607386589050293,1.800371527671814,-0.7919401526451111
1747930370639547000,0.223546875,9.607497215270996,1.7978553771972656,-0.7962984442710876
1747930370649617700,0.23361767578125,9.607098579406738,1.799304485321045,-0.797837495803833
1747930370659658000,0.243657958984375,9.606456756591797,1.8030993938446045,-0.7970017194747925
1747930370669698300,0.2536982421875,9.605939865112305,1.807049036026001,-0.7942920923233032
1747930370679738600,0.263738525390625,9.605481147766113,1.8106075525283813,-0.7917254567146301
1747930370689778700,0.27377880859375,9.604910850524902,1.8138761520385742,-0.7911555171012878
1747930370699849500,0.283849365234375,9.604470252990723,1.8164640665054321,-0.790571928024292
1747930370709889800,0.293889892578125,9.604269027709961,1.8180553913116455,-0.7893480658531189
1747930370730001000,0.3140009765625,9.604446411132812,1.8182344436645508,-0.7867792248725891
1747930370740041200,0.324041259765625,9.604400634765625,1.8181180953979492,-0.7876040935516357
1747930370760152300,0.34415234375,9.603673934936523,1.819584608078003,-0.7930600047111511
1747930370770223000,0.35422314453125,9.60317611694336,1.821344017982483,-0.7950447201728821
1747930370780294000,0.3642939453125,9.602768898010254,1.8234682083129883,-0.7951093912124634
1747930370790334200,0.374334228515625,9.602612495422363,1.8251335620880127,-0.7931597828865051
1747930370800405000,0.384405029296875,9.602585792541504,1.8270459175109863,-0.7890752553939819
1747930370810475800,0.394475830078125,9.602657318115234,1.8288713693618774,-0.7839570641517639
1747930370820516000,0.40451611328125,9.602737426757812,1.8303401470184326,-0.7795424461364746
1747930370830587000,0.4145869140625,9.602849960327148,1.8306549787521362,-0.7774093151092529
1747930370840657700,0.42465771484375,9.602761268615723,1.8308724164962769,-0.7779902815818787
1747930370850728400,0.434728515625,9.602381706237793,1.8319883346557617,-0.7800449132919312
1747930370860768800,0.444768798828125,9.602032661437988,1.8331539630889893,-0.7816017866134644
1747930370870839600,0.454839599609375,9.601638793945312,1.8353804349899292,-0.7812200784683228
1747930370880910300,0.464910400390625,9.601325988769531,1.8382431268692017,-0.7783299088478088
1747930370890981000,0.474981201171875,9.600964546203613,1.8418521881103516,-0.7742331624031067
1747930370901052000,0.485052001953125,9.600513458251953,1.846074104309082,-0.7697611451148987
1747930370911122700,0.495122802734375,9.60007095336914,1.8498780727386475,-0.7661353945732117
1747930370931264500,0.515264404296875,9.599774360656738,1.8524707555770874,-0.7635849714279175
1747930370941304600,0.5253046875,9.599932670593262,1.851279854774475,-0.7644916772842407
1747930370951375400,0.535375244140625,9.600090980529785,1.8496298789978027,-0.7664963006973267
1747930370961446400,0.5454462890625,9.60030460357666,1.8480088710784912,-0.7677199244499207
1747930370971517200,0.55551708984375,9.600506782531738,1.8462488651275635,-0.7694304585456848
1747930370981588000,0.565587890625,9.600406646728516,1.8451939821243286,-0.7732033729553223
1747930370991658800,0.57565869140625,9.600154876708984,1.8448677062988281,-0.7770979404449463
1747930371001729500,0.5857294921875,9.599930763244629,1.8449196815490723,-0.7797368764877319
1747930371011800300,0.59580029296875,9.599780082702637,1.8451448678970337,-0.7810558080673218
1747930371021871000,0.60587109375,9.599618911743164,1.8455346822738647,-0.7821078300476074
1747930371031942000,0.61594189453125,9.599364280700684,1.8463070392608643,-0.7834179997444153
1747930371042012700,0.6260126953125,9.599021911621094,1.8476524353027344,-0.7844443917274475
1747930371052083500,0.63608349609375,9.598791122436523,1.8487286567687988,-0.7847244739532471
1747930371062154200,0.646154296875,9.598884582519531,1.8484145402908325,-0.784328818321228
1747930371072225000,0.65622509765625,9.599102973937988,1.846863031387329,-0.7853201627731323
1747930371082295800,0.6662958984375,9.59926700592041,1.844706654548645,-0.7883591651916504
1747930371092366600,0.67636669921875,9.599470138549805,1.841850996017456,-0.7925492525100708
1747930371102437400,0.686437255859375,9.59970474243164,1.8389201164245605,-0.7965047955513
1747930371112508200,0.696508056640625,9.60009479522705,1.8358749151229858,-0.7988365888595581
1747930371122579200,0.7065791015625,9.60048770904541,1.8337016105651855,-0.7991028428077698
1747930371132680400,0.716680419921875,9.600980758666992,1.8319872617721558,-0.7971001863479614
1747930371142751200,0.726751220703125,9.601462364196777,1.83025062084198,-0.7953035235404968
1747930371152822000,0.736822021484375,9.601606369018555,1.829300045967102,-0.7957528829574585
1747930371162892800,0.746892822265625,9.60145092010498,1.8290863037109375,-0.7980995774269104
1747930371172963600,0.756963623046875,9.601147651672363,1.8297245502471924,-0.8002856373786926
1747930371183034400,0.767034423828125,9.600869178771973,1.8305745124816895,-0.8016757965087891
1747930371193105200,0.777105224609375,9.600616455078125,1.8318842649459839,-0.8017129898071289
1747930371203176000,0.787176025390625,9.600519180297852,1.8328360319137573,-0.8007122874259949
1747930371213246700,0.797246826171875,9.600664138793945,1.8325960636138916,-0.7995196580886841
1747930371223317500,0.8073173828125,9.600960731506348,1.8311946392059326,-0.7991723418235779
1747930371233388300,0.81738818359375,9.6014404296875,1.828064203262329,-0.8005677461624146
1747930371243489800,0.82748974609375,9.601881980895996,1.8242127895355225,-0.8040528893470764
1747930371253560600,0.837560546875,9.602168083190918,1.8203569650650024,-0.8093491196632385
1747930371263631400,0.84763134765625,9.6025390625,1.8164560794830322,-0.8137073516845703
1747930371273702100,0.8577021484375,9.602819442749023,1.8134360313415527,-0.8171217441558838
1747930371283773000,0.86777294921875,9.60302734375,1.811123251914978,-0.8198111057281494
1747930371293843700,0.87784375,9.603196144104004,1.8089323043823242,-0.8226766586303711
1747930371303914500,0.88791455078125,9.603453636169434,1.8063973188400269,-0.8252121210098267
1747930371313985300,0.8979853515625,9.603697776794434,1.8038438558578491,-0.8279673457145691
1747930371324056000,0.90805615234375,9.603898048400879,1.8016854524612427,-0.8303400278091431
1747930371334157600,0.918157470703125,9.60403060913086,1.8001114130020142,-0.8322162628173828
1747930371344228400,0.928228271484375,9.604238510131836,1.7984626293182373,-0.8333831429481506
1747930371354299100,0.938299072265625,9.604493141174316,1.7963706254959106,-0.8349612355232239
1747930371364370000,0.948369873046875,9.60483455657959,1.7937180995941162,-0.8367334008216858
1747930371374440700,0.958440673828125,9.605151176452637,1.790869116783142,-0.8391905426979065
1747930371384511500,0.968511474609375,9.605469703674316,1.7878658771514893,-0.8419501781463623
1747930371394582300,0.978582275390625,9.605813980102539,1.7850322723388672,-0.8440274000167847
1747930371404653000,0.988653076171875,9.60617733001709,1.782593846321106,-0.8450468182563782
1747930371414754300,0.99875439453125,9.606546401977539,1.7806367874145508,-0.8449744582176208
1747930371424825000,1.0088251953125,9.60698413848877,1.778711199760437,-0.8440560698509216
1747930371434896000,1.018895751953125,9.607553482055664,1.7765705585479736,-0.8420783281326294
1747930371444966700,1.028966552734375,9.60812759399414,1.7746931314468384,-0.8394917845726013
1747930371455037700,1.03903759765625,9.60859203338623,1.7731636762619019,-0.8374065160751343
1747930371465108500,1.0491083984375,9.60892105102539,1.7719616889953613,-0.8361690640449524
1747930371475179300,1.05917919921875,9.60920238494873,1.7701960802078247,-0.8366883993148804
1747930371485280500,1.069280517578125,9.609698295593262,1.7671411037445068,-0.8374336361885071
1747930371495351300,1.079351318359375,9.61036491394043,1.7629895210266113,-0.8385359048843384
1747930371505422000,1.089422119140625,9.611034393310547,1.758315920829773,-0.8406733870506287
1747930371515492900,1.099492919921875,9.611742973327637,1.7532892227172852,-0.8430652618408203
1747930371525563600,1.109563720703125,9.61246395111084,1.7481446266174316,-0.8455339670181274
1747930371535634400,1.119634521484375,9.613080978393555,1.7433793544769287,-0.8483547568321228
1747930371545705200,1.129705322265625,9.613667488098145,1.7386279106140137,-0.8514483571052551
1747930371555806700,1.139806640625,9.614253997802734,1.7339259386062622,-0.8544085621833801
1747930371565877500,1.14987744140625,9.614812850952148,1.7293835878372192,-0.8573209047317505
1747930371575948300,1.1599482421875,9.615334510803223,1.725266695022583,-0.8597660064697266
1747930371586019000,1.17001904296875,9.615753173828125,1.722130298614502,-0.8613693714141846
1747930371596089900,1.18008984375,9.615928649902344,1.7203352451324463,-0.862985372543335
1747930371606160600,1.19016064453125,9.615763664245605,1.7202250957489014,-0.8650363087654114
1747930371616231400,1.2002314453125,9.615379333496094,1.721366047859192,-0.8670444488525391
1747930371626332700,1.210332763671875,9.614920616149902,1.7231543064117432,-0.8685690760612488
1747930371636403500,1.220403564453125,9.614500045776367,1.724955677986145,-0.8696575164794922
1747930371656545000,1.240544921875,9.614280700683594,1.7261600494384766,-0.8696848154067993
1747930371666616000,1.250615966796875,9.614572525024414,1.7249443531036377,-0.8688790798187256
1747930371676686800,1.260686767578125,9.615036964416504,1.7228304147720337,-0.8679325580596924
1747930371686788000,1.2707880859375,9.615371704101562,1.7209062576293945,-0.8680329322814941
1747930371696859000,1.28085888671875,9.615524291992188,1.7196747064590454,-0.868788480758667
1747930371706929700,1.2909296875,9.615438461303711,1.71952223777771,-0.8700493574142456
1747930371717000400,1.30100048828125,9.615094184875488,1.721068263053894,-0.8707841038703918
1747930371727071200,1.3110712890625,9.61480712890625,1.7230138778686523,-0.8701115250587463
1747930371737142000,1.32114208984375,9.614691734313965,1.7250254154205322,-0.8673948645591736
1747930371747212800,1.331212890625,9.614753723144531,1.7263877391815186,-0.8640036582946777
1747930371757314300,1.341314208984375,9.61472225189209,1.7275320291519165,-0.862052321434021
1747930371767385000,1.351385009765625,9.614616394042969,1.7282575368881226,-0.8617773652076721
1747930371777455900,1.361455810546875,9.614421844482422,1.7288904190063477,-0.8626688718795776
1747930371787526700,1.371526611328125,9.614173889160156,1.7298247814178467,-0.8635696768760681
1747930371797597400,1.381597412109375,9.613968849182129,1.7311558723449707,-0.8631840944290161
1747930371807668200,1.391668212890625,9.613892555236816,1.732741355895996,-0.8608384132385254
1747930371817739000,1.401739013671875,9.61398696899414,1.7340341806411743,-0.8571895956993103
1747930371827840300,1.41184033203125,9.614289283752441,1.7342957258224487,-0.853256344795227
1747930371837911000,1.4219111328125,9.614509582519531,1.734288215637207,-0.850784182548523
1747930371847981800,1.43198193359375,9.614654541015625,1.7339688539505005,-0.8497906923294067
1747930371858052600,1.442052490234375,9.614799499511719,1.7332134246826172,-0.8496972918510437
1747930371868123400,1.452123291015625,9.61489486694336,1.732418417930603,-0.8502388000488281
1747930371878194400,1.4621943359375,9.614907264709473,1.7319629192352295,-0.8510206937789917
1747930371888295700,1.472295654296875,9.61489200592041,1.7317854166030884,-0.8515647053718567
1747930371898366500,1.482366455078125,9.614779472351074,1.7323448657989502,-0.8516933917999268
1747930371908437200,1.492437255859375,9.614469528198242,1.7342143058776855,-0.8513916730880737
1747930371918508000,1.502508056640625,9.614005088806152,1.7372115850448608,-0.8505272269248962
1747930371928578800,1.512578857421875,9.613351821899414,1.7411633729934692,-0.8498253226280212
1747930371938649600,1.522649658203125,9.612577438354492,1.7455825805664062,-0.8495182991027832
1747930371948720400,1.532720458984375,9.611696243286133,1.7503498792648315,-0.849675714969635
1747930371958822000,1.54282177734375,9.610762596130371,1.7550537586212158,-0.8505449295043945
1747930371968892700,1.552892578125,9.609819412231445,1.7594645023345947,-0.8520892262458801
1747930371978963500,1.56296337890625,9.608920097351074,1.7631983757019043,-0.8544936776161194
1747930371989034200,1.5730341796875,9.608023643493652,1.7664391994476318,-0.8578794598579407
1747930371999105000,1.58310498046875,9.607158660888672,1.7692160606384277,-0.861836314201355
1747930372009175800,1.59317578125,9.606551170349121,1.7711663246154785,-0.8646015524864197
1747930372019277000,1.603277099609375,9.606138229370117,1.7727116346359253,-0.8660142421722412
1747930372029347800,1.613347900390625,9.605815887451172,1.7740570306777954,-0.8668295741081238
1747930372039418600,1.623418701171875,9.605609893798828,1.7751715183258057,-0.8668340444564819
1747930372049489400,1.633489501953125,9.605409622192383,1.776122808456421,-0.8671093583106995
1747930372059560200,1.643560302734375,9.60502815246582,1.7774426937103271,-0.8686174750328064
1747930372069631000,1.653630859375,9.604405403137207,1.779173493385315,-0.8719642758369446
1747930372079732500,1.663732421875,9.603493690490723,1.7818032503128052,-0.8766272664070129
1747930372089803300,1.67380322265625,9.602496147155762,1.7848519086837769,-0.8813358545303345
1747930372099874000,1.6838740234375,9.601497650146484,1.788504719734192,-0.8848170638084412
1747930372109944800,1.69394482421875,9.60053825378418,1.792778730392456,-0.8865712881088257
1747930372120015600,1.704015625,9.599502563476562,1.7982789278030396,-0.886646032333374
1747930372130086400,1.71408642578125,9.59839153289795,1.804892659187317,-0.8852314949035645
1747930372140157200,1.7241572265625,9.597262382507324,1.8123127222061157,-0.8823106288909912
1747930372150258400,1.734258544921875,9.596063613891602,1.8202106952667236,-0.8790735602378845
1747930372160329200,1.7443291015625,9.59487247467041,1.8273869752883911,-0.8771814703941345
1747930372170400300,1.754400146484375,9.593860626220703,1.8327382802963257,-0.8771079778671265
1747930372180471000,1.764470947265625,9.592988967895508,1.8364015817642212,-0.8789620995521545
1747930372190541800,1.774541748046875,9.592436790466309,1.8380566835403442,-0.8815178871154785
1747930372200612600,1.784612548828125,9.592242240905762,1.8380147218704224,-0.8837297558784485
1747930372210713900,1.7947138671875,9.592133522033691,1.837498664855957,-0.8859772682189941
1747930372220784600,1.80478466796875,9.592062950134277,1.8371634483337402,-0.8874339461326599
1747930372230855400,1.81485546875,9.591837882995605,1.8375051021575928,-0.8891627788543701
1747930372240926200,1.82492626953125,9.591133117675781,1.840084195137024,-0.8914231061935425
1747930372250997000,1.8349970703125,9.589967727661133,1.8447706699371338,-0.8942723870277405
1747930372261067800,1.84506787109375,9.588424682617188,1.8511604070663452,-0.8976104259490967
1747930372271138600,1.855138671875,9.586762428283691,1.8585582971572876,-0.9000681638717651
1747930372281240000,1.865239990234375,9.585007667541504,1.866642951965332,-0.902024507522583
1747930372291310800,1.875310791015625,9.58333969116211,1.8742350339889526,-0.9039980173110962
1747930372301381600,1.885381591796875,9.5816068649292,1.8826396465301514,-0.9049077033996582
1747930372311452400,1.895452392578125,9.57991886138916,1.891771912574768,-0.9037312269210815
1747930372321523200,1.905523193359375,9.57844066619873,1.900489330291748,-0.9011161923408508
1747930372331594000,1.915593994140625,9.57713508605957,1.9082895517349243,-0.8984956741333008
1747930372341695200,1.9256953125,9.576207160949707,1.913812279701233,-0.8966397643089294
1747930372351766000,1.93576611328125,9.57558822631836,1.9173275232315063,-0.8957474231719971
1747930372361836800,1.9458369140625,9.574886322021484,1.9206433296203613,-0.8961373567581177
1747930372371907600,1.955907470703125,9.574262619018555,1.9232409000396729,-0.8972278237342834
1747930372381978600,1.965978515625,9.573914527893066,1.924621343612671,-0.8979889750480652
1747930372392049400,1.97604931640625,9.573637008666992,1.9268065690994263,-0.896260678768158
1747930372402150700,1.986150634765625,9.573286056518555,1.9301831722259521,-0.8927305340766907
1747930372412221400,1.996221435546875,9.572761535644531,1.934376835823059,-0.8892714381217957
1747930372422292200,2.006292236328125,9.572161674499512,1.9392589330673218,-0.8850868940353394
1747930372432363000,2.016363037109375,9.571488380432129,1.9452706575393677,-0.8791645765304565
1747930372442433800,2.026433837890625,9.571050643920898,1.950819730758667,-0.8716005682945251
1747930372452504600,2.036504638671875,9.57088851928711,1.9552910327911377,-0.8633208870887756
1747930372462575400,2.046575439453125,9.571167945861816,1.9571614265441895,-0.8559510111808777
1747930372472676900,2.0566767578125,9.572236061096191,1.9543135166168213,-0.8504962921142578
1747930372482747600,2.06674755859375,9.574334144592285,1.9465742111206055,-0.8445963859558105
1747930372492818400,2.076818359375,9.577071189880371,1.9356036186218262,-0.8387722373008728
1747930372502889200,2.08688916015625,9.580122947692871,1.922280192375183,-0.8345431685447693
1747930372512960000,2.0969599609375,9.583556175231934,1.9068489074707031,-0.8305214643478394
1747930372523030800,2.10703076171875,9.587453842163086,1.8889338970184326,-0.8264723420143127
1747930372533132000,2.117132080078125,9.591711044311523,1.8698701858520508,-0.8204038739204407
1747930372543202800,2.127202880859375,9.59632682800293,1.851298451423645,-0.808439314365387
1747930372553273600,2.137273681640625,9.602718353271484,1.8302198648452759,-0.7800536751747131
1747930372563344400,2.147344482421875,9.612017631530762,1.8022583723068237,-0.7289512157440186
1747930372573415200,2.157415283203125,9.62420654296875,1.7643251419067383,-0.6574101448059082
1747930372583486000,2.16748583984375,9.638998985290527,1.7119842767715454,-0.5737488269805908
1747930372593587500,2.17758740234375,9.655797958374023,1.6436063051223755,-0.4842666983604431
1747930372603658200,2.187658203125,9.673576354980469,1.5609402656555176,-0.39468541741371155
1747930372613729000,2.19772900390625,9.69143009185791,1.4674091339111328,-0.30542445182800293
1747930372623799800,2.2077998046875,9.708629608154297,1.3661198616027832,-0.2159349024295807
1747930372633870600,2.21787060546875,9.724617004394531,1.2595428228378296,-0.1255633682012558
1747930372643941400,2.22794140625,9.738860130310059,1.1504993438720703,-0.03679333254694939
1747930372654012200,2.23801220703125,9.750997543334961,1.0421531200408936,0.048635050654411316
1747930372664113400,2.248113525390625,9.760866165161133,0.9375540614128113,0.12985602021217346
1747930372674184200,2.25818408203125,9.768526077270508,0.8394653797149658,0.20391882956027985
1747930372684255200,2.268255126953125,9.77421760559082,0.7495995759963989,0.27047932147979736
1747930372694326000,2.278325927734375,9.778142929077148,0.6706055402755737,0.32953184843063354
1747930372704396800,2.288396728515625,9.780624389648438,0.6050886511802673,0.3790265917778015
1747930372724568800,2.30856884765625,9.782798767089844,0.5205252170562744,0.4430348575115204
1747930372734639600,2.3186396484375,9.78315544128418,0.5022943019866943,0.4560389220714569
1747930372744710400,2.32871044921875,9.783308982849121,0.4980843961238861,0.4573453664779663
1747930372754781200,2.33878125,9.783307075500488,0.5060576796531677,0.4485476613044739
1747930372764852000,2.34885205078125,9.783197402954102,0.5239979028701782,0.4299641251564026
1747930372774922800,2.3589228515625,9.782922744750977,0.5502722263336182,0.4024810791015625
1747930372785024300,2.369024169921875,9.782267570495605,0.5842215418815613,0.36919358372688293
1747930372795095000,2.379094970703125,9.781118392944336,0.6234154105186462,0.33386486768722534
1747930372805165800,2.389165771484375,9.779594421386719,0.6633037328720093,0.29992958903312683
1747930372815236600,2.399236572265625,9.77804183959961,0.6984169483184814,0.2692541480064392
1747930372825307400,2.409307373046875,9.776815414428711,0.724392294883728,0.2439747452735901
1747930372835378200,2.419378173828125,9.776190757751465,0.7390581369400024,0.2242250293493271
1747930372845449000,2.429448974609375,9.776413917541504,0.7411410212516785,0.20695924758911133
1747930372855550200,2.43955029296875,9.777570724487305,0.7308439016342163,0.1880890280008316
1747930372865621000,2.44962109375,9.779497146606445,0.7099236845970154,0.16683615744113922
1747930372875691800,2.45969189453125,9.78193187713623,0.680749237537384,0.14420434832572937
1747930372885762600,2.469762451171875,9.784590721130371,0.6463156938552856,0.12017414718866348
1747930372895833600,2.47983349609375,9.787247657775879,0.6091067790985107,0.09567917138338089
1747930372905904400,2.489904296875,9.789731979370117,0.5713133811950684,0.07175108045339584
1747930372916005600,2.500005615234375,9.791851997375488,0.5361079573631287,0.0510566420853138
1747930372926076400,2.510076416015625,9.79344654083252,0.5075560212135315,0.0342206247150898
1747930372936147200,2.520147216796875,9.79448127746582,0.4880180060863495,0.019006000831723213
1747930372946218000,2.530218017578125,9.794940948486328,0.479046106338501,0.004304287955164909
1747930372956288800,2.540288818359375,9.794857025146484,0.48065486550331116,-0.011547154746949673
1747930372966359600,2.550359619140625,9.794328689575195,0.49061331152915955,-0.02842813916504383
1747930372976460800,2.560460693359375,9.793431282043457,0.5072313547134399,-0.04260866343975067
1747930372986531800,2.57053173828125,9.792256355285645,0.5286810994148254,-0.050993580371141434
1747930372996602600,2.5806025390625,9.790804862976074,0.5549034476280212,-0.0511389896273613
1747930373006673400,2.59067333984375,9.789082527160645,0.5850671529769897,-0.044143132865428925
1747930373016744200,2.600744140625,9.787096977233887,0.6181309223175049,-0.032357025891542435
1747930373026815000,2.61081494140625,9.784910202026367,0.6523993611335754,-0.01757783256471157
1747930373036885800,2.6208857421875,9.782608985900879,0.686252772808075,-0.0024947375059127808
1747930373046987000,2.630987060546875,9.780303955078125,0.718315839767456,0.008384965360164642
1747930373057057800,2.641057861328125,9.778162956237793,0.7468122243881226,0.013565066270530224
1747930373067128600,2.651128662109375,9.77629280090332,0.7708661556243896,0.015545358881354332
1747930373077199400,2.661199462890625,9.774698257446289,0.7908123135566711,0.01662883348762989
1747930373087270100,2.671270263671875,9.77338695526123,0.8068721890449524,0.015767110511660576
1747930373097341000,2.6813408203125,9.772493362426758,0.8177036046981812,0.011248432099819183
1747930373107442400,2.6914423828125,9.772197723388672,0.8213016390800476,0.00398999871686101
1747930373117513200,2.70151318359375,9.77258014678955,0.8167337775230408,-0.0033816948998719454
1747930373127584000,2.711583984375,9.773479461669922,0.8058177828788757,-0.011934885755181313
1747930373137654800,2.72165478515625,9.774548530578613,0.7925454378128052,-0.02150736376643181
1747930373147725600,2.7317255859375,9.775534629821777,0.7800109386444092,-0.030230915173888206
1747930373157796400,2.74179638671875,9.776220321655273,0.7710229158401489,-0.03801313042640686
1747930373167897600,2.751897705078125,9.7765531539917,0.7663754224777222,-0.0453643798828125
1747930373177968400,2.761968505859375,9.776599884033203,0.7654508948326111,-0.05071830004453659
1747930373188039200,2.7720390625,9.77635669708252,0.7682955265045166,-0.05436713248491287
1747930373198110200,2.782110107421875,9.775874137878418,0.7741759419441223,-0.05752510949969292
1747930373208181000,2.792180908203125,9.775062561035156,0.7841621041297913,-0.060342662036418915
1747930373218251800,2.802251708984375,9.773707389831543,0.8005958199501038,-0.06375102698802948
1747930373228322600,2.812322509765625,9.771713256835938,0.8243012428283691,-0.06738431751728058
1747930373238423800,2.822423828125,9.7691650390625,0.8535112142562866,-0.0729120671749115
1747930373248494600,2.83249462890625,9.766462326049805,0.8831760287284851,-0.08129526674747467
1747930373258565400,2.8425654296875,9.764015197753906,0.9089770317077637,-0.09029960632324219
1747930373268636200,2.85263623046875,9.762125015258789,0.9282591938972473,-0.09816271811723709
1747930373278707000,2.86270703125,9.760875701904297,0.9404194951057434,-0.10624610632658005
1747930373288777700,2.87277783203125,9.760185241699219,0.9463194608688354,-0.11678116768598557
1747930373298879200,2.882879150390625,9.759854316711426,0.9481550455093384,-0.1289440393447876
1747930373308950000,2.892949951171875,9.759542465209961,0.9494863152503967,-0.14212575554847717
1747930373319020800,2.903020751953125,9.758681297302246,0.9559541344642639,-0.15708209574222565
1747930373329091600,2.913091552734375,9.756583213806152,0.9739981293678284,-0.17551976442337036
1747930373339162400,2.923162353515625,9.752823829650879,1.0072780847549438,-0.1954432874917984
1747930373349233200,2.933233154296875,9.747312545776367,1.0560178756713867,-0.21238325536251068
1747930373359334400,2.94333447265625,9.740192413330078,1.1178258657455444,-0.22247903048992157
1747930373369405200,2.9534052734375,9.731790542602539,1.1885175704956055,-0.22374886274337769
1747930373379476000,2.96347607421875,9.72240161895752,1.2644107341766357,-0.2157684564590454
1747930373389546800,2.973546630859375,9.712295532226562,1.3423452377319336,-0.19950763881206512
1747930373399617500,2.983617431640625,9.701688766479492,1.4199707508087158,-0.17696508765220642
1747930373409688600,2.9936884765625,9.690901756286621,1.4945920705795288,-0.15163172781467438
1747930373419759400,3.00375927734375,9.68049430847168,1.5628879070281982,-0.1257084608078003
1747930373429860600,3.013860595703125,9.670923233032227,1.6228523254394531,-0.09988772869110107
1747930373439931400,3.023931396484375,9.662443161010742,1.6738866567611694,-0.07538900524377823
1747930373450002200,3.034002197265625,9.654922485351562,1.7175216674804688,-0.05457722395658493
1747930373460073000,3.044072998046875,9.648193359375,1.7553472518920898,-0.03888798877596855
1747930373470143700,3.054143798828125,9.642144203186035,1.7884618043899536,-0.0287595484405756
1747930373480214500,3.064214599609375,9.636606216430664,1.8181350231170654,-0.02442329376935959
1747930373490315800,3.074315673828125,9.631383895874023,1.8455909490585327,-0.025188487023115158
1747930373500386800,3.08438671875,9.626423835754395,1.8711940050125122,-0.03143114596605301
1747930373510457600,3.09445751953125,9.6217041015625,1.8950793743133545,-0.0431232824921608
1747930373520528400,3.1045283203125,9.617274284362793,1.917002558708191,-0.05942653492093086
1747930373530599200,3.11459912109375,9.613161087036133,1.9368910789489746,-0.07729807496070862
1747930373540670000,3.124669921875,9.609296798706055,1.9551929235458374,-0.09506864845752716
1747930373550771200,3.134771240234375,9.605401039123535,1.9733192920684814,-0.11260885745286942
1747930373560842000,3.144842041015625,9.601202011108398,1.9926034212112427,-0.12978166341781616
1747930373570912800,3.154912841796875,9.59661865234375,2.013443946838379,-0.1460607796907425
1747930373580983600,3.164983642578125,9.591803550720215,2.0350828170776367,-0.16161014139652252
1747930373591054300,3.175054443359375,9.587226867675781,2.0552608966827393,-0.17716041207313538
1747930373601125000,3.185125,9.58351993560791,2.071031332015991,-0.1933153122663498
1747930373611196000,3.19519580078125,9.58120059967041,2.0801279544830322,-0.20990268886089325
1747930373621297400,3.20529736328125,9.580526351928711,2.0815670490264893,-0.22577479481697083
1747930373631368200,3.2153681640625,9.581613540649414,2.075153112411499,-0.23835989832878113
1747930373641439000,3.22543896484375,9.58410930633545,2.0621531009674072,-0.25053349137306213
1747930373651509800,3.235509765625,9.587379455566406,2.0451819896698,-0.2641751766204834
1747930373661580500,3.24558056640625,9.5911226272583,2.025526285171509,-0.2792607247829437
1747930373671651300,3.2556513671875,9.595365524291992,2.0029375553131104,-0.2959776520729065
1747930373681752600,3.265752685546875,9.600149154663086,1.9772800207138062,-0.3128657042980194
1747930373691823400,3.2758232421875,9.605386734008789,1.949215054512024,-0.3278581202030182
1747930373701894100,3.28589404296875,9.610624313354492,1.9208654165267944,-0.3414159119129181
1747930373711965200,3.295965087890625,9.615635871887207,1.8935776948928833,-0.3525620102882385
1747930373722036000,3.306035888671875,9.620357513427734,1.8677990436553955,-0.36114466190338135
1747930373732106800,3.316106689453125,9.624787330627441,1.8438622951507568,-0.3660896420478821
1747930373742208000,3.3262080078125,9.628988265991211,1.8215906620025635,-0.3671290874481201
1747930373752278800,3.33627880859375,9.632797241210938,1.8019906282424927,-0.3639304041862488
1747930373762349600,3.346349609375,9.636122703552246,1.7854292392730713,-0.3574681580066681
1747930373772420400,3.35642041015625,9.638995170593262,1.771447777748108,-0.3494824171066284
1747930373782491100,3.3664912109375,9.641646385192871,1.758316993713379,-0.3425905704498291
1747930373792562000,3.37656201171875,9.644305229187012,1.7445197105407715,-0.3382415175437927
1747930373802632700,3.3866328125,9.647062301635742,1.7293938398361206,-0.3373197913169861
1747930373812734200,3.396734130859375,9.650071144104004,1.7118738889694214,-0.3405892550945282
1747930373822805000,3.406804931640625,9.653399467468262,1.691663146018982,-0.3471899926662445
1747930373832875800,3.416875732421875,9.656941413879395,1.6695772409439087,-0.3555085062980652
1747930373842946600,3.426946533203125,9.660343170166016,1.6472595930099487,-0.36700499057769775
1747930373853017300,3.437017333984375,9.663473129272461,1.6260652542114258,-0.3789549171924591
1747930373863088000,3.447088134765625,9.666133880615234,1.6081252098083496,-0.38754144310951233
1747930373873189400,3.457189453125,9.668069839477539,1.5952622890472412,-0.3923631012439728
1747930373883260200,3.46726025390625,9.669244766235352,1.5875953435897827,-0.39449167251586914
1747930373893331000,3.4773310546875,9.66960334777832,1.5852240324020386,-0.39524737000465393
1747930373903401700,3.487401611328125,9.66922664642334,1.5874208211898804,-0.39565256237983704
1747930373913472500,3.497472412109375,9.668373107910156,1.5918827056884766,-0.39858120679855347
1747930373923522800,3.507522705078125,9.667468070983887,1.596413016319275,-0.40237975120544434
1747930373933624300,3.517624267578125,9.666651725769043,1.60013747215271,-0.40716758370399475
1747930373943695000,3.527695068359375,9.666189193725586,1.6019141674041748,-0.41117075085639954
1747930373953766000,3.537765869140625,9.66610336303711,1.6016716957092285,-0.41412463784217834
1747930373963836700,3.547836669921875,9.666159629821777,1.6006557941436768,-0.416695773601532
1747930373973907500,3.557907470703125,9.666218757629395,1.599975347518921,-0.4179520606994629
1747930373983978200,3.567978271484375,9.666136741638184,1.6004616022109985,-0.41800180077552795
1747930373994049000,3.578049072265625,9.665902137756348,1.6026324033737183,-0.4150916337966919
1747930374004150300,3.588150390625,9.665651321411133,1.6061242818832397,-0.40736857056617737
1747930374014221000,3.598220947265625,9.665218353271484,1.6115185022354126,-0.39616087079048157
1747930374024291800,3.608291748046875,9.664669036865234,1.617843508720398,-0.3836008906364441
1747930374034362600,3.618362548828125,9.664031982421875,1.6248505115509033,-0.369770884513855
1747930374044433400,3.628433349609375,9.66341495513916,1.6324912309646606,-0.35182300209999084
1747930374054504400,3.63850439453125,9.66267204284668,1.6417841911315918,-0.3281652331352234
1747930374064605700,3.648605712890625,9.661587715148926,1.65346097946167,-0.30029532313346863
1747930374074676500,3.658676513671875,9.660045623779297,1.667580246925354,-0.27034613490104675
1747930374084747300,3.668747314453125,9.657885551452637,1.6847387552261353,-0.23934821784496307
1747930374094818000,3.678818115234375,9.65488338470459,1.7059167623519897,-0.20850086212158203
1747930374104888800,3.688888916015625,9.65114974975586,1.730146050453186,-0.17969544231891632
1747930374114959600,3.698959716796875,9.647102355957031,1.755000352859497,-0.1541696935892105
1747930374125060900,3.709060791015625,9.643284797668457,1.777759075164795,-0.13048198819160461
1747930374135131600,3.719131591796875,9.639948844909668,1.7972915172576904,-0.10732211917638779
1747930374145202700,3.72920263671875,9.637012481689453,1.814195156097412,-0.08418207615613937
1747930374155273500,3.7392734375,9.634159088134766,1.8301104307174683,-0.06359308212995529
1747930374165344300,3.74934423828125,9.6312894821167,1.8456445932388306,-0.0474347360432148
1747930374175415000,3.7594150390625,9.628238677978516,1.8617767095565796,-0.034519825130701065
1747930374185485800,3.76948583984375,9.624788284301758,1.879695177078247,-0.0243509653955698
1747930374195587000,3.779587158203125,9.620689392089844,1.9006412029266357,-0.01631883718073368
1747930374205657900,3.789657958984375,9.615954399108887,1.9245033264160156,-0.009483398869633675
1747930374215728600,3.799728759765625,9.610787391662598,1.9501627683639526,-0.004861749708652496
1747930374225799400,3.80979931640625,9.605189323425293,1.9775489568710327,-0.004909771028906107
1747930374235870200,3.8198701171875,9.599163055419922,2.006591796875,-0.0077748894691467285
1747930374245941000,3.82994091796875,9.593022346496582,2.035722017288208,-0.011702104471623898
1747930374256042500,3.84004248046875,9.586780548095703,2.0648906230926514,-0.016088193282485008
1747930374266113300,3.85011328125,9.580414772033691,2.0942025184631348,-0.019340697675943375
1747930374276184000,3.86018408203125,9.573721885681152,2.124574661254883,-0.02042274922132492
1747930374286254800,3.8702548828125,9.566704750061035,2.1559669971466064,-0.018928267061710358
1747930374296325600,3.88032568359375,9.559534072875977,2.1875648498535156,-0.016103465110063553
1747930374306396400,3.890396484375,9.552179336547852,2.219470977783203,-0.014571194536983967
1747930374316497700,3.90049755859375,9.544498443603516,2.2522659301757812,-0.015065652318298817
1747930374326568400,3.910568359375,9.536362648010254,2.286452531814575,-0.017152003943920135
1747930374336639200,3.92063916015625,9.527551651000977,2.322885513305664,-0.018983224406838417
1747930374346710000,3.9307099609375,9.517828941345215,2.3624038696289062,-0.019384076818823814
1747930374356781000,3.940781005859375,9.506904602050781,2.4059996604919434,-0.018488984555006027
1747930374366851800,3.950851806640625,9.494500160217285,2.4545085430145264,-0.015954282134771347
1747930374376922600,3.960922607421875,9.480879783630371,2.5066208839416504,-0.0122507493942976
1747930374387024000,3.97102392578125,9.467331886291504,2.5573346614837646,-0.007129056844860315
1747930374397094700,3.9810947265625,9.456441879272461,2.5973222255706787,0.0026095097418874502
1747930374407165400,3.99116552734375,9.451143264770508,2.616441249847412,0.022561687976121902
1747930374417236200,4.001236328125,9.453681945800781,2.606710910797119,0.05782270431518555
1747930374427307000,4.01130712890625,9.463958740234375,2.567596673965454,0.10636293888092041
1747930374437377800,4.021377685546875,9.478798866271973,2.509707450866699,0.155347540974617
1747930374447479300,4.031479248046875,9.493823051452637,2.450049877166748,0.1870018094778061
1747930374457550000,4.041550048828125,9.505745887756348,2.403252363204956,0.18855176866054535
1747930374467620900,4.051620849609375,9.512911796569824,2.377185583114624,0.15454991161823273
1747930374477691600,4.061691650390625,9.515161514282227,2.371258497238159,0.09596244990825653
1747930374487762400,4.071762451171875,9.513836860656738,2.378385543823242,0.023981397971510887
1747930374497833200,4.081833251953125,9.510612487792969,2.3907835483551025,-0.05278196930885315
1747930374507934500,4.0919345703125,9.505876541137695,2.406634569168091,-0.12964323163032532
1747930374518005200,4.102005126953125,9.499185562133789,2.4279160499572754,-0.2027166336774826
1747930374528076000,4.112075927734375,9.489635467529297,2.4584569931030273,-0.27056798338890076
1747930374538146800,4.122146728515625,9.47688102722168,2.4999117851257324,-0.33097755908966064
1747930374558288400,4.142288330078125,9.444182395935059,2.608665704727173,-0.4155636429786682
1747930374568359400,4.152359375,9.428040504455566,2.6645305156707764,-0.42744582891464233
1747930374578460700,4.162460693359375,9.413468360900879,2.7173428535461426,-0.41598057746887207
1747930374588531500,4.172531494140625,9.399858474731445,2.7692179679870605,-0.3801005780696869
1747930374598602200,4.182602294921875,9.38536262512207,2.8252663612365723,-0.3212568759918213
1747930374608673000,4.192673095703125,9.368338584899902,2.888918876647949,-0.2424158900976181
1747930374618743800,4.202743896484375,9.348153114318848,2.959777355194092,-0.14875097572803497
1747930374628814600,4.212814697265625,9.325538635253906,3.033557415008545,-0.04740029573440552
1747930374638915800,4.222915771484375,9.301466941833496,3.1064019203186035,0.05803259462118149
1747930374648986600,4.232986572265625,9.277971267700195,3.172081470489502,0.16591107845306396
1747930374659057700,4.2430576171875,9.257134437561035,3.2248334884643555,0.27621203660964966
1747930374669128400,4.25312841796875,9.240957260131836,3.259693145751953,0.38664400577545166
1747930374679199200,4.26319921875,9.2300443649292,3.27649188041687,0.4912029206752777
1747930374689270000,4.27327001953125,9.224621772766113,3.2772374153137207,0.5800550580024719
1747930374699371300,4.283371337890625,9.223786354064941,3.265570878982544,0.654365599155426
1747930374709442000,4.293442138671875,9.22679615020752,3.2442147731781006,0.7153279781341553
1747930374719512800,4.303512939453125,9.232366561889648,3.218383312225342,0.7588162422180176
1747930374729583600,4.31358349609375,9.239747047424316,3.191366672515869,0.7827225923538208
1747930374739654400,4.323654296875,9.24881362915039,3.1641273498535156,0.7862115502357483
1747930374749725200,4.33372509765625,9.259725570678711,3.135828733444214,0.771008312702179
1747930374759826700,4.34382666015625,9.272733688354492,3.1050610542297363,0.7385092973709106
1747930374769897500,4.3538974609375,9.287635803222656,3.0711259841918945,0.6916654706001282
1747930374779968300,4.36396826171875,9.303357124328613,3.035423755645752,0.6357196569442749
1747930374790039000,4.3740390625,9.318582534790039,3.000534772872925,0.575498640537262
1747930374800109800,4.38410986328125,9.332110404968262,2.9689781665802,0.5169833302497864
1747930374810180600,4.3941806640625,9.343363761901855,2.9420199394226074,0.4652526080608368
1747930374820251400,4.40425146484375,9.352373123168945,2.9196670055389404,0.4231468439102173
1747930374830352600,4.4143525390625,9.358954429626465,2.9031927585601807,0.3896409571170807
1747930374840423400,4.42442333984375,9.363197326660156,2.892382860183716,0.36746957898139954
1747930374850494200,4.434494140625,9.365333557128906,2.886683464050293,0.3577227294445038
1747930374860565000,4.44456494140625,9.365370750427246,2.886291265487671,0.35991933941841125
1747930374870636000,4.454635986328125,9.36353588104248,2.890331506729126,0.374929815530777
1747930374880706800,4.464706787109375,9.36027717590332,2.8971164226531982,0.4028785526752472
1747930374890808000,4.47480810546875,9.355948448181152,2.9059598445892334,0.43819376826286316
1747930374900878800,4.48487890625,9.351158142089844,2.915048360824585,0.478244811296463
1747930374910949600,4.49494970703125,9.346479415893555,2.9223594665527344,0.5229769945144653
1747930374921020400,4.5050205078125,9.34227180480957,2.9273171424865723,0.5684667229652405
1747930374931091200,4.51509130859375,9.338554382324219,2.9298582077026367,0.6145914196968079
1747930374941162000,4.525161865234375,9.335343360900879,2.929584264755249,0.6627897620201111
1747930374951263200,4.53526318359375,9.33278751373291,2.9271018505096436,0.7081862688064575
1747930374961334300,4.545334228515625,9.331151962280273,2.9218859672546387,0.750045895576477
1747930374971405000,4.555405029296875,9.330195426940918,2.9157650470733643,0.7849518656730652
1747930374991546600,4.575546630859375,9.329130172729492,2.905085802078247,0.8355821967124939
1747930375001617400,4.585617431640625,9.32850456237793,2.9027597904205322,0.8505116105079651
1747930375011688200,4.595688232421875,9.327471733093262,2.9046108722686768,0.8555077910423279
1747930375021789400,4.60578955078125,9.325944900512695,2.910839319229126,0.8509793281555176
1747930375031860200,4.615860107421875,9.324429512023926,2.9186229705810547,0.8408525586128235
1747930375041931000,4.625930908203125,9.323118209838867,2.9285054206848145,0.820794403553009
1747930375052001800,4.636001708984375,9.321880340576172,2.9394326210021973,0.7954044938087463
1747930375062072600,4.646072509765625,9.320252418518066,2.951655387878418,0.7687609791755676
1747930375072143400,4.656143310546875,9.317802429199219,2.9660520553588867,0.7426155805587769
1747930375082244900,4.666244873046875,9.314165115356445,2.9833173751831055,0.7186986207962036
1747930375092315600,4.676315673828125,9.309431076049805,3.0026917457580566,0.6990872621536255
1747930375102386400,4.686386474609375,9.304126739501953,3.022547483444214,0.6839652061462402
1747930375112457200,4.696457275390625,9.298636436462402,3.04150652885437,0.6745242476463318
1747930375122528000,4.706528076171875,9.292903900146484,3.0596556663513184,0.6714252829551697
1747930375142700000,4.726699951171875,9.280526161193848,3.0946545600891113,0.6821619272232056
1747930375152770800,4.736770751953125,9.27425479888916,3.111220359802246,0.6920107007026672
1747930375162841600,4.746841552734375,9.268545150756836,3.12656307220459,0.6993325352668762
1747930375172912600,4.75691259765625,9.26462173461914,3.137629747390747,0.7017508149147034
1747930375182983400,4.7669833984375,9.26356315612793,3.141561985015869,0.6981227397918701
1747930375193054200,4.77705419921875,9.2654447555542,3.1382062435150146,0.688168466091156
1747930375203125000,4.787125,9.269829750061035,3.1287107467651367,0.6721723675727844
1747930375213226200,4.797226318359375,9.275755882263184,3.1155190467834473,0.6513838768005371
1747930375223297000,4.807297119140625,9.282085418701172,3.1015195846557617,0.6275715231895447
1747930375233367800,4.817367919921875,9.288147926330566,3.08803129196167,0.6039456129074097
1747930375243438600,4.8274384765625,9.293375968933105,3.07645845413208,0.5822073221206665
1747930375253509400,4.83750927734375,9.297521591186523,3.0673670768737793,0.5636892914772034
1747930375263580200,4.847580078125,9.30052661895752,3.0610382556915283,0.5483062863349915
1747930375273681700,4.857681640625,9.302655220031738,3.0570731163024902,0.5341305136680603
1747930375283752400,4.86775244140625,9.304153442382812,3.055208206176758,0.5184754729270935
1747930375293823200,4.8778232421875,9.305131912231445,3.05547833442688,0.4989636540412903
1747930375303894000,4.88789404296875,9.305340766906738,3.0584349632263184,0.47643280029296875
1747930375313964800,4.89796484375,9.304357528686523,3.0651564598083496,0.45180052518844604
1747930375324035600,4.90803564453125,9.301772117614746,3.0764334201812744,0.42776089906692505
1747930375334136800,4.91813671875,9.29727554321289,3.0928921699523926,0.4062950611114502
1747930375344207600,4.92820751953125,9.291119575500488,3.11346697807312,0.3896375894546509
1747930375354278400,4.9382783203125,9.28337574005127,3.1377673149108887,0.37911301851272583
1747930375364349200,4.94834912109375,9.274025917053223,3.165560007095337,0.37690550088882446
1747930375374420000,4.958419921875,9.263145446777344,3.1965649127960205,0.38275355100631714
1747930375384491000,4.968490966796875,9.250791549682617,3.2305715084075928,0.3957926332950592
1747930375394592300,4.97859228515625,9.237190246582031,3.266751527786255,0.4159838557243347
1747930375404663000,4.9886630859375,9.223054885864258,3.303128480911255,0.44157007336616516
1747930375414733800,4.99873388671875,9.20958137512207,3.3364417552948,0.47135311365127563
1747930375424804600,5.0088046875,9.199080467224121,3.360568046569824,0.5038636922836304
1747930375434875400,5.01887548828125,9.193733215332031,3.370180606842041,0.5362229347229004
1747930375444946200,5.0289462890625,9.194976806640625,3.3614206314086914,0.5689001083374023
1747930375455017000,5.039016845703125,9.203095436096191,3.332646369934082,0.6057273149490356
1747930375465118500,5.049118408203125,9.216890335083008,3.2860195636749268,0.6491342186927795
1747930375475189200,5.059189208984375,9.233551979064941,3.2283718585968018,0.6996697187423706
1747930375485260000,5.069260009765625,9.250018119812012,3.1676414012908936,0.7573608160018921
1747930375495330800,5.079330810546875,9.262909889221191,3.114251136779785,0.8187299966812134
1747930375505401600,5.089401611328125,9.269970893859863,3.0769290924072266,0.8777962327003479
1747930375515472400,5.099472412109375,9.270719528198242,3.059943437576294,0.9278475642204285
1747930375525573600,5.10957373046875,9.265861511230469,3.0630640983581543,0.9653225541114807
1747930375535644400,5.11964453125,9.25721263885498,3.081765651702881,0.988489031791687
1747930375545715200,5.129715087890625,9.247367858886719,3.1082944869995117,0.9975370168685913
1747930375555786000,5.139785888671875,9.23779582977295,3.1372880935668945,0.9954589009284973
1747930375565856800,5.149856689453125,9.228604316711426,3.1669371128082275,0.9868001937866211
1747930375575927600,5.159927490234375,9.219758987426758,3.1962099075317383,0.975024402141571
1747930375586029000,5.170029052734375,9.211528778076172,3.223615884780884,0.9625037908554077
1747930375596099800,5.180099853515625,9.2041597366333,3.2477834224700928,0.9517078399658203
1747930375606170600,5.190170654296875,9.197760581970215,3.2678749561309814,0.9447694420814514
1747930375616241400,5.200241455078125,9.19256591796875,3.282923698425293,0.9431473612785339
1747930375626312200,5.210312255859375,9.188887596130371,3.2923617362976074,0.9460853338241577
1747930375636383000,5.220383056640625,9.186903953552246,3.295912981033325,0.9529628157615662
1747930375646453800,5.230453857421875,9.186412811279297,3.2950220108032227,0.9607535600662231
1747930375656555000,5.240554931640625,9.187323570251465,3.290855884552002,0.9662991166114807
1747930375666625800,5.250625732421875,9.189355850219727,3.285065174102783,0.9666851162910461
1747930375676696800,5.26069677734375,9.192184448242188,3.2786519527435303,0.9615479707717896
1747930375696838400,5.28083837890625,9.198919296264648,3.265939712524414,0.9401708245277405
1747930375706909200,5.2909091796875,9.202472686767578,3.259692668914795,0.9269760251045227
1747930375717010400,5.301010498046875,9.205649375915527,3.2539615631103516,0.9155008792877197
1747930375727081200,5.311081298828125,9.208508491516113,3.248284101486206,0.9068708419799805
1747930375737152000,5.321152099609375,9.211371421813965,3.24273419380188,0.897606372833252
1747930375747222800,5.331222900390625,9.214344024658203,3.2376785278320312,0.8852638006210327
1747930375757293600,5.34129345703125,9.217402458190918,3.2327489852905273,0.8713359236717224
1747930375767364400,5.3513642578125,9.220648765563965,3.227346897125244,0.856881856918335
1747930375777465900,5.3614658203125,9.22414493560791,3.2211854457855225,0.8423179984092712
1747930375787536600,5.37153662109375,9.227784156799316,3.214163064956665,0.8291824460029602
1747930375797607400,5.381607421875,9.231736183166504,3.2057619094848633,0.8176287412643433
1747930375807678200,5.39167822265625,9.23654842376709,3.1945786476135254,0.8069955706596375
1747930375817749000,5.4017490234375,9.242534637451172,3.180116891860962,0.7954810857772827
1747930375827819800,5.41181982421875,9.249640464782715,3.1626248359680176,0.7825227975845337
1747930375837890600,5.421890625,9.257417678833008,3.143096685409546,0.7691175937652588
1747930375847991800,5.43199169921875,9.265180587768555,3.1234233379364014,0.7556769251823425
1747930375858062600,5.4420625,9.272656440734863,3.104491710662842,0.7418505549430847
1747930375868133400,5.45213330078125,9.279675483703613,3.0869226455688477,0.7272804975509644
1747930375878204200,5.4622041015625,9.28624153137207,3.070756673812866,0.7117238640785217
1747930375888275200,5.472275146484375,9.292503356933594,3.0561294555664062,0.6926993727684021
1747930375898346000,5.482345947265625,9.29875373840332,3.0423123836517334,0.6692492365837097
1747930375908447200,5.492447265625,9.304949760437012,3.0290472507476807,0.6427764892578125
1747930375918518000,5.50251806640625,9.310650825500488,3.017350435256958,0.6146224141120911
1747930375928588800,5.5125888671875,9.315431594848633,3.007927179336548,0.5877943634986877
1747930375938659600,5.52265966796875,9.31886100769043,3.0019943714141846,0.5632392168045044
1747930375948730400,5.53273046875,9.321088790893555,2.9990644454956055,0.5415860414505005
1747930375958801200,5.54280126953125,9.322552680969238,2.997929334640503,0.5223247408866882
1747930375968902400,5.55290234375,9.32393741607666,2.9968557357788086,0.5034145712852478
1747930375978973400,5.562973388671875,9.325804710388184,2.994387626647949,0.483098566532135
1747930375989044200,5.573044189453125,9.328328132629395,2.990003824234009,0.461040198802948
1747930375999115000,5.583114990234375,9.33153247833252,2.9835853576660156,0.4371527135372162
1747930376009185800,5.593185791015625,9.335426330566406,2.975003719329834,0.4117714464664459
1747930376019256600,5.603256591796875,9.33979606628418,2.9647130966186523,0.3860844671726227
1747930376029327400,5.613327392578125,9.344252586364746,2.9537243843078613,0.3617258071899414
1747930376039428600,5.6234287109375,9.34873104095459,2.942049264907837,0.3405349552631378
1747930376049499400,5.63349951171875,9.353199005126953,2.92975115776062,0.3234384059906006
1747930376059570200,5.643570068359375,9.357561111450195,2.917161703109741,0.31082844734191895
1747930376069641000,5.653640869140625,9.361761093139648,2.904500722885132,0.3027942180633545
1747930376079711700,5.663711669921875,9.365827560424805,2.89174485206604,0.29912659525871277
1747930376089782500,5.673782470703125,9.369969367980957,2.8781659603118896,0.30036747455596924
1747930376099884000,5.683884033203125,9.374154090881348,2.863934278488159,0.30577924847602844
1747930376109954800,5.693954833984375,9.37814712524414,2.8499224185943604,0.3141615390777588
1747930376120025600,5.704025634765625,9.381893157958984,2.8363733291625977,0.3247392177581787
1747930376130096400,5.714096435546875,9.3853120803833,2.823561668395996,0.3373299539089203
1747930376140167200,5.724167236328125,9.388404846191406,2.8115932941436768,0.35098996758461
1747930376150238000,5.734238037109375,9.391173362731934,2.8004255294799805,0.3658784031867981
1747930376160339200,5.744339111328125,9.39391040802002,2.789191246032715,0.3811089098453522
1747930376170410000,5.754409912109375,9.396788597106934,2.777588367462158,0.39465442299842834
1747930376180480800,5.764480712890625,9.399890899658203,2.7655222415924072,0.4053611755371094
1747930376190551800,5.7745517578125,9.403097152709961,2.7534937858581543,0.41283223032951355
1747930376200622600,5.78462255859375,9.406489372253418,2.7410430908203125,0.4183809459209442
1747930376210693400,5.794693359375,9.41005802154541,2.727975606918335,0.4234752058982849
1747930376220764200,5.80476416015625,9.413485527038574,2.7153894901275635,0.42818209528923035
1747930376230865400,5.814865478515625,9.416540145874023,2.703996181488037,0.4330785274505615
1747930376240936200,5.824936279296875,9.419108390808105,2.6940536499023438,0.43917885422706604
1747930376251007000,5.835007080078125,9.4213285446167,2.68509840965271,0.4463145434856415
1747930376261077800,5.845077880859375,9.423356056213379,2.676616907119751,0.4543713331222534
1747930376271148500,5.8551484375,9.425276756286621,2.6684651374816895,0.4624340236186981
1747930376281219300,5.86521923828125,9.427275657653809,2.6600823402404785,0.46993720531463623
1747930376291320800,5.87532080078125,9.429611206054688,2.650613307952881,0.47651368379592896
1747930376301391600,5.8853916015625,9.432466506958008,2.639514446258545,0.48157963156700134
1747930376311462400,5.89546240234375,9.435888290405273,2.626542806625366,0.48546549677848816
1747930376321533200,5.905533203125,9.43989086151123,2.6115684509277344,0.488423228263855
1747930376331604000,5.91560400390625,9.444357872009277,2.5948381423950195,0.4912354648113251
1747930376341674800,5.9256748046875,9.449249267578125,2.5766308307647705,0.4930029809474945
1747930376351776000,5.93577587890625,9.454463958740234,2.5576348304748535,0.4919337332248688
1747930376361846800,5.9458466796875,9.459551811218262,2.5393433570861816,0.4888972342014313
1747930376371917600,5.95591748046875,9.464229583740234,2.522573471069336,0.4851458668708801
1747930376381988400,5.96598828125,9.468363761901855,2.507655620574951,0.4818018674850464
1747930376392059100,5.97605908203125,9.47192096710205,2.494607925415039,0.4796275794506073
1747930376402130200,5.986130126953125,9.474812507629395,2.4836723804473877,0.4792674481868744
1747930376412201000,5.996200927734375,9.477163314819336,2.474313259124756,0.4811774492263794
1747930376422302200,6.00630224609375,9.478946685791016,2.4667532444000244,0.4848523437976837
1747930376432373000,6.016373046875,9.480273246765137,2.4607956409454346,0.4891798198223114
1747930376442443800,6.02644384765625,9.481130599975586,2.4564898014068604,0.49417927861213684
1747930376452514600,6.0365146484375,9.4815092086792,2.4540011882781982,0.4992522895336151
1747930376462585300,6.04658544921875,9.481252670288086,2.4539928436279297,0.504141628742218
1747930376472656100,6.05665625,9.479850769042969,2.458437442779541,0.5088291168212891
1747930376482757400,6.06675732421875,9.4769926071167,2.4683837890625,0.5138898491859436
1747930376492828400,6.076828369140625,9.472786903381348,2.483319044113159,0.5194482207298279
1747930376502899200,6.086899169921875,9.467529296875,2.501971960067749,0.5257527232170105
1747930376512970000,6.096969970703125,9.461426734924316,2.5231258869171143,0.5344318747520447
1747930376523040800,6.107040771484375,9.454472541809082,2.5463685989379883,0.5471147298812866
1747930376533111600,6.117111572265625,9.446741104125977,2.5711793899536133,0.5643746256828308
1747930376543212800,6.127212890625,9.43814754486084,2.597907304763794,0.5853570699691772
1747930376553283600,6.13728369140625,9.428767204284668,2.6264326572418213,0.6087468862533569
1747930376563354400,6.147354248046875,9.418682098388672,2.65645694732666,0.6340827941894531
1747930376573425200,6.157425048828125,9.408082008361816,2.6874141693115234,0.660448431968689
1747930376583496000,6.167495849609375,9.397197723388672,2.7189652919769287,0.6857864856719971
1747930376593566700,6.177566650390625,9.386130332946777,2.7508509159088135,0.7097582817077637
1747930376603637500,6.187637451171875,9.374831199645996,2.783445119857788,0.731688916683197
1747930376613739000,6.197739013671875,9.363350868225098,2.81689453125,0.7504416704177856
1747930376623809800,6.207809814453125,9.351780891418457,2.8513846397399902,0.764313817024231
1747930376633880600,6.217880615234375,9.340474128723145,2.8861896991729736,0.7719139456748962
1747930376643951400,6.227951416015625,9.33002758026123,2.919682502746582,0.7722832560539246
1747930376654022100,6.238022216796875,9.321307182312012,2.948759078979492,0.767105221748352
1747930376664093000,6.248093017578125,9.315712928771973,2.9685821533203125,0.7585563659667969
1747930376674194200,6.258194091796875,9.314337730407715,2.9754228591918945,0.7485718131065369
1747930376684265000,6.268264892578125,9.317403793334961,2.967156171798706,0.7432124018669128
1747930376694335700,6.278335693359375,9.324745178222656,2.9421582221984863,0.7504847645759583
1747930376704406800,6.28840673828125,9.335356712341309,2.902376413345337,0.7731181383132935
1747930376714477600,6.2984775390625,9.347689628601074,2.853663921356201,0.8047928214073181
1747930376724548400,6.30854833984375,9.360333442687988,2.8033573627471924,0.8341056108474731
1747930376734649600,6.318649658203125,9.37175178527832,2.759762763977051,0.8511011600494385
1747930376744720400,6.328720458984375,9.379912376403809,2.7318406105041504,0.8512795567512512
1747930376754791200,6.338791259765625,9.383400917053223,2.7243549823760986,0.8366990685462952
1747930376764862000,6.348862060546875,9.380547523498535,2.7407174110412598,0.8149747848510742
1747930376774932700,6.3589326171875,9.37036418914795,2.78094744682312,0.7956088185310364
1747930376785003500,6.36900341796875,9.352866172790527,2.8419079780578613,0.7860254049301147
1747930376795074300,6.37907421875,9.328865051269531,2.9192850589752197,0.7876771688461304
1747930376805175800,6.38917578125,9.299542427062988,3.007633686065674,0.8018912076950073
1747930376815246600,6.39924658203125,9.266946792602539,3.0993731021881104,0.8294410109519958
1747930376825317400,6.4093173828125,9.233206748962402,3.1878159046173096,0.8695452809333801
1747930376835388200,6.41938818359375,9.200357437133789,3.267361879348755,0.9209544658660889
1747930376845459000,6.429458984375,9.169394493103027,3.335665225982666,0.9828176498413086
1747930376855529700,6.43952978515625,9.14061164855957,3.3924436569213867,1.0540132522583008
1747930376865631000,6.449630859375,9.113714218139648,3.439114570617676,1.1327358484268188
1747930376875701800,6.45970166015625,9.088650703430176,3.477102041244507,1.2151501178741455
1747930376885772500,6.4697724609375,9.065696716308594,3.506042242050171,1.3004586696624756
1747930376895843300,6.47984326171875,9.045960426330566,3.5240724086761475,1.3863282203674316
1747930376905914000,6.4899140625,9.031082153320312,3.5289411544799805,1.4685144424438477
1747930376915985200,6.499985107421875,9.022665023803711,3.518282651901245,1.5438909530639648
1747930376926086400,6.51008642578125,9.021685600280762,3.4913761615753174,1.6093025207519531
1747930376936157200,6.5201572265625,9.028178215026855,3.4491324424743652,1.6630934476852417
1747930376946228000,6.53022802734375,9.041507720947266,3.3925065994262695,1.7065846920013428
1747930376956298800,6.540298828125,9.061131477355957,3.323091745376587,1.7387768030166626
1747930376966369500,6.55036962890625,9.085734367370605,3.2444915771484375,1.7587231397628784
1747930376976440300,6.5604404296875,9.113238334655762,3.161345958709717,1.7678165435791016
1747930376986511000,6.570510986328125,9.141307830810547,3.0795490741729736,1.7672733068466187
1747930376996612400,6.5806123046875,9.168375015258789,3.0041158199310303,1.7568646669387817
1747930377006683400,6.590683349609375,9.192666053771973,2.9387223720550537,1.7404558658599854
1747930377016754200,6.600754150390625,9.213118553161621,2.8844499588012695,1.7230169773101807
1747930377026825000,6.610824951171875,9.228580474853516,2.8419978618621826,1.7107698917388916
1747930377036895700,6.620895751953125,9.238765716552734,2.8105878829956055,1.7076842784881592
1747930377046966500,6.630966552734375,9.244342803955078,2.788194179534912,1.714202642440796
1747930377057067800,6.64106787109375,9.246997833251953,2.7709062099456787,1.7278622388839722
1747930377067138600,6.651138671875,9.248887062072754,2.7544915676116943,1.7439230680465698
1747930377077209300,6.661209228515625,9.252103805541992,2.734717845916748,1.7579165697097778
1747930377087280000,6.671280029296875,9.257854461669922,2.7090377807617188,1.7673779726028442
1747930377097351000,6.681350830078125,9.266151428222656,2.6782588958740234,1.7708061933517456
1747930377107421700,6.691421630859375,9.27648639678955,2.6441261768341064,1.7679890394210815
1747930377117523200,6.701523193359375,9.288348197937012,2.6084539890289307,1.7586729526519775
1747930377127594000,6.711593994140625,9.30078125,2.5732421875,1.74479079246521
1747930377137664800,6.721664794921875,9.31277847290039,2.540210008621216,1.7291226387023926
1747930377147735600,6.731735595703125,9.32366943359375,2.510148048400879,1.7142735719680786
1747930377157806300,6.741806396484375,9.33329963684082,2.48354434967041,1.7005587816238403
1747930377167877000,6.751877197265625,9.34183120727539,2.4603865146636963,1.687328815460205
1747930377177948000,6.761947998046875,9.349629402160645,2.44049072265625,1.6729676723480225
1747930377188049200,6.772049072265625,9.356955528259277,2.4235856533050537,1.6565077304840088
1747930377198120000,6.782119873046875,9.364245414733887,2.409203290939331,1.6361615657806396
1747930377208191000,6.79219091796875,9.371405601501465,2.3976080417633057,1.612022876739502
1747930377218261800,6.80226171875,9.378154754638672,2.3891122341156006,1.5851645469665527
1747930377228332500,6.81233251953125,9.383894920349121,2.385361909866333,1.5565814971923828
1747930377238403300,6.8224033203125,9.38787841796875,2.3883697986602783,1.5276799201965332
1747930377248504600,6.832504638671875,9.389771461486816,2.398439645767212,1.5000171661376953
1747930377258575400,6.842575439453125,9.389419555664062,2.4152348041534424,1.475064992904663
1747930377268646100,6.852646240234375,9.387140274047852,2.4375500679016113,1.4526971578598022
1747930377278717000,6.862717041015625,9.383508682250977,2.4630768299102783,1.4329720735549927
1747930377288787700,6.87278759765625,9.378971099853516,2.4907219409942627,1.4147794246673584
1747930377298858500,6.8828583984375,9.373953819274902,2.519531011581421,1.396902322769165
1747930377308929300,6.89292919921875,9.368959426879883,2.548034191131592,1.3785868883132935
1747930377319030800,6.90303076171875,9.36436653137207,2.5751090049743652,1.3593536615371704
1747930377329101600,6.9131015625,9.359955787658691,2.601027727127075,1.3402472734451294
1747930377339172400,6.92317236328125,9.355629920959473,2.62579083442688,1.322042465209961
1747930377349243100,6.9332431640625,9.351380348205566,2.6495893001556396,1.304519772529602
1747930377359314000,6.94331396484375,9.34709358215332,2.6725172996520996,1.2883632183074951
1747930377369384700,6.953384765625,9.342733383178711,2.694943428039551,1.2731877565383911
1747930377379486000,6.96348583984375,9.338447570800781,2.7168657779693604,1.2579444646835327
1747930377389556700,6.973556640625,9.3344087600708,2.738075017929077,1.2418298721313477
1747930377399627500,6.98362744140625,9.330666542053223,2.758265256881714,1.2251596450805664
1747930377409698300,6.9936982421875,9.327478408813477,2.77687668800354,1.2072641849517822
1747930377419769300,7.003769287109375,9.324625015258789,2.7945539951324463,1.1883670091629028
1747930377429840100,7.013840087890625,9.321671485900879,2.811898946762085,1.1704925298690796
1747930377439941400,7.02394140625,9.318338394165039,2.829716444015503,1.1539839506149292
1747930377450012200,7.03401220703125,9.314786911010742,2.8477442264556885,1.1381990909576416
1747930377460083000,7.0440830078125,9.3114013671875,2.864708423614502,1.1232222318649292
1747930377470153700,7.05415380859375,9.308247566223145,2.880051612854004,1.1100529432296753
1747930377480224500,7.064224609375,9.305292129516602,2.89370059967041,1.0992804765701294
1747930377490295300,7.07429541015625,9.302462577819824,2.906102180480957,1.09048593044281
1747930377500396500,7.084396484375,9.300036430358887,2.9167873859405518,1.0826082229614258
1747930377510467600,7.094467529296875,9.298773765563965,2.923781394958496,1.0745713710784912
1747930377520538400,7.104538330078125,9.299603462219238,2.9247758388519287,1.0646404027938843
1747930377530609200,7.114609130859375,9.303361892700195,2.91812801361084,1.0499464273452759
1747930377540680000,7.124679931640625,9.310270309448242,2.903712511062622,1.0284478664398193
1747930377550750700,7.134750732421875,9.320178985595703,2.882114887237549,0.9990419745445251
1747930377560821500,7.144821533203125,9.332599639892578,2.854649305343628,0.9612164497375488
1747930377570922800,7.1549228515625,9.347010612487793,2.822549343109131,0.9148794412612915
1747930377580993500,7.16499365234375,9.362359046936035,2.787890672683716,0.862726092338562
1747930377591064300,7.175064208984375,9.377264022827148,2.7541725635528564,0.8073785305023193
1747930377601135000,7.185135009765625,9.390554428100586,2.725102424621582,0.7494605779647827
1747930377611206000,7.195205810546875,9.401704788208008,2.702451467514038,0.6892764568328857
1747930377621276700,7.205276611328125,9.410947799682617,2.6842360496520996,0.6319218277931213
1747930377631378200,7.215378173828125,9.419427871704102,2.665018320083618,0.5851902365684509
1747930377641449000,7.225448974609375,9.428239822387695,2.6405529975891113,0.5533120632171631
1747930377651519700,7.235519775390625,9.438193321228027,2.6080751419067383,0.5374254584312439
1747930377661590500,7.245590576171875,9.449677467346191,2.5659806728363037,0.5382605791091919
1747930377671661300,7.255661376953125,9.462870597839355,2.5121941566467285,0.5597838163375854
1747930377681732000,7.265732177734375,9.477362632751465,2.446357250213623,0.6044150590896606
1747930377691833300,7.275833251953125,9.492055892944336,2.371448516845703,0.6689540147781372
1747930377701904100,7.285904052734375,9.505295753479004,2.2947471141815186,0.7442272305488586
1747930377711975000,7.295974853515625,9.515910148620605,2.223836660385132,0.8200066089630127
1747930377722046000,7.3060458984375,9.522883415222168,2.16575026512146,0.8914092183113098
1747930377732116700,7.31611669921875,9.525960922241211,2.124666452407837,0.9551087021827698
1747930377742187500,7.3261875,9.526115417480469,2.1003165245056152,1.0060733556747437
1747930377752258300,7.33625830078125,9.524471282958984,2.090219259262085,1.0420262813568115
1747930377762359600,7.346359619140625,9.521442413330078,2.09161376953125,1.0666184425354004
1747930377772430300,7.356430419921875,9.517034530639648,2.1022467613220215,1.0848984718322754
1747930377782501000,7.366501220703125,9.511393547058105,2.1210901737213135,1.0976202487945557
1747930377792572000,7.376572021484375,9.505156517028809,2.1459903717041016,1.1032265424728394
1747930377802642700,7.386642578125,9.499011039733887,2.1736900806427,1.1019318103790283
1747930377812713500,7.39671337890625,9.493555068969727,2.201002359390259,1.0947071313858032
1747930377822815000,7.40681494140625,9.48939323425293,2.2270877361297607,1.0779057741165161
1747930377832885800,7.4168857421875,9.48740291595459,2.2497217655181885,1.0480068922042847
1747930377842956500,7.42695654296875,9.488161087036133,2.2658016681671143,1.0056476593017578
1747930377853027300,7.43702734375,9.491411209106445,2.273247241973877,0.9569976925849915
1747930377863098000,7.44709814453125,9.496275901794434,2.2738893032073975,0.9058428406715393
1747930377873169000,7.4571689453125,9.501769065856934,2.2711031436920166,0.8537313938140869
1747930377883239700,7.46723974609375,9.507081031799316,2.2665915489196777,0.8052021861076355
1747930377893341000,7.4773408203125,9.51180648803711,2.262031078338623,0.7610137462615967
1747930377903411700,7.48741162109375,9.515813827514648,2.257636070251465,0.7230100631713867
1747930377913482500,7.497482421875,9.51904582977295,2.254472255706787,0.689567506313324
1747930377923553300,7.50755322265625,9.521892547607422,2.2527105808258057,0.6551802158355713
1747930377933624300,7.517624267578125,9.524768829345703,2.2502191066741943,0.6210370659828186
1747930377943695000,7.527695068359375,9.527910232543945,2.2455577850341797,0.5888853073120117
1747930377953796400,7.53779638671875,9.53135871887207,2.239048957824707,0.5570065975189209
1747930377963867100,7.5478671875,9.534873962402344,2.2317895889282227,0.5250617265701294
1747930377973938000,7.55793798828125,9.537946701049805,2.2254912853240967,0.49511873722076416
1747930377984008700,7.5680087890625,9.540064811706543,2.2225847244262695,0.46654465794563293
1747930377994079500,7.57807958984375,9.540844917297363,2.2249338626861572,0.43856117129325867
1747930378004150300,7.588150390625,9.540160179138184,2.233262777328491,0.41022202372550964
1747930378014251500,7.59825146484375,9.538204193115234,2.246722459793091,0.38115614652633667
1747930378024322600,7.608322509765625,9.535444259643555,2.26345157623291,0.34994956851005554
1747930378034393300,7.618393310546875,9.5322265625,2.2820053100585938,0.3154216408729553
1747930378044464000,7.628464111328125,9.528877258300781,2.3009235858917236,0.27684128284454346
1747930378054535000,7.638534912109375,9.525758743286133,2.318605899810791,0.2331775724887848
1747930378064605700,7.648605712890625,9.523092269897461,2.3337411880493164,0.1864423155784607
1747930378074676500,7.658676513671875,9.520852088928223,2.346210479736328,0.1380854696035385
1747930378084777700,7.66877783203125,9.518908500671387,2.356407642364502,0.09013274312019348
1747930378094848500,7.6788486328125,9.517293930053711,2.3641908168792725,0.045697201043367386
1747930378104919300,7.688919189453125,9.516278266906738,2.3687100410461426,0.00651854882016778
1747930378114990000,7.698989990234375,9.516118049621582,2.3692119121551514,-0.026668019592761993
1747930378125060900,7.709060791015625,9.516904830932617,2.365557909011841,-0.05516866594552994
1747930378135131600,7.719131591796875,9.518654823303223,2.357771635055542,-0.080705426633358
1747930378145233200,7.729233154296875,9.520925521850586,2.3476600646972656,-0.10416489839553833
1747930378155304000,7.739303955078125,9.52301025390625,2.338240146636963,-0.12375065684318542
1747930378165374700,7.749374755859375,9.52464485168457,2.3308866024017334,-0.13599000871181488
1747930378175445500,7.759445556640625,9.525818824768066,2.3256304264068604,-0.14358817040920258
1747930378185516300,7.769516357421875,9.526686668395996,2.3218002319335938,-0.14790666103363037
1747930378195587000,7.779587158203125,9.5277681350708,2.3171961307525635,-0.1504131406545639
1747930378205688300,7.789688232421875,9.52978515625,2.3084092140197754,-0.15751619637012482
1747930378215759000,7.799759033203125,9.533357620239258,2.292343854904175,-0.1750597506761551
1747930378225830000,7.809829833984375,9.538959503173828,2.2666327953338623,-0.20249995589256287
1747930378235901000,7.81990087890625,9.546470642089844,2.231586456298828,-0.23516260087490082
1747930378245971700,7.8299716796875,9.555267333984375,2.1899633407592773,-0.2670462131500244
1747930378256042500,7.84004248046875,9.564156532287598,2.1467885971069336,-0.29765626788139343
1747930378266113300,7.85011328125,9.571772575378418,2.107569694519043,-0.33122533559799194
1747930378276214500,7.860214599609375,9.577094078063965,2.0782833099365234,-0.36110109090805054
1747930378286285300,7.870285400390625,9.579245567321777,2.0647926330566406,-0.3808998465538025
1747930378296356000,7.880356201171875,9.577696800231934,2.070218801498413,-0.3902626931667328
1747930378306427000,7.890427001953125,9.57275676727295,2.09313702583313,-0.38921552896499634
1747930378316497700,7.90049755859375,9.565129280090332,2.130077362060547,-0.37613025307655334
1747930378326568400,7.910568359375,9.555277824401855,2.177644968032837,-0.3534263074398041
1747930378336670000,7.920669921875,9.543685913085938,2.2320756912231445,-0.32599297165870667
1747930378346740700,7.93074072265625,9.531179428100586,2.28872013092041,-0.2979283332824707
1747930378356811500,7.9408115234375,9.518288612365723,2.345064163208008,-0.2706300616264343
1747930378366882300,7.95088232421875,9.505029678344727,2.400911331176758,-0.24582086503505707
1747930378376953000,7.960953125,9.491235733032227,2.456960678100586,-0.22400984168052673
1747930378387024000,7.97102392578125,9.476933479309082,2.513284921646118,-0.2037811279296875
1747930378397094700,7.9810947265625,9.462087631225586,2.5703206062316895,-0.18094778060913086
1747930378407196000,7.99119580078125,9.44631576538086,2.6294736862182617,-0.15290623903274536
1747930378417266700,8.0012666015625,9.429020881652832,2.6925859451293945,-0.1179833859205246
1747930378427337500,8.01133740234375,9.409417152404785,2.761788845062256,-0.0759982094168663
1747930378437408300,8.021408203125,9.386911392211914,2.83821964263916,-0.0281074196100235
1747930378447479300,8.031479248046875,9.361435890197754,2.921172857284546,0.02537045255303383
1747930378457550000,8.041550048828125,9.333645820617676,3.007674217224121,0.08564092218875885
1747930378467651300,8.0516513671875,9.303990364074707,3.0956814289093018,0.15141116082668304
1747930378477722000,8.06172216796875,9.273138999938965,3.1828296184539795,0.22106137871742249
1747930378487793000,8.07179296875,9.241144180297852,3.268864631652832,0.29353564977645874
1747930378497863700,8.08186376953125,9.208028793334961,3.3539350032806396,0.3656749427318573
1747930378507934500,8.0919345703125,9.17358112335205,3.439088821411133,0.4341435730457306
1747930378518005200,8.102005126953125,9.137860298156738,3.5246548652648926,0.49669450521469116
1747930378528106500,8.1121064453125,9.101139068603516,3.6108484268188477,0.5490245223045349
1747930378538177500,8.122177490234375,9.065335273742676,3.6935923099517822,0.5894543528556824
1747930378548248300,8.132248291015625,9.033778190612793,3.7650527954101562,0.6209809184074402
1747930378558319000,8.142319091796875,9.010473251342773,3.815840721130371,0.6489396095275879
1747930378568390000,8.152389892578125,8.998497009277344,3.8383123874664307,0.6817678809165955
1747930378578460700,8.162460693359375,8.999262809753418,3.828676462173462,0.724494457244873
1747930378588531500,8.172531494140625,9.012114524841309,3.7889068126678467,0.7722465395927429
1747930378598632700,8.1826328125,9.03525447845459,3.7245140075683594,0.8139820694923401
1747930378608703500,8.192703369140625,9.064811706542969,3.646455764770508,0.8384098410606384
1747930378618774300,8.202774169921875,9.095866203308105,3.568688154220581,0.8367046117782593
1747930378628845000,8.212844970703125,9.12442684173584,3.5027408599853516,0.8037540912628174
1747930378638915800,8.222915771484375,9.146998405456543,3.4566564559936523,0.744544506072998
1747930378648986600,8.232986572265625,9.161717414855957,3.4329206943511963,0.6696096658706665
1747930378659088100,8.243088134765625,9.168718338012695,3.4282593727111816,0.5933132767677307
1747930378669159000,8.253158935546875,9.16959285736084,3.4370570182800293,0.5249592661857605
1747930378679229700,8.263229736328125,9.16612720489502,3.4531922340393066,0.47745075821876526
1747930378689300500,8.273300537109375,9.160253524780273,3.4712605476379395,0.4587881863117218
1747930378699371300,8.283371337890625,9.153531074523926,3.4883337020874023,0.463441401720047
1747930378709442000,8.293442138671875,9.146820068359375,3.5039103031158447,0.47821852564811707
1747930378719543300,8.303543212890625,9.140198707580566,3.5188028812408447,0.495162695646286
1747930378729614000,8.313614013671875,9.132689476013184,3.536705255508423,0.5060356855392456
1747930378739684900,8.323684814453125,9.123235702514648,3.5612475872039795,0.5044540166854858
1747930378749756000,8.333755859375,9.111255645751953,3.5938262939453125,0.4897235333919525
1747930378759826700,8.34382666015625,9.09628677368164,3.6342573165893555,0.469170480966568
1747930378769897500,8.3538974609375,9.078343391418457,3.6811790466308594,0.4505411386489868
1747930378779968300,8.36396826171875,9.059083938598633,3.729971408843994,0.4366893172264099
1747930378790069500,8.374069580078125,9.04079532623291,3.7751200199127197,0.42763474583625793
1747930378800140300,8.384140380859375,9.026281356811523,3.810276746749878,0.42239075899124146
1747930378810211000,8.394211181640625,9.018146514892578,3.8307559490203857,0.4107649028301239
1747930378820281900,8.40428173828125,9.01860523223877,3.832648515701294,0.3820211589336395
1747930378830352600,8.4143525390625,9.02908706665039,3.8133411407470703,0.32308274507522583
1747930378840423400,8.42442333984375,9.051114082336426,3.7677905559539795,0.22688493132591248
1747930378850525000,8.43452490234375,9.084870338439941,3.691664695739746,0.08440142124891281
1747930378860595700,8.444595703125,9.1268310546875,3.5861551761627197,-0.10413642972707748
1747930378870666500,8.45466650390625,9.17354965209961,3.4511799812316895,-0.3251557946205139
1747930378880737300,8.4647373046875,9.220650672912598,3.2916059494018555,-0.5615310668945312
1747930378890808000,8.47480810546875,9.263197898864746,3.11745548248291,-0.8031203746795654
1747930378900878800,8.48487890625,9.29636287689209,2.9439480304718018,-1.0398093461990356
1747930378910949600,8.49494970703125,9.317113876342773,2.7896010875701904,-1.2569336891174316
1747930378921051000,8.50505078125,9.326147079467773,2.6663291454315186,-1.4436252117156982
1747930378931121700,8.51512158203125,9.327227592468262,2.5783238410949707,-1.5891737937927246
1747930378941192400,8.5251923828125,9.324320793151855,2.522585868835449,-1.6923331022262573
1747930378951263200,8.53526318359375,9.32069206237793,2.494006872177124,-1.75357186794281
1747930378961334300,8.545334228515625,9.31871509552002,2.4861068725585938,-1.7751619815826416
1747930378971405000,8.555405029296875,9.319920539855957,2.4888734817504883,-1.7649301290512085
1747930378981506300,8.56550634765625,9.323587417602539,2.4961326122283936,-1.7350616455078125
1747930378991577000,8.5755771484375,9.328097343444824,2.504910469055176,-1.6977715492248535
1747930379011718700,8.59571875,9.337846755981445,2.5240445137023926,-1.6137549877166748
1747930379021789400,8.60578955078125,9.343677520751953,2.530139923095703,-1.56985604763031
1747930379031860200,8.615860107421875,9.350970268249512,2.5283257961273193,-1.5288268327713013
1747930379041961500,8.62596142578125,9.360135078430176,2.514899969100952,-1.4945017099380493
1747930379052032500,8.636032470703125,9.371376991271973,2.4872021675109863,-1.4702016115188599
1747930379062103300,8.646103271484375,9.385513305664062,2.442697763442993,-1.4545665979385376
1747930379072174000,8.656174072265625,9.402017593383789,2.3817877769470215,-1.448972463607788
1747930379082244900,8.666244873046875,9.418957710266113,2.3068079948425293,-1.4602322578430176
1747930379092315600,8.676315673828125,9.434847831726074,2.219111442565918,-1.4931780099868774
1747930379102386400,8.686386474609375,9.448227882385254,2.124075174331665,-1.5458552837371826
1747930379112487700,8.69648779296875,9.457931518554688,2.0303943157196045,-1.6110312938690186
1747930379122558500,8.706558349609375,9.463047981262207,1.9429270029067993,-1.6870543956756592
1747930379132629200,8.716629150390625,9.463092803955078,1.8598945140838623,-1.7779349088668823
1747930379142700000,8.726699951171875,9.459047317504883,1.7796622514724731,-1.8787277936935425
1747930379152770800,8.736770751953125,9.452171325683594,1.7003624439239502,-1.9838353395462036
1747930379162841600,8.746841552734375,9.443638801574707,1.6242462396621704,-2.0856399536132812
1747930379172943000,8.756943115234375,9.433626174926758,1.55718994140625,-2.179964303970337
1747930379183014000,8.767013916015625,9.421645164489746,1.5031994581222534,-2.2678985595703125
1747930379193084700,8.777084716796875,9.408734321594238,1.4626307487487793,-2.3466615676879883
1747930379203155500,8.787155517578125,9.396576881408691,1.4347119331359863,-2.4117109775543213
1747930379213226200,8.797226318359375,9.386548042297363,1.420208215713501,-2.4588873386383057
1747930379223297000,8.807297119140625,9.378585815429688,1.4215192794799805,-2.4883313179016113
1747930379233367800,8.817367919921875,9.372016906738281,1.4387176036834717,-2.5031538009643555
1747930379243469000,8.827468994140625,9.36734390258789,1.4688169956207275,-2.5031673908233643
1747930379253540000,8.8375400390625,9.365626335144043,1.5053365230560303,-2.4878482818603516
1747930379263611000,8.84761083984375,9.366801261901855,1.5424774885177612,-2.4605278968811035
1747930379273681700,8.857681640625,9.370244026184082,1.5772030353546143,-2.425150156021118
1747930379293823200,8.8778232421875,9.378439903259277,1.6430613994598389,-2.34852933883667
1747930379303924500,8.887924560546875,9.38011360168457,1.6757605075836182,-2.3185508251190186
1747930379313995300,8.897995361328125,9.37766170501709,1.7094136476516724,-2.3038558959960938
1747930379324066000,8.908066162109375,9.369832992553711,1.745666742324829,-2.3085219860076904
1747930379334136800,8.91813671875,9.356910705566406,1.7851543426513672,-2.3306314945220947
1747930379344207600,8.92820751953125,9.33935832977295,1.8253700733184814,-2.369555711746216
1747930379354278400,8.9382783203125,9.320669174194336,1.861965298652649,-2.414250373840332
1747930379364380000,8.9483798828125,9.304275512695312,1.8942899703979492,-2.452040433883667
1747930379374450700,8.95845068359375,9.29029655456543,1.924986720085144,-2.480968475341797
1747930379384521500,8.968521484375,9.278657913208008,1.956347107887268,-2.499917507171631
1747930379394592300,8.97859228515625,9.269582748413086,1.9877926111221313,-2.508763074874878
1747930379404663000,8.9886630859375,9.262914657592773,2.018127202987671,-2.509178876876831
1747930379414733800,8.99873388671875,9.258509635925293,2.0470142364501953,-2.5020225048065186
1747930379424804600,9.0088046875,9.255824089050293,2.0732178688049316,-2.49035906791687
1747930379434905900,9.01890576171875,9.254334449768066,2.0935094356536865,-2.478893518447876
1747930379444976600,9.0289765625,9.254491806030273,2.107314348220825,-2.46657395362854
1747930379455047400,9.03904736328125,9.256950378417969,2.1142194271087646,-2.4513919353485107
1747930379465118500,9.049118408203125,9.26208209991455,2.1136977672576904,-2.4323883056640625
1747930379475189200,9.059189208984375,9.270031929016113,2.1032395362854004,-2.4110753536224365
1747930379485260000,9.069260009765625,9.281159400939941,2.0809247493743896,-2.3875105381011963
1747930379495361300,9.079361328125,9.295859336853027,2.0450363159179688,-2.361189126968384
1747930379505432000,9.08943212890625,9.31385612487793,1.9963310956954956,-2.331765651702881
1747930379515502800,9.0995029296875,9.33471393585205,1.9381567239761353,-2.297185182571411
1747930379525573600,9.10957373046875,9.35705852508545,1.8757141828536987,-2.257772207260132
1747930379535644400,9.11964453125,9.378567695617676,1.8154230117797852,-2.217453718185425
1747930379545715200,9.129715087890625,9.397978782653809,1.7609106302261353,-2.178894281387329
1747930379555816700,9.139816650390625,9.415414810180664,1.7099584341049194,-2.1439199447631836
1747930379565887500,9.149887451171875,9.433473587036133,1.6617324352264404,-2.102046012878418
1747930379575958300,9.159958251953125,9.455881118774414,1.6105901002883911,-2.0402672290802
1747930379586029000,9.170029052734375,9.48194694519043,1.554934024810791,-1.9609341621398926
1747930379596099800,9.180099853515625,9.509300231933594,1.4982339143753052,-1.8705337047576904
1747930379606170600,9.190170654296875,9.536993026733398,1.4406155347824097,-1.772222876548767
1747930379616241400,9.200241455078125,9.564510345458984,1.3792856931686401,-1.6697620153427124
1747930379626342700,9.2103427734375,9.590157508850098,1.3148629665374756,-1.5717463493347168
1747930379636413400,9.220413330078125,9.61368465423584,1.2483106851577759,-1.479588270187378
1747930379646484200,9.230484130859375,9.63581657409668,1.1780916452407837,-1.3905102014541626
1747930379656555000,9.240554931640625,9.656913757324219,1.1016185283660889,-1.3041596412658691
1747930379666625800,9.250625732421875,9.677712440490723,1.0154423713684082,-1.217014193534851
1747930379676696800,9.26069677734375,9.698302268981934,0.9190998077392578,-1.126302719116211
1747930379686798000,9.270798095703125,9.71837043762207,0.815977156162262,-1.0285152196884155
1747930379696868900,9.280868896484375,9.736440658569336,0.711227536201477,-0.930731475353241
1747930379706939600,9.290939697265625,9.751569747924805,0.6089733242988586,-0.8404974937438965
1747930379717010400,9.301010498046875,9.76350212097168,0.513571560382843,-0.7619972825050354
1747930379727081200,9.311081298828125,9.772622108459473,0.4275309443473816,-0.6953120827674866
1747930379737152000,9.321152099609375,9.779316902160645,0.3516685962677002,-0.6416231393814087
1747930379747222800,9.331222900390625,9.783899307250977,0.2836324870586395,-0.6043667197227478
1747930379757324000,9.341323974609375,9.786947250366211,0.2214535027742386,-0.5805344581604004
1747930379767395000,9.35139501953125,9.788468360900879,0.16736745834350586,-0.5729572772979736
1747930379777465900,9.3614658203125,9.788031578063965,0.12768985331058502,-0.5903493165969849
1747930379787536600,9.37153662109375,9.785500526428223,0.10990088433027267,-0.6342669129371643
1747930379797607400,9.381607421875,9.781050682067871,0.11861475557088852,-0.6981282234191895
1747930379807678200,9.39167822265625,9.775577545166016,0.1539030820131302,-0.7647141218185425
1747930379817779500,9.401779541015625,9.77125358581543,0.21177299320697784,-0.8050803542137146
1747930379827850200,9.411850341796875,9.77025032043457,0.28168562054634094,-0.7957687973976135
1747930379837921000,9.421921142578125,9.772290229797363,0.35244104266166687,-0.7406147718429565
1747930379847991800,9.43199169921875,9.775124549865723,0.41567957401275635,-0.6667371988296509
1747930379858062600,9.4420625,9.777715682983398,0.46804243326187134,-0.5895682573318481
1747930379868133400,9.45213330078125,9.780263900756836,0.5057151317596436,-0.5109716653823853
1747930379878235000,9.46223486328125,9.783011436462402,0.5274180173873901,-0.42998558282852173
1747930379888305700,9.4723056640625,9.785845756530762,0.5336920022964478,-0.35040369629859924
1747930379898376400,9.48237646484375,9.788612365722656,0.525303065776825,-0.27841582894325256
1747930379908447200,9.492447265625,9.791248321533203,0.5016942620277405,-0.22392043471336365
1747930379918518000,9.50251806640625,9.793716430664062,0.46438583731651306,-0.19453652203083038
1747930379928588800,9.5125888671875,9.795971870422363,0.41695907711982727,-0.18831369280815125
1747930379938659600,9.52265966796875,9.797798156738281,0.3651227355003357,-0.20053206384181976
1747930379948760800,9.5327607421875,9.798975944519043,0.31593409180641174,-0.22499802708625793
1747930379958831600,9.54283154296875,9.799304008483887,0.2767307460308075,-0.2596845030784607
1747930379968902400,9.55290234375,9.798481941223145,0.2527018189430237,-0.31027817726135254
1747930379978973400,9.562973388671875,9.795746803283691,0.24722565710544586,-0.3906671404838562
1747930379989044200,9.573044189453125,9.789655685424805,0.26501235365867615,-0.5126523971557617
1747930379999115000,9.583114990234375,9.778006553649902,0.3079032897949219,-0.6827758550643921
1747930380009216300,9.59321630859375,9.758284568786621,0.37527182698249817,-0.8974549174308777
1747930380019287000,9.603287109375,9.730456352233887,0.4598384499549866,-1.1301207542419434
1747930380029357800,9.61335791015625,9.70062255859375,0.5443567037582397,-1.3311537504196167
1747930380039428600,9.6234287109375,9.67776107788086,0.610358476638794,-1.4624619483947754
1747930380049499400,9.63349951171875,9.663934707641602,0.649396538734436,-1.535263180732727
1747930380059570200,9.643570068359375,9.654596328735352,0.6640049815177917,-1.5868993997573853
1747930380069641000,9.653640869140625,9.645485877990723,0.6633250117301941,-1.6416445970535278
1747930380079742500,9.663742431640625,9.636552810668945,0.6532328128814697,-1.697209358215332
1747930380089813200,9.673813232421875,9.630379676818848,0.6338971853256226,-1.7390657663345337
1747930380099884000,9.683884033203125,9.627278327941895,0.6079835891723633,-1.7652921676635742
1747930380109954800,9.693954833984375,9.62536334991455,0.5834699869155884,-1.7839045524597168
1747930380120025600,9.704025634765625,9.623147964477539,0.56780606508255,-1.800840139389038
1747930380130096400,9.714096435546875,9.621236801147461,0.5626664161682129,-1.8126177787780762
1747930380140197600,9.72419775390625,9.6205415725708,0.5669492483139038,-1.8149787187576294
1747930380150268400,9.734268310546875,9.621357917785645,0.5783836841583252,-1.807021141052246
1747930380160339200,9.744339111328125,9.623812675476074,0.5935608744621277,-1.7889378070831299
1747930380180480800,9.764480712890625,9.633011817932129,0.620589017868042,-1.7292603254318237
1747930380190551800,9.7745517578125,9.639366149902344,0.6257079839706421,-1.6915981769561768
1747930380200622600,9.78462255859375,9.646909713745117,0.6206234693527222,-1.6499536037445068
1747930380210723800,9.794723876953125,9.655313491821289,0.6045628786087036,-1.606176495552063
1747930380220794600,9.804794677734375,9.663958549499512,0.5786558985710144,-1.5631564855575562
1747930380230865400,9.814865478515625,9.67285442352295,0.5439882278442383,-1.5199824571609497
1747930380240936200,9.824936279296875,9.682157516479492,0.5013306736946106,-1.4747517108917236
1747930380251007000,9.835007080078125,9.69172191619873,0.45062482357025146,-1.4275368452072144
1747930380261077800,9.845077880859375,9.701360702514648,0.3920168876647949,-1.37852144241333
1747930380271179000,9.855178955078125,9.71034049987793,0.32830843329429626,-1.3311281204223633
1747930380281250000,9.86525,9.71806526184082,0.2657093107700348,-1.2880157232284546
1747930380291320800,9.87532080078125,9.724666595458984,0.21113380789756775,-1.247663140296936
1747930380301391600,9.8853916015625,9.729836463928223,0.1721254140138626,-1.2128682136535645
1747930380311462400,9.89546240234375,9.733281135559082,0.15174923837184906,-1.187679409980774
1747930380321533200,9.905533203125,9.735657691955566,0.14536580443382263,-1.1688586473464966
1747930380331634400,9.915634521484375,9.738009452819824,0.14600303769111633,-1.149021029472351
1747930380341705200,9.925705322265625,9.740923881530762,0.14940500259399414,-1.1235941648483276
1747930380351776000,9.93577587890625,9.744352340698242,0.15439604222774506,-1.0927715301513672
1747930380361846800,9.9458466796875,9.748281478881836,0.16083979606628418,-1.0561795234680176
1747930380371917600,9.95591748046875,9.752670288085938,0.16694198548793793,-1.0138695240020752
1747930380381988400,9.96598828125,9.757397651672363,0.16981138288974762,-0.9668248891830444
1747930380392059100,9.97605908203125,9.76235580444336,0.16739284992218018,-0.9158485531806946
1747930380402160600,9.98616064453125,9.767022132873535,0.15944834053516388,-0.8661585450172424
1747930380412231400,9.9962314453125,9.771382331848145,0.14947384595870972,-0.8173866271972656
1747930380422302200,10.00630224609375,9.77542781829834,0.14111965894699097,-0.7690721750259399
1747930380432373000,10.016373046875,9.7787504196167,0.13590648770332336,-0.7266079187393188
1747930380442443800,10.02644384765625,9.781628608703613,0.13464604318141937,-0.6870200634002686
1747930380452514600,10.0365146484375,9.784151077270508,0.13782787322998047,-0.6494386196136475
1747930380462615800,10.04661572265625,9.786223411560059,0.14653950929641724,-0.6154130697250366
1747930380472686600,10.0566865234375,9.787646293640137,0.1610230803489685,-0.5885913372039795
1747930380482757400,10.06675732421875,9.788261413574219,0.18103069067001343,-0.5723037123680115
1747930380492828400,10.076828369140625,9.788318634033203,0.2068862020969391,-0.5624867677688599
1747930380502899200,10.086899169921875,9.78786563873291,0.23750117421150208,-0.5582728385925293
1747930380512970000,10.096969970703125,9.787036895751953,0.2711603343486786,-0.5574637055397034
1747930380523040800,10.107040771484375,9.78597640991211,0.3047710061073303,-0.5587189197540283
1747930380533142000,10.11714208984375,9.784822463989258,0.33564987778663635,-0.5612334609031677
1747930380543212800,10.127212890625,9.783699035644531,0.36114683747291565,-0.5649782419204712
1747930380553283600,10.13728369140625,9.782878875732422,0.38087859749794006,-0.5662082433700562
1747930380563354400,10.147354248046875,9.782587051391602,0.394854873418808,-0.5616647601127625
1747930380573425200,10.157425048828125,9.7830171585083,0.4029480218887329,-0.5482534170150757
1747930380583496000,10.167495849609375,9.784235954284668,0.4063563048839569,-0.5234386920928955
1747930380593597400,10.177597412109375,9.785913467407227,0.40770190954208374,-0.4899575710296631
1747930380603668200,10.187668212890625,9.787396430969238,0.4100114405155182,-0.45731493830680847
1747930380613739000,10.197739013671875,9.788336753845215,0.4162786602973938,-0.43078234791755676
1747930380623809800,10.207809814453125,9.78858470916748,0.43007782101631165,-0.411138117313385
1747930380633880600,10.217880615234375,9.787983894348145,0.45431333780288696,-0.39920371770858765
1747930380643951400,10.227951416015625,9.78639030456543,0.48912662267684937,-0.3971160054206848
1747930380654052600,10.238052490234375,9.783951759338379,0.5312851667404175,-0.4030005931854248
1747930380664123400,10.248123291015625,9.781205177307129,0.5756628513336182,-0.40868809819221497
1747930380674194200,10.258194091796875,9.778696060180664,0.6180387139320374,-0.40684279799461365
1747930380684265000,10.268264892578125,9.776640892028809,0.6571545004844666,-0.39474737644195557
1747930380694335700,10.278335693359375,9.774704933166504,0.6953443884849548,-0.376876562833786
1747930380704406800,10.28840673828125,9.77250862121582,0.7337105870246887,-0.3607533574104309
1747930380714477600,10.2984775390625,9.769967079162598,0.7722448706626892,-0.34895747900009155
1747930380724578800,10.308578857421875,9.767203330993652,0.8096404075622559,-0.3414978086948395
1747930380734649600,10.318649658203125,9.764466285705566,0.8438764810562134,-0.3368353545665741
1747930380744720400,10.328720458984375,9.7620267868042,0.8731669783592224,-0.3328828513622284
1747930380754791200,10.338791259765625,9.759971618652344,0.8971568942070007,-0.32930898666381836
1747930380764862000,10.348862060546875,9.758270263671875,0.9167035222053528,-0.3259194791316986
1747930380774932700,10.3589326171875,9.756763458251953,0.9336802363395691,-0.3227952718734741
1747930380785034000,10.369033935546875,9.755319595336914,0.9496778249740601,-0.3197513520717621
1747930380795105000,10.37910498046875,9.75384521484375,0.9656374454498291,-0.3169323801994324
1747930380805175800,10.38917578125,9.752217292785645,0.9825589060783386,-0.3150087893009186
1747930380815246600,10.39924658203125,9.750272750854492,1.0020188093185425,-0.31389564275741577
1747930380825317400,10.4093173828125,9.747893333435059,1.0249356031417847,-0.31381651759147644
1747930380835388200,10.41938818359375,9.745016098022461,1.051381230354309,-0.31565770506858826
1747930380845459000,10.429458984375,9.741800308227539,1.080069899559021,-0.31804102659225464
1747930380855560200,10.439560302734375,9.73838996887207,1.110148549079895,-0.3189259469509125
1747930380865631000,10.449630859375,9.734889030456543,1.1406043767929077,-0.31833580136299133
1747930380875701800,10.45970166015625,9.731293678283691,1.1712652444839478,-0.31693634390830994
1747930380885772500,10.4697724609375,9.727508544921875,1.2026618719100952,-0.3155597150325775
1747930380895843300,10.47984326171875,9.72363567352295,1.2338043451309204,-0.31464818120002747
1747930380905914000,10.4899140625,9.719998359680176,1.2625188827514648,-0.3131428360939026
1747930380916015600,10.500015625,9.716681480407715,1.288534164428711,-0.3101159632205963
1747930380926086400,10.51008642578125,9.713626861572266,1.311791181564331,-0.3082917034626007
1747930380936157200,10.5201572265625,9.710698127746582,1.3329904079437256,-0.30962979793548584
1747930380946228000,10.53022802734375,9.707897186279297,1.3523739576339722,-0.3133915066719055
1747930380956298800,10.540298828125,9.705329895019531,1.3693196773529053,-0.3192536532878876
1747930380966369500,10.55036962890625,9.703343391418457,1.381910800933838,-0.3253369629383087
1747930380976470800,10.560470703125,9.7023286819458,1.3883026838302612,-0.3283633887767792
1747930380986541600,10.57054150390625,9.702527046203613,1.3875656127929688,-0.325608491897583
1747930380996612400,10.5806123046875,9.703996658325195,1.3793420791625977,-0.31664085388183594
1747930381016754200,10.600754150390625,9.710321426391602,1.3402894735336304,-0.2892509698867798
1747930381026825000,10.610824951171875,9.71460247039795,1.3116096258163452,-0.27669036388397217
1747930381036895700,10.620895751953125,9.719143867492676,1.2793926000595093,-0.26792019605636597
1747930381046997000,10.6309970703125,9.723519325256348,1.2464665174484253,-0.26434147357940674
1747930381057067800,10.64106787109375,9.72729206085205,1.2160035371780396,-0.26740938425064087
1747930381067138600,10.651138671875,9.730168342590332,1.1905474662780762,-0.27716493606567383
1747930381077209300,10.661209228515625,9.732025146484375,1.1709004640579224,-0.2950804531574249
1747930381087280000,10.671280029296875,9.732996940612793,1.1561899185180664,-0.3199732005596161
1747930381097351000,10.681350830078125,9.7334566116333,1.144246220588684,-0.34771016240119934
1747930381107452400,10.691452392578125,9.733872413635254,1.1332459449768066,-0.3713163733482361
1747930381117523200,10.701523193359375,9.734463691711426,1.1232397556304932,-0.38592207431793213
1747930381127594000,10.711593994140625,9.735241889953613,1.1146025657653809,-0.391293466091156
1747930381137664800,10.721664794921875,9.736328125,1.1071851253509521,-0.38529351353645325
1747930381147735600,10.731735595703125,9.737754821777344,1.1002856492996216,-0.3686111867427826
1747930381157806300,10.741806396484375,9.739436149597168,1.092262864112854,-0.3474676311016083
1747930381167877000,10.751877197265625,9.741207122802734,1.0829741954803467,-0.3262555003166199
1747930381177978400,10.761978271484375,9.742949485778809,1.0721025466918945,-0.3097061812877655
1747930381188049200,10.772049072265625,9.74464225769043,1.0589594841003418,-0.30152976512908936
1747930381198120000,10.782119873046875,9.746380805969238,1.0431485176086426,-0.30046799778938293
1747930381208191000,10.79219091796875,9.74820327758789,1.0252524614334106,-0.30296993255615234
1747930381218261800,10.80226171875,9.750052452087402,1.0069687366485596,-0.3047487139701843
1747930381228332500,10.81233251953125,9.751675605773926,0.9919730424880981,-0.30197885632514954
1747930381238433800,10.822433837890625,9.75269603729248,0.9835109114646912,-0.2966867983341217
1747930381248504600,10.832504638671875,9.752808570861816,0.9833039045333862,-0.29362961649894714
1747930381258575400,10.842575439453125,9.751911163330078,0.9915769100189209,-0.2956099808216095
1747930381268646100,10.852646240234375,9.75010871887207,1.0069400072097778,-0.3030535578727722
1747930381278717000,10.862717041015625,9.747598648071289,1.0277384519577026,-0.31379544734954834
1747930381288787700,10.87278759765625,9.744206428527832,1.0547336339950562,-0.3291941285133362
1747930381298858500,10.8828583984375,9.739338874816895,1.0914254188537598,-0.3527960181236267
1747930381308960000,10.8929599609375,9.733141899108887,1.13514244556427,-0.3844354450702667
1747930381319030800,10.90303076171875,9.726282119750977,1.1799461841583252,-0.4213528037071228
1747930381329101600,10.9131015625,9.71936321258545,1.2218797206878662,-0.45976781845092773
1747930381339172400,10.92317236328125,9.712471008300781,1.2604302167892456,-0.4996061623096466
1747930381349243100,10.9332431640625,9.705321311950684,1.297935962677002,-0.5408299565315247
1747930381359314000,10.94331396484375,9.697669982910156,1.3362462520599365,-0.5831169486045837
1747930381369415200,10.953415283203125,9.689453125,1.3757359981536865,-0.6262921094894409
1747930381379486000,10.96348583984375,9.68136978149414,1.4122384786605835,-0.6686255931854248
1747930381389556700,10.973556640625,9.674131393432617,1.4418867826461792,-0.7088924646377563
1747930381409698300,10.9936982421875,9.664199829101562,1.4758096933364868,-0.7717568874359131
1747930381419769300,11.003769287109375,9.662210464477539,1.479328989982605,-0.7897184491157532
1747930381429870600,11.01387060546875,9.662104606628418,1.4758418798446655,-0.7975022792816162
1747930381439941400,11.02394140625,9.663176536560059,1.4695208072662354,-0.7961841821670532
1747930381450012200,11.03401220703125,9.664446830749512,1.4649348258972168,-0.7891833186149597
1747930381460083000,11.0440830078125,9.66529369354248,1.4650323390960693,-0.7785711288452148
1747930381470153700,11.05415380859375,9.665629386901855,1.4704471826553345,-0.7640576958656311
1747930381480224500,11.064224609375,9.665780067443848,1.4802719354629517,-0.7428867816925049
1747930381490295300,11.07429541015625,9.665994644165039,1.4934985637664795,-0.7130300402641296
1747930381500396500,11.084396484375,9.666041374206543,1.510513186454773,-0.6755568385124207
1747930381510467600,11.094467529296875,9.665553092956543,1.5313681364059448,-0.6343477964401245
1747930381520538400,11.104538330078125,9.664361000061035,1.5557780265808105,-0.5916537642478943
1747930381530609200,11.114609130859375,9.662504196166992,1.5818473100662231,-0.5515047311782837
1747930381540680000,11.124679931640625,9.660334587097168,1.6059671640396118,-0.5188430547714233
1747930381550750700,11.134750732421875,9.658624649047852,1.6236553192138672,-0.4950864315032959
1747930381560852000,11.14485205078125,9.657782554626465,1.6333938837051392,-0.47921791672706604
1747930381570922800,11.1549228515625,9.657757759094238,1.6360852718353271,-0.47044798731803894
1747930381580993500,11.16499365234375,9.658034324645996,1.6355434656143188,-0.4666348099708557
1747930381591064300,11.175064208984375,9.658248901367188,1.6350290775299072,-0.46400532126426697
1747930381601135000,11.185135009765625,9.658369064331055,1.6354846954345703,-0.45985785126686096
1747930381611206000,11.195205810546875,9.658495903015137,1.636987328529358,-0.4517935514450073
1747930381621276700,11.205276611328125,9.658540725708008,1.6402461528778076,-0.4388303756713867
1747930381631378200,11.215378173828125,9.658384323120117,1.6454370021820068,-0.4225216805934906
1747930381641449000,11.225448974609375,9.657694816589355,1.6538054943084717,-0.4052664339542389
1747930381651519700,11.235519775390625,9.656282424926758,1.6661349534988403,-0.38806697726249695
1747930381661590500,11.245590576171875,9.654145240783691,1.6821866035461426,-0.37162965536117554
1747930381671661300,11.255661376953125,9.651687622070312,1.6993768215179443,-0.35699304938316345
1747930381681732000,11.265732177734375,9.64913558959961,1.7165660858154297,-0.34344303607940674
1747930381691833300,11.275833251953125,9.646354675292969,1.7340716123580933,-0.33351388573646545
1747930381701904100,11.285904052734375,9.643594741821289,1.7506924867630005,-0.3263978660106659
1747930381711975000,11.295974853515625,9.641016960144043,1.7662358283996582,-0.31872206926345825
1747930381722046000,11.3060458984375,9.63853645324707,1.7815028429031372,-0.3086159825325012
1747930381732116700,11.31611669921875,9.636028289794922,1.7971510887145996,-0.29598745703697205
1747930381742187500,11.3261875,9.633431434631348,1.8135840892791748,-0.27980899810791016
1747930381752258300,11.33625830078125,9.630571365356445,1.831766128540039,-0.2590503990650177
1747930381762359600,11.346359619140625,9.627066612243652,1.8530809879302979,-0.23681379854679108
1747930381772430300,11.356430419921875,9.62293815612793,1.8768117427825928,-0.21684740483760834
1747930381782501000,11.366501220703125,9.618675231933594,1.9005248546600342,-0.1986915022134781
1747930381792572000,11.376572021484375,9.614973068237305,1.9209526777267456,-0.18061718344688416
1747930381802642700,11.386642578125,9.612317085266113,1.935807704925537,-0.16248832643032074
1747930381812713500,11.39671337890625,9.61071491241455,1.9451124668121338,-0.1451874077320099
1747930381822815000,11.40681494140625,9.61011791229248,1.949098825454712,-0.1304662823677063
1747930381832885800,11.4168857421875,9.6105318069458,1.9477710723876953,-0.11933696269989014
1747930381842956500,11.42695654296875,9.611761093139648,1.9422032833099365,-0.11084826290607452
1747930381853027300,11.43702734375,9.613404273986816,1.9343669414520264,-0.10519799590110779
1747930381863098000,11.44709814453125,9.615185737609863,1.9256324768066406,-0.10264173150062561
1747930381873169000,11.4571689453125,9.616793632507324,1.9175999164581299,-0.10234418511390686
1747930381883270100,11.467270263671875,9.618005752563477,1.9114480018615723,-0.10353308916091919
1747930381893341000,11.4773408203125,9.618556022644043,1.908610463142395,-0.10483864694833755
1747930381903411700,11.48741162109375,9.618351936340332,1.9094387292861938,-0.10835506021976471
1747930381913482500,11.497482421875,9.617435455322266,1.9136770963668823,-0.11476850509643555
1747930381923553300,11.50755322265625,9.615872383117676,1.92107093334198,-0.12191183120012283
1747930381933624300,11.517624267578125,9.61374282836914,1.9312282800674438,-0.12924590706825256
1747930381943695000,11.527695068359375,9.611104011535645,1.9437719583511353,-0.13711796700954437
1747930381953796400,11.53779638671875,9.608009338378906,1.9583429098129272,-0.14646245539188385
1747930381963867100,11.5478671875,9.604348182678223,1.97514009475708,-0.16034334897994995
1747930381973938000,11.55793798828125,9.600069999694824,1.994345784187317,-0.17788270115852356
1747930381984008700,11.5680087890625,9.595283508300781,2.015524387359619,-0.19643309712409973
1747930381994079500,11.57807958984375,9.590052604675293,2.038447618484497,-0.21449479460716248
1747930382004150300,11.588150390625,9.584244728088379,2.0636069774627686,-0.23276787996292114
1747930382014251500,11.59825146484375,9.57774829864502,2.091505527496338,-0.25047212839126587
1747930382024322600,11.608322509765625,9.57094669342041,2.1206438541412354,-0.2650282680988312
1747930382034393300,11.618393310546875,9.564451217651367,2.148388385772705,-0.2758389115333557
1747930382044464000,11.628464111328125,9.558797836303711,2.172304630279541,-0.2843778133392334
1747930382054535000,11.638534912109375,9.55448055267334,2.1901180744171143,-0.29270097613334656
1747930382064605700,11.648605712890625,9.551820755004883,2.2007381916046143,-0.2997698485851288
1747930382074676500,11.658676513671875,9.550896644592285,2.203998327255249,-0.3052038848400116
1747930382084777700,11.66877783203125,9.551530838012695,2.200725793838501,-0.3089594841003418
1747930382094848500,11.6788486328125,9.553189277648926,2.1933043003082275,-0.3104337751865387
1747930382104919300,11.688919189453125,9.555047988891602,2.18533992767334,-0.309376060962677
1747930382114990000,11.698989990234375,9.55632495880127,2.180215835571289,-0.3061336278915405
1747930382125060900,11.709060791015625,9.556692123413086,2.179041624069214,-0.3029918968677521
1747930382135131600,11.719131591796875,9.55588150024414,2.1830546855926514,-0.2996658980846405
1747930382145233200,11.729233154296875,9.553764343261719,2.192920207977295,-0.29508155584335327
1747930382155304000,11.739303955078125,9.550477981567383,2.2079529762268066,-0.28931692242622375
1747930382165374700,11.749374755859375,9.546893119812012,2.224682569503784,-0.2792896330356598
1747930382175445500,11.759445556640625,9.543768882751465,2.2398929595947266,-0.2640671730041504
1747930382185516300,11.769516357421875,9.541366577148438,2.251941442489624,-0.247915580868721
1747930382195587000,11.779587158203125,9.539624214172363,2.2606699466705322,-0.23520821332931519
1747930382205688300,11.789688232421875,9.538440704345703,2.26650333404541,-0.22695358097553253
1747930382215759000,11.799759033203125,9.537805557250977,2.2695472240448,-0.22320209443569183
1747930382225830000,11.809829833984375,9.537824630737305,2.2694334983825684,-0.22351115942001343
1747930382235901000,11.81990087890625,9.538769721984863,2.2652809619903564,-0.22528590261936188
1747930382245971700,11.8299716796875,9.540850639343262,2.256293296813965,-0.22735561430454254
1747930382256042500,11.84004248046875,9.544065475463867,2.2425949573516846,-0.22797143459320068
1747930382266113300,11.85011328125,9.548068046569824,2.225407123565674,-0.2287895381450653
1747930382276214500,11.860214599609375,9.552203178405762,2.2072513103485107,-0.23205117881298065
1747930382286285300,11.870285400390625,9.556000709533691,2.1902387142181396,-0.23680917918682098
1747930382296356000,11.880356201171875,9.55892562866211,2.176910400390625,-0.2416473776102066
1747930382306427000,11.890427001953125,9.560327529907227,2.17010498046875,-0.24731016159057617
1747930382316497700,11.90049755859375,9.560033798217773,2.170774459838867,-0.2527778744697571
1747930382326568400,11.910568359375,9.558415412902832,2.1777055263519287,-0.25429823994636536
1747930382336670000,11.920669921875,9.555742263793945,2.1897456645965576,-0.25136590003967285
1747930382346740700,11.93074072265625,9.552440643310547,2.2048499584198,-0.2447635531425476
1747930382356811500,11.9408115234375,9.548860549926758,2.2212412357330322,-0.2361118495464325
1747930382366882300,11.95088232421875,9.545440673828125,2.236905574798584,-0.22629721462726593
1747930382376953000,11.960953125,9.54242992401123,2.2507388591766357,-0.21584787964820862
1747930382387024000,11.97102392578125,9.53976058959961,2.263127088546753,-0.20399384200572968
1747930382397094700,11.9810947265625,9.537398338317871,2.274256944656372,-0.19022485613822937
1747930382407196000,11.99119580078125,9.535025596618652,2.285125255584717,-0.17856645584106445
1747930382417266700,12.0012666015625,9.532045364379883,2.2977519035339355,-0.17555861175060272
1747930382427337500,12.01133740234375,9.528610229492188,2.3114192485809326,-0.1825428605079651
1747930382437408300,12.021408203125,9.525590896606445,2.322859764099121,-0.19447234272956848
1747930382447479300,12.031479248046875,9.523496627807617,2.3306872844696045,-0.20322340726852417
1747930382457550000,12.041550048828125,9.52285099029541,2.3335182666778564,-0.200973242521286
1747930382467651300,12.0516513671875,9.524662017822266,2.3276474475860596,-0.18235455453395844
1747930382477722000,12.06172216796875,9.529595375061035,2.3096923828125,-0.15010805428028107
1747930382487793000,12.07179296875,9.537460327148438,2.279169797897339,-0.11233466863632202
1747930382497863700,12.08186376953125,9.54731273651123,2.239048480987549,-0.07657088339328766
1747930382507934500,12.0919345703125,9.557440757751465,2.1961467266082764,-0.05164722353219986
1747930382528106500,12.1121064453125,9.572208404541016,2.130993604660034,-0.04571879655122757
1747930382538177500,12.122177490234375,9.574920654296875,2.118488311767578,-0.05741063877940178
1747930382548248300,12.132248291015625,9.573781967163086,2.1231701374053955,-0.07225675135850906
1747930382558319000,12.142319091796875,9.569342613220215,2.1427080631256104,-0.08289618790149689
1747930382568390000,12.152389892578125,9.562592506408691,2.1725685596466064,-0.08466701209545135
1747930382578460700,12.162460693359375,9.55415153503418,2.2095890045166016,-0.07930359244346619
1747930382588531500,12.172531494140625,9.54468822479248,2.250457286834717,-0.0689973458647728
1747930382598632700,12.1826328125,9.535061836242676,2.291243553161621,-0.05654261261224747
1747930382608703500,12.192703369140625,9.526444435119629,2.3270504474639893,-0.045580413192510605
1747930382618774300,12.202774169921875,9.519976615905762,2.3535075187683105,-0.038104280829429626
1747930382628845000,12.212844970703125,9.516098976135254,2.3691749572753906,-0.035554397851228714
1747930382638915800,12.222915771484375,9.514527320861816,2.3754220008850098,-0.039109967648983
1747930382648986600,12.232986572265625,9.514715194702148,2.374544620513916,-0.04615103080868721
1747930382659088100,12.243088134765625,9.515986442565918,2.3692922592163086,-0.053261544555425644
1747930382669159000,12.253158935546875,9.517945289611816,2.361313581466675,-0.057601459324359894
1747930382679229700,12.263229736328125,9.520360946655273,2.3515262603759766,-0.05860549211502075
1747930382689300500,12.273300537109375,9.522920608520508,2.341141700744629,-0.05849042162299156
1747930382699371300,12.283371337890625,9.525067329406738,2.3323755264282227,-0.059215933084487915
1747930382709442000,12.293442138671875,9.526371002197266,2.3269236087799072,-0.06382247805595398
1747930382719512800,12.303512939453125,9.526962280273438,2.324262857437134,-0.07202655076980591
1747930382729614000,12.313614013671875,9.52725887298584,2.3226914405822754,-0.08264628052711487
1747930382739684900,12.323684814453125,9.527424812316895,2.321542978286743,-0.09486933797597885
1747930382749756000,12.333755859375,9.527621269226074,2.320272922515869,-0.10560768842697144
1747930382759826700,12.34382666015625,9.527859687805176,2.3191275596618652,-0.10925817489624023
1747930382769897500,12.3538974609375,9.527975082397461,2.318885564804077,-0.1041497215628624
1747930382779968300,12.36396826171875,9.527748107910156,2.3202037811279297,-0.0952209010720253
1747930382790069500,12.374069580078125,9.527008056640625,2.3236231803894043,-0.0853833332657814
1747930382800140300,12.384140380859375,9.52595043182373,2.3283143043518066,-0.07488955557346344
1747930382810211000,12.394211181640625,9.524930953979492,2.332751512527466,-0.06593406945466995
1747930382820281900,12.40428173828125,9.524486541748047,2.3347489833831787,-0.05905574560165405
1747930382830352600,12.4143525390625,9.524900436401367,2.3331830501556396,-0.05395862087607384
1747930382840423400,12.42442333984375,9.526212692260742,2.327820062637329,-0.05409778654575348
1747930382850525000,12.43452490234375,9.52837085723877,2.318883180618286,-0.057592593133449554
1747930382860595700,12.444595703125,9.531137466430664,2.3073604106903076,-0.062391724437475204
1747930382870666500,12.45466650390625,9.53430461883545,2.294048547744751,-0.0690535381436348
1747930382880737300,12.4647373046875,9.537564277648926,2.2802281379699707,-0.07622422277927399
1747930382890808000,12.47480810546875,9.540771484375,2.266488790512085,-0.08412640541791916
1747930382900878800,12.48487890625,9.543720245361328,2.2536797523498535,-0.09341523796319962
1747930382910949600,12.49494970703125,9.545896530151367,2.2439143657684326,-0.10527590662240982
1747930382921051000,12.50505078125,9.547286987304688,2.237321138381958,-0.11869543045759201
1747930382931121700,12.51512158203125,9.548095703125,2.2332382202148438,-0.13000324368476868
1747930382941192400,12.5251923828125,9.548190116882324,2.2322824001312256,-0.13915446400642395
1747930382951263200,12.53526318359375,9.547411918640137,2.2349870204925537,-0.14881952106952667
1747930382961334300,12.545334228515625,9.545635223388672,2.2418212890625,-0.15957580506801605
1747930382971405000,12.555405029296875,9.54262924194336,2.2535502910614014,-0.17355558276176453
1747930382981506300,12.56550634765625,9.538477897644043,2.269569158554077,-0.19204522669315338
1747930382991577000,12.5755771484375,9.53335189819336,2.2890262603759766,-0.21435512602329254
1747930383001647900,12.58564794921875,9.52768611907959,2.310365676879883,-0.23621445894241333
1747930383011718700,12.59571875,9.521949768066406,2.3315956592559814,-0.2579115033149719
1747930383021789400,12.60578955078125,9.516462326049805,2.351851463317871,-0.27591609954833984
1747930383031860200,12.615860107421875,9.511064529418945,2.372030735015869,-0.2889856994152069
1747930383041931000,12.625930908203125,9.505422592163086,2.3928792476654053,-0.3023938834667206
1747930383052032500,12.636032470703125,9.499619483947754,2.413839817047119,-0.31779158115386963
1747930383062103300,12.646103271484375,9.493973731994629,2.4336531162261963,-0.33494365215301514
1747930383072174000,12.656174072265625,9.48863697052002,2.4516584873199463,-0.3542732298374176
1747930383082244900,12.666244873046875,9.483845710754395,2.466989517211914,-0.37553349137306213
1747930383092315600,12.676315673828125,9.47989559173584,2.4788506031036377,-0.3965825140476227
1747930383102386400,12.686386474609375,9.477202415466309,2.4860172271728516,-0.41562244296073914
1747930383112487700,12.69648779296875,9.475865364074707,2.4883742332458496,-0.4316670596599579
1747930383122558500,12.706558349609375,9.475529670715332,2.4871840476989746,-0.445686012506485
1747930383132629200,12.716629150390625,9.475319862365723,2.4854352474212646,-0.45967215299606323
1747930383142700000,12.726699951171875,9.474688529968262,2.4850916862487793,-0.4743287265300751
1747930383152770800,12.736770751953125,9.47370433807373,2.48630428314209,-0.48745691776275635
1747930383162841600,12.746841552734375,9.472664833068848,2.4880473613739014,-0.4986322522163391
1747930383172912600,12.75691259765625,9.471718788146973,2.4897639751434326,-0.5079364776611328
1747930383183014000,12.767013916015625,9.47104263305664,2.490335702896118,-0.5176496505737305
1747930383193084700,12.777084716796875,9.470867156982422,2.4893336296081543,-0.5256327986717224
1747930383203155500,12.787155517578125,9.470706939697266,2.4888901710510254,-0.5305910110473633
1747930383213226200,12.797226318359375,9.470458030700684,2.4886066913604736,-0.536318302154541
1747930383223297000,12.807297119140625,9.470678329467773,2.486617088317871,-0.5416368246078491
1747930383233367800,12.817367919921875,9.471726417541504,2.4818344116210938,-0.5452386736869812
1747930383243469000,12.827468994140625,9.473504066467285,2.474775791168213,-0.5464290380477905
1747930383253540000,12.8375400390625,9.475971221923828,2.4659314155578613,-0.5436255931854248
1747930383263611000,12.84761083984375,9.478857040405273,2.4559378623962402,-0.53853839635849
1747930383273681700,12.857681640625,9.481818199157715,2.44547963142395,-0.5339881181716919
1747930383283752400,12.86775244140625,9.484793663024902,2.4346227645874023,-0.5307453274726868
1747930383293823200,12.8778232421875,9.488174438476562,2.4219717979431152,-0.5281831622123718
1747930383303924500,12.887924560546875,9.491991996765137,2.407374620437622,-0.5263362526893616
1747930383313995300,12.897995361328125,9.496028900146484,2.391446590423584,-0.5261114239692688
1747930383324066000,12.908066162109375,9.500105857849121,2.375006914138794,-0.5270020365715027
1747930383334136800,12.91813671875,9.504240036010742,2.3583006858825684,-0.5274632573127747
1747930383344207600,12.92820751953125,9.508339881896973,2.341705083847046,-0.5275079607963562
1747930383354278400,12.9382783203125,9.51251220703125,2.324808120727539,-0.5270459651947021
1747930383364349200,12.94834912109375,9.517041206359863,2.306467294692993,-0.5258627533912659
1747930383374450700,12.95845068359375,9.521956443786621,2.286240339279175,-0.5252014994621277
1747930383384521500,12.968521484375,9.527141571044922,2.264669895172119,-0.5246384739875793
1747930383394592300,12.97859228515625,9.532439231872559,2.242210626602173,-0.5248478651046753
1747930383404663000,12.9886630859375,9.537632942199707,2.219780921936035,-0.5258409380912781
1747930383414733800,12.99873388671875,9.54246997833252,2.1984927654266357,-0.5275256037712097
1747930383424804600,13.0088046875,9.546473503112793,2.180285930633545,-0.5306426882743835
1747930383434905900,13.01890576171875,9.549333572387695,2.1667048931121826,-0.5348004698753357
1747930383444976600,13.0289765625,9.551015853881836,2.1581804752349854,-0.5391992330551147
1747930383455047400,13.03904736328125,9.551774024963379,2.1538991928100586,-0.5428782105445862
1747930383465118500,13.049118408203125,9.552055358886719,2.1518936157226562,-0.5458788275718689
1747930383475189200,13.059189208984375,9.552301406860352,2.1503188610076904,-0.5477627515792847
1747930383485260000,13.069260009765625,9.552962303161621,2.147207498550415,-0.5484465956687927
1747930383495361300,13.079361328125,9.554097175598145,2.1420021057128906,-0.5490276217460632
1747930383505432000,13.08943212890625,9.555512428283691,2.1354916095733643,-0.549756646156311
1747930383515502800,13.0995029296875,9.556854248046875,2.1292011737823486,-0.5508357286453247
1747930383525573600,13.10957373046875,9.557638168334961,2.1251115798950195,-0.5530247092247009
1747930383535644400,13.11964453125,9.557575225830078,2.124528646469116,-0.556334376335144
1747930383545715200,13.129715087890625,9.556939125061035,2.1265649795532227,-0.5594784617424011
1747930383555786000,13.139785888671875,9.55601978302002,2.130279064178467,-0.5610620975494385
1747930383565887500,13.149887451171875,9.55512809753418,2.1345064640045166,-0.5601873397827148
1747930383575958300,13.159958251953125,9.55452823638916,2.1381146907806396,-0.5566301941871643
1747930383586029000,13.170029052734375,9.554449081420898,2.139782190322876,-0.5515738129615784
1747930383596099800,13.180099853515625,9.554774284362793,2.1396899223327637,-0.5462761521339417
1747930383606170600,13.190170654296875,9.55504035949707,2.1394031047821045,-0.5427297353744507
1747930383616241400,13.200241455078125,9.55517292022705,2.139040231704712,-0.5418124198913574
1747930383626342700,13.2103427734375,9.555408477783203,2.1379153728485107,-0.5421082973480225
1747930383636413400,13.220413330078125,9.555817604064941,2.135869026184082,-0.542961597442627
1747930383646484200,13.230484130859375,9.55628776550293,2.1335887908935547,-0.5436394214630127
1747930383656555000,13.240554931640625,9.556601524353027,2.1319196224212646,-0.5446832776069641
1747930383666625800,13.250625732421875,9.556371688842773,2.132387161254883,-0.5468806028366089
1747930383676696800,13.26069677734375,9.555679321289062,2.1347768306732178,-0.5496461987495422
