time,seconds_elapsed,z,y,x
1750395855237539800,0.147539794921875,-0.02871066704392433,-0.5247332453727722,0.23640485107898712
1750395855253470000,0.163469970703125,-0.02871066704392433,-0.5247332453727722,0.23640485107898712
1750395855269461200,0.179461181640625,-0.02871066704392433,-0.5247332453727722,0.23640485107898712
1750395855285421800,0.195421875,-0.02871066704392433,-0.5247332453727722,0.23640485107898712
1750395855301443600,0.211443603515625,-0.02871066704392433,-0.5247332453727722,0.23640485107898712
1750395855317465300,0.22746533203125,-0.02871066704392433,-0.5247332453727722,0.23640485107898712
1750395855333395500,0.2433955078125,-0.02871066704392433,-0.5247332453727722,0.23640485107898712
1750395855349447700,0.25944775390625,-0.02871066704392433,-0.5247332453727722,0.23640485107898712
1750395855365377800,0.275377685546875,0.6310238242149353,0.6817256212234497,1.433700680732727
1750395855381277400,0.29127734375,0.38117989897727966,1.7605136632919312,1.7635679244995117
1750395855397299200,0.30729931640625,-0.07269296050071716,2.0665571689605713,2.22477126121521
1750395855413229600,0.3232294921875,-0.4092797040939331,1.4856243133544922,2.654820442199707
1750395855429281800,0.33928173828125,-0.6890559792518616,0.08368854224681854,3.0170633792877197
1750395855445181400,0.355181396484375,-1.0231993198394775,-1.4367550611495972,3.0060677528381348
1750395855461172500,0.37117236328125,-1.3964380025863647,-2.1985039710998535,2.794708490371704
1750395855477163800,0.387163818359375,-1.6102408170700073,-1.5363260507583618,2.051896333694458
1750395855493124600,0.40312451171875,-1.186300277709961,-1.5027284622192383,1.7959438562393188
1750395855509115600,0.41911572265625,-0.394618958234787,-1.4862351417541504,1.3750576972961426
1750395855525045800,0.435045654296875,-0.24373523890972137,-1.3781119585037231,0.5516113042831421
1750395855541037000,0.451037109375,-0.21563543379306793,-0.9059131741523743,0.0024434609804302454
1750395855557058800,0.467058837890625,-0.10812314599752426,-0.294437050819397,-0.3072652220726013
1750395855573019400,0.483019287109375,-0.025656340643763542,-0.22540926933288574,-0.3121521472930908
1750395855589010700,0.4990107421875,0.09346238523721695,-0.5528330206871033,-0.12522737681865692
1750395855604940800,0.51494091796875,0.18997909128665924,-0.9908234477043152,0.11056660860776901
1750395855620932000,0.53093212890625,0.013439035043120384,-1.5766432285308838,0.152105450630188
1750395855636953900,0.546953857421875,-0.4801400899887085,-2.0512855052948,0.07208210229873657
1750395855652914400,0.56291455078125,-0.807563841342926,-1.9743164777755737,0.23273965716362
1750395855668936200,0.578936279296875,-0.8979719281196594,-1.8099937438964844,0.5112941861152649
1750395855684897000,0.59489697265625,-0.8222246170043945,-1.5289957523345947,0.5186246037483215
1750395855700888000,0.61088818359375,-0.6701191663742065,-1.103833556175232,0.182648703455925
1750395855716909800,0.626909912109375,-0.3927863538265228,-0.48380526900291443,-0.26450464129447937
1750395855732809500,0.6428095703125,-0.30054569244384766,-0.16798794269561768,-0.4282165467739105
1750395855748800800,0.65880078125,-0.303600013256073,-0.03298672288656235,-0.29138273000717163
1750395855764700400,0.674700439453125,-0.22663100063800812,-0.19914206862449646,0.20830504596233368
1750395855780661000,0.690660888671875,-0.11362093687057495,-0.2480112910270691,0.645684540271759
1750395855804648000,0.71464794921875,0.06230825558304787,-0.39767327904701233,0.8222246170043945
1750395855820639200,0.73063916015625,0.08429940044879913,-0.5393940210342407,0.6340781450271606
1750395855836630300,0.74663037109375,0.009773843921720982,-0.7220427393913269,0.5027421116828918
1750395855852560600,0.762560546875,-0.16065755486488342,-1.0641272068023682,0.3640756905078888
1750395855868551700,0.7785517578125,-0.28038713335990906,-1.443474531173706,0.3121521472930908
1750395855884512500,0.794512451171875,-0.33292156457901,-1.7825047969818115,0.3078760802745819
1750395855900442600,0.810442626953125,-0.4404338300228119,-2.112982988357544,0.36713001132011414
1750395855916464400,0.82646435546875,-0.5448917746543884,-2.383596181869507,0.5320636034011841
1750395855932364000,0.842364013671875,-0.588874101638794,-2.6059510707855225,0.7446447610855103
1750395855948385800,0.8583857421875,-0.5473352670669556,-2.6554312705993652,0.8943067193031311
1750395855964255000,0.8742548828125,-0.513126790523529,-2.4636194705963135,0.8442157506942749
1750395855980246000,0.89024609375,-0.5277875661849976,-2.0751092433929443,0.5650503635406494
1750395855996267800,0.906267822265625,-0.5149593949317932,-1.6676621437072754,0.3127630054950714
1750395856012198000,0.922197998046875,-0.4642575979232788,-1.235169529914856,0.10567969083786011
1750395856028189200,0.938189208984375,-0.4489859640598297,-0.9230173826217651,0.05192354694008827
1750395856044149800,0.954149658203125,-0.47830748558044434,-0.7147123217582703,0.04642575979232788
1750395856068167200,0.978167236328125,-0.4996877610683441,-0.6902777552604675,0.08185594528913498
1750395856084097300,0.99409716796875,-0.5057964324951172,-0.7648032903671265,0.051312681287527084
1750395856100058000,1.01005810546875,-0.4966334402561188,-0.817948579788208,0.04398229718208313
1750395856116079900,1.026079833984375,-0.5149593949317932,-0.8448266386985779,0.0708603709936142
1750395856132010000,1.042010009765625,-0.5461135506629944,-0.8802568316459656,0.15271630883216858
1750395856148062200,1.058062255859375,-0.5381723046302795,-0.9230173826217651,0.22968533635139465
1750395856163961900,1.0739619140625,-0.513126790523529,-0.931569516658783,0.19425514340400696
1750395856179922700,1.089922607421875,-0.5210680365562439,-0.8655960559844971,0.08796459436416626
1750395856203879000,1.11387890625,-0.608421802520752,-0.6670648455619812,-0.15271630883216858
1750395856219870200,1.1298701171875,-0.6035348773002625,-0.5204572081565857,-0.35246923565864563
1750395856235891700,1.1458916015625,-0.5510004758834839,-0.4386012554168701,-0.5345070958137512
1750395856251822000,1.161822021484375,-0.46853363513946533,-0.46303585171699524,-0.7318165898323059
1750395856267843800,1.17784375,-0.4105014503002167,-0.5687155723571777,-0.9248499870300293
1750395856283743500,1.193743408203125,-0.3597996234893799,-0.685390830039978,-1.0238101482391357
1750395856299704000,1.2097041015625,-0.25595253705978394,-0.7244861721992493,-0.9932668805122375
1750395856315725800,1.225725830078125,-0.1563815027475357,-0.6969972252845764,-0.9236282706260681
1750395856331656000,1.241656005859375,-0.13377949595451355,-0.8301658630371094,-1.0885618925094604
1750395856347677700,1.257677734375,-0.2474004179239273,-0.930347740650177,-1.5790866613388062
1750395856363638500,1.273638427734375,-0.31581732630729675,-0.8869763612747192,-2.0610592365264893
1750395856379629600,1.289629638671875,-0.3090978264808655,-0.646295428276062,-2.459343433380127
1750395856395651300,1.3056513671875,-0.32620203495025635,-0.36102136969566345,-2.58457088470459
1750395856411581400,1.32158154296875,-0.48380526900291443,-0.0024434609804302454,-2.415361166000366
1750395856427511800,1.33751171875,-0.7153232097625732,0.30115658044815063,-1.872912883758545
1750395856443442000,1.35344189453125,-0.8643743395805359,0.513126790523529,-1.302364706993103
1750395856459433000,1.369432861328125,-0.8912523984909058,0.5363397002220154,-0.7867944240570068
1750395856475424300,1.38542431640625,-0.8949176073074341,0.3842342495918274,-0.578489363193512
1750395856491354400,1.401354248046875,-0.9663888216018677,0.03848451003432274,-0.5558874011039734
1750395856507406600,1.417406494140625,-1.036027431488037,-0.44165557622909546,-0.45753806829452515
1750395856523367400,1.433367431640625,-1.0054842233657837,-0.9028588533401489,-0.28649580478668213
1750395856539328000,1.449327880859375,-0.8326093554496765,-1.3738359212875366,-0.0757472887635231
1750395856555319300,1.4653193359375,-0.6322455406188965,-1.7886134386062622,0.08124507963657379
1750395856571219000,1.481218994140625,-0.47708576917648315,-2.3915374279022217,0.33658674359321594
1750395856587271200,1.497271240234375,-0.33658674359321594,-3.1496212482452393,0.7751879692077637
1750395856603232000,1.51323193359375,-0.1869247704744339,-3.9791762828826904,1.2553280591964722
1750395856619223000,1.52922314453125,-0.12828169763088226,-5.359120845794678,1.9040669202804565
1750395856635244800,1.545244873046875,-0.03420845419168472,-6.8105363845825195,2.6138923168182373
1750395856651175000,1.5611748046875,0.3585779070854187,-8.670620918273926,3.4232888221740723
1750395856667135700,1.5771357421875,0.9376781582832336,-10.095158576965332,4.002388954162598
1750395856683065900,1.59306591796875,1.5143349170684814,-10.925935745239258,4.453818321228027
1750395856699057200,1.60905712890625,2.4575109481811523,-11.074376106262207,4.665788650512695
1750395856715079000,1.625078857421875,3.5796704292297363,-9.623571395874023,3.8319575786590576
1750395856731039500,1.64103955078125,4.59492826461792,-6.307183742523193,1.3487904071807861
1750395856747030800,1.65703076171875,5.089118480682373,-3.352428436279297,-1.2431107759475708
1750395856762961000,1.6729609375,5.234504222869873,-1.7348573207855225,-2.4196372032165527
1750395856778952200,1.6889521484375,5.006040573120117,-0.7391469478607178,-2.5357015132904053
1750395856794974000,1.704973876953125,4.980995178222656,-0.44837507605552673,-2.0360138416290283
1750395856810904000,1.720904052734375,5.1019463539123535,-0.021380282938480377,-1.5259413719177246
1750395856826956300,1.736956298828125,4.77452278137207,0.22418753802776337,-1.122159481048584
1750395856842886400,1.752886474609375,4.239404678344727,0.02382374368607998,-0.921795666217804
1750395856858847200,1.76884716796875,4.0463714599609375,-0.0024434609804302454,-0.9718865752220154
1750395856874869000,1.784868896484375,4.213748455047607,0.27061331272125244,-0.931569516658783
1750395856890829600,1.80082958984375,4.401284217834473,0.5461135506629944,-0.42271876335144043
1750395856906820900,1.81682080078125,4.634634494781494,0.45326200127601624,0.4239404797554016
1750395856922781400,1.832781494140625,4.619362831115723,0.2816088795661926,1.0879509449005127
1750395856938742300,1.8487421875,3.9284744262695312,0.3933972120285034,1.5222761631011963
1750395856954794500,1.86479443359375,3.3127222061157227,0.3396410644054413,1.5143349170684814
1750395856970694100,1.880694091796875,3.031113386154175,0.34086281061172485,1.1447614431381226
1750395856986716000,1.8967158203125,2.9358184337615967,0.4795292317867279,0.7910705208778381
1750395857002676500,1.912676513671875,2.5222625732421875,0.6835582256317139,0.7354817390441895
1750395857018637300,1.92863720703125,2.235766887664795,0.9431759119033813,0.8246681094169617
1750395857034658800,1.944658935546875,2.1056525707244873,1.2321151494979858,0.8289441466331482
1750395857050619600,1.96061962890625,1.7409659624099731,1.3848315477371216,0.32620203495025635
1750395857066641400,1.976641357421875,1.493565559387207,1.1673635244369507,-0.17959438264369965
1750395857082602000,1.99260205078125,1.5919147729873657,0.836885392665863,-0.2816088795661926
1750395857098562800,2.008562744140625,1.5161675214767456,0.4746423065662384,0.06414084881544113
1750395857114584600,2.02458447265625,1.2651019096374512,0.29077184200286865,0.8002334833145142
1750395857130545200,2.040545166015625,0.99876469373703,0.48808133602142334,1.7592918872833252
1750395857146505700,2.056505615234375,0.7715228199958801,1.0708467960357666,2.2345449924468994
1750395857162466600,2.072466552734375,0.6401867866516113,1.377501130104065,2.2186625003814697
1750395857178427100,2.08842724609375,0.7061602473258972,1.2944234609603882,2.045787811279297
1750395857194449000,2.104448974609375,0.7922922372817993,0.817337691783905,1.8222110271453857
1750395857210348500,2.1203486328125,0.978606104850769,0.13439035415649414,1.454470157623291
1750395857226400800,2.13640087890625,1.1117748022079468,-0.6908885836601257,1.4672982692718506
1750395857242361600,2.152361572265625,1.3255776166915894,-1.3658946752548218,1.9315558671951294
1750395857258352600,2.1683525390625,1.3799445629119873,-1.920560359954834,2.2455406188964844
1750395857274374400,2.18437451171875,1.4086552858352661,-1.9236146211624146,2.037846565246582
1750395857290335200,2.200335205078125,1.4984524250030518,-1.5497651100158691,1.5900822877883911
1750395857306326300,2.216326171875,1.4886785745620728,-1.4660766124725342,1.5796974897384644
1750395857322256600,2.232256591796875,1.2198978662490845,-1.292590856552124,1.7849482297897339
1750395857338217200,2.24821728515625,1.0256427526474,-1.3829989433288574,2.059837579727173
1750395857354269400,2.26426953125,0.9816604256629944,-1.4593570232391357,2.414750337600708
1750395857370169000,2.280169189453125,1.0268645286560059,-1.3371840715408325,2.2369885444641113
1750395857386190800,2.29619091796875,0.494189977645874,-0.8552113175392151,1.567480206489563
1750395857402121000,2.312120849609375,0.039706241339445114,-0.1569923609495163,1.1759155988693237
1750395857418081800,2.328081787109375,-0.5393940210342407,0.13561208546161652,0.988990843296051
1750395857434103600,2.344103515625,-0.9431759119033813,-0.2223549485206604,0.8753699064254761
1750395857450064100,2.360064208984375,-1.0952813625335693,-0.7922922372817993,0.5125159621238708
1750395857466086000,2.3760859375,-1.2870930433273315,-1.29381263256073,0.08796459436416626
1750395857482016000,2.39201611328125,-1.6096298694610596,-1.2791517972946167,-0.0757472887635231
1750395857498007300,2.40800732421875,-2.3689353466033936,-1.8270978927612305,-0.1716531366109848
1750395857513998600,2.42399853515625,-2.6371052265167236,-2.456900119781494,-0.14782938361167908
1750395857529928700,2.4399287109375,-2.7537806034088135,-3.1135802268981934,-0.11789698898792267
1750395857545920000,2.455919921875,-2.440406560897827,-3.6969563961029053,-0.3017674386501312
1750395857561880600,2.471880615234375,-2.375044107437134,-3.835622787475586,-0.05009094998240471
1750395857577810700,2.487810791015625,-3.204599142074585,-3.5216381549835205,0.4141666293144226
1750395857593863000,2.50386279296875,-3.5326337814331055,-3.330437421798706,-0.01160643994808197
1750395857617880300,2.52788037109375,-3.1923818588256836,-4.020715236663818,-0.817337691783905
1750395857633902000,2.543902099609375,-3.43978214263916,-4.6211957931518555,-1.4037683010101318
1750395857649832200,2.559832275390625,-3.519805431365967,-3.4049627780914307,-2.099543809890747
1750395857673788700,2.58378857421875,-2.102598190307617,-1.5448782444000244,-1.521665334701538
1750395857689688300,2.599688232421875,-0.9138544201850891,-1.2211196422576904,-1.0604621171951294
1750395857705679400,2.615679443359375,-0.38179078698158264,-1.1722503900527954,-0.28955012559890747
1750395857729605000,2.639605224609375,-0.019547687843441963,-0.8045095205307007,-0.11484266817569733
1750395857745596400,2.655596435546875,-0.5943718552589417,-1.4013248682022095,-0.182648703455925
1750395857761557000,2.671556884765625,-1.654223084449768,-2.917492389678955,0.48685958981513977
1750395857777517800,2.687517822265625,-2.500882387161255,-3.9461894035339355,1.0219775438308716
1750395857793539600,2.70353955078125,-1.7556266784667969,-4.060421466827393,1.4245377779006958
1750395857809500200,2.719500244140625,-0.6243042945861816,-3.0695979595184326,1.9920315742492676
1750395857825491500,2.735491455078125,0.2064724564552307,-2.4556782245635986,1.9132299423217773
1750395857841421600,2.751421630859375,1.7092009782791138,-1.965153455734253,0.4349360466003418
1750395857857382400,2.76738232421875,2.769663095474243,-0.6328563690185547,-0.6609562039375305
1750395857897299200,2.80729931640625,4.555222034454346,1.7165313959121704,-2.451402187347412
1750395857921255700,2.831255615234375,5.101335525512695,2.2149972915649414,-2.49294114112854
1750395857969198600,2.879198486328125,1.6389514207839966,4.718934059143066,-2.470339059829712
1750395858009115600,2.91911572265625,0.15515977144241333,0.7531968355178833,-1.7611244916915894
1750395858033163500,2.94316357421875,-0.39584067463874817,-1.6194037199020386,-0.7012733221054077
1750395858073080600,2.98308056640625,0.20097467303276062,1.3420709371566772,0.7483099102973938
1750395858089041200,2.999041259765625,0.35613444447517395,0.9224064946174622,1.3451253175735474
1750395858105063000,3.01506298828125,0.7721336483955383,-0.35613444447517395,1.1869112253189087
1750395858120993000,3.030992919921875,0.5112941861152649,0.3597996234893799,0.12950342893600464
1750395858136881400,3.04688134765625,-0.5174028873443604,-0.0354301854968071,-0.3066543638706207
1750395858152903200,3.062903076171875,-0.9480628371238708,0.6102544069290161,-0.7819074988365173
1750395858168864000,3.078864013671875,-0.39217549562454224,1.633453607559204,-1.0580185651779175
1750395858184855000,3.09485498046875,0.5320636034011841,1.6157386302947998,-1.186300277709961
1750395858200785400,3.110785400390625,1.1801916360855103,0.9615018963813782,-0.7843509912490845
1750395858216776400,3.1267763671875,2.163073778152466,0.2571742534637451,-0.32620203495025635
1750395858232798200,3.142798095703125,3.0030136108398438,0.9553932547569275,-0.4801400899887085
1750395858248759000,3.158759033203125,4.112344741821289,2.6902506351470947,-0.1918116807937622
1750395858264750000,3.17475,5.406157493591309,3.1367931365966797,0.03237585723400116
1750395858280680400,3.190680419921875,5.559484481811523,2.1093177795410156,0.4331034719944
1750395858296610600,3.206610595703125,4.424497127532959,0.7360926270484924,1.1917980909347534
1750395858312632300,3.22263232421875,2.657874584197998,-0.475253164768219,1.901012659072876
1750395858328532000,3.238531982421875,1.3237450122833252,-1.1020009517669678,2.0134117603302
1750395858344523000,3.25452294921875,0.3744603991508484,-0.8142833709716797,1.595579981803894
1750395858360483800,3.27048388671875,0.08796459436416626,-0.12522737681865692,0.8472700715065002
1750395858384440000,3.294440185546875,0.1362229436635971,-0.48685958981513977,0.9144652485847473
1750395858416331000,3.3263310546875,0.11423180252313614,-0.6798930168151855,1.567480206489563
1750395858448313300,3.358313232421875,-0.4080579876899719,0.5546656250953674,1.3548991680145264
1750395858464335000,3.374335205078125,-0.2577851414680481,-1.4501941204071045,0.5497786998748779
1750395858480296000,3.3902958984375,-0.5668829679489136,-0.9230173826217651,-0.1417207419872284
1750395858512247800,3.422247802734375,-0.5748242139816284,0.5845980644226074,-0.08368854224681854
1750395858528178000,3.438177978515625,-0.6884451508522034,1.4404202699661255,0.4715879559516907
1750395858568095000,3.478094970703125,0.07269296050071716,1.6126842498779297,0.8381071090698242
1750395858616007400,3.52600732421875,1.081842303276062,0.8759807348251343,0.1472185254096985
1750395858647990000,3.557989990234375,0.2779437005519867,0.9248499870300293,-1.1386528015136719
1750395858672007200,3.582007080078125,0.2632829248905182,-0.10323622822761536,-2.5302038192749023
1750395858751902200,3.661902099609375,-0.3738495409488678,3.1648929119110107,-0.08368854224681854
1750395858775828000,3.685827880859375,-1.6322319507598877,0.4398229718208313,0.04948008432984352
1750395858791849700,3.701849609375,-2.386650562286377,-1.1484266519546509,-0.018936822190880775
1750395858807810600,3.717810546875,-2.612670660018921,-1.703092336654663,-0.1319468915462494
1750395858823832300,3.733832275390625,-2.3768765926361084,-1.9431623220443726,-0.5858197808265686
1750395858839762400,3.749762451171875,-2.1343631744384766,-2.258368730545044,-1.4941763877868652
1750395858855753500,3.76575341796875,-1.4899003505706787,-2.637716054916382,-2.230879783630371
1750395858871744800,3.781744873046875,-0.7489207983016968,-2.8374691009521484,-2.045787811279297
1750395858887705600,3.79770556640625,-0.45142942667007446,-1.3903292417526245,-2.1838431358337402
1750395858903727000,3.81372705078125,-1.0054842233657837,0.7171558141708374,-2.6865854263305664
1750395858919688000,3.82968798828125,-1.8509217500686646,1.7708983421325684,-2.285857677459717
1750395858935679200,3.84567919921875,-3.0921998023986816,0.8765916228294373,-2.026240110397339
1750395858951700700,3.86170068359375,-3.403130292892456,-0.5345070958137512,-2.8906142711639404
1750395858975596000,3.885595947265625,-2.5802948474884033,-1.7831156253814697,-3.8960986137390137
1750395858991617800,3.90161767578125,-1.8154915571212769,-1.3041973114013672,-3.4428365230560303
1750395859007548000,3.9175478515625,-0.7483099102973938,1.2602150440216064,-1.9462167024612427
1750395859031595800,3.941595703125,0.5736024379730225,-0.2064724564552307,-0.7745771408081055
1750395859047556600,3.957556640625,1.3701707124710083,-1.2803735733032227,-0.37568211555480957
1750395859063548000,3.9735478515625,2.559525489807129,-1.3713924884796143,0.1765400618314743
1750395859079478000,3.98947802734375,3.344487190246582,-1.3939944505691528,0.513126790523529
1750395859095469000,4.005468994140625,3.7287213802337646,-1.1386528015136719,1.2217304706573486
1750395859111490800,4.02149072265625,4.022547721862793,-0.5674937963485718,1.945605754852295
1750395859135416600,4.04541650390625,4.229630947113037,-0.8258898258209229,2.2565362453460693
1750395859151468800,4.06146875,4.2253546714782715,-0.0012217304902151227,2.7128524780273438
1750395859167399200,4.077399169921875,2.6835310459136963,2.083050489425659,2.545475482940674
1750395859183390200,4.09339013671875,1.0690141916275024,3.0744848251342773,2.040289878845215
1750395859199381500,4.109381591796875,-0.6609562039375305,1.8570303916931152,1.940108060836792
1750395859215342300,4.12534228515625,-1.9578231573104858,-0.33658674359321594,1.531439185142517
1750395859231363800,4.14136376953125,-1.8503108024597168,-2.0537290573120117,1.386053204536438
1750395859255289600,4.16528955078125,-0.4141666293144226,-1.9346102476119995,1.750128984451294
1750395859271342000,4.181342041015625,1.130711555480957,0.4331034719944,0.8313875794410706
1750395859295267800,4.205267822265625,3.257744312286377,1.674992561340332,-0.8686503767967224
1750395859311289600,4.22128955078125,4.580267429351807,1.0335839986801147,-0.5937610268592834
1750395859327219700,4.2372197265625,5.8331522941589355,0.455705463886261,-0.15882496535778046
1750395859343241500,4.253241455078125,6.398813247680664,-0.5247332453727722,-0.1618792861700058
1750395859359232500,4.269232421875,6.0732221603393555,-0.39706242084503174,0.19120082259178162
1750395859383158300,4.293158203125,4.486805438995361,4.798957347869873,0.9480628371238708
1750395859399088600,4.309088623046875,3.612046241760254,5.952270984649658,1.7861700057983398
1750395859415079700,4.32507958984375,2.9999592304229736,5.710978984832764,2.8991663455963135
1750395859431101400,4.341101318359375,2.6395487785339355,4.170377254486084,3.514307737350464
1750395859447001000,4.3570009765625,2.488054037094116,2.288912057876587,3.6969563961029053
1750395859478983700,4.388983642578125,2.956587791442871,-3.419623613357544,3.8001925945281982
1750395859494944300,4.4049443359375,4.0885210037231445,-5.737857341766357,3.583946466445923
1750395859518931200,4.42893115234375,4.044538974761963,-7.349930763244629,3.5417966842651367
1750395859534891800,4.444891845703125,1.9058995246887207,-3.508810043334961,1.8069393634796143
1750395859550913500,4.46091357421875,0.3170390725135803,3.8209621906280518,-1.4911220073699951
1750395859566843600,4.47684375,-1.5796974897384644,5.1379876136779785,-2.0958786010742188
1750395859590861000,4.500861083984375,-1.3506230115890503,2.119091510772705,-0.06658431142568588
1750395859606791200,4.516791259765625,-0.12522737681865692,-0.675006091594696,1.2357803583145142
1750395859622813000,4.53281298828125,1.016479730606079,-1.7849482297897339,1.8985692262649536
1750395859646769200,4.55676904296875,1.0201449394226074,-1.5387696027755737,1.3781119585037231
1750395859662760400,4.572760498046875,0.4392121136188507,-1.0115928649902344,0.4801400899887085
1750395859678690600,4.588690673828125,0.1514945775270462,-0.039095375686883926,-0.17898350954055786
1750395859694681900,4.604681884765625,0.35552358627319336,1.3017538785934448,-0.5253441333770752
1750395859710703600,4.62070361328125,0.5760459303855896,2.526538610458374,-0.9920451641082764
1750395859726633700,4.6366337890625,0.4355469346046448,3.4129040241241455,-1.4330898523330688
1750395859742655500,4.652655517578125,-0.08124507963657379,3.2174272537231445,-1.416596531867981
1750395859758585600,4.668585693359375,-0.9108000993728638,2.576629638671875,-1.33168625831604
1750395859774607400,4.684607421875,-1.5937473773956299,2.722015619277954,-1.8448129892349243
1750395859790598700,4.7005986328125,-2.020742177963257,3.1758882999420166,-2.453845739364624
1750395859806528800,4.71652880859375,-2.2492058277130127,3.506366491317749,-2.7488934993743896
1750395859822520000,4.73252001953125,-2.2461514472961426,3.3457088470458984,-2.579684019088745
1750395859838480600,4.748480712890625,-1.8820757865905762,2.799595355987549,-1.9816468954086304
1750395859862436900,4.772436767578125,-1.0708467960357666,1.3066407442092896,-0.4282165467739105
1750395859878367200,4.7883671875,-1.0873401165008545,-0.2785545587539673,0.20097467303276062
1750395859894358300,4.804358154296875,-1.2229522466659546,-0.6805039048194885,-0.04092797264456749
1750395859950297000,4.860297119140625,-2.420858860015869,1.8307631015777588,-1.737911581993103
1750395859966227200,4.876227294921875,-2.4110851287841797,-0.5155702829360962,-1.5821410417556763
1750395859982249000,4.8922490234375,-1.9950858354568481,-0.7519751191139221,-1.7996090650558472
1750395860006235600,4.916235595703125,-1.6084082126617432,0.7721336483955383,-3.012787342071533
1750395860022227000,4.93222705078125,-1.7232508659362793,0.0757472887635231,-3.277902841567993
1750395860054178800,4.9641787109375,-1.709811806678772,-0.23335053026676178,-2.473393440246582
1750395860086161400,4.996161376953125,-1.5234979391098022,0.5711590051651001,-1.5961909294128418
1750395860110178600,5.020178466796875,-1.2308934926986694,0.9639453291893005,-1.0152580738067627
1750395860126139400,5.036139404296875,-0.8729264140129089,0.6359107494354248,-0.8423831462860107
1750395860150126000,5.0601259765625,-0.5955936312675476,-0.9462302923202515,-1.1282681226730347
1750395860166087000,5.0760869140625,-0.46670106053352356,-1.5894713401794434,-1.0848966836929321
1750395860182078000,5.092077880859375,-0.21380282938480377,-1.235169529914856,-0.2968805134296417
1750395860198008300,5.10800830078125,0.03420845419168472,-0.16249015927314758,0.8570439219474792
1750395860222025500,5.132025390625,0.2528982162475586,1.4098769426345825,2.41413950920105
1750395860237986300,5.147986328125,0.39095374941825867,1.2424999475479126,2.7146852016448975
1750395860253916400,5.16391650390625,0.7843509912490845,0.7415903806686401,2.4294111728668213
1750395860269907700,5.17990771484375,1.1679743528366089,3.9932260513305664,2.8264734745025635
1750395860285868300,5.195868408203125,0.7079927921295166,-0.1258382350206375,2.515542984008789
1750395860301890000,5.21189013671875,1.4074335098266602,0.8295549750328064,1.0690141916275024
1750395860317820200,5.227820068359375,2.579684019088745,1.120937705039978,2.116647958755493
1750395860333750500,5.24375048828125,2.693915843963623,0.9841039180755615,2.7824912071228027
1750395860349802800,5.259802734375,1.8484781980514526,1.3561208248138428,2.777604341506958
1750395860365732900,5.27573291015625,1.017701506614685,0.8668177723884583,2.7843236923217773
1750395860381754600,5.291754638671875,0.8747590184211731,0.5418374538421631,2.4868323802948
1750395860397715200,5.307715087890625,1.0592403411865234,0.7800748944282532,2.0189096927642822
1750395860429636600,5.33963671875,1.7024813890457153,0.8399397134780884,1.3249666690826416
1750395860453562400,5.363562255859375,2.072054862976074,0.7489207983016968,1.1148290634155273
1750395860469553700,5.3795537109375,2.0726656913757324,0.4306600093841553,0.8900306820869446
1750395860493510000,5.403510009765625,2.0115792751312256,-0.6304129362106323,0.3738495409488678
1750395860509501200,5.419501220703125,1.835650086402893,-0.9395107626914978,0.31093040108680725
1750395860525461800,5.435461669921875,1.4844025373458862,-0.036651913076639175,0.6609562039375305
1750395860541453000,5.451453125,1.0598511695861816,0.2877175211906433,0.8869763612747192
1750395860557413600,5.46741357421875,0.6139195561408997,0.34513887763023376,0.9926560521125793
1750395860573405000,5.483405029296875,0.14416420459747314,1.36650550365448,1.1655309200286865
1750395860589396200,5.499396240234375,0.036651913076639175,2.310903310775757,1.0641272068023682
1750395860621348000,5.53134814453125,-0.5681046843528748,1.4691308736801147,0.6762278079986572
1750395860645304300,5.55530419921875,-1.2260065078735352,1.8008307218551636,0.15577064454555511
1750395860701151500,5.6111513671875,-1.1160508394241333,1.5363260507583618,0.2583959996700287
1750395860725108000,5.63510791015625,-0.06719517707824707,1.7189748287200928,1.076344609260559
1750395860741068500,5.651068603515625,1.6310101747512817,1.3475687503814697,1.6029103994369507
1750395860765024800,5.675024658203125,3.724445343017578,-0.3744603991508484,1.6218472719192505
1750395860781046500,5.691046630859375,2.905885934829712,-1.0739010572433472,1.3683381080627441
1750395860844889300,5.754889404296875,1.5613715648651123,0.009162978269159794,0.607200026512146
1750395860860880600,5.770880615234375,1.4654656648635864,0.23335053026676178,0.3182607889175415
1750395860892863000,5.802863037109375,0.06902777403593063,0.9773843884468079,-0.48380526900291443
1750395860964762400,5.874762451171875,-2.652376890182495,0.827722430229187,-0.6059783101081848
1750395861004679400,5.914679443359375,-0.7415903806686401,-1.8124371767044067,-1.160033106803894
1750395861028696800,5.93869677734375,-1.340238332748413,3.590665817260742,-1.026253581047058
1750395861084452400,5.994452392578125,-3.6138787269592285,1.1423180103302002,-0.2321287989616394
1750395861100474000,6.01047412109375,-4.2223005294799805,3.8698313236236572,0.5723807215690613
1750395861124399900,6.03439990234375,-4.748255729675293,1.1068878173828125,0.7476990818977356
1750395861156382200,6.06638232421875,-4.513072490692139,-2.324953079223633,-5.623014450073242
1750395861172373500,6.08237353515625,-2.147191286087036,-1.4001030921936035,-2.2424862384796143
1750395861188364800,6.09836474609375,-3.0439414978027344,2.0812180042266846,0.18387043476104736
1750395861204264400,6.114264404296875,-3.3347134590148926,-0.6481280326843262,-0.6866125464439392
1750395861220286000,6.130285888671875,-2.0250182151794434,-0.5974262356758118,-0.5387831330299377
1750395861244181200,6.15418115234375,-0.5455026626586914,-0.7226535677909851,-1.3048081398010254
1750395861268198700,6.17819873046875,0.7831292152404785,-2.0775527954101562,-1.8881844282150269
1750395861292094000,6.202093994140625,1.693318486213684,-2.9749138355255127,-2.560136318206787
1750395861316080600,6.22608056640625,2.2577579021453857,-3.2473597526550293,-1.9871445894241333
1750395861356028200,6.266028076171875,2.509434461593628,-2.031737804412842,0.6255260109901428
1750395861419901400,6.3299013671875,0.7312057018280029,0.7293730974197388,5.453804969787598
1750395861451884000,6.361884033203125,4.117842674255371,4.128227233886719,4.594317436218262
1750395861467905800,6.37790576171875,3.634648323059082,2.2479841709136963,4.344473838806152
1750395861507883800,6.4178837890625,-0.4660901725292206,0.9272934198379517,1.2883148193359375
1750395861547831300,6.457831298828125,0.44104471802711487,-0.5919284224510193,-0.7348709106445312
1750395861563731000,6.47373095703125,0.6597344875335693,-1.216843605041504,-0.9468411207199097
1750395861611735000,6.521735107421875,1.6059647798538208,-0.5351179838180542,0.3982841372489929
1750395861667704300,6.577704345703125,1.0305296182632446,-0.6682865619659424,0.19303341209888458
1750395861747599400,6.657599365234375,-0.02076941914856434,2.0476202964782715,1.4691308736801147
1750395861787516400,6.697516357421875,-0.979827880859375,1.4092661142349243,0.2816088795661926
1750395861819437600,6.7294375,-1.007927656173706,1.5833626985549927,0.2932153046131134
1750395861851328500,6.76132861328125,-0.9340129494667053,0.5082398653030396,0.18570303916931152
1750395861915201800,6.825201904296875,-0.4196644127368927,0.7806857824325562,-0.513126790523529
1750395861963145000,6.87314501953125,0.5962044596672058,0.740368664264679,0.2577851414680481
1750395862003062000,6.91306201171875,1.3842206001281738,0.49724429845809937,0.7153232097625732
1750395862019083800,6.929083740234375,1.3078625202178955,0.21624629199504852,0.7751879692077637
1750395862051005200,6.961005126953125,1.482569932937622,0.24923302233219147,1.4141530990600586
1750395862114878500,7.02487841796875,1.2345587015151978,1.6389514207839966,0.5778785347938538
1750395862146830300,7.056830322265625,-0.37629300355911255,2.069000482559204,-0.1368338167667389
1750395862178812700,7.088812744140625,-0.9327912330627441,3.185662269592285,-0.9578366875648499
1750395862210703600,7.12070361328125,-1.518610954284668,1.5833626985549927,-1.6187928915023804
1750395862226694700,7.136694580078125,-1.5809192657470703,0.7055493593215942,-1.5363260507583618
1750395862242686000,7.15268603515625,-1.302364706993103,-0.18936823308467865,-0.9162978529930115
1750395862274637800,7.184637939453125,-1.3799445629119873,-0.8484918475151062,-0.16310101747512817
1750395862290568000,7.20056787109375,-1.778228759765625,0.2681698501110077,-0.048258353024721146
1750395862306620400,7.216620361328125,-2.3518311977386475,3.1251866817474365,-0.07147123664617538
1750395862330546200,7.240546142578125,-2.8875601291656494,2.855794906616211,0.12034045159816742
1750395862346537200,7.256537109375,-2.7739391326904297,1.4892895221710205,-0.43127086758613586
1750395862362498000,7.272498046875,-2.143526077270508,1.1007791757583618,-1.1429288387298584
1750395862386484700,7.296484619140625,-1.7250834703445435,1.197295904159546,-1.043968677520752
1750395862402445600,7.312445556640625,-2.1374175548553467,1.822821855545044,-0.5711590051651001
1750395862418436600,7.3284365234375,-2.3964242935180664,2.6053402423858643,-0.3139847218990326
1750395862434336300,7.344336181640625,-2.3774874210357666,1.807550311088562,-0.37751471996307373
1750395862450327600,7.36032763671875,-2.2174408435821533,0.9676105380058289,-0.8484918475151062
1750395862474283800,7.38428369140625,-1.95965576171875,1.0207557678222656,-1.531439185142517
1750395862490275000,7.400275146484375,-1.7996090650558472,1.1074986457824707,-1.4300355911254883
1750395862522196500,7.432196533203125,-1.3487904071807861,0.2822197377681732,-1.6823228597640991
1750395862570078500,7.480078369140625,-0.9553932547569275,-0.38179078698158264,-1.9449949264526367
1750395862618021600,7.528021728515625,-0.08491026610136032,-0.6200281977653503,-1.5338826179504395
1750395862657908200,7.567908203125,0.05864306539297104,-0.11056660860776901,0.08857546001672745
1750395862673838300,7.58383837890625,-0.15577064454555511,-0.182648703455925,0.6377432942390442
1750395862705790200,7.615790283203125,-0.04764748737215996,-0.6420193910598755,1.3946053981781006
1750395862721750800,7.631750732421875,0.32498031854629517,-0.24678955972194672,1.9120081663131714
1750395862753703000,7.663702880859375,1.1160508394241333,1.8570303916931152,2.7904324531555176
1750395862777659100,7.6876591796875,-0.09162978827953339,2.704911231994629,2.342057466506958
1750395862793619700,7.70361962890625,-1.0421360731124878,-1.9242255687713623,0.4098905920982361
1750395862825632800,7.7356328125,2.4251351356506348,-1.2760975360870361,-0.4996877610683441
1750395862841593300,7.75159326171875,2.5729644298553467,-1.7696765661239624,-0.38179078698158264
1750395862857615000,7.767614990234375,2.0726656913757324,-0.3885102868080139,0.48319441080093384
1750395862873576000,7.783575927734375,1.6633861064910889,-0.242513507604599,0.8509352803230286
1750395862889567000,7.79956689453125,1.5344934463500977,0.3243694305419922,1.5222761631011963
1750395862905588700,7.815588623046875,1.6792685985565186,0.9523389339447021,2.2540926933288574
1750395862921549600,7.831549560546875,1.7818939685821533,1.3439035415649414,2.8985555171966553
1750395862937571300,7.8475712890625,1.9297232627868652,1.7153096199035645,3.124575614929199
1750395862953501400,7.86350146484375,2.0867156982421875,1.9083430767059326,2.9834659099578857
1750395862969492500,7.879492431640625,2.1875083446502686,1.7800613641738892,2.543031930923462
1750395862985545000,7.895544921875,2.1539108753204346,1.367727279663086,2.004248857498169
1750395863001475000,7.91147509765625,1.986533761024475,0.8881980776786804,1.351233959197998
1750395863017496800,7.927496826171875,1.7342463731765747,0.6798930168151855,0.8454375267028809
1750395863033488000,7.94348779296875,1.5827518701553345,0.5778785347938538,0.5308418869972229
1750395863049479200,7.959479248046875,1.511891484260559,0.3677408695220947,0.2669481039047241
1750395863065470500,7.975470458984375,1.4679092168807983,0.43127086758613586,0.16982053220272064
1750395863081431000,7.99143115234375,1.398881435394287,0.5424483418464661,0.2889392673969269
1750395863097422300,8.00742236328125,1.1985175609588623,0.6878342628479004,0.7110471725463867
1750395863113383000,8.0233828125,0.940732479095459,0.6811147332191467,0.949895441532135
1750395863129343700,8.03934375,0.6896668672561646,0.5656611919403076,0.9566149711608887
1750395863145334800,8.055334716796875,0.6395758986473083,0.19058994948863983,0.7269296646118164
1750395863161265200,8.07126513671875,0.807563841342926,0.02871066704392433,0.6322455406188965
1750395863193217000,8.103217041015625,1.2797627449035645,0.04703662544488907,0.9926560521125793
1750395863217234400,8.127234375,1.0897835493087769,0.11178833991289139,1.5833626985549927
1750395863257181700,8.167181640625,0.1612684279680252,1.4953981637954712,2.0726656913757324
1750395863297098800,8.2070986328125,0.9779952764511108,0.48319441080093384,2.0952677726745605
1750395863321024500,8.2310244140625,2.39825701713562,0.7238753437995911,-0.14844025671482086
1750395863336985300,8.2469853515625,1.4984524250030518,-0.03848451003432274,-0.43249258399009705
1750395863352946000,8.26294580078125,0.5345070958137512,-1.379333734512329,-0.27977627515792847
1750395863368937200,8.278937255859375,-0.0708603709936142,-1.4471397399902344,-0.11850785464048386
1750395863392863000,8.302863037109375,-0.152105450630188,1.0965031385421753,0.3744603991508484
1750395863408854300,8.318854248046875,-0.33658674359321594,2.0445659160614014,0.7568620443344116
1750395863424906500,8.334906494140625,-0.20402899384498596,2.14902400970459,1.2418889999389648
1750395863448862700,8.35886279296875,0.7544185519218445,2.4086415767669678,0.7458664774894714
1750395863488840700,8.3988408203125,-1.018923282623291,-0.7770205736160278,-1.187522053718567
1750395863504862500,8.414862548828125,-2.158186912536621,1.1533136367797852,-1.6688838005065918
1750395863536844800,8.4468447265625,-3.7537670135498047,1.4208725690841675,-1.9511035680770874
1750395863560770600,8.4707705078125,-4.758640289306641,0.2583959996700287,-2.4831671714782715
1750395863576792300,8.486792236328125,-4.646852016448975,0.32070425152778625,-2.8771753311157227
1750395863600718000,8.510718017578125,-3.629761219024658,1.3371840715408325,-2.518597364425659
1750395863624705000,8.534705078125,-2.8215866088867188,2.671924591064453,-1.626123309135437
1750395863640635100,8.55063525390625,-2.623666286468506,3.3011157512664795,-1.13926362991333
1750395863664622000,8.5746220703125,-2.883283853530884,3.181997060775757,-0.09162978827953339
1750395863688547800,8.5985478515625,-4.38967752456665,2.6309967041015625,0.18936823308467865
1750395863704569600,8.614569580078125,-5.403714179992676,1.1924089193344116,-0.9089674949645996
1750395863720469200,8.63046923828125,-5.627290725708008,0.5387831330299377,-2.147191286087036
1750395863736491000,8.646490966796875,-4.7445902824401855,-0.14355333149433136,-2.780658483505249
1750395863768412200,8.678412109375,-3.181997060775757,-0.6126978397369385,-2.536923408508301
1750395863784434000,8.694433837890625,-3.0549371242523193,-0.7709119319915771,-2.5503623485565186
1750395863800364300,8.7103642578125,-2.9297096729278564,-1.2082914113998413,-2.6988027095794678
1750395863816355300,8.726355224609375,-2.5027148723602295,-1.8796323537826538,-2.9138271808624268
1750395863832285700,8.74228564453125,-2.026850938796997,-2.285857677459717,-2.989574432373047
1750395863848276700,8.75827685546875,-1.5167783498764038,-2.2351558208465576,-2.685974597930908
1750395863864298500,8.774298583984375,-0.960280179977417,-2.0916025638580322,-2.098932981491089
1750395863880228600,8.790228515625,-0.4642575979232788,-1.9419406652450562,-1.2754865884780884
1750395863912180500,8.822180419921875,0.7324274182319641,-2.1142046451568604,0.42760565876960754
1750395863936198000,8.846197998046875,1.2907582521438599,-1.7360789775848389,1.9260581731796265
1750395863960123600,8.87012353515625,1.42637038230896,-0.25595253705978394,3.1923818588256836
1750395863976145400,8.8861455078125,1.7189748287200928,0.22663100063800812,3.062878370285034
1750395863992106200,8.902106201171875,1.9352210760116577,-0.7226535677909851,2.9993484020233154
1750395864008006000,8.918005859375,1.2962560653686523,3.9675698280334473,2.5583035945892334
1750395864024027600,8.934027587890625,0.475253164768219,-3.307835340499878,0.36102136969566345
1750395864039957800,8.949957763671875,2.149634838104248,1.881464958190918,1.9602665901184082
1750395864055979500,8.9659794921875,2.5332581996917725,1.9840903282165527,2.9388725757598877
1750395864071970600,8.981970458984375,2.2516493797302246,0.8924741148948669,1.8222110271453857
1750395864087961900,8.9979619140625,1.6120734214782715,-0.5510004758834839,0.2565633952617645
1750395864103953200,9.013953125,1.2400563955307007,-0.7617489695549011,0.2834414839744568
1750395864119913700,9.029913818359375,1.3017538785934448,-0.21624629199504852,0.9388998746871948
1750395864135874600,9.04587451171875,1.6487252712249756,0.7935139536857605,2.0506746768951416
1750395864151835100,9.061835205078125,1.9981402158737183,1.4049900770187378,2.76111102104187
1750395864167826400,9.077826416015625,2.3017401695251465,1.9914207458496094,3.1758882999420166
1750395864183848200,9.09384814453125,2.4239132404327393,1.9126191139221191,3.045774221420288
1750395864199839200,9.109839111328125,2.3164010047912598,1.595579981803894,2.5973989963531494
1750395864215830500,9.12583056640625,2.021353006362915,1.1239920854568481,1.9914207458496094
1750395864231791000,9.141791015625,1.758681058883667,0.7611380815505981,1.5503759384155273
1750395864247782400,9.157782470703125,1.655444860458374,0.42699480056762695,1.1410962343215942
1750395864263804200,9.17380419921875,1.8857409954071045,0.18448130786418915,0.8686503767967224
1750395864279734300,9.189734375,2.310903310775757,-0.030543262138962746,0.6798930168151855
1750395864303660000,9.213659912109375,3.127019166946411,-0.46364670991897583,0.4398229718208313
1750395864319620900,9.229620849609375,3.450777769088745,-0.8460483551025391,0.3219259977340698
1750395864375590100,9.285590087890625,1.3084733486175537,-0.4660901725292206,0.44715335965156555
1750395864399516000,9.309515869140625,0.8863654732704163,0.5907067060470581,0.837496280670166
1750395864423533000,9.333532958984375,1.0659598112106323,0.931569516658783,1.0519099235534668
1750395864439463400,9.34946337890625,1.1832460165023804,0.8185594081878662,1.1533136367797852
1750395864455454500,9.365454345703125,1.1453723907470703,0.4960225820541382,1.1856894493103027
1750395864471384600,9.381384521484375,1.0286970138549805,0.12461651116609573,1.1374311447143555
1750395864495402000,9.405402099609375,0.8038986921310425,-0.3982841372489929,1.10139000415802
1750395864519327700,9.42932763671875,0.43127086758613586,0.18997909128665924,1.217454433441162
1750395864535349500,9.445349609375,0.32070425152778625,0.6157521605491638,1.1288789510726929
1750395864551310300,9.461310302734375,0.34086281061172485,0.4648684561252594,1.084285855293274
1750395864567301400,9.47730126953125,0.5082398653030396,0.09712757170200348,1.2589932680130005
1750395864583323100,9.4933232421875,0.7428121566772461,-0.033597588539123535,1.6004669666290283
1750395864599284000,9.509283935546875,0.9181304574012756,0.07024950534105301,1.8875735998153687
1750395864615244500,9.52524462890625,1.1527026891708374,0.6988298296928406,1.4294246435165405
1750395864639170300,9.54917041015625,1.2559388875961304,2.2540926933288574,-0.3891211748123169
1750395864655192000,9.565192138671875,1.2889256477355957,2.118480682373047,-0.9682214260101318
1750395864679117800,9.589117919921875,0.9040805697441101,0.8051204085350037,-0.49724429845809937
1750395864703104800,9.613104736328125,0.2583959996700287,0.43615779280662537,0.8900306820869446
1750395864719035000,9.629034912109375,0.001832595793530345,0.6609562039375305,1.1716395616531372
1750395864735026200,9.645026123046875,-0.5357288122177124,1.9999728202819824,0.9853256344795227
1750395864750986800,9.66098681640625,-1.7849482297897339,3.6719110012054443,-0.01771509274840355
1750395864766947300,9.676947265625,-3.023782968521118,2.3719897270202637,-0.9431759119033813
1750395864782969000,9.692968994140625,-3.769038677215576,-0.6261368989944458,-1.4654656648635864
1750395864798899500,9.7088994140625,-4.260785102844238,-1.985922932624817,-2.216830015182495
1750395864814890500,9.724890380859375,-4.506963729858398,-0.9749409556388855,-2.967583417892456
1750395864830820600,9.740820556640625,-4.468479156494141,-2.39825701713562,-3.6273179054260254
1750395864846812000,9.75681201171875,-4.027434349060059,-2.730567693710327,-4.0885210037231445
1750395864870707200,9.780707275390625,-3.078760862350464,-1.4618005752563477,-3.1202995777130127
1750395864886698500,9.796698486328125,-2.8215866088867188,-0.8246681094169617,-1.0696250200271606
1750395864910685200,9.820685302734375,-2.2760839462280273,2.046398639678955,-0.012217304669320583
1750395864926676500,9.836676513671875,-2.205223560333252,3.737884521484375,-0.07024950534105301
1750395864950663200,9.8606630859375,-2.20583438873291,2.065335512161255,-0.5546656250953674
1750395864966624000,9.8766240234375,-1.8295414447784424,-0.36224308609962463,-1.3145819902420044
1750395864990580200,9.900580322265625,-1.1478158235549927,-1.5570955276489258,-2.1710150241851807
1750395865006571500,9.916571533203125,-0.826500654220581,-0.8093964457511902,-2.051896333694458
1750395865022562600,9.9325625,-0.6432411074638367,0.018936822190880775,-1.4746286869049072
1750395865038493000,9.948492919921875,-0.49724429845809937,0.4795292317867279,-0.6444628238677979
1750395865062479600,9.972479736328125,-0.6017022728919983,0.6304129362106323,0.06414084881544113
1750395865078379300,9.988379150390625,-0.4593706727027893,0.44715335965156555,0.2064724564552307
1750395865094401000,10.004401123046875,0.2028072625398636,-0.31093040108680725,0.4502076804637909
1750395865110300700,10.02030078125,0.9297369122505188,-1.3799445629119873,0.6633996367454529
1750395865126261500,10.036261474609375,1.5613715648651123,-2.1539108753204346,0.836885392665863
1750395865142283300,10.052283203125,1.8460347652435303,-2.1850650310516357,1.0073168277740479
1750395865158213400,10.06821337890625,1.6975945234298706,-1.6029103994369507,1.2712105512619019
1750395865190134800,10.100134765625,0.46853363513946533,1.2559388875961304,1.4618005752563477
1750395865214121500,10.12412158203125,0.5894849896430969,2.155132532119751,1.7171422243118286
1750395865230021000,10.140021240234375,0.9053022861480713,0.7825183868408203,1.5992451906204224
1750395865269938200,10.179938232421875,0.6279694437980652,-1.6627751588821411,-0.32559117674827576
1750395865293864000,10.203864013671875,0.6157521605491638,-2.1306979656219482,-0.7312057018280029
1750395865309794000,10.2197939453125,-0.5253441333770752,-0.6438519954681396,-0.1111774742603302
1750395865341776600,10.251776611328125,-0.7397578358650208,3.2901201248168945,0.2376265823841095
1750395865357737200,10.2677373046875,-0.6676757335662842,3.1343495845794678,0.4178318381309509
1750395865373759000,10.283759033203125,-0.5125159621238708,2.4575109481811523,0.5528330206871033
1750395865389719600,10.299719482421875,-0.08979719132184982,1.945605754852295,0.4990769028663635
1750395865405710800,10.3157109375,0.4440990388393402,0.9224064946174622,0.485027015209198
1750395865421702100,10.3317021484375,1.037249207496643,-0.4086688458919525,0.7037167549133301
1750395865437632300,10.34763232421875,1.4508049488067627,-0.5607742667198181,1.027475357055664
1750395865453654000,10.363654052734375,1.6670511960983276,0.49296826124191284,1.2486085891723633
1750395865469614600,10.379614501953125,1.7886134386062622,2.58457088470459,1.5845844745635986
1750395865485606000,10.39560595703125,1.670716404914856,5.07445764541626,1.99752938747406
1750395865501597200,10.41159716796875,1.5925257205963135,5.713422775268555,1.9559905529022217
1750395865517496800,10.427496826171875,1.378722906112671,4.893030643463135,1.7623462677001953
1750395865533518600,10.4435185546875,1.2009611129760742,3.5637879371643066,1.5613715648651123
1750395865549448700,10.45944873046875,1.2773191928863525,2.214386463165283,1.386053204536438
1750395865565440000,10.47543994140625,1.4575244188308716,1.1478158235549927,1.2180652618408203
1750395865581431000,10.49143115234375,1.5968017578125,0.43615779280662537,1.084285855293274
1750395865597361200,10.507361083984375,1.7324138879776,-0.3543018400669098,0.9743300676345825
1750395865613383000,10.5233828125,1.8429805040359497,-0.9914342761039734,1.0256427526474
1750395865629343700,10.53934375,1.9297232627868652,-1.5564846992492676,1.370781660079956
1750395865645334800,10.555334716796875,1.929112434387207,-1.7721201181411743,1.9969184398651123
1750395865661356500,10.5713564453125,1.8332066535949707,-1.4764612913131714,2.8295278549194336
1750395865677256200,10.587256103515625,1.8472565412521362,0.50335294008255,4.740314483642578
1750395865693247500,10.60324755859375,1.6224581003189087,2.3524420261383057,4.967555999755859
1750395865709208000,10.6192080078125,1.1759155988693237,3.679241418838501,3.717725992202759
1750395865725138400,10.635138427734375,0.503963828086853,4.07080602645874,1.9120081663131714
1750395865741160200,10.65116015625,-0.02687807008624077,4.2558979988098145,0.5949827432632446
1750395865757120800,10.667120849609375,-0.34147366881370544,4.555832862854004,0.00427605677396059
1750395865773081600,10.68308154296875,-0.5461135506629944,3.495370864868164,0.5290092825889587
1750395865788981200,10.698981201171875,-1.0250319242477417,1.0097602605819702,0.788016140460968
1750395865804972300,10.71497216796875,-1.4672982692718506,0.06841690838336945,0.44287729263305664
1750395865820994000,10.730994140625,-1.8973474502563477,1.4850133657455444,-0.025656340643763542
1750395865836924200,10.746924072265625,-2.4098634719848633,3.006678819656372,-1.0775662660598755
1750395865852885000,10.762885009765625,-2.9040534496307373,1.6255123615264893,-1.884519338607788
1750395865868845600,10.778845458984375,-3.2925636768341064,-0.4954117238521576,-2.5674667358398438
1750395865884806400,10.794806396484375,-3.408017158508301,-1.6352862119674683,-3.020728588104248
1750395865900828200,10.810828125,-3.381139039993286,-1.3359622955322266,-3.4440581798553467
1750395865916788700,10.826788818359375,-3.386636972427368,-1.4672982692718506,-3.3341023921966553
1750395865932810500,10.842810546875,-3.126408338546753,-1.3518447875976562,-3.112358331680298
1750395865948771000,10.85877099609375,-2.76111102104187,-0.11423180252313614,-2.191173553466797
1750395865964762400,10.874762451171875,-2.4129176139831543,2.2852468490600586,-0.304210901260376
1750395865980784000,10.8907841796875,-2.054950714111328,3.8429532051086426,1.1508700847625732
1750395866004710000,10.9147099609375,-1.4190399646759033,3.3841934204101562,2.2211060523986816
1750395866020731600,10.930731689453125,-1.122159481048584,1.5265522003173828,0.9321803450584412
1750395866036692200,10.946692138671875,-1.0891727209091187,-0.08246681094169617,-0.6829473376274109
1750395866052683500,10.96268359375,-1.0800096988677979,-1.7708983421325684,-1.845423936843872
1750395866068613600,10.978613525390625,-0.9126327037811279,-2.026240110397339,-2.0567831993103027
1750395866084605000,10.99460498046875,-0.6108652353286743,-1.36955988407135,-1.5833626985549927
1750395866100596200,11.01059619140625,-0.44837507605552673,-0.5607742667198181,-0.8032878041267395
1750395866116526300,11.0265263671875,-0.4550946056842804,-0.10812314599752426,-0.14416420459747314
1750395866132548000,11.042548095703125,-0.5021312236785889,0.027488935738801956,0.3799581825733185
1750395866148478200,11.058478271484375,-0.4709770977497101,0.22846360504627228,0.4795292317867279
1750395866164469500,11.074469482421875,-0.13500121235847473,0.04948008432984352,0.49785518646240234
1750395866180460500,11.09046044921875,0.43127086758613586,-0.930347740650177,0.6878342628479004
1750395866196360200,11.106360107421875,0.8515461683273315,-1.6187928915023804,0.8063421249389648
1750395866212382000,11.1223818359375,0.9511171579360962,-1.120937705039978,0.9712757468223572
1750395866228312000,11.13831201171875,0.8704829812049866,-0.12767083942890167,1.205847978591919
1750395866244242400,11.154242431640625,0.6102544069290161,0.7018841505050659,1.4874569177627563
1750395866260264200,11.17026416015625,0.27061331272125244,1.38849675655365,1.4966198205947876
1750395866276194300,11.1861943359375,0.06230825558304787,2.536923408508301,1.0598511695861816
1750395866292155000,11.20215478515625,0.13439035415649414,3.0860912799835205,0.8448266386985779
1750395866308115700,11.21811572265625,0.6243042945861816,0.37201693654060364,0.940732479095459
1750395866324076300,11.234076171875,0.988379955291748,-2.079996109008789,0.1111774742603302
1750395866340098000,11.25009814453125,1.007927656173706,-1.5308283567428589,-1.1435397863388062
1750395866356059000,11.266058837890625,0.6340781450271606,-1.253495454788208,-1.6377297639846802
1750395866372019500,11.28201953125,-0.26939156651496887,-2.4807238578796387,-0.8845328688621521
1750395866387980000,11.29797998046875,-0.45631635189056396,-1.1759155988693237,-0.24007004499435425
1750395866403971300,11.313971435546875,-0.35185837745666504,0.7116580009460449,-0.5216789245605469
1750395866419993000,11.3299931640625,-0.09651670604944229,1.7256942987442017,-0.9144652485847473
1750395866443918800,11.3539189453125,0.4605923891067505,2.1142046451568604,-0.9841039180755615
1750395866459971000,11.36997119140625,0.7861835956573486,1.3072515726089478,-0.5907067060470581
1750395866475870700,11.38587060546875,0.9327912330627441,-0.06352998316287994,0.1411098688840866
1750395866491862000,11.401862060546875,0.9236282706260681,-0.44593164324760437,0.6725626587867737
1750395866515787800,11.425787841796875,0.9865473508834839,0.655458390712738,1.1007791757583618
1750395866531779000,11.441779052734375,1.015868902206421,1.6688838005065918,1.2424999475479126
1750395866547739600,11.45773974609375,1.0824532508850098,2.0891592502593994,1.273043155670166
1750395866563700500,11.473700439453125,1.1789699792861938,2.119091510772705,1.254717230796814
1750395866579722000,11.489721923828125,1.2455542087554932,1.9150625467300415,1.2852604389190674
1750395866595652400,11.50565234375,1.4440854787826538,1.3005321025848389,1.5344934463500977
1750395866611643400,11.521643310546875,1.7550158500671387,0.40194934606552124,1.9492709636688232
1750395866627604200,11.537604248046875,1.9058995246887207,-0.18020524084568024,2.168571710586548
1750395866643595300,11.55359521484375,1.7122552394866943,-0.5760459303855896,2.2204952239990234
1750395866659617000,11.569616943359375,1.3365731239318848,-0.7220427393913269,2.1062633991241455
1750395866707499300,11.617499267578125,1.2754865884780884,0.10445795953273773,2.8405234813690186
1750395866723490300,11.633490234375,1.0800096988677979,1.1441506147384644,2.976135492324829
1750395866739512000,11.649511962890625,0.8307767510414124,2.230268955230713,2.1789562702178955
1750395866755442400,11.6654423828125,0.6646214127540588,2.646268129348755,1.0238101482391357
1750395866771433500,11.68143359375,0.3591887652873993,2.018298864364624,-0.1417207419872284
1750395866787394300,11.697394287109375,0.16371189057826996,1.0922271013259888,-0.7299839854240417
1750395866803385300,11.71338525390625,0.00733038317412138,0.36713001132011414,-0.8014551997184753
1750395866819407000,11.729406982421875,-0.1722639948129654,0.16554448008537292,-0.749531626701355
1750395866835368000,11.745367919921875,-0.23335053026676178,0.2370157092809677,-0.7709119319915771
1750395866851389700,11.7613896484375,-0.28588494658470154,0.4331034719944,-0.7727445363998413
1750395866867319800,11.77731982421875,-0.3677408695220947,0.49846604466438293,-0.7672467231750488
1750395866883280400,11.7932802734375,-0.6640105247497559,0.192422553896904,-0.46364670991897583
1750395866899241200,11.8092412109375,-1.2131783962249756,-0.22663100063800812,0.2223549485206604
1750395866915140900,11.825140869140625,-1.757459282875061,0.788016140460968,0.32070425152778625
1750395866931162600,11.84116259765625,-2.1710150241851807,4.365242958068848,-1.7464637756347656
1750395866947062300,11.857062255859375,-2.518597364425659,3.4538321495056152,-3.2070424556732178
1750395866963022800,11.87302294921875,-2.8099801540374756,0.4691445231437683,-3.420234441757202
1750395867010996500,11.92099658203125,-2.2296581268310547,0.7922922372817993,-2.140471935272217
1750395867058939600,11.968939697265625,-1.5485434532165527,2.2149972915649414,1.3426817655563354
1750395867090861000,12.000861083984375,-1.5925257205963135,3.0549371242523193,1.1215485334396362
1750395867146708200,12.056708251953125,-1.5656476020812988,-1.1191051006317139,-1.357953429222107
1750395867178721000,12.088720947265625,-0.8161159753799438,-0.8778133392333984,-0.7831292152404785
1750395867234629400,12.14462939453125,-0.16310101747512817,-0.42577308416366577,0.1313360333442688
1750395867298502700,12.208502685546875,0.9633345007896423,-0.9431759119033813,0.9370672702789307
1750395867330424000,12.240424072265625,1.217454433441162,-1.3982704877853394,0.7739662528038025
1750395867362345500,12.272345458984375,0.4538728892803192,-0.6407976150512695,0.8509352803230286
1750395867418284000,12.328283935546875,0.0861319974064827,1.4679092168807983,0.8020660877227783
1750395867434244900,12.344244873046875,0.18936823308467865,1.645671010017395,0.6878342628479004
1750395867450266600,12.3602666015625,0.3090978264808655,1.690264105796814,0.3591887652873993
1750395867466196700,12.37619677734375,0.6682865619659424,0.7159340381622314,0.05803219974040985
1750395867482188000,12.39218798828125,1.5656476020812988,-0.5375614166259766,-0.02382374368607998
1750395867498179000,12.408178955078125,1.4899003505706787,0.1966986060142517,-0.45204028487205505
1750395867514140000,12.424139892578125,-0.41111230850219727,0.34086281061172485,-0.28099802136421204
1750395867530131000,12.440130859375,-0.8979719281196594,0.13439035415649414,-0.11484266817569733
1750395867570078500,12.480078369140625,0.12522737681865692,0.6725626587867737,0.1966986060142517
1750395867593973800,12.503973876953125,0.403781920671463,1.8319848775863647,0.03298672288656235
1750395867618021600,12.528021728515625,0.44226643443107605,2.289522886276245,0.2321287989616394
1750395867649943000,12.559943115234375,0.6866125464439392,2.116037130355835,0.7104362845420837
1750395867673868800,12.583868896484375,1.0042624473571777,2.202169179916382,1.103833556175232
1750395867705820700,12.615820556640625,1.2791517972946167,1.5534303188323975,1.3964380025863647
1750395867737772500,12.6477724609375,1.493565559387207,0.8362745046615601,1.4019356966018677
1750395867785624300,12.695624267578125,1.8087719678878784,0.20097467303276062,0.7312057018280029
1750395867801585000,12.7115849609375,1.8936822414398193,0.1362229436635971,0.7568620443344116
1750395867865519000,12.77551904296875,1.3420709371566772,0.8051204085350037,2.423302412033081
1750395867945414100,12.8554140625,0.05864306539297104,2.85274076461792,0.8558222055435181
1750395867969401000,12.879401123046875,-0.4648684561252594,1.722640037536621,0.03420845419168472
1750395868017344300,12.92734423828125,-1.112385630607605,1.7831156253814697,0.5571091175079346
1750395868049296100,12.959296142578125,-2.0971004962921143,4.9174652099609375,0.9230173826217651
1750395868073252400,12.98325244140625,-3.713449716567993,7.591222286224365,1.6169602870941162
1750395868113169400,13.02316943359375,-4.693277835845947,2.616335868835449,-1.663996934890747
1750395868217020700,13.127020751953125,-2.8374691009521484,3.3823609352111816,0.23640485107898712
1750395868232981500,13.1429814453125,-3.514918565750122,1.860695481300354,-0.4129449129104614
1750395868320841500,13.230841552734375,-1.3103059530258179,-1.225395679473877,-2.4471261501312256
1750395868336863200,13.24686328125,-1.1844676733016968,-1.0592403411865234,-2.3047945499420166
1750395868352793300,13.26279345703125,-0.9370672702789307,-1.1447614431381226,-1.949881911277771
1750395868376780300,13.2867802734375,-0.5711590051651001,-1.004873275756836,-1.1716395616531372
1750395868464579300,13.374579345703125,-1.2583824396133423,2.3603832721710205,2.49294114112854
1750395868504526800,13.41452685546875,0.14416420459747314,-0.8289441466331482,1.6297885179519653
1750395868544474400,13.454474365234375,2.3964242935180664,-2.8906142711639404,-0.8875871896743774
1750395868592448000,13.502447998046875,1.6255123615264893,-1.1997393369674683,0.8924741148948669
1750395868640360400,13.5503603515625,1.513113260269165,2.4721715450286865,3.679852247238159
1750395868680308000,13.590307861328125,1.5369369983673096,1.681712031364441,2.062891960144043
1750395868728312000,13.63831201171875,2.2656991481781006,0.7568620443344116,0.8527678847312927
1750395868768198700,13.67819873046875,1.8887953758239746,-0.3481931984424591,0.04886921867728233
1750395868784128800,13.694128662109375,1.947438359260559,-0.8332201838493347,-0.3646865487098694
1750395868808146200,13.718146240234375,1.9535470008850098,-1.141707181930542,-0.8301658630371094
1750395868824106800,13.734106689453125,1.4850133657455444,-1.2583824396133423,-1.0989465713500977
1750395868864054300,13.77405419921875,1.4966198205947876,-2.2211060523986816,0.11972958594560623
1750395868943949300,13.85394921875,-0.5711590051651001,3.7836992740631104,1.539380431175232
1750395869015910000,13.925909912109375,-1.2553280591964722,0.5393940210342407,-0.4404338300228119
1750395869079783200,13.989783203125,-0.9321803450584412,0.4740314185619354,-0.24007004499435425
1750395869159647700,14.069647705078125,2.791043281555176,-0.04337143152952194,1.1386528015136719
1750395869199595300,14.10959521484375,1.4471397399902344,-1.273043155670166,0.836885392665863
1750395869279520800,14.189520751953125,0.45875978469848633,0.7617489695549011,-0.2816088795661926
1750395869319468300,14.22946826171875,-1.2779301404953003,3.7818667888641357,-0.7336491346359253
1750395869335490000,14.245489990234375,-1.778228759765625,3.5216381549835205,-0.8350527882575989
1750395869351420200,14.261420166015625,-2.2003366947174072,1.8399261236190796,-0.9914342761039734
1750395869383341600,14.293341552734375,-1.938886284828186,-0.7159340381622314,-0.5571091175079346
1750395869415324000,14.325323974609375,-1.549154281616211,2.1056525707244873,1.0415252447128296
1750395869471232000,14.38123193359375,-2.4746150970458984,0.1765400618314743,-1.0421360731124878
1750395869535136000,14.445135986328125,-3.9968912601470947,1.2137892246246338,0.5296201705932617
1750395869559031300,14.46903125,-3.6896259784698486,-1.2565498352050781,-1.788002610206604
1750395869615000300,14.525000244140625,-2.6792550086975098,-0.48808133602142334,-1.5008958578109741
1750395869678843100,14.588843017578125,-2.175291061401367,-1.176526427268982,-2.1453588008880615
1750395869726878000,14.6368779296875,-1.3145819902420044,-2.141693592071533,-2.362215995788574
1750395869750803700,14.6608037109375,-0.9902125597000122,-1.503339409828186,-1.4654656648635864
1750395869798777300,14.70877734375,-0.2370157092809677,-0.5797111392021179,1.2400563955307007
1750395869902598100,14.81259814453125,2.3066272735595703,4.241237163543701,4.030488967895508
1750395869926615300,14.836615234375,1.3909401893615723,-0.4740314185619354,0.3597996234893799
1750395870022440700,14.932440673828125,1.2596040964126587,0.5528330206871033,1.36650550365448
1750395870046427400,14.956427490234375,1.6853772401809692,1.7531832456588745,2.5497515201568604
1750395870062418700,14.972418701171875,2.0427334308624268,2.4275784492492676,2.794097661972046
1750395870126414000,15.0364140625,1.9969184398651123,1.007927656173706,1.1325441598892212
1750395870198252300,15.108252197265625,1.588249683380127,-0.6481280326843262,-0.6414085030555725
1750395870254191000,15.164191162109375,1.8289304971694946,-2.4978280067443848,-1.379333734512329
1750395870270121200,15.180121337890625,1.4220943450927734,-1.4520267248153687,-0.8747590184211731
1750395870286143000,15.19614306640625,1.1215485334396362,-1.1624765396118164,-0.6279694437980652
1750395870374033700,15.28403369140625,-0.16310101747512817,1.5332717895507812,2.6456573009490967
1750395870421946000,15.331946044921875,-0.6957755088806152,0.9150761365890503,0.6481280326843262
1750395870501902300,15.41190234375,-0.2620611786842346,-0.10567969083786011,-0.06108652427792549
1750395870533884700,15.443884765625,-0.588263213634491,0.0861319974064827,-0.4386012554168701
1750395870581766700,15.4917666015625,0.07330382615327835,0.025045474991202354,-0.27000242471694946
1750395870605723100,15.51572314453125,0.3494149148464203,-0.1417207419872284,0.05497787147760391
1750395870653666300,15.563666259765625,2.0775527954101562,-0.3090978264808655,0.29077184200286865
1750395870677592000,15.587592041015625,1.341460108757019,-0.8148942589759827,0.1508837193250656
1750395870693644300,15.603644287109375,1.1649199724197388,-0.4337143301963806,0.6426302194595337
1750395870709574400,15.619574462890625,1.4410310983657837,-0.37751471996307373,0.8234463334083557
1750395870725535000,15.635534912109375,2.0005836486816406,-0.3384193480014801,0.7721336483955383
1750395870789408300,15.699408203125,0.3988949954509735,1.0836749076843262,0.05803219974040985
1750395870805430000,15.715429931640625,0.16371189057826996,1.0592403411865234,-0.22052235901355743
1750395870845347000,15.75534716796875,-0.6023131608963013,1.4569135904312134,-1.2003501653671265
1750395870917246500,15.82724658203125,-2.007303237915039,-0.13927727937698364,-0.5870414972305298
1750395871005137200,15.91513720703125,-2.0054705142974854,3.023782968521118,-0.00855211354792118
1750395871092966700,16.002966552734375,-2.076941728591919,1.7318029403686523,-0.018936822190880775
1750395871164896800,16.074896728515625,-1.644449234008789,0.6780604124069214,-0.9266825914382935
1750395871276774100,16.186774169921875,-0.9010262489318848,-0.14294247329235077,-1.1636983156204224
1750395871372660200,16.28266015625,0.21563543379306793,-0.5870414972305298,-0.16004669666290283
1750395871436533500,16.346533447265625,1.4214833974838257,-0.4899139404296875,1.32863187789917
1750395871524485400,16.4344853515625,0.6774495840072632,-0.1007927656173706,3.3231070041656494
1750395871540415500,16.45041552734375,0.7141014933586121,1.5534303188323975,1.8124371767044067
1750395871636332300,16.546332275390625,1.577254056930542,-0.9327912330627441,-0.3677408695220947
1750395871652354000,16.56235400390625,1.4752395153045654,-0.959669291973114,-0.28466320037841797
1750395871692270800,16.602270751953125,1.014647126197815,-0.10201449692249298,-0.18997909128665924
1750395871716196600,16.626196533203125,0.39767327904701233,0.5534439086914062,0.03787364438176155
1750395871756144000,16.66614404296875,0.4331034719944,1.538158655166626,0.7922922372817993
1750395871772166000,16.682165771484375,0.5418374538421631,1.7971655130386353,1.037249207496643
1750395871796091600,16.706091552734375,0.5925393104553223,1.832595705986023,1.5430456399917603
1750395871844034800,16.754034912109375,0.646906316280365,0.2376265823841095,1.3756685256958008
1750395871867960600,16.777960693359375,0.7128797173500061,-0.25961771607398987,0.8717046976089478
1750395871955790300,16.865790283203125,-0.41599923372268677,3.062267541885376,1.852143406867981
1750395872035685000,16.94568505859375,0.6860016584396362,1.3964380025863647,1.2455542087554932
1750395872083689500,16.993689453125,1.2247848510742188,0.48869219422340393,0.2993239760398865
1750395872147532000,17.057531982421875,0.37201693654060364,0.29626965522766113,0.3500257730484009
1750395872179484200,17.089484130859375,-0.12217304855585098,0.5094616413116455,0.7110471725463867
1750395872211497000,17.1214970703125,-0.5626068711280823,1.4123204946517944,0.7660250067710876
1750395872243448800,17.15344873046875,-1.0934487581253052,2.7012460231781006,-0.18448130786418915
1750395872267374600,17.17737451171875,-1.3396275043487549,2.0219640731811523,-0.5589417219161987
1750395872291392000,17.20139208984375,-1.6701055765151978,0.9199630618095398,-0.656069278717041
1750395872363261000,17.273260986328125,-2.49294114112854,1.8496999740600586,-0.4813618063926697
1750395872419077600,17.32907763671875,-3.589444160461426,3.604104995727539,0.940121591091156
1750395872466990000,17.376989990234375,-3.877161741256714,0.5626068711280823,-0.988990843296051
1750395872514963700,17.424963623046875,-3.8704421520233154,0.05009094998240471,-1.3909401893615723
1750395872538920200,17.448920166015625,-3.2479705810546875,-0.8429940342903137,-2.10809588432312
1750395872650797600,17.560797607421875,-1.3799445629119873,-1.5137240886688232,-1.5106697082519531
1750395872722574800,17.632574951171875,0.3604104816913605,-1.0005972385406494,0.40622538328170776
1750395872754465800,17.6644658203125,0.5247332453727722,-0.39095374941825867,1.5302174091339111
1750395872826304300,17.73630419921875,0.7867944240570068,-0.46670106053352356,2.2290472984313965
1750395872914133800,17.8241337890625,1.8136589527130127,0.32620203495025635,0.5650503635406494
1750395873010019800,17.920019775390625,2.0470094680786133,2.6340508460998535,2.822197437286377
1750395873113718800,18.02371875,1.8790215253829956,-0.5357288122177124,-0.16065755486488342
1750395873209513500,18.119513427734375,1.006095051765442,-1.5693128108978271,-1.1252137422561646
1750395873233408500,18.143408447265625,0.770301103591919,-1.1264355182647705,-0.7098253965377808
1750395873265391000,18.17539111328125,0.6383541822433472,-0.7538077235221863,0.17531833052635193
1750395873297343000,18.207343017578125,0.01038470957428217,1.2455542087554932,1.6096298694610596
1750395873329355800,18.239355712890625,-0.5503895878791809,1.890017032623291,1.062294602394104
1750395873409159400,18.319159423828125,-0.46242499351501465,1.053742527961731,-0.08246681094169617
1750395873449107000,18.35910693359375,0.0659734457731247,0.8961393237113953,-0.003054326167330146
1750395873504984600,18.414984619140625,0.8100073337554932,-0.10018189996480942,0.16310101747512817
1750395873520976000,18.430975830078125,1.131933331489563,-0.24373523890972137,0.36163222789764404
1750395873536875500,18.44687548828125,1.3506230115890503,-0.304210901260376,0.8087855577468872
1750395873632731100,18.542731201171875,1.2962560653686523,0.8124507665634155,0.5216789245605469
1750395873664622000,18.5746220703125,0.6670648455619812,0.8491026759147644,-0.4098905920982361
1750395873760569300,18.6705693359375,-2.2437081336975098,-1.6035212278366089,-0.7061602473258972
1750395873776530000,18.686530029296875,-2.168571710586548,-1.7696765661239624,-0.6579018831253052
1750395873824442600,18.734442626953125,-1.1288789510726929,1.2883148193359375,-0.027488935738801956
1750395873920328700,18.83032861328125,-2.973691940307617,1.3994922637939453,0.5387831330299377
1750395873952219600,18.8622197265625,-3.6309831142425537,0.6346889734268188,-0.252287358045578
1750395874048136400,18.958136474609375,-2.6401596069335938,0.12889257073402405,-0.7953465580940247
1750395874080088300,18.99008837890625,-2.3041837215423584,-0.1466076523065567,-1.3811663389205933
1750395874151896000,19.06189599609375,-0.8570439219474792,-0.5540547966957092,-1.3310753107070923
1750395874207865300,19.117865234375,0.1160643994808197,-0.4129449129104614,0.5925393104553223
1750395874287699500,19.197699462890625,1.6059647798538208,-0.12950342893600464,0.9669997096061707
1750395874319620900,19.229620849609375,1.5693128108978271,1.1288789510726929,2.883894920349121
1750395874343577000,19.2535771484375,1.8008307218551636,1.8197675943374634,3.717725992202759
1750395874367625000,19.277625,2.355496406555176,0.02015855349600315,0.16432274878025055
1750395874391581200,19.301581298828125,2.6010642051696777,-1.341460108757019,-2.032959461212158
1750395874407603000,19.31760302734375,2.6004533767700195,-0.6792821288108826,-1.824654459953308
1750395874423502600,19.333502685546875,2.328618288040161,-0.02382374368607998,-0.8900306820869446
1750395874439524400,19.3495244140625,2.0201313495635986,0.4349360466003418,0.29993483424186707
1750395874455454500,19.365454345703125,1.673770785331726,0.6805039048194885,1.6774359941482544
1750395874487437000,19.39743701171875,1.624901533126831,1.2370021343231201,2.8906142711639404
1750395874511332000,19.42133203125,1.947438359260559,1.4135421514511108,2.3493876457214355
1750395874535288600,19.44528857421875,2.090380907058716,0.616973876953125,1.2919800281524658
1750395874551279600,19.461279541015625,1.9981402158737183,0.08918632566928864,0.6976081132888794
1750395874567301400,19.47730126953125,1.7733417749404907,-0.18509216606616974,0.4105014503002167
1750395874583201000,19.493200927734375,1.3732250928878784,-0.303600013256073,0.2272418737411499
1750395874599222800,19.509222900390625,1.1233811378479004,-0.1765400618314743,0.12278391420841217
1750395874615122400,19.525122314453125,1.027475357055664,0.04337143152952194,0.1258382350206375
1750395874631052500,19.541052490234375,1.014647126197815,0.05497787147760391,0.21135938167572021
1750395874647013400,19.557013427734375,0.9419541954994202,-0.22846360504627228,0.13316862285137177
1750395874686961000,19.5969609375,0.7055493593215942,-0.8008443117141724,-0.7031059265136719
1750395874718882300,19.62888232421875,0.7373143434524536,-0.7104362845420837,-0.7391469478607178
1750395874758799400,19.66879931640625,0.7128797173500061,-0.12828169763088226,0.0012217304902151227
1750395874782725000,19.69272509765625,0.7238753437995911,0.13805554807186127,0.5119050741195679
1750395874806681300,19.716681396484375,0.8130616545677185,0.05803219974040985,0.9083566069602966
1750395874838602800,19.748602783203125,0.7623597979545593,0.6420193910598755,0.6377432942390442
1750395874854563300,19.764563232421875,0.66584312915802,0.5222898125648499,0.1771509200334549
1750395874878550300,19.78855029296875,0.5803219676017761,0.15027284622192383,-0.12767083942890167
1750395874958353700,19.868353759765625,0.15271630883216858,0.22357667982578278,0.5351179838180542
1750395874982279400,19.892279541015625,-0.17043140530586243,0.06658431142568588,0.08185594528913498
1750395875006296800,19.916296875,-0.4294382631778717,0.06719517707824707,-0.09834930300712585
1750395875038187800,19.948187744140625,-0.2840523421764374,0.22968533635139465,0.0659734457731247
1750395875054118000,19.964117919921875,-0.1362229436635971,0.3188716471195221,0.039706241339445114
1750395875070109200,19.980109130859375,-0.07880161702632904,0.22418753802776337,0.03298672288656235
1750395875086100200,19.996100341796875,-0.006719517521560192,0.2822197377681732,0.012828170321881771
1750395875102061000,20.01206103515625,0.048258353024721146,0.5198463201522827,-0.07330382615327835
1750395875126078200,20.036078125,0.14844025671482086,0.6029239892959595,0.019547687843441963
1750395875142039000,20.0520390625,0.28649580478668213,0.5852088928222656,0.22357667982578278
1750395875166025700,20.076025634765625,0.3494149148464203,0.4343251883983612,0.2021963894367218
1750395875181986600,20.091986572265625,0.33047810196876526,0.4098905920982361,0.13805554807186127
1750395875197947100,20.107947021484375,0.33597588539123535,0.513737678527832,0.20097467303276062
1750395875213926700,20.1239267578125,0.41599923372268677,0.6499606370925903,0.2968805134296417
1750395875245878500,20.15587841796875,0.6432411074638367,0.8106181621551514,0.4398229718208313
1750395875261839400,20.17183935546875,0.7391469478607178,0.6988298296928406,0.3677408695220947
1750395875293760800,20.2037607421875,0.8460483551025391,0.6053674817085266,0.28527405858039856
1750395875309721300,20.219721435546877,0.9089674949645996,0.5400048494338989,0.26572638750076294
1750395875325712600,20.235712646484377,0.9578366875648499,0.3878994286060333,0.29993483424186707
1750395875373625000,20.283625,0.5125159621238708,0.6579018831253052,0.5546656250953674
1750395875397612000,20.307612060546877,0.37140607833862305,0.5406157374382019,0.1319468915462494
1750395875421537800,20.331537841796877,0.06414084881544113,0.665232241153717,-0.24007004499435425
1750395875437559600,20.3475595703125,-0.4703662395477295,0.8381071090698242,-0.20586158335208893
1750395875453459200,20.363459228515627,-0.9743300676345825,0.9291260242462158,-0.1459967941045761
1750395875469450500,20.379450439453127,-1.550986886024475,1.1081095933914185,-0.06658431142568588
1750395875485472000,20.395471923828126,-2.076941728591919,1.0684033632278442,-0.12767083942890167
1750395875501432800,20.411432861328127,-2.415361166000366,0.7568620443344116,-0.21624629199504852
1750395875517424000,20.427424072265627,-2.534479856491089,0.024434609338641167,-0.33536502718925476
1750395875533354200,20.443354248046877,-2.4550673961639404,-0.5943718552589417,-0.5100724697113037
1750395875549345500,20.459345458984377,-2.2070560455322266,-0.8619308471679688,-0.6407976150512695
1750395875565367000,20.475366943359376,-1.8790215253829956,-0.5406157374382019,-0.4184426963329315
1750395875581328000,20.491327880859377,-1.7085901498794556,0.13744467496871948,-0.15271630883216858
1750395875613310200,20.523310302734377,-1.9431623220443726,1.560760736465454,0.5271766781806946
1750395875637358000,20.547358154296877,-1.6920967102050781,1.2192870378494263,0.6475171446800232
1750395875661253400,20.57125341796875,-1.455691933631897,1.3445143699645996,0.47769662737846375
1750395875709196500,20.619196533203127,-1.7440202236175537,1.4868459701538086,-0.252287358045578
1750395875725218300,20.63521826171875,-1.598023533821106,1.3658946752548218,-0.44226643443107605
1750395875741179000,20.651178955078127,-1.4978415966033936,1.3341296911239624,-0.4404338300228119
1750395875773161200,20.6831611328125,-1.7562376260757446,1.453248381614685,-0.059864792972803116
1750395875797178600,20.7071787109375,-2.098932981491089,1.5363260507583618,0.014049900695681572
1750395875813108700,20.723108642578126,-2.001194477081299,1.4599679708480835,-0.2987131178379059
1750395875837065200,20.747065185546877,-1.7513506412506104,0.8735373020172119,-0.9040805697441101
1750395875852995300,20.762995361328127,-1.6181820631027222,0.7672467231750488,-0.9847147464752197
1750395875868925400,20.778925537109377,-1.500285029411316,0.8338310718536377,-0.8576548099517822
1750395875884947200,20.794947265625,-1.3744467496871948,0.9248499870300293,-0.5931501388549805
1750395875900908000,20.810907958984377,-1.2467759847640991,0.9560040831565857,-0.39645153284072876
1750395875916899000,20.826899169921877,-1.1032226085662842,0.8429940342903137,-0.34025195240974426
1750395875932829200,20.8428291015625,-0.9608910083770752,0.6432411074638367,-0.45692721009254456
1750395875948759600,20.858759521484377,-0.779464066028595,0.4098905920982361,-0.6517932415008545
1750395875964781300,20.87478125,-0.5736024379730225,0.1722639948129654,-0.7751879692077637
1750395875980681000,20.890680908203127,-0.36590829491615295,-0.06230825558304787,-0.7709119319915771
1750395875996702500,20.906702392578126,-0.10812314599752426,-0.19058994948863983,-0.6255260109901428
1750395876012663300,20.922663330078127,0.07941248267889023,-0.12767083942890167,-0.42577308416366577
1750395876028654600,20.938654541015627,0.2376265823841095,0.02871066704392433,-0.22296582162380219
1750395876044676000,20.954676025390626,0.38179078698158264,0.19058994948863983,-0.04703662544488907
1750395876060606500,20.9706064453125,0.5125159621238708,0.3029891550540924,0.12095131725072861
1750395876076597500,20.986597412109376,0.7232644557952881,0.33658674359321594,0.2919935882091522
1750395876092527900,21.00252783203125,0.9199630618095398,0.26083946228027344,0.48808133602142334
1750395876108519000,21.018518798828126,1.086118459701538,0.2382374405860901,0.7336491346359253
1750395876124540700,21.034540771484377,1.3029755353927612,0.19425514340400696,1.1673635244369507
1750395876164427300,21.07442724609375,2.1655173301696777,0.9126327037811279,2.6896395683288574
1750395876196348700,21.1063486328125,1.5357152223587036,1.0855075120925903,1.871691107749939
1750395876228270000,21.13827001953125,0.7837401032447815,-0.5522221922874451,-0.4642575979232788
1750395876244291600,21.15429150390625,0.837496280670166,-0.5070181488990784,-0.7122688889503479
1750395876268217600,21.178217529296877,1.2620476484298706,-0.13561208546161652,-0.5540547966957092
1750395876300169500,21.21016943359375,1.5729780197143555,0.48197266459465027,-0.31459560990333557
1750395876332151800,21.24215185546875,1.4813482761383057,1.1081095933914185,0.35246923565864563
1750395876356108000,21.26610791015625,1.2516628503799438,0.6963863968849182,0.7367035150527954
1750395876372007700,21.282007568359376,1.2137892246246338,0.8442157506942749,0.8686503767967224
1750395876387968500,21.297968505859377,1.2528846263885498,0.9529497623443604,0.856433093547821
1750395876419920400,21.32992041015625,1.2705997228622437,1.0366383790969849,0.5907067060470581
1750395876435911700,21.34591162109375,1.2473868131637573,1.0421360731124878,0.49235737323760986
1750395876499815400,21.4098154296875,0.9902125597000122,-0.2981022298336029,1.4391984939575195
1750395876523802000,21.433802001953126,0.5186246037483215,-0.5308418869972229,1.2773191928863525
1750395876539732500,21.449732421875,0.4605923891067505,0.2883284091949463,0.9566149711608887
1750395876555723500,21.4657236328125,0.504574716091156,0.8607091307640076,0.1966986060142517
1750395876595671000,21.505671142578127,0.3225368559360504,-0.0012217304902151227,-0.6725626587867737
1750395876619627500,21.52962744140625,-0.16920967400074005,0.4996877610683441,0.27000242471694946
1750395876635618600,21.54561865234375,-0.4966334402561188,1.10139000415802,1.2779301404953003
1750395876651548700,21.561548583984376,-0.6701191663742065,1.1789699792861938,2.0916025638580322
1750395876675535600,21.58553564453125,-0.9181304574012756,1.474017858505249,2.8881709575653076
1750395876691465700,21.6014658203125,-0.8894197940826416,2.959642171859741,1.832595705986023
1750395876707457000,21.61745703125,-0.9101892113685608,1.7287486791610718,0.42638394236564636
1750395876723478800,21.633478759765627,-0.6682865619659424,0.04948008432984352,-0.22357667982578278
1750395876771360800,21.68136083984375,-0.8839219808578491,0.7409795522689819,-0.04948008432984352
1750395876795317000,21.70531689453125,-0.769690215587616,0.4789183437824249,-0.0006108652451075613
1750395876859159800,21.769159912109377,0.8839219808578491,-0.04214970022439957,0.19058994948863983
1750395876875151000,21.785151123046877,1.5790866613388062,0.024434609338641167,0.5125159621238708
1750395876938963500,21.84896337890625,0.9462302923202515,0.2583959996700287,0.413555771112442
1750395877010862800,21.92086279296875,0.5681046843528748,1.3555099964141846,0.08246681094169617
1750395877050840800,21.9608408203125,-0.1563815027475357,2.3017401695251465,0.028099801391363144
1750395877098753300,22.008753173828126,-0.7324274182319641,-0.21135938167572021,-1.1661417484283447
1750395877122801200,22.03280126953125,-0.7293730974197388,-0.3995058834552765,-0.7776314616203308
1750395877146727000,22.056726806640626,-0.7275404930114746,-0.8057312369346619,-0.47830748558044434
1750395877170713900,22.0807138671875,-1.0268645286560059,-2.194838762283325,-0.5265658497810364
1750395877194700500,22.104700439453126,-1.4465289115905762,-2.6444356441497803,-1.2797627449035645
1750395877210631000,22.120630859375,-1.5289957523345947,-1.4917329549789429,-1.451415777206421
1750395877226622000,22.1366220703125,-1.7330247163772583,0.36651915311813354,-1.2095131874084473
1750395877258604500,22.1686044921875,-2.127643585205078,0.8570439219474792,-0.30054569244384766
1750395877274595600,22.184595703125,-1.6884315013885498,1.1746938228607178,-0.12461651116609573
1750395877322447000,22.232447021484376,-0.9334021210670471,0.8924741148948669,-0.23640485107898712
1750395877362364200,22.2723642578125,-1.3726142644882202,1.3096951246261597,-0.1661553531885147
1750395877378325000,22.288324951171877,-1.6322319507598877,1.55892813205719,-0.09407325088977814
1750395877394285600,22.30428564453125,-1.7989981174468994,1.3964380025863647,-0.033597588539123535
1750395877410246400,22.320246337890627,-1.8209892511367798,1.1636983156204224,0.03298672288656235
1750395877442259200,22.35225927734375,-1.351233959197998,0.9187413454055786,0.3597996234893799
1750395877490080300,22.400080322265627,-0.7324274182319641,0.5558874011039734,0.35063666105270386
1750395877506071600,22.416071533203127,-0.5577199459075928,0.1472185254096985,0.1472185254096985
1750395877530058200,22.440058349609377,-0.5564982295036316,-0.3084869384765625,-0.08246681094169617
1750395877562040800,22.472040771484377,-0.5027421116828918,-0.6811147332191467,-0.41722095012664795
1750395877577971000,22.487970947265627,-0.32681289315223694,-0.6811147332191467,-0.41111230850219727
1750395877609922800,22.5199228515625,-0.04153883829712868,-0.578489363193512,-0.15577064454555511
1750395877625883400,22.53588330078125,0.00427605677396059,-0.4789183437824249,-0.0012217304902151227
1750395877641874700,22.551874755859377,0.06230825558304787,-0.40622538328170776,0.1062905490398407
1750395877657804800,22.5678046875,0.17409659922122955,-0.35246923565864563,0.15271630883216858
1750395877673826600,22.58382666015625,0.3927863538265228,-0.31154128909111023,0.1667662113904953
1750395877689726200,22.599726318359377,0.617584764957428,-0.3292563557624817,0.13377949595451355
1750395877713682700,22.6236826171875,0.9169087409973145,-0.37079519033432007,0.04886921867728233
1750395877729612800,22.63961279296875,1.0115928649902344,-0.30115658044815063,0.036651913076639175
1750395877753599500,22.663599609375,1.0250319242477417,-0.05253441259264946,0.03848451003432274
1750395877769529900,22.67952978515625,1.0280861854553223,0.04764748737215996,0.1215621829032898
1750395877785490400,22.695490478515627,1.2082914113998413,0.03420845419168472,0.34513887763023376
1750395877801512200,22.71151220703125,1.5082262754440308,-0.3439171314239502,0.6090326309204102
1750395877817472800,22.72747265625,1.6536122560501099,-0.7867944240570068,0.7544185519218445
1750395877833464000,22.743464111328127,1.6059647798538208,-1.2107349634170532,0.6994407176971436
1750395877849424600,22.759424560546876,1.1453723907470703,-1.3732250928878784,1.0757336616516113
1750395877865385500,22.775385498046877,-0.27550023794174194,1.356731653213501,0.42699480056762695
1750395877881407200,22.7914072265625,-1.10139000415802,-0.5998696684837341,-1.1301007270812988
1750395877897367800,22.807367919921877,-0.35124751925468445,-2.4862215518951416,-1.6481144428253174
1750395877929289200,22.839289306640627,0.6010913848876953,-0.8912523984909058,-1.2027937173843384
1750395877945280500,22.855280517578127,0.8093964457511902,-0.2583959996700287,-1.7470746040344238
1750395877961271800,22.871271728515627,1.081842303276062,0.08246681094169617,-1.9810359477996826
1750395877977202000,22.887201904296877,1.1789699792861938,-0.5076290369033813,-1.6945401430130005
1750395877993193000,22.90319287109375,0.9743300676345825,-1.2418889999389648,-0.9657779335975647
1750395878009123300,22.919123291015627,0.7116580009460449,-1.1050552129745483,-0.38240164518356323
1750395878025053400,22.935053466796877,0.616973876953125,-0.48747047781944275,0.1007927656173706
1750395878049009700,22.959009765625,0.8228355050086975,0.13011430203914642,0.44776421785354614
1750395878065001000,22.9750009765625,0.9871582388877869,0.20341812074184418,0.646295428276062
1750395878081022700,22.991022705078127,1.0824532508850098,-0.22663100063800812,0.9187413454055786
1750395878096952800,23.006952880859377,0.9920451641082764,-0.8203920125961304,1.0140362977981567
1750395878136930800,23.046930908203127,0.3677408695220947,-1.2907582521438599,0.7910705208778381
1750395878168882700,23.078882568359376,0.2822197377681732,-1.1343767642974854,1.3408491611480713
1750395878232756000,23.142755859375,0.8051204085350037,0.6701191663742065,1.1618657112121582
1750395878312681500,23.222681396484376,0.2840523421764374,-0.8765916228294373,0.4404338300228119
1750395878376555000,23.286554931640627,0.3078760802745819,0.8674286603927612,0.7110471725463867
1750395878440550100,23.350550048828126,0.4612032473087311,0.17043140530586243,0.26145032048225403
1750395878472441000,23.382441162109377,0.7189884185791016,-0.08124507963657379,-0.2626720666885376
1750395878536253400,23.44625341796875,0.15882496535778046,0.4593706727027893,-0.16982053220272064
1750395878576139800,23.486139892578127,-1.0616837739944458,-0.8216137290000916,-0.09896016865968704
1750395878672117500,23.582117431640626,-3.3896913528442383,1.2797627449035645,-1.3536773920059204
1750395878735960300,23.645960205078126,-1.671938180923462,2.3939809799194336,2.2595906257629395
1750395878799864300,23.7098642578125,-2.0054705142974854,-1.4190399646759033,-1.0690141916275024
1750395878823759400,23.73375927734375,-1.5729780197143555,-1.3145819902420044,-0.9999864101409912
1750395878879728600,23.789728759765627,-0.9950994849205017,-1.3854423761367798,-1.2046263217926025
1750395878959562800,23.869562744140627,0.8936958312988281,-0.06780604273080826,0.5699372887611389
1750395879047422700,23.957422607421876,0.8613200187683105,2.1563544273376465,1.4844025373458862
1750395879095335400,24.00533544921875,1.6157386302947998,0.4807509481906891,1.0800096988677979
1750395879111387600,24.0213876953125,1.674992561340332,-0.36713001132011414,1.2541064023971558
1750395879135313400,24.0453134765625,1.1386528015136719,-1.6377297639846802,0.5351179838180542
1750395879151335200,24.061335205078127,0.8124507665634155,-0.598647952079773,-0.5002986192703247
1750395879231199700,24.14119970703125,-0.6976081132888794,-1.2657127380371094,-1.1172724962234497
1750395879271147300,24.181147216796877,0.9156870245933533,1.0030407905578613,-1.3842206001281738
1750395879287107800,24.19710791015625,0.8839219808578491,1.7910568714141846,-1.168585181236267
1750395879406920000,24.316919921875,1.2663236856460571,2.649322509765625,2.1594085693359375
1750395879430937000,24.34093701171875,1.3603968620300293,1.7733417749404907,1.5552629232406616
1750395879494810600,24.404810546875,0.7128797173500061,-0.4105014503002167,1.4966198205947876
1750395879574583600,24.48458349609375,0.49235737323760986,2.1282544136047363,1.0757336616516113
1750395879646421800,24.556421875,0.17959438264369965,0.8546004891395569,1.968207836151123
1750395879686308400,24.596308349609377,-0.060475658625364304,1.2663236856460571,2.585181713104248
1750395879702299400,24.61229931640625,-0.32070425152778625,3.8563923835754395,1.3897184133529663
1750395879798246700,24.70824658203125,-1.4178181886672974,1.2944234609603882,-2.9578094482421875
1750395879878111200,24.788111328125,-2.916881561279297,2.285857677459717,-2.2009475231170654
1750395879910063000,24.82006298828125,-2.2064452171325684,2.9187140464782715,-0.45631635189056396
1750395879958006300,24.86800634765625,-1.0396926403045654,1.1630873680114746,2.8539624214172363
1750395879997923300,24.90792333984375,-2.1154263019561768,0.5546656250953674,-0.36713001132011414
1750395880037809700,24.9478095703125,-1.073290228843689,-2.370157241821289,-1.8661932945251465
1750395880133635000,25.043635009765627,-0.019547687843441963,-0.5314527750015259,0.18325957655906677
1750395880149595600,25.059595703125,0.6102544069290161,-0.7220427393913269,0.5296201705932617
1750395880245390300,25.155390380859377,0.32986724376678467,1.8203784227371216,1.8881844282150269
1750395880285307400,25.195307373046877,-0.30115658044815063,0.8515461683273315,0.27000242471694946
1750395880373137000,25.283136962890627,1.6047430038452148,1.9614882469177246,-0.8778133392333984
1750395880397184800,25.307184814453127,-0.39095374941825867,0.7764097452163696,0.2321287989616394
1750395880461027600,25.371027587890627,0.940732479095459,1.361007809638977,0.36651915311813354
1750395880492887800,25.4028876953125,1.4227051734924316,1.2944234609603882,-0.18448130786418915
1750395880612760800,25.5227607421875,1.1239920854568481,-0.8240572214126587,0.66584312915802
1750395880660643000,25.57064306640625,0.6688974499702454,-0.9718865752220154,1.9566013813018799
1750395880756437800,25.666437744140627,0.15393804013729095,2.440406560897827,1.2479976415634155
1750395881011931000,25.921930908203127,-1.455691933631897,3.2308661937713623,-0.912021815776825
1750395881091795500,26.00179541015625,-2.819143056869507,1.226617455482483,-1.642616629600525
1750395881171659800,26.08165966796875,-1.0195341110229492,2.428189277648926,2.4086415767669678
1750395881267546000,26.177546142578127,-0.7660250067710876,-1.379333734512329,-1.320690631866455
1750395881339293000,26.24929296875,-0.0861319974064827,-0.3799581825733185,-0.04581489413976669
1750395881403074600,26.313074462890626,1.5454890727996826,0.25473082065582275,1.7556266784667969
1750395881475035100,26.38503515625,0.7470881938934326,1.804495930671692,1.7580702304840088
1750395881506987000,26.416987060546877,-0.3182607889175415,2.7043004035949707,1.4117095470428467
1750395881578825500,26.488825439453127,0.3072652220726013,-1.616349458694458,-1.1368201971054077
1750395881658781400,26.568781494140627,-0.26633724570274353,-0.12278391420841217,-3.1416800022125244
1750395881746641700,26.6566416015625,1.1068878173828125,1.9834794998168945,2.175291061401367
1750395881826475500,26.7364755859375,0.988379955291748,0.6835582256317139,1.0696250200271606
1750395881922300700,26.83230078125,0.750142514705658,-0.13744467496871948,2.1123719215393066
1750395882018004000,26.92800390625,-0.48380526900291443,0.7806857824325562,1.720807433128357
1750395882097868300,27.007868408203127,0.3384193480014801,1.1527026891708374,0.7232644557952881
1750395882161680600,27.0716806640625,0.16249015927314758,1.6762142181396484,0.04337143152952194
1750395882177672000,27.087671875,0.14049901068210602,1.0458012819290161,0.11728613078594208
1750395882249571300,27.1595712890625,-1.0482447147369385,1.8979582786560059,-1.0433578491210938
1750395882313505500,27.223505615234377,-2.045787811279297,2.3860397338867188,-1.4758504629135132
1750395882393461500,27.30346142578125,-1.9339994192123413,3.0836477279663086,-0.08246681094169617
1750395882489317400,27.3993173828125,-2.8405234813690186,0.3139847218990326,-2.1032090187072754
1750395882521299700,27.4312998046875,-2.802649736404419,0.3017674386501312,-2.3548855781555176
1750395882585234200,27.495234130859377,-2.7403414249420166,1.0207557678222656,-1.5961909294128418
1750395882601164300,27.511164306640627,-2.785545587539673,1.06351637840271,-1.6029103994369507
1750395882673094100,27.58309423828125,-2.27852725982666,-0.5791002511978149,-2.0873265266418457
1750395882760832300,27.670832275390627,-0.39584067463874817,-1.1771373748779297,-1.4972307682037354
1750395882840361000,27.75036083984375,0.2382374405860901,0.45753806829452515,1.0983357429504395
1750395882936064300,27.846064208984377,0.19975294172763824,1.2822061777114868,1.2822061777114868
1750395883024016000,27.934015869140627,1.5943583250045776,0.2321287989616394,1.5442672967910767
1750395883095884800,28.005884765625,1.9181169271469116,0.2174680233001709,0.9566149711608887
1750395883175840800,28.0858408203125,1.793500304222107,1.254717230796814,2.258368730545044
1750395883263701000,28.173700927734377,2.0622811317443848,0.6414085030555725,1.5112806558609009
1750395883335539200,28.245539306640627,2.269364356994629,-1.5076154470443726,0.030543262138962746
1750395883431456000,28.3414560546875,0.9169087409973145,-2.2314908504486084,-0.2828305959701538
1750395883463377400,28.37337744140625,0.598647952079773,-1.4330898523330688,0.01710422709584236
1750395883559111000,28.46911083984375,-0.9944885969161987,1.1508700847625732,0.4612032473087311
1750395883615019300,28.525019287109377,-0.5564982295036316,0.617584764957428,0.009773843921720982
1750395883686888200,28.59688818359375,-0.504574716091156,0.588874101638794,-0.6493497490882874
1750395883750700300,28.6607001953125,0.29016098380088806,0.1661553531885147,-0.08552113175392151
1750395883790617300,28.700617431640627,1.6462818384170532,0.35185837745666504,1.179580807685852
1750395883846495000,28.756494873046876,1.3451253175735474,-0.030543262138962746,1.7818939685821533
1750395883942350800,28.852350830078127,0.4996877610683441,-0.08002334833145142,-0.4196644127368927
1750395883958342000,28.868341796875,-0.5638286471366882,1.5167783498764038,-0.8460483551025391
1750395884054258700,28.9642587890625,-0.931569516658783,-0.6316346526145935,-0.40256020426750183
1750395884142119000,29.052118896484377,-2.023796558380127,2.096489429473877,0.182648703455925
1750395884229918000,29.13991796875,-2.646268129348755,1.7073683738708496,0.9871582388877869
1750395884325712600,29.235712646484377,-2.9297096729278564,0.251676470041275,-1.4758504629135132
1750395884413572600,29.323572509765626,-2.8356363773345947,0.1569923609495163,-1.3811663389205933
1750395884429594400,29.339594482421877,-2.8539624214172363,-0.13255776464939117,-1.4770721197128296
1750395884445555200,29.35555517578125,-2.5980098247528076,-0.6340781450271606,-1.8197675943374634
1750395884541288700,29.451288818359377,-0.37201693654060364,-0.9327912330627441,-1.0598511695861816
1750395884605101000,29.51510107421875,-0.2968805134296417,-0.23151792585849762,0.8063421249389648
1750395884676970000,29.586969970703127,0.31642818450927734,-0.19303341209888458,1.5241087675094604
1750395884716887000,29.626886962890627,1.8570303916931152,0.5149593949317932,1.7623462677001953
1750395884732878000,29.642878173828127,2.5302038192749023,1.4520267248153687,1.9211711883544922
1750395884868681500,29.778681396484377,1.5741997957229614,-0.7629706859588623,0.2321287989616394
1750395884988432400,29.898432373046877,1.6646077632904053,0.9645562171936035,1.511891484260559
1750395885020414700,29.930414794921877,1.3310753107070923,1.2113457918167114,1.613295078277588
1750395885100248800,30.010248779296877,1.5998560190200806,0.15515977144241333,0.32986724376678467
1750395885180082700,30.090082763671877,1.3145819902420044,-0.8491026759147644,-0.7299839854240417
1750395885259977700,30.169977783203127,0.8674286603927612,-0.7257078886032104,-0.5827654600143433
1750395885331877000,30.241877197265627,0.42577308416366577,-0.9150761365890503,-0.20586158335208893
1750395885371855000,30.281855224609377,0.07941248267889023,0.44593164324760437,0.44593164324760437
1750395885435698000,30.345697998046877,-0.1667662113904953,0.42149701714515686,0.9560040831565857
1750395885483671600,30.393671630859377,-0.00366519158706069,0.5326744914054871,0.5681046843528748
1750395885579588400,30.48958837890625,0.6603453159332275,0.7373143434524536,0.5668829679489136
1750395885667417900,30.57741796875,0.6047565937042236,1.141707181930542,0.5955936312675476
1750395885763243000,30.673242919921876,-0.0507018156349659,1.086118459701538,-0.2785545587539673
1750395885819181800,30.729181884765627,-0.37690386176109314,0.7843509912490845,-0.46853363513946533
1750395885890994200,30.800994140625,-0.8423831462860107,0.2669481039047241,-0.26145032048225403
1750395885954928400,30.864928466796876,-1.368949055671692,0.6151412725448608,-0.01160643994808197
1750395886034793000,30.94479296875,-1.984701156616211,2.5607471466064453,0.5027421116828918
1750395886122683600,31.03268359375,-1.7214182615280151,1.4508049488067627,-1.2565498352050781
1750395886186648600,31.096648681640627,-1.6896532773971558,2.3035728931427,-0.4917465150356293
1750395886282443300,31.192443359375,-0.6902777552604675,0.10995574295520782,-1.217454433441162
1750395886386294500,31.29629443359375,0.7709119319915771,-0.978606104850769,0.543059229850769
1750395886418246400,31.328246337890626,1.0415252447128296,0.5485569834709167,1.9248363971710205
1750395886490115300,31.400115234375,2.27852725982666,-0.15271630883216858,0.43127086758613586
1750395886537966800,31.447966796875,1.2052371501922607,0.6860016584396362,1.244943380355835
1750395886601840000,31.511840087890626,1.5338826179504395,0.9425650835037231,1.320690631866455
1750395886657717800,31.5677177734375,1.872912883758545,0.42638394236564636,0.902247965335846
1750395886673678600,31.5836787109375,1.7134770154953003,0.0757472887635231,0.6096435189247131
1750395886729586700,31.639586669921876,1.0073168277740479,-0.4746423065662384,0.04398229718208313
1750395886753543000,31.66354296875,0.96883225440979,-0.4703662395477295,0.09346238523721695
1750395886833407500,31.743407470703126,0.5479460954666138,-0.00855211354792118,0.28649580478668213
1750395886937228300,31.847228271484376,-0.182648703455925,0.7959573864936829,1.5357152223587036
1750395887057101300,31.967101318359376,-0.23151792585849762,0.5448917746543884,-0.11911872029304504
1750395887081027000,31.991027099609376,-0.21135938167572021,0.7538077235221863,0.1466076523065567
1750395887120944000,32.030944091796876,-0.13927727937698364,0.8637634515762329,0.46792277693748474
1750395887240725500,32.1507255859375,0.23396138846874237,0.40133845806121826,0.3170390725135803
1750395887296694800,32.20669482421875,-0.02871066704392433,0.24556782841682434,0.37201693654060364
1750395887328646700,32.238646728515626,0.9291260242462158,0.26145032048225403,0.7086036801338196
1750395887424533000,32.334532958984376,0.19364428520202637,1.1337659358978271,-0.35063666105270386
1750395887536319000,32.44631909179687,-0.950506329536438,0.192422553896904,-0.7654141783714294
1750395887616214000,32.52621411132812,-1.9083430767059326,1.6792685985565186,-0.8051204085350037
1750395887688082700,32.598082763671876,-2.3597724437713623,1.2021827697753906,0.5002986192703247
1750395887760043300,32.670043212890626,-2.6676485538482666,-0.50335294008255,-1.102611780166626
1750395887799990800,32.70999072265625,-2.7598891258239746,-0.45204028487205505,-1.1563678979873657
1750395887879824600,32.78982470703125,-2.7433958053588867,-0.10995574295520782,-1.6878206729888916
1750395887991732700,32.901732666015626,-0.9993755221366882,-0.9474520087242126,-1.6658295392990112
1750395888079592700,32.9895927734375,-0.24923302233219147,0.8045095205307007,1.4367550611495972
1750395888183444200,33.0934443359375,0.7287622094154358,-1.341460108757019,1.3536773920059204
1750395888247317500,33.1573173828125,0.9914342761039734,1.6114624738693237,4.015217304229736
1750395888263369700,33.17336962890625,0.342695415019989,-0.30970868468284607,2.3267858028411865
1750395888351168800,33.261168701171876,0.9517280459403992,-1.9462167024612427,-0.31154128909111023
1750395888455020000,33.36502001953125,1.834428310394287,1.9266690015792847,2.320066213607788
1750395888478976300,33.388976318359376,1.8674150705337524,1.1905763149261475,1.5564846992492676
1750395888526858500,33.4368583984375,1.626123309135437,-0.14782938361167908,0.10567969083786011
1750395888606784000,33.516783935546876,1.1606439352035522,-1.004873275756836,-0.7348709106445312
1750395888694674700,33.6046748046875,0.902247965335846,0.21013765037059784,1.5210545063018799
1750395888710604800,33.620604736328126,0.816726803779602,0.14905111491680145,1.29381263256073
1750395888734561000,33.64456103515625,0.685390830039978,0.3396410644054413,0.6029239892959595
1750395888782443300,33.692443359375,0.37140607833862305,-0.8411614298820496,-0.2431243658065796
1750395888846285800,33.756285888671876,-0.2638937830924988,0.9095783233642578,1.1459832191467285
1750395888966006300,33.87600634765625,0.17898350954055786,0.49846604466438293,0.34574973583221436
1750395889029910300,33.93991015625,0.32131510972976685,0.21624629199504852,0.015271631069481373
1750395889069827000,33.9798271484375,0.08246681094169617,0.32986724376678467,-0.3927863538265228
1750395889085818400,33.995818359375,-0.13988813757896423,0.6481280326843262,-0.46242499351501465
1750395889109805300,34.01980541992187,-0.4129449129104614,0.9834930300712585,-0.42760565876960754
1750395889141757200,34.051757080078126,-0.3029891550540924,0.9492846131324768,-0.10323622822761536
1750395889181643500,34.0916435546875,-0.08979719132184982,1.2522737979888916,-0.0507018156349659
1750395889197574000,34.10757397460937,-0.14233160018920898,1.2797627449035645,-0.04642575979232788
1750395889221621500,34.13162158203125,-0.13561208546161652,1.150259256362915,0.04703662544488907
1750395889237521400,34.147521484375,-0.1313360333442688,0.9150761365890503,0.02382374368607998
1750395889309481700,34.219481689453126,-1.2479976415634155,0.8118399381637573,-0.5094616413116455
1750395889365420500,34.27542065429687,1.5986343622207642,-0.1973094791173935,0.7318165898323059
1750395889413394200,34.32339428710937,2.112982988357544,-0.8533787727355957,0.7037167549133301
1750395889469241300,34.37924145507812,1.5723671913146973,-0.19853121042251587,-0.45326200127601624
1750395889517184300,34.427184326171876,0.11972958594560623,0.646906316280365,-1.0793988704681396
1750395889533175600,34.443175537109376,-0.7971791625022888,0.769079327583313,-0.7134906053543091
1750395889549105700,34.459105712890626,-1.4202617406845093,0.7397578358650208,-0.21074850857257843
1750395889636935400,34.546935302734376,-1.6462818384170532,-0.16982053220272064,-0.5247332453727722
1750395889668917800,34.578917724609376,-1.567480206489563,-0.7684684991836548,-0.7293730974197388
1750395889684909000,34.594908935546876,-1.4917329549789429,-0.7849618196487427,-0.7012733221054077
1750395889724825900,34.634825927734376,-1.492343783378601,0.24617868661880493,-0.7141014933586121
1750395889772738600,34.682738525390626,-1.1612548828125,1.0067058801651,-0.21013765037059784
1750395889804660000,34.714659912109376,-0.8936958312988281,1.5063936710357666,-0.0708603709936142
1750395889820681700,34.730681640625,-0.978606104850769,1.5656476020812988,-0.1459967941045761
1750395889860629200,34.770629150390626,-1.3170254230499268,1.4575244188308716,-0.46242499351501465
1750395889916446000,34.82644604492187,-1.2956452369689941,1.635897159576416,-0.16798794269561768
1750395889988284200,34.8982841796875,-1.3524556159973145,0.7782423496246338,-0.9828822016716003
1750395890020297200,34.930297119140626,-1.1264355182647705,0.26083946228027344,-1.36650550365448
1750395890052218600,34.962218505859376,-0.7941248416900635,0.13561208546161652,-1.2651019096374512
1750395890068179200,34.97817919921875,-0.6359107494354248,0.06169738993048668,-1.2553280591964722
1750395890155978200,35.065978271484376,-0.10934487730264664,0.5729916095733643,0.22846360504627228
1750395890179934700,35.08993481445312,0.012828170321881771,0.4141666293144226,0.5656611919403076
1750395890219912700,35.12991259765625,0.294437050819397,-0.2932153046131134,0.6157521605491638
1750395890323672300,35.23367236328125,1.0561859607696533,-0.5302310585975647,0.9822713136672974
1750395890419497700,35.32949780273437,1.235169529914856,-0.8533787727355957,-0.18875735998153687
1750395890499362000,35.409362060546876,1.7079792022705078,0.8130616545677185,1.1459832191467285
1750395890515323000,35.42532299804687,1.5540411472320557,0.8442157506942749,1.1050552129745483
1750395890531253000,35.4412529296875,1.3475687503814697,0.7018841505050659,0.9535606503486633
1750395890595126300,35.505126220703126,1.045190453529358,-0.12828169763088226,0.35246923565864563
1750395890650973400,35.560973388671876,0.6963863968849182,-0.1111774742603302,0.37629300355911255
1750395890714877200,35.624877197265626,0.3830125033855438,0.27122417092323303,0.7263187766075134
1750395890778842000,35.688842041015626,0.06719517707824707,0.22968533635139465,1.122159481048584
1750395890810794000,35.7207939453125,0.06963863968849182,0.7507534027099609,1.188132882118225
1750395890866610700,35.776610595703126,0.12522737681865692,1.4025466442108154,0.8546004891395569
1750395890922457900,35.832457763671876,-0.15577064454555511,0.8515461683273315,1.2986994981765747
1750395890954379300,35.864379150390626,-0.24678955972194672,1.6389514207839966,1.483791708946228
1750395890978396400,35.888396484375,-0.27061331272125244,2.096489429473877,0.8454375267028809
1750395891042300400,35.95230053710937,-0.05619960278272629,0.8741481900215149,0.18936823308467865
1750395891074252300,35.984252197265626,-0.16004669666290283,1.395827054977417,0.4703662395477295
1750395891106173700,36.016173583984376,-0.22296582162380219,1.5430456399917603,0.4196644127368927
1750395891138156000,36.048156005859376,-0.2028072625398636,1.683544635772705,0.3591887652873993
1750395891170138400,36.080138427734376,-0.4080579876899719,1.7177530527114868,0.06719517707824707
1750395891210086000,36.1200859375,-0.41599923372268677,1.6236798763275146,0.18509216606616974
1750395891233981200,36.143981201171876,-0.4599815309047699,1.4672982692718506,0.36529740691185
1750395891257998600,36.16799853515625,-0.5204572081565857,1.6859880685806274,0.12339477986097336
1750395891297976600,36.2079765625,-0.13255776464939117,1.795332908630371,-0.006719517521560192
1750395891345858600,36.255858642578126,-1.169806957244873,1.0219775438308716,0.10506882518529892
1750395891361849900,36.271849853515626,-0.8863654732704163,1.987755537033081,0.3127630054950714
1750395891401827800,36.311827880859376,0.35185837745666504,2.232712507247925,0.3732386529445648
1750395891441775400,36.351775390625,-0.38728857040405273,4.097073078155518,0.8142833709716797
1750395891465762300,36.37576220703125,1.1691961288452148,3.4684927463531494,0.3885102868080139
1750395891505709800,36.415709716796876,0.7354817390441895,2.3432791233062744,1.635897159576416
1750395891521700900,36.431700927734376,-0.5723807215690613,1.0335839986801147,2.2632558345794678
1750395891553622300,36.463622314453126,-1.176526427268982,1.642616629600525,2.7262916564941406
1750395891577639700,36.4876396484375,-1.5051720142364502,1.42637038230896,2.1563544273376465
1750395891609561000,36.51956103515625,-1.9230037927627563,-0.08307767659425735,0.7800748944282532
1750395891633547800,36.5435478515625,-1.7635679244995117,-1.5289957523345947,-0.5283984541893005
1750395891657565200,36.567565185546876,-1.6743816137313843,-1.4789047241210938,-1.2541064023971558
1750395891689547800,36.5995478515625,-2.602285861968994,-0.998153805732727,-1.197906732559204
1750395891761477600,36.6714775390625,-3.128851890563965,-0.33597588539123535,-0.9755517840385437
1750395891801394700,36.71139477539062,-2.7983736991882324,-0.5436700582504272,-0.50335294008255
1750395891881320200,36.7913203125,-1.5503759384155273,-0.5607742667198181,-1.1068878173828125
1750395891921298200,36.831298095703126,-0.759305477142334,0.1612684279680252,0.15454891324043274
1750395891969271800,36.879271728515626,0.7916813492774963,0.18936823308467865,1.474017858505249
1750395892025149400,36.9351494140625,2.199725866317749,-1.1032226085662842,-0.06169738993048668
1750395892105044500,37.01504443359375,2.676811456680298,-1.8106045722961426,-1.6340645551681519
1750395892144961500,37.05496142578125,1.560760736465454,-0.4807509481906891,-0.15271630883216858
1750395892200930800,37.11093090820312,1.4697418212890625,0.788016140460968,1.9914207458496094
1750395892216952300,37.126952392578126,1.531439185142517,0.7104362845420837,1.4190399646759033
1750395892240878300,37.15087841796875,1.528384804725647,0.394008070230484,0.7342600226402283
1750395892280856300,37.190856201171876,1.4330898523330688,0.5106833577156067,0.7452555894851685
1750395892296878000,37.20687817382812,1.483791708946228,0.6291912198066711,0.8405506014823914
1750395892312838700,37.222838623046876,1.503339409828186,0.627358615398407,0.8533787727355957
1750395892328860400,37.2388603515625,1.4538593292236328,0.4954117238521576,0.7287622094154358
1750395892376803600,37.286803466796876,1.0800096988677979,0.313373863697052,0.2528982162475586
1750395892392764200,37.30276416015625,1.0280861854553223,0.33292156457901,0.29077184200286865
1750395892472598300,37.38259838867187,0.7385360598564148,-0.5259549617767334,-0.09040805697441101
1750395892528476000,37.438475830078126,0.9291260242462158,-0.49235737323760986,-0.5638286471366882
1750395892568423400,37.47842333984375,0.9187413454055786,-0.5809328556060791,-0.6102544069290161
1750395892600436200,37.510436279296876,0.5644394755363464,-0.07513642311096191,0.13377949595451355
1750395892624392700,37.53439282226562,0.21563543379306793,0.009162978269159794,0.8649851679801941
1750395892640383700,37.5503837890625,0.13377949595451355,-0.12278391420841217,1.034194827079773
1750395892672366300,37.58236645507812,0.44715335965156555,0.455705463886261,-0.21868975460529327
1750395892696383500,37.606383544921876,0.5711590051651001,-0.44287729263305664,-0.5070181488990784
1750395892744326700,37.65432666015625,0.7079927921295166,-0.1765400618314743,0.44104471802711487
1750395892768344000,37.678343994140626,0.7397578358650208,0,0.9034696817398071
1750395892784243700,37.69424365234375,0.788627028465271,-0.11850785464048386,1.084285855293274
1750395892808291600,37.71829150390625,0.846659243106842,0.06963863968849182,0.7354817390441895
1750395892824191200,37.734191162109376,0.959669291973114,0.5534439086914062,0.19914206862449646
1750395892848178000,37.758177978515626,1.1374311447143555,0.45265114307403564,-0.484416127204895
1750395892864169200,37.774169189453126,1.0140362977981567,0.14233160018920898,-0.8881980776786804
1750395892888156200,37.79815625,0.7898487448692322,-0.12522737681865692,-0.998153805732727
1750395892936068600,37.846068603515626,-0.2431243658065796,0.7605272531509399,0.47219884395599365
1750395892984011800,37.89401171875,-0.5845980644226074,2.2266037464141846,0.4948008358478546
1750395892999972400,37.909972412109376,-0.42699480056762695,2.269975185394287,-0.7483099102973938
1750395893031893800,37.941893798828126,-0.588874101638794,0.8497135639190674,-1.0702359676361084
1750395893055911200,37.9659111328125,-1.3139711618423462,1.0739010572433472,-1.528384804725647
1750395893079837000,37.9898369140625,-2.403143882751465,-0.0659734457731247,-1.5644259452819824
1750395893111850000,38.02185009765625,-3.484375476837158,-1.3823879957199097,-1.3365731239318848
1750395893135836700,38.045836669921876,-4.252233028411865,-1.2541064023971558,-1.4288138151168823
1750395893151736300,38.061736328125,-4.064697265625,-1.0409144163131714,-1.6963727474212646
1750395893167788500,38.07778857421875,-3.160616874694824,-0.3683517575263977,-1.5668693780899048
1750395893183719000,38.09371899414062,-2.353052854537964,-0.13439035415649414,-1.0482447147369385
1750395893215762200,38.12576220703125,-1.5625933408737183,0.38606682419776917,0.8295549750328064
1750395893263675000,38.1736748046875,-1.3726142644882202,0.34025195240974426,0.21013765037059784
1750395893287692300,38.1976923828125,-1.189354658126831,-1.3274102210998535,-0.5522221922874451
1750395893303652900,38.21365283203125,-1.1197160482406616,-1.5210545063018799,-0.6517932415008545
1750395893319644200,38.22964404296875,-1.0219775438308716,-1.3066407442092896,-0.5577199459075928
1750395893335666000,38.245666015625,-0.8570439219474792,-1.1191051006317139,-0.45204028487205505
1750395893367617800,38.27761767578125,-0.5852088928222656,-0.7079927921295166,-0.24190263450145721
1750395893415561000,38.32556103515625,0.413555771112442,-1.2681562900543213,0.003054326167330146
1750395893431521500,38.341521484375,0.9095783233642578,-1.197906732559204,0.33658674359321594
1750395893447543300,38.357543212890626,1.2724323272705078,-0.9896016716957092,0.8045095205307007
1750395893471438600,38.3814384765625,1.5149458646774292,-0.44776421785354614,1.4312572479248047
1750395893503390500,38.413390380859376,1.6853772401809692,0.5821545720100403,1.433700680732727
1750395893519381800,38.4293818359375,1.6658295392990112,0.8851437568664551,1.2137892246246338
1750395893543338000,38.453337890625,1.2932016849517822,1.4001030921936035,1.0598511695861816
1750395893559329000,38.4693291015625,0.8900306820869446,1.3280210494995117,1.1820242404937744
1750395893599276500,38.509276611328126,0.34574973583221436,-0.0959058403968811,-0.2926044464111328
1750395893631259100,38.541259033203126,1.0653489828109741,-1.786780834197998,-1.957212209701538
1750395893647250200,38.557250244140626,1.4758504629135132,-1.395827054977417,-2.2009475231170654
1750395893687167200,38.597167236328126,-1.0238101482391357,-1.7373007535934448,0.921184778213501
1750395893711062500,38.6210625,-1.1801916360855103,-0.03176499158143997,0.2871066629886627
1750395893766940200,38.676940185546876,-0.5210680365562439,0.45265114307403564,-0.43127086758613586
1750395893822879000,38.73287890625,0.03481931984424591,1.0922271013259888,-0.1869247704744339
1750395893854830800,38.764830810546876,0.7684684991836548,3.1746666431427,0.7721336483955383
1750395893926760700,38.8367607421875,0.9205739498138428,2.177123785018921,1.539380431175232
1750395893998599200,38.90859912109375,1.6572774648666382,-0.05375614017248154,1.1539244651794434
1750395894014621000,38.924620849609376,1.3903292417526245,-0.4355469346046448,1.129489779472351
1750395894046542300,38.956542236328126,0.9920451641082764,-1.8723019361495972,1.0671815872192383
1750395894070468000,38.980468017578126,1.4422528743743896,-1.853365182876587,2.0983221530914307
1750395894102450400,39.012450439453126,1.0702359676361084,0.9517280459403992,2.339613914489746
1750395894182315000,39.09231494140625,-1.5082262754440308,0.34147366881370544,-0.08735372871160507
1750395894198245000,39.1082451171875,-1.4538593292236328,-0.6298020482063293,-0.5418374538421631
1750395894238162200,39.148162109375,-1.5076154470443726,1.0775662660598755,-2.0836613178253174
1750395894262057500,39.172057373046876,-2.194227933883667,1.6096298694610596,-2.5668556690216064
1750395894317935000,39.22793505859375,-3.2143728733062744,2.2375993728637695,-2.701857089996338
1750395894413882400,39.32388232421875,-1.2021827697753906,2.64138126373291,-0.0012217304902151227
1750395894429751600,39.33975146484375,-1.6371188163757324,1.6114624738693237,-0.694553792476654
1750395894493716500,39.40371655273437,-0.5577199459075928,0.16859880089759827,-0.8344419002532959
1750395894525607200,39.435607177734376,-0.2321287989616394,0.1111774742603302,-0.5577199459075928
1750395894573580800,39.483580810546876,0.10995574295520782,-0.5253441333770752,-0.20036379992961884
1750395894645449700,39.55544970703125,1.5650367736816406,0.2571742534637451,2.4013113975524902
1750395894741305300,39.651305419921876,1.6157386302947998,-0.5106833577156067,0.7489207983016968
1750395894821139500,39.731139404296876,-0.14782938361167908,0.9914342761039734,-0.9156870245933533
1750395894861026000,39.77102612304687,0.9175195693969727,2.543031930923462,-0.11484266817569733
1750395894924868600,39.83486865234375,1.009149432182312,-1.1948524713516235,1.8869627714157104
1750395895012789800,39.922789794921876,0.8790351152420044,2.7152960300445557,1.2198978662490845
1750395895028720000,39.93872021484375,1.3439035415649414,2.073887586593628,2.0952677726745605
1750395895044741600,39.95474169921875,1.9120081663131714,1.4062118530273438,3.3011157512664795
1750395895124667400,40.03466748046875,0.6688974499702454,4.717101573944092,2.3414463996887207
1750395895156619300,40.06661938476562,0.6707300543785095,2.138028383255005,1.4385876655578613
1750395895180575500,40.090575439453126,0.8668177723884583,-0.1160643994808197,1.1948524713516235
1750395895244540400,40.15454052734375,-0.37751471996307373,-0.9053022861480713,-1.644449234008789
1750395895276492300,40.1864921875,-0.6615670323371887,-0.43799036741256714,-1.5900822877883911
1750395895324466000,40.2344658203125,-1.6035212278366089,0.2675589919090271,-1.0751228332519531
1750395895364444000,40.27444384765625,-2.632218360900879,0.9669997096061707,-0.3176499307155609
1750395895444339000,40.3543388671875,-2.2516493797302246,0.827111542224884,-2.1478021144866943
1750395895468295200,40.378295166015626,-1.3720033168792725,2.1820106506347656,-0.5955936312675476
1750395895492312600,40.4023125,-1.1814134120941162,0.8130616545677185,1.6517796516418457
