time,seconds_elapsed,z,y,x
1751120018838275000,0.225275146484375,-0.22738789021968842,1.0027058124542236,1.8360542058944702
1751120018848220200,0.23522021484375,-0.2166980654001236,1.0272923707962036,1.7764965295791626
1751120018868109800,0.25510986328125,-0.2742704153060913,0.7098045349121094,1.332257866859436
1751120018878054700,0.2650546875,-0.2838912606239319,0.23364907503128052,1.1532796621322632
1751120018912860700,0.299860595703125,-0.6907155513763428,-1.2300937175750732,0.9284878373146057
1751120018932749000,0.3197490234375,-1.371504783630371,-2.854641914367676,0.0784938707947731
1751120018952638700,0.339638671875,-1.3875395059585571,-3.075157880783081,-0.6213843822479248
1751120018972530000,0.359530029296875,-0.19333316385746002,-1.8959171772003174,-0.6949914693832397
1751120018982474800,0.369474853515625,0.5268557667732239,-1.1470184326171875,-0.7322531342506409
1751120018992419600,0.379419677734375,1.2171131372451782,-0.10201149433851242,-0.6757497787475586
1751120019002364400,0.389364501953125,1.7135792970657349,0.567018985748291,-0.8196043372154236
1751120019012309500,0.3993095703125,1.7348061800003052,0.6757497787475586,-1.2617050409317017
1751120019022254300,0.40925439453125,1.320499062538147,0.6725428104400635,-1.8986660242080688
1751120019032199200,0.41919921875,0.6887302994728088,0.753480076789856,-2.5473856925964355
1751120019042144000,0.42914404296875,0.08368607610464096,0.8780929446220398,-3.052403688430786
1751120019052089000,0.439089111328125,-0.23166382312774658,0.9078717231750488,-3.2622296810150146
1751120019062034000,0.449033935546875,-0.2295258641242981,0.7875348329544067,-3.15563702583313
1751120019071978800,0.458978759765625,-0.055892523378133774,0.6128324866294861,-2.7582807540893555
1751120019081923600,0.468923583984375,0.15500248968601227,0.6693359017372131,-2.091541051864624
1751120019091868700,0.47886865234375,0.2722851634025574,0.6937697529792786,-1.2360494136810303
1751120019101813500,0.4888134765625,0.45859357714653015,0.31886225938796997,-0.3903313875198364
1751120019111758300,0.49875830078125,0.721716046333313,-0.27350685000419617,0.26159533858299255
1751120019121703200,0.508703125,0.8527427911758423,-0.9051229357719421,0.6888830065727234
1751120019131648300,0.518648193359375,0.7664605975151062,-1.4441956281661987,0.8751913905143738
1751120019141593000,0.528593017578125,0.5033381581306458,-1.9608197212219238,0.7293516397476196
1751120019151538000,0.538537841796875,0.1582094430923462,-2.429492235183716,0.30740886926651
1751120019161482800,0.548482666015625,-0.0781884491443634,-2.692614793777466,-0.2677038013935089
1751120019171427800,0.558427734375,-0.197609081864357,-2.4316301345825195,-0.7087355256080627
1751120019181372700,0.56837255859375,-0.29977330565452576,-1.7850483655929565,-0.8696937561035156
1751120019191317500,0.5783173828125,-0.3136700689792633,-1.103342890739441,-0.8823688626289368
1751120019201262300,0.588262451171875,-0.2710634768009186,-0.4844018816947937,-0.8654178380966187
1751120019211207400,0.59820751953125,-0.22524993121623993,-0.06994201242923737,-0.7716528177261353
1751120019221152300,0.60815234375,-0.2498365342617035,0.12278030067682266,-0.6001574397087097
1751120019231097000,0.61809716796875,-0.3243598937988281,0.13988402485847473,-0.42224815487861633
1751120019241042000,0.6280419921875,-0.4543176591396332,0.06429167091846466,-0.25716668367385864
1751120019250987000,0.637987060546875,-0.5896202921867371,-0.017867282032966614,-0.13347013294696808
1751120019260931800,0.647931884765625,-0.6939224600791931,-0.10934165865182877,-0.15591876208782196
1751120019270876700,0.657876708984375,-0.7281299233436584,-0.27564483880996704,-0.3668137788772583
1751120019280821500,0.667821533203125,-0.7750124335289001,-0.566408097743988,-0.7545490860939026
1751120019290766600,0.6777666015625,-0.3701734244823456,-0.8860339522361755,-1.056002140045166
1751120019300711400,0.68771142578125,0.027182703837752342,-0.7582141757011414,-1.210546612739563
1751120019310656300,0.69765625,-0.022906772792339325,-0.7453863620758057,-1.2702568769454956
1751120019320601000,0.70760107421875,0.3190149664878845,-1.0682191848754883,-1.2754490375518799
1751120019330546200,0.717546142578125,1.016755223274231,-1.9779233932495117,-1.3021736145019531
1751120019340491000,0.727490966796875,1.7230473756790161,-2.776758909225464,-1.1987876892089844
1751120019350435800,0.737435791015625,1.602710485458374,-2.7906556129455566,-0.8919897079467773
1751120019360380700,0.747380615234375,0.37979426980018616,-1.8756065368652344,-0.5425850749015808
1751120019370325800,0.75732568359375,-0.7973083853721619,-1.5538426637649536,-0.48394373059272766
1751120019380270600,0.7672705078125,-0.8313631415367126,-2.9088547229766846,-0.8153283596038818
1751120019390215400,0.77721533203125,-0.48302745819091797,-4.013571739196777,-0.8984035849571228
1751120019400160300,0.78716015625,-0.3402419090270996,-4.444983005523682,-0.8739697337150574
1751120019410105300,0.797105224609375,-0.4947862923145294,-4.5376787185668945,-0.8249492049217224
1751120019420050200,0.80705029296875,-0.6290199756622314,-4.241570472717285,-0.6768187880516052
1751120019429995000,0.8169951171875,-0.474475622177124,-2.8801448345184326,0.26907822489738464
1751120019439940000,0.826940185546875,-0.12400199472904205,-2.2314250469207764,1.215127944946289
1751120019449885200,0.83688525390625,0.08689302206039429,-1.368603229522705,2.1993556022644043
1751120019459830000,0.846830078125,0.1369825005531311,-1.3547065258026123,2.681924819946289
1751120019469775000,0.856775146484375,-0.09315420687198639,-1.8394137620925903,2.632904291152954
1751120019479720200,0.86672021484375,-0.5917583107948303,-2.265479803085327,2.357106924057007
1751120019489665000,0.8766650390625,-1.045465111732483,-2.60312557220459,1.9554747343063354
1751120019499610000,0.886610107421875,-1.3363810777664185,-2.7097184658050537,1.5283398628234863
1751120019509555200,0.89655517578125,-1.469545841217041,-2.6596288681030273,1.1596934795379639
1751120019519500000,0.9065,-1.4535109996795654,-2.6020565032958984,0.8783983588218689
1751120019529445000,0.916445068359375,-1.202147364616394,-2.4892024993896484,0.6355865597724915
1751120019539390200,0.92639013671875,-0.6823163628578186,-2.1620938777923584,0.41827765107154846
1751120019549335000,0.9363349609375,-0.021837789565324783,-1.7467176914215088,0.2148655205965042
1751120019559280000,0.946280029296875,0.5651864409446716,-1.377002477645874,0.08276980370283127
1751120019569225200,0.95622509765625,0.9561286568641663,-1.0393565893173218,0.09437590092420578
1751120019579170000,0.966170166015625,1.1190721988677979,-0.6633801460266113,0.22754059731960297
1751120019589115100,0.976115234375,1.0531007051467896,-0.4375193417072296,0.4437805414199829
1751120019599060200,0.986060302734375,0.8090671896934509,-0.4737120568752289,0.6781931519508362
1751120019609005000,0.996005126953125,0.4703523814678192,-0.6122216582298279,0.8805363178253174
1751120019618950000,1.005949951171875,0.1241547018289566,-0.6132906675338745,0.9668185114860535
1751120019628894700,1.015894775390625,-0.2476985603570938,-0.7218687534332275,0.9562813639640808
1751120019638839800,1.02583984375,-0.634364902973175,-1.0318737030029297,0.8635852932929993
1751120019648784600,1.03578466796875,-0.9923213720321655,-1.4559544324874878,0.6994200944900513
1751120019658729500,1.0457294921875,-1.2873605489730835,-1.8937791585922241,0.5279247164726257
1751120019668674300,1.05567431640625,-1.5430002212524414,-2.2399768829345703,0.40972578525543213
1751120019678619400,1.065619384765625,-1.8103985786437988,-2.3997135162353516,0.3542914092540741
1751120019688564500,1.075564453125,-2.105437755584717,-2.3932995796203613,0.3458922505378723
1751120019698508300,1.08550830078125,-2.415442705154419,-2.3155691623687744,0.3596363365650177
1751120019708452000,1.0954521484375,-2.71903395652771,-2.2697556018829346,0.376740038394928
1751120019718396400,1.105396484375,-3.014073133468628,-2.2847213745117188,0.3990359604358673
1751120019728341000,1.115341064453125,-3.3028512001037598,-2.3847477436065674,0.42041563987731934
1751120019738286000,1.1252861328125,-3.509470224380493,-2.4604928493499756,0.40758782625198364
1751120019748231700,1.135231689453125,-3.590407371520996,-2.16316294670105,0.3032856583595276
1751120019758177300,1.14517724609375,-3.650117874145508,-1.9053852558135986,0.2596100866794586
1751120019768123100,1.155123046875,-3.3103339672088623,-1.5411676168441772,0.22754059731960297
1751120019778069000,1.165069091796875,-2.5730414390563965,-2.297396659851074,0.1647760421037674
1751120019788013800,1.175013916015625,-1.780619740486145,-3.164646863937378,0.15836215019226074
1751120019797958700,1.184958740234375,-0.9283351302146912,-3.4809131622314453,0.2564031481742859
1751120019807903500,1.194903564453125,0.045355409383773804,-3.590712785720825,0.38849884271621704
1751120019817848600,1.2048486328125,0.974148690700531,-3.4725139141082764,0.6216897964477539
1751120019827793400,1.21479345703125,1.6421101093292236,-3.0708818435668945,0.989267110824585
1751120019837738200,1.22473828125,1.9392873048782349,-2.3209142684936523,1.5335320234298706
1751120019847683000,1.23468310546875,1.9489082098007202,-1.2791141271591187,2.201493501663208
1751120019857628200,1.244628173828125,1.7838267087936401,-0.1360662281513214,2.8598341941833496
1751120019867573000,1.254572998046875,1.4993245601654053,0.7001836895942688,3.3595073223114014
1751120019877517800,1.264517822265625,1.1777135133743286,1.1998567581176758,3.6055259704589844
1751120019887462700,1.274462646484375,0.8848122358322144,1.4831371307373047,3.633166790008545
1751120019907352600,1.2943525390625,0.6801784038543701,1.8218519687652588,3.0559160709381104
1751120019927242200,1.3142421875,0.911384105682373,1.3681451082229614,1.9777706861495972
1751120019947132200,1.334132080078125,1.8446060419082642,-1.041494607925415,-0.025961007922887802
1751120019996856600,1.383856689453125,2.8660953044891357,-2.1504876613616943,-2.155374526977539
1751120020026691300,1.41369140625,2.504931926727295,-2.236769914627075,-1.2754490375518799
1751120020036636200,1.42363623046875,2.531656503677368,-2.0503089427948,-0.9559759497642517
1751120020046581000,1.4335810546875,2.438960313796997,-1.4974920749664307,-0.8643488883972168
1751120020056526000,1.443526123046875,2.2918989658355713,-0.38636088371276855,-1.274380087852478
1751120020066471000,1.453470947265625,2.248223304748535,0.7800519466400146,-2.108492136001587
1751120020096305700,1.4833056640625,2.653062343597412,1.8378866910934448,-4.967715263366699
1751120020106250500,1.49325048828125,2.751103401184082,1.7218257188796997,-5.774186611175537
1751120020126140400,1.513140380859375,2.198133945465088,0.4775298535823822,-6.30989933013916
1751120020155975400,1.542975341796875,1.635696291923523,-0.5929799675941467,-4.244472026824951
1751120020179111200,1.566111083984375,1.1627477407455444,-1.0275977849960327,-1.335159420967102
1751120020189056000,1.576055908203125,1.1638166904449463,-0.8477032780647278,-0.7130114436149597
1751120020199001000,1.5860009765625,1.1766445636749268,-0.2020377367734909,0.3106158375740051
1751120020208946000,1.59594580078125,1.268271565437317,0.7864658236503601,1.324774980545044
1751120020228835600,1.615835693359375,1.6410411596298218,1.9678444862365723,2.343209981918335
1751120020238780700,1.62578076171875,1.7060964107513428,2.082836389541626,2.2697556018829346
1751120020258670300,1.64567041015625,1.7294613122940063,2.0808510780334473,1.377002477645874
1751120020268615200,1.655615234375,1.7369441986083984,1.9796032905578613,0.6888830065727234
1751120020278560300,1.665560302734375,1.7103723287582397,1.6897562742233276,-0.14843589067459106
1751120020288505000,1.675505126953125,1.5515520572662354,1.2988139390945435,-1.0549331903457642
1751120020298450000,1.685449951171875,1.2320789098739624,1.0335536003112793,-1.8635423183441162
1751120020308394800,1.695394775390625,0.9475768208503723,0.9729269742965698,-2.4430835247039795
1751120020318339800,1.70533984375,0.9752176403999329,1.0421054363250732,-2.6657373905181885
1751120020358119400,1.745119384765625,1.7742059230804443,2.4322409629821777,0.7601994276046753
1751120020378009000,1.765009033203125,0.18065807223320007,0.5883986353874207,2.488133668899536
1751120020387954000,1.774953857421875,-0.208298921585083,-0.4109475016593933,3.1379222869873047
1751120020417788700,1.80478857421875,0.2476985603570938,-1.1555702686309814,4.329838275909424
1751120020457568300,1.844568359375,2.219513416290283,-0.8860339522361755,0.9402466416358948
1751120020467513300,1.854513427734375,2.258913278579712,-1.0149227380752563,-0.839762270450592
1751120020477458200,1.864458251953125,1.6453170776367188,-0.5578562617301941,-1.4619102478027344
1751120020487403300,1.8744033203125,0.8133431077003479,-0.08918370306491852,-0.6960604786872864
1751120020497348000,1.88434814453125,-0.013285927474498749,-0.1104106456041336,0.530062735080719
1751120020507293000,1.89429296875,-0.6534538269042969,-0.2095206081867218,1.486649513244629
1751120020517238000,1.904238037109375,-0.8793146014213562,-0.32665055990219116,2.002357244491577
1751120020527182800,1.914182861328125,-0.7941014170646667,-0.6398624777793884,2.1918725967407227
1751120020557017900,1.944017822265625,-0.9229902029037476,-1.744579792022705,2.3155691623687744
1751120020566962700,1.953962646484375,-1.3886085748672485,-1.6253118515014648,2.3708510398864746
1751120020576907800,1.96390771484375,-1.7900879383087158,-1.1427425146102905,2.192941665649414
1751120020586852600,1.9738525390625,-1.8594191074371338,-0.5578562617301941,1.7572548389434814
1751120020606742500,1.993742431640625,-1.0370659828186035,0.4169032573699951,0.7942541241645813
1751120020616687400,2.003687255859375,-0.5256340503692627,0.848314106464386,0.5929799675941467
1751120020626632400,2.013632568359375,-0.18157434463500977,1.3212625980377197,0.5812211632728577
1751120020646522400,2.0335224609375,0.06016845628619194,1.780314326286316,0.4619532525539398
1751120020656467200,2.04346728515625,0.1241547018289566,1.4863440990447998,0.05390727147459984
1751120020666412300,2.053412353515625,0.14858859777450562,0.8089144825935364,-0.4808894991874695
1751120020676357000,2.063357177734375,0.029320668429136276,-0.006108472589403391,-0.7470661997795105
1751120020696247000,2.0832470703125,-0.6450546979904175,-0.7922688722610474,0.10292776674032211
1751120020706192000,2.09319189453125,-0.7973083853721619,-0.6355865597724915,0.867861270904541
1751120020726081800,2.113081787109375,-0.3029802441596985,-0.8507575392723083,2.2207353115081787
1751120020736027000,2.12302685546875,0.06337540596723557,-1.7073180675506592,2.6425251960754395
1751120020745971700,2.1329716796875,0.2945810854434967,-2.276169538497925,2.8769378662109375
1751120020755916800,2.142916748046875,0.44271156191825867,-2.3241209983825684,2.9195444583892822
1751120020765861600,2.152861572265625,0.5673243999481201,-2.1995081901550293,2.8619720935821533
1751120020775806700,2.162806640625,0.6503996253013611,-2.0460329055786133,2.77462100982666
1751120020785751600,2.17275146484375,0.6972821354866028,-1.6156909465789795,2.5817458629608154
1751120020795696600,2.182696533203125,0.6067240238189697,-1.034011721611023,2.2697556018829346
1751120020805641500,2.192641357421875,0.4596625566482544,-0.611152708530426,2.016101360321045
1751120020815586300,2.20258642578125,0.4437805414199829,-0.4214846193790436,1.8297929763793945
1751120020825531400,2.212531494140625,0.5949652194976807,-0.3692571818828583,1.6039321422576904
1751120020835476200,2.222476318359375,0.8069292306900024,-0.3533751368522644,1.3577607870101929
1751120020845421300,2.23242138671875,0.9730796813964844,-0.3906368315219879,1.1862653493881226
1751120020855366100,2.2423662109375,1.101052165031433,-0.42362257838249207,1.1042591333389282
1751120020865311200,2.252311279296875,1.1819894313812256,-0.34161633253097534,1.0477557182312012
1751120020875256000,2.262256103515625,1.1841274499893188,-0.11896250396966934,0.9487984776496887
1751120020885201200,2.272201171875,1.1638166904449463,0.16645587980747223,0.7826480269432068
1751120020895146000,2.28214599609375,1.1989405155181885,0.393385648727417,0.5833591222763062
1751120020915036000,2.302035888671875,1.4258701801300049,0.5541911721229553,0.17317520081996918
1751120020924980700,2.311980712890625,1.4759596586227417,0.27197974920272827,-0.03558185324072838
1751120020934925800,2.32192578125,1.433353066444397,-0.32665055990219116,-0.14309096336364746
1751120020944870700,2.33187060546875,1.2798776626586914,-0.8997780084609985,-0.1441599577665329
1751120020954815700,2.341815673828125,1.01370108127594,-1.1693143844604492,-0.08979454636573792
1751120020964760600,2.351760498046875,0.6673506498336792,-1.167176365852356,0.005955760832875967
1751120020974705700,2.36170556640625,0.3286358118057251,-0.9956810474395752,0.144465371966362
1751120020984650500,2.371650390625,0.08903098851442337,-0.8134958148002625,0.30633988976478577
1751120020994595600,2.381595703125,-0.00259610079228878,-0.5674771070480347,0.41827765107154846
1751120021004540400,2.39154052734375,0.02504473738372326,-0.30756160616874695,0.3936910629272461
1751120021014485500,2.401485595703125,0.09116895496845245,-0.09452861547470093,0.20631365478038788
1751120021024430300,2.411430419921875,0.08689302206039429,0.05894676223397255,-0.10582929104566574
1751120021034375200,2.421375244140625,-0.02076880633831024,0.06322269141674042,-0.3849864900112152
1751120021044320300,2.4313203125,-0.19867807626724243,-0.07421794533729553,-0.48608171939849854
1751120021054265000,2.44126513671875,-0.4414898455142975,-0.24036839604377747,-0.4340069890022278
1751120021064210200,2.451210205078125,-0.7844805717468262,-0.2777827978134155,-0.3764346241950989
1751120021074155000,2.461155029296875,-1.1807677745819092,-0.10934165865182877,-0.41262730956077576
1751120021084100000,2.47110009765625,-1.4322841167449951,0.12064233422279358,-0.5819846987724304
1751120021094045000,2.481044921875,-1.446028232574463,0.3358132839202881,-0.8354863524436951
1751120021103990000,2.490989990234375,-1.3395880460739136,0.6310052275657654,-1.0443960428237915
1751120021113934800,2.500934814453125,-1.2404780387878418,0.9707890152931213,-1.11678147315979
1751120021123880000,2.5108798828125,-1.23940908908844,1.1283875703811646,-0.9868237376213074
1751120021133824800,2.52082470703125,-1.3331741094589233,0.8802309036254883,-0.656660795211792
1751120021143769600,2.53076953125,-1.4141113758087158,0.3242071866989136,-0.2113531529903412
1751120021153714700,2.540714599609375,-1.4716837406158447,-0.34696123003959656,0.38956785202026367
1751120021163659500,2.550659423828125,-1.599503517150879,-0.9477295279502869,1.1980241537094116
1751120021173604600,2.5606044921875,-1.7922258377075195,-1.3110309839248657,1.9959434270858765
1751120021183549400,2.570549560546875,-1.9658591747283936,-1.4718364477157593,2.5093605518341064
1751120021193494500,2.58049462890625,-2.0416042804718018,-1.5996562242507935,2.70758056640625
1751120021203439400,2.590439453125,-2.01594877243042,-1.7552696466445923,2.7033045291900635
1751120021213384400,2.600384521484375,-1.945701241493225,-1.9128681421279907,2.606332540512085
1751120021223329300,2.610329345703125,-1.881714940071106,-2.1014673709869385,2.450719118118286
1751120021233274000,2.620274169921875,-1.8232263326644897,-2.2282180786132812,2.1918725967407227
1751120021243219200,2.63021923828125,-1.8050535917282104,-1.9916675090789795,1.8563648462295532
1751120021253164000,2.6401640625,-1.7656539678573608,-1.194969892501831,1.518718957901001
1751120021263109000,2.650109130859375,-1.5515520572662354,-0.19348587095737457,1.2129899263381958
1751120021273054000,2.660053955078125,-1.1935955286026,0.6139014959335327,0.950936496257782
1751120021282999000,2.6699990234375,-0.8623636364936829,1.1645803451538086,0.6792621612548828
1751120021292944000,2.67994384765625,-0.7014053463935852,1.4619102478027344,0.3170297145843506
1751120021302889000,2.689888916015625,-0.7238540053367615,1.488482117652893,-0.13774605095386505
1751120021312833800,2.699833740234375,-0.8473978638648987,1.2807940244674683,-0.5425850749015808
1751120021322779000,2.70977880859375,-0.9613208770751953,1.0219475030899048,-0.7162184119224548
1751120021332723700,2.7197236328125,-0.9996515512466431,0.8738170266151428,-0.5703786015510559
1751120021342668500,2.72966845703125,-0.978424608707428,0.8620582222938538,-0.20493926107883453
1751120021352613600,2.739613525390625,-0.925128161907196,0.9547542929649353,0.20631365478038788
1751120021362558500,2.749558349609375,-0.8079982399940491,1.0943328142166138,0.5471664071083069
1751120021372503600,2.759503662109375,-0.5832064151763916,1.1945117712020874,0.7837170362472534
1751120021382448400,2.769448486328125,-0.3552076816558838,1.1966497898101807,0.9284878373146057
1751120021392393500,2.7793935546875,-0.24662958085536957,1.0677610635757446,0.996749997138977
1751120021402338300,2.78933837890625,-0.21883602440357208,0.7663078904151917,1.0031639337539673
1751120021412283400,2.799283447265625,-0.20402298867702484,0.33260634541511536,1.0040801763534546
1751120021422228200,2.809228271484375,-0.19226416945457458,-0.07956285774707794,1.0584455728530884
1751120021432173300,2.81917333984375,-0.2892361879348755,-0.26602399349212646,1.1884033679962158
1751120021442118100,2.8291181640625,-0.5363239049911499,-0.11896250396966934,1.365243673324585
1751120021452063000,2.83906298828125,-0.6598677635192871,0.1366770714521408,1.3663126230239868
1751120021462008000,2.849008056640625,-0.6033644080162048,0.23685602843761444,0.9914051294326782
1751120021471953000,2.858952880859375,-0.6502469182014465,0.23471805453300476,0.4960079789161682
1751120021481898000,2.86889794921875,-0.7067502737045288,0.16966283321380615,0.06245913356542587
1751120021491842800,2.8788427734375,-0.6534538269042969,-0.017867282032966614,-0.29656633734703064
1751120021501788000,2.888787841796875,-0.5213581323623657,-0.3352024257183075,-0.5723638534545898
1751120021511732700,2.898732666015625,-0.25716668367385864,-0.7346965670585632,-0.6800256967544556
1751120021521677800,2.908677734375,0.23059484362602234,-1.210852026939392,-0.553274929523468
1751120021531622700,2.91862255859375,0.8889354467391968,-1.7264070510864258,-0.17928366363048553
1751120021541567700,2.928567626953125,1.4599249362945557,-2.2847213745117188,0.48104220628738403
1751120021551512600,2.9385126953125,1.816812515258789,-2.9109926223754883,1.4164021015167236
1751120021561457400,2.94845751953125,1.9936527013778687,-3.479844093322754,2.4774436950683594
1751120021571402500,2.958402587890625,2.1013145446777344,-3.8144357204437256,3.375389337539673
1751120021581347300,2.968347412109375,2.186527729034424,-3.8112287521362305,3.8078691959381104
1751120021591292400,2.97829248046875,2.1736998558044434,-3.385162830352783,3.68218731880188
1751120021601237200,2.9882373046875,1.900956630706787,-2.6309192180633545,2.9195444583892822
1751120021611182300,2.998182373046875,1.1318999528884888,-1.6017942428588867,1.2917892932891846
1751120021621127200,3.008127197265625,0.2211267054080963,-0.31290650367736816,-0.8812998533248901
1751120021631072300,3.018072265625,-0.25502872467041016,0.7108734846115112,-2.586785316467285
1751120021641017000,3.02801708984375,-0.17943638563156128,1.109298586845398,-3.187706470489502
1751120021650962200,3.037962158203125,0.1560714691877365,1.1731321811676025,-2.9138941764831543
1751120021660907000,3.047906982421875,0.48638713359832764,1.100746750831604,-2.270519256591797
1751120021670852000,3.05785205078125,0.6780404448509216,0.7353073954582214,-1.6132476329803467
1751120021680797000,3.067796875,0.8527427911758423,0.04718795046210289,-0.9292513728141785
1751120021690742000,3.077741943359375,1.0957072973251343,-0.8081509470939636,-0.10903623700141907
1751120021700687000,3.08768701171875,1.2213890552520752,-1.5698775053024292,0.7548545002937317
1751120021710632000,3.0976318359375,1.0488247871398926,-2.002357244491577,1.445111870765686
1751120021720577000,3.107576904296875,0.7291989326477051,-2.0758116245269775,1.8797297477722168
1751120021730522000,3.117522216796875,0.5758762359619141,-2.395437479019165,2.241962194442749
1751120021740467000,3.127467041015625,0.6311579346656799,-3.0931777954101562,2.687269687652588
1751120021750412000,3.137412109375,0.48638713359832764,-3.636526346206665,3.1368534564971924
1751120021760357000,3.147357177734375,-0.03665083646774292,-3.532071590423584,3.4179959297180176
1751120021770302000,3.157302001953125,-0.5170822143554688,-2.875868797302246,3.3201074600219727
1751120021780247000,3.1672470703125,-0.7365291118621826,-2.2431838512420654,2.7692761421203613
1751120021790192000,3.177192138671875,-0.883590579032898,-1.6295877695083618,1.9916675090789795
1751120021800137000,3.187136962890625,-1.0540169477462769,-0.8444963097572327,1.1948171854019165
1751120021810082000,3.19708203125,-1.1424371004104614,-0.04230117425322533,0.37139514088630676
1751120021820027100,3.207027099609375,-1.1073133945465088,0.6436802744865417,-0.49356457591056824
1751120021829972000,3.216971923828125,-0.9144383668899536,1.225359559059143,-1.286138892173767
1751120021839917000,3.2269169921875,-0.5534276366233826,1.560867428779602,-1.840024709701538
1751120021849862100,3.236862060546875,-0.17409147322177887,1.3649382591247559,-2.056417226791382
1751120021859807000,3.246806884765625,0.09437590092420578,0.6224533319473267,-1.974258303642273
1751120021869752000,3.256751953125,0.3190149664878845,-0.3086305856704712,-1.5993508100509644
1751120021879697200,3.266697265625,0.6994200944900513,-1.029735803604126,-1.0645540952682495
1751120021889642000,3.27664208984375,1.2607887983322144,-1.3067549467086792,-0.6449019908905029
1751120021899587000,3.286587158203125,1.9063016176223755,-1.3046170473098755,-0.43293800950050354
1751120021909532200,3.2965322265625,2.5188286304473877,-1.1459494829177856,-0.3423798978328705
1751120021919477000,3.30647705078125,2.961998462677002,-0.9307785034179688,-0.31565532088279724
1751120021929422000,3.316422119140625,3.1728932857513428,-0.8785510659217834,-0.32634514570236206
1751120021939367000,3.326366943359375,3.0940940380096436,-1.1044118404388428,-0.2976353168487549
1751120021949312000,3.33631201171875,2.661614179611206,-1.764890432357788,-0.016340164467692375
1751120021959256800,3.3462568359375,2.0777969360351562,-2.600987672805786,0.6537593007087708
1751120021969202000,3.356201904296875,1.602710485458374,-2.488133668899536,1.210852026939392
1751120021979146800,3.366146728515625,1.3183610439300537,-1.1874871253967285,1.2215417623519897
1751120021989091800,3.376091796875,1.3864705562591553,-0.6239804625511169,1.2917892932891846
1751120021999036700,3.38603662109375,1.780619740486145,-1.6550906896591187,1.5900354385375977
1751120022008981800,3.395981689453125,1.7251853942871094,-1.680593490600586,1.0468394756317139
1751120022018926600,3.405926513671875,1.0882244110107422,0.22402822971343994,-0.25716668367385864
1751120022028871400,3.415871337890625,0.7675296068191528,2.4664485454559326,-1.392731785774231
1751120022038816500,3.42581640625,0.9604045748710632,3.9353835582733154,-1.9913620948791504
1751120022048761300,3.43576123046875,1.1499199867248535,4.40619421005249,-2.285332202911377
1751120022058706400,3.44570654296875,1.0445488691329956,4.003645420074463,-2.485690116882324
1751120022068651300,3.4556513671875,0.7026270627975464,3.1087543964385986,-2.5069172382354736
1751120022078596400,3.465596435546875,0.3211529552936554,2.3386287689208984,-2.3503875732421875
1751120022088541200,3.475541259765625,-0.009009997360408306,1.9348586797714233,-2.2140159606933594
1751120022098486300,3.485486328125,-0.2635805904865265,1.666391372680664,-2.31205677986145
1751120022108431000,3.49543115234375,-0.399952232837677,1.2019946575164795,-2.482483148574829
1751120022118376000,3.5053759765625,-0.43293800950050354,0.6629219651222229,-2.4717934131622314
1751120022128321000,3.515321044921875,-0.3637595474720001,0.2921377122402191,-2.1682024002075195
1751120022138265900,3.525265869140625,-0.0462716780602932,0.21120044589042664,-1.637681484222412
1751120022148211000,3.5352109375,0.5065450668334961,0.6181774139404297,-1.1465603113174438
1751120022158155800,3.54515576171875,0.9869764447212219,1.6205778121948242,-0.8174663186073303
1751120022168100900,3.555100830078125,1.1447277069091797,2.1766014099121094,-0.6714738607406616
1751120022178045700,3.565045654296875,0.978424608707428,1.7590874433517456,-0.7802046537399292
1751120022187990800,3.57499072265625,0.6600204706192017,1.0144646167755127,-1.2137534618377686
1751120022197935600,3.584935546875,0.33504971861839294,0.5169295072555542,-1.6738742589950562
1751120022207880700,3.594880615234375,0.18065807223320007,0.24006296694278717,-1.7932947874069214
1751120022217825500,3.604825439453125,0.3264978528022766,0.1441599577665329,-1.666391372680664
1751120022227770400,3.614770263671875,0.7473716139793396,0.48394373059272766,-1.5779712200164795
1751120022237715500,3.624715576171875,1.268271565437317,1.4735163450241089,-1.5865230560302734
1751120022247660300,3.634660400390625,1.7635160684585571,2.458965539932251,-1.5567442178726196
1751120022257605400,3.64460546875,2.23661732673645,2.4696555137634277,-1.326607584953308
1751120022267550200,3.65455029296875,2.5785388946533203,1.569419264793396,-0.9452861547470093
1751120022277495300,3.664495361328125,2.728654623031616,0.4220954477787018,-0.3892624080181122
1751120022287440100,3.674440185546875,2.8299026489257812,-0.793337881565094,0.293664813041687
1751120022297385200,3.68438525390625,2.958791494369507,-2.435906171798706,0.7655443549156189
1751120022307330000,3.694330078125,2.982309103012085,-4.452465534210205,0.7751652002334595
1751120022317275100,3.704275146484375,2.6222145557403564,-5.838325500488281,0.2095206081867218
1751120022327220000,3.714219970703125,1.6879236698150635,-5.78304386138916,-0.6299362182617188
1751120022337164800,3.724164794921875,0.47142136096954346,-4.772091388702393,-0.9750649333000183
1751120022347110000,3.73410986328125,-0.5628957748413086,-3.223135471343994,-0.5671716928482056
1751120022357054700,3.7440546875,-1.1381611824035645,-1.5155121088027954,0.1701209545135498
1751120022366999800,3.753999755859375,-1.2713258266448975,-0.21593450009822845,0.7058340311050415
1751120022376944600,3.763944580078125,-1.190388560295105,0.6479562520980835,0.7815790772438049
1751120022386889700,3.7738896484375,-1.1360231637954712,1.1422843933105469,0.40758782625198364
1751120022396834600,3.78383447265625,-1.242616057395935,1.1891669034957886,-0.2486148327589035
1751120022406779600,3.793779541015625,-1.5153592824935913,0.9568922519683838,-0.9527690410614014
1751120022416724500,3.803724365234375,-1.8497982025146484,0.7321004271507263,-1.5066547393798828
1751120022426669600,3.813669677734375,-2.039466381072998,0.7896727919578552,-1.8954590559005737
1751120022436614400,3.823614501953125,-1.946770191192627,1.3979239463806152,-2.2236366271972656
1751120022446559200,3.833559326171875,-1.5973656177520752,2.3855111598968506,-2.574110269546509
1751120022456504300,3.84350439453125,-1.073258638381958,3.344236135482788,-2.971466541290283
1751120022466449200,3.85344921875,-0.4671454429626465,3.882086992263794,-3.3570637702941895
1751120022476394200,3.863394287109375,0.09009996801614761,3.8544461727142334,-3.5476481914520264
1751120022486339000,3.873339111328125,0.5097520351409912,3.3399600982666016,-3.3825666904449463
1751120022496284200,3.8832841796875,0.8379297256469727,2.4056692123413086,-2.698723077774048
1751120022506229000,3.89322900390625,1.2618577480316162,1.1966497898101807,-1.5652960538864136
1751120022516174000,3.903174072265625,1.9063016176223755,0.04932591691613197,-0.3029802441596985
1751120022526119000,3.913118896484375,2.646648406982422,-0.9222266674041748,0.9104678630828857
1751120022536064000,3.92306396484375,3.213361978530884,-1.7925312519073486,2.013963460922241
1751120022546008800,3.9330087890625,3.4328088760375977,-2.7000975608825684,2.941840410232544
1751120022555953700,3.94295361328125,3.3188858032226562,-3.7887802124023438,3.633166790008545
1751120022565898800,3.952898681640625,3.0440046787261963,-4.774229526519775,4.001812934875488
1751120022575843600,3.962843505859375,2.7691233158111572,-5.26321268081665,4.035867691040039
1751120022585788700,3.97278857421875,2.5560903549194336,-5.199226379394531,3.8410074710845947
1751120022595733500,3.9827333984375,2.3995606899261475,-4.62716817855835,3.5395543575286865
1751120022605678600,3.9926787109375,2.2439475059509277,-3.630112648010254,3.162356376647949
1751120022615623400,4.00262353515625,2.0150322914123535,-2.4604928493499756,2.670166015625
1751120022625568500,4.012568603515625,1.6219521760940552,-1.235438585281372,2.013963460922241
1751120022635513300,4.022513427734375,0.9454388618469238,0.14309096336364746,1.0393565893173218
1751120022645458200,4.032458251953125,0.20402298867702484,1.44053053855896,-0.3593308925628662
1751120022655403300,4.0424033203125,0.46393850445747375,2.553799629211426,-1.6590611934661865
1751120022665348000,4.05234814453125,1.1755754947662354,1.5375025272369385,-1.9008039236068726
1751120022675293200,4.062293212890625,0.6716265678405762,-0.8806890249252319,-1.2552911043167114
1751120022685238000,4.072238037109375,-0.8900044560432434,-1.554911732673645,-0.7727217674255371
1751120022695183000,4.08218310546875,-2.2801401615142822,-0.35978904366493225,-0.6502469182014465
1751120022705128000,4.0921279296875,-2.8256266117095947,0.9920159578323364,-0.557550847530365
1751120022715073000,4.102072998046875,-2.635958671569824,1.6760121583938599,-0.4190412163734436
1751120022725017900,4.112017822265625,-2.068176031112671,1.783521294593811,-0.4286620616912842
1751120022734963000,4.121962890625,-1.4023525714874268,1.2893458604812622,-0.7183563709259033
1751120022744907800,4.13190771484375,-0.7780666947364807,0.2548760175704956,-1.0870027542114258
1751120022754852600,4.1418525390625,-0.37444937229156494,-0.8913788795471191,-1.1966497898101807
1751120022764797700,4.151797607421875,-0.23593975603580475,-1.753131628036499,-1.109298586845398
1751120022784687600,4.1716875,-0.14965757727622986,-2.788517713546753,-0.9932376146316528
1751120022794632400,4.181632568359375,0.05390727147459984,-2.887627601623535,-0.8386932611465454
1751120022804577500,4.19157763671875,0.33504971861839294,-2.643594264984131,-0.4808894991874695
1751120022814522400,4.2015224609375,0.6908682584762573,-2.2079074382781982,0.016645587980747223
1751120022824467500,4.211467529296875,1.0967762470245361,-1.732820987701416,0.5386145710945129
1751120022834412300,4.221412353515625,1.4791666269302368,-1.1650384664535522,1.0541696548461914
1751120022844357400,4.231357421875,1.7913095951080322,-0.6303943991661072,1.5165810585021973
1751120022854302200,4.24130224609375,1.998997688293457,-0.5439594984054565,1.7977235317230225
1751120022864247000,4.2512470703125,2.010756492614746,-0.8018897175788879,1.8244481086730957
1751120022874192100,4.261192138671875,1.8019994497299194,-0.9136747717857361,1.6613517999649048
1751120022884137000,4.271136962890625,1.457787036895752,-0.7687512636184692,1.4579397439956665
1751120022894082000,4.28108203125,1.0595145225524902,-0.5983248949050903,1.31622314453125
1751120022904027000,4.29102685546875,0.6673506498336792,-0.43538138270378113,1.2342169284820557
1751120022913972000,4.300971923828125,0.3765873312950134,-0.08063183724880219,1.1693143844604492
1751120022923916800,4.310916748046875,0.28282228112220764,0.5147915482521057,1.0873081684112549
1751120022933862000,4.32086181640625,0.429883748292923,1.1444222927093506,0.9903361201286316
1751120022943806700,4.330806640625,0.7963921427726746,1.6366125345230103,0.9051229357719421
1751120022953751800,4.340751708984375,1.2267340421676636,1.9156169891357422,0.8699992299079895
1751120022963696600,4.350696533203125,1.5962965488433838,1.9849481582641602,0.9584193229675293
1751120022973641500,4.360641357421875,1.9234052896499634,1.9029419422149658,1.1798515319824219
1751120022983586600,4.370586669921875,2.186527729034424,1.7867282629013062,1.3876922130584717
1751120022993531400,4.380531494140625,2.3526782989501953,1.647149682044983,1.510167121887207
1751120023003476500,4.3904765625,2.481566905975342,1.448013424873352,1.5889664888381958
1751120023013421300,4.40042138671875,2.6828410625457764,1.3734900951385498,1.6550906896591187
1751120023023366400,4.410366455078125,2.9726881980895996,1.488482117652893,1.7071653604507446
1751120023033311200,4.420311279296875,3.1974799633026123,1.7590874433517456,1.699835181236267
1751120023043256300,4.43025634765625,3.2326037883758545,2.19584321975708,1.5932424068450928
1751120023053201200,4.440201171875,3.123872995376587,2.745453119277954,1.4313678741455078
1751120023063146200,4.450146240234375,2.9491705894470215,3.2269532680511475,1.2256649732589722
1751120023073091000,4.460091064453125,2.690324068069458,3.520007371902466,0.9381086826324463
1751120023083036000,4.470035888671875,2.34305739402771,3.573151111602783,0.6047387719154358
1751120023092981000,4.47998095703125,1.954253077507019,3.364393949508667,0.34787750244140625
1751120023102925800,4.48992578125,1.586675763130188,3.0042996406555176,0.2414373755455017
1751120023122815700,4.509815673828125,1.0115630626678467,2.4833996295928955,0.4587462842464447
1751120023132760800,4.5197607421875,0.846328854560852,2.209739923477173,0.6420004963874817
1751120023142705700,4.52970556640625,0.6908682584762573,1.8676655292510986,0.6856760382652283
1751120023152650800,4.539650634765625,0.5609105229377747,1.5854541063308716,0.6004628539085388
1751120023162595600,4.549595703125,0.5289937257766724,1.331952452659607,0.4906630516052246
1751120023172540700,4.559540771484375,0.530062735080719,1.0495883226394653,0.3936910629272461
1751120023182485500,4.569485595703125,0.43950459361076355,0.7278245091438293,0.19241689145565033
1751120023192430600,4.5794306640625,0.32008397579193115,0.25060009956359863,-0.2677038013935089
1751120023202375700,4.589375732421875,0.29030516743659973,-0.07956285774707794,-0.6885775923728943
1751120023212320500,4.599320556640625,0.40850409865379333,-0.23624517023563385,-0.8718317747116089
1751120023222265600,4.609265625,0.6077930331230164,-0.4246915578842163,-0.9782719016075134
1751120023232210700,4.619210693359375,0.6418477296829224,-0.30969956517219543,-1.0581401586532593
1751120023242155500,4.629155517578125,0.38193225860595703,0.5201364159584045,-0.9420791864395142
1751120023252100600,4.6391005859375,-0.02504473738372326,1.7409147024154663,-0.5990884304046631
1751120023262045700,4.649045654296875,-0.4106420576572418,2.6229782104492188,-0.30404922366142273
1751120023271990500,4.658990478515625,-0.7249229550361633,2.9021353721618652,-0.3742966651916504
1751120023281935600,4.668935546875,-0.9602518677711487,2.6017510890960693,-0.9772028923034668
1751120023291880700,4.678880615234375,-1.1306782960891724,1.7218257188796997,-1.9348586797714233
1751120023301825500,4.688825439453125,-1.3469182252883911,0.7502731680870056,-2.6539785861968994
1751120023311770600,4.6987705078125,-1.7390820980072021,0.20371755957603455,-2.7263641357421875
1751120023321715700,4.7087158203125,-2.3077809810638428,-0.041232191026210785,-2.421704053878784
1751120023331660500,4.71866064453125,-2.8766324520111084,-0.35230615735054016,-2.1416304111480713
1751120023341605600,4.728605712890625,-3.2356579303741455,-0.8295305967330933,-1.9040108919143677
1751120023351550700,4.73855078125,-3.286816358566284,-1.3343958854675293,-1.621646761894226
1751120023361495600,4.74849560546875,-3.09195613861084,-1.7392348051071167,-1.3405042886734009
1751120023371440600,4.758440673828125,-2.817074775695801,-2.0471019744873047,-1.148698329925537
1751120023381385500,4.768385498046875,-2.4888970851898193,-2.337865114212036,-1.048672080039978
1751120023391330600,4.77833056640625,-1.991514801979065,-2.5478439331054688,-0.9943066239356995
1751120023401275600,4.788275634765625,-1.3203463554382324,-2.4774436950683594,-0.9517000317573547
1751120023411220500,4.798220458984375,-0.6418477296829224,-2.1153640747070312,-0.9260444641113281
1751120023421165600,4.80816552734375,-0.12186402827501297,-1.5816363096237183,-0.9549070000648499
1751120023431110700,4.818110595703125,0.011147962883114815,-1.0776872634887695,-1.0613471269607544
1751120023441055500,4.828055419921875,-0.3211529552936554,-0.8402203917503357,-1.1987876892089844
1751120023451000600,4.83800048828125,-0.8814526200294495,-0.9637642502784729,-1.282931923866272
1751120023460945700,4.847945556640625,-1.3171393871307373,-1.4217469692230225,-1.226581335067749
1751120023470890500,4.857890380859375,-1.4748907089233398,-1.9565438032150269,-1.0666919946670532
1751120023480835600,4.867835693359375,-1.4364073276519775,-2.2931206226348877,-0.9506310224533081
1751120023490780400,4.877780517578125,-1.255443811416626,-2.2697556018829346,-0.8750386834144592
1751120023500725500,4.8877255859375,-1.032789945602417,-1.9779233932495117,-0.6981984376907349
1751120023510670300,4.89767041015625,-0.9507837295532227,-1.6955592632293701,-0.4340069890022278
1751120023520615400,4.907615478515625,-1.0422581434249878,-1.5538426637649536,-0.1835595965385437
1751120023530560300,4.917560302734375,-1.2627739906311035,-1.5901881456375122,-0.04825693368911743
1751120023540505300,4.92750537109375,-1.566365122795105,-1.8937791585922241,-0.05360184609889984
1751120023550450200,4.9374501953125,-1.8679709434509277,-2.449802875518799,-0.12079504877328873
1751120023560395300,4.947395263671875,-2.0234315395355225,-3.0473642349243164,-0.16660858690738678
1751120023570340000,4.957340087890625,-1.9574600458145142,-3.5245885848999023,-0.15057384967803955
1751120023580285200,4.96728515625,-1.6697509288787842,-3.7365527153015137,-0.13560809195041656
1751120023610120000,4.997119873046875,-0.050547610968351364,-3.219928503036499,-0.2304421216249466
1751120023620064800,5.007064697265625,0.4052971601486206,-2.7756898403167725,-0.17302247881889343
1751120023630009900,5.017009765625,0.7069029808044434,-2.0524468421936035,-0.08032641559839249
1751120023639954700,5.02695458984375,0.9231429100036621,-1.4228159189224243,0.0656660795211792
1751120023649899800,5.036899658203125,1.1648857593536377,-0.9637642502784729,0.25319617986679077
1751120023659844600,5.0468447265625,1.4706147909164429,-0.48333290219306946,0.4853181540966034
1751120023669789700,5.056789794921875,1.784895658493042,0.05360184609889984,0.9359707236289978
1751120023679734500,5.066734619140625,1.9818938970565796,0.6310052275657654,1.6741796731948853
1751120023689679600,5.0766796875,2.1098663806915283,0.9089407324790955,2.358175754547119
1751120023699624400,5.08662451171875,2.29724383354187,0.03542914241552353,2.3271753787994385
1751120023729459200,5.116459228515625,1.8050535917282104,-0.984991192817688,0.1104106456041336
1751120023739404300,5.126404296875,0.3605526089668274,-0.6026008129119873,-0.9431481957435608
1751120023749349000,5.13634912109375,-1.462062954902649,-0.23196925222873688,-1.4800828695297241
1751120023759294200,5.146294189453125,-2.7892813682556152,0.16004198789596558,-0.9016105532646179
1751120023769239000,5.156239013671875,-3.280402421951294,0.32848310470581055,-0.1047603040933609
1751120023779184000,5.16618408203125,-3.133493661880493,0.2047865390777588,0.21058958768844604
1751120023789129000,5.17612890625,-2.6252686977386475,0.29534465074539185,0.13805148005485535
1751120023799074000,5.186073974609375,-1.9478391408920288,0.9153546094894409,-0.016340164467692375
1751120023809019000,5.196018798828125,-1.1520578861236572,1.674943208694458,-0.15484978258609772
1751120023818963700,5.205963623046875,-0.16553960740566254,2.175532579421997,-0.09407047927379608
1751120023828908800,5.21590869140625,0.791047215461731,2.4482758045196533,-0.10903623700141907
1751120023838853600,5.225853515625,1.2160441875457764,2.7359848022460938,-0.43080002069473267
1751120023848798700,5.235798828125,0.9284878373146057,2.725295066833496,-0.41048935055732727
1751120023858743600,5.24574365234375,0.2498365342617035,2.158581495285034,0.3202366828918457
1751120023868688600,5.255688720703125,-0.29977330565452576,1.3223315477371216,1.2129899263381958
1751120023878633500,5.265633544921875,-0.47982051968574524,0.31886225938796997,1.6784555912017822
1751120023898523400,5.2855234375,-0.42667680978775024,-1.4377816915512085,1.4131951332092285
1751120023908468500,5.295468505859375,-0.34131091833114624,-1.1939009428024292,1.045770525932312
1751120023918413300,5.305413330078125,-0.09315420687198639,-0.34909921884536743,0.7186617851257324
1751120023928358100,5.315358154296875,0.36482852697372437,0.2985515892505646,0.633448600769043
1751120023938303200,5.32530322265625,0.9167290329933167,0.5265503525733948,0.872137188911438
1751120023948248000,5.335248046875,1.3704358339309692,0.6852179169654846,1.311947226524353
1751120023958193200,5.345193115234375,1.6292823553085327,1.0208784341812134,1.7593928575515747
1751120023968138000,5.355137939453125,1.6986135244369507,1.4788612127304077,2.085432529449463
1751120023978083000,5.3650830078125,1.6613517999649048,1.84109365940094,2.2312722206115723
1751120023988028000,5.37502783203125,1.6836477518081665,1.8730103969573975,2.2813618183135986
1751120023997973000,5.384972900390625,1.8733158111572266,1.6152328252792358,2.326106309890747
1751120024007917800,5.394917724609375,2.24501633644104,1.3020209074020386,2.363368034362793
1751120024017862700,5.404862548828125,2.6913931369781494,1.0538642406463623,2.288844585418701
1751120024027807700,5.414807861328125,3.1133358478546143,0.8194515705108643,2.0587079524993896
1751120024037752600,5.424752685546875,3.465947389602661,0.5894675850868225,1.790393352508545
1751120024047697700,5.43469775390625,3.734261989593506,0.4627167880535126,1.61874520778656
1751120024057642500,5.444642578125,3.951570987701416,0.5520532131195068,1.5570496320724487
1751120024067587600,5.454587646484375,4.123066425323486,0.8706100583076477,1.5399459600448608
1751120024077532400,5.464532470703125,4.206294059753418,1.295607089996338,1.5133740901947021
1751120024087477500,5.4744775390625,4.188121318817139,1.7261016368865967,1.4461809396743774
1751120024097422300,5.48442236328125,4.082597732543945,2.0817675590515137,1.332257866859436
1751120024107367400,5.494367431640625,3.899496078491211,2.1223888397216797,1.216196894645691
1751120024117312300,5.504312255859375,3.693793296813965,1.7451906204223633,1.0862390995025635
1751120024127257000,5.514257080078125,3.546884536743164,1.0815050601959229,0.9402466416358948
1751120024137202200,5.5242021484375,3.4584643840789795,0.33688226342201233,0.777303159236908
1751120024147147000,5.53414697265625,3.346526622772217,-0.26281702518463135,0.6079457402229309
1751120024157092000,5.544092041015625,3.191066026687622,-0.5908420085906982,0.4981459379196167
1751120024167037000,5.554036865234375,2.9960529804229736,-0.6207735538482666,0.5077667832374573
1751120024176982500,5.563982421875,2.727585792541504,-0.3662029206752777,0.6100836992263794
1751120024186927900,5.573927978515625,2.456064224243164,0.08231166750192642,0.7250757217407227
1751120024196872700,5.583872802734375,2.256775140762329,0.5702258944511414,0.7666133046150208
1751120024206817800,5.59381787109375,2.062983989715576,0.9590302109718323,0.7218687534332275
1751120024216762600,5.6037626953125,1.7529789209365845,1.11678147315979,0.7133168578147888
1751120024226707500,5.61370751953125,1.3620367050170898,1.0495883226394653,0.8486195802688599
1751120024236652500,5.623652587890625,1.0253071784973145,0.8812998533248901,1.1202938556671143
1751120024246597400,5.633597412109375,0.7441646456718445,0.5851916670799255,1.434574842453003
1751120024256542500,5.64354248046875,0.4618005156517029,0.2357870489358902,1.567739486694336
1751120024266487300,5.6534873046875,0.16141638159751892,-0.07635590434074402,1.4579397439956665
1751120024276432400,5.663432373046875,-0.11987877637147903,-0.4193466305732727,1.2630794048309326
1751120024286377200,5.673377197265625,-0.27747735381126404,-0.615428626537323,1.0158389806747437
1751120024296322300,5.683322265625,-0.22097399830818176,-0.35765108466148376,0.6484143733978271
1751120024306267100,5.69326708984375,-0.08246438205242157,0.2677038013935089,0.16905197501182556
1751120024316212200,5.703212158203125,-0.07513421028852463,0.7215633392333984,-0.2539597451686859
1751120024326157000,5.713156982421875,-0.19333316385746002,0.7896727919578552,-0.46699273586273193
1751120024336102000,5.723101806640625,-0.2498365342617035,0.760962963104248,-0.4030064642429352
1751120024346047000,5.733046875,-0.23380178213119507,0.9868237376213074,-0.1719534993171692
1751120024355991800,5.74299169921875,-0.2593046724796295,1.439461588859558,-0.17622943222522736
1751120024365937000,5.75293701171875,-0.3903313875198364,1.5875920057296753,-0.7065975666046143
1751120024375881700,5.7628818359375,-0.6226060390472412,0.857782244682312,-1.5428475141525269
1751120024385826800,5.772826904296875,-0.978424608707428,-0.4918847680091858,-2.2641053199768066
1751120024395771600,5.782771728515625,-1.466338872909546,-1.4612993001937866,-2.6539785861968994
1751120024405716700,5.792716796875,-2.088486671447754,-1.6689873933792114,-2.7520196437835693
1751120024415661600,5.80266162109375,-2.8245577812194824,-1.4675605297088623,-2.7636256217956543
1751120024425606700,5.812606689453125,-3.5850625038146973,-1.190693974494934,-2.835094928741455
1751120024435551500,5.822551513671875,-4.270127773284912,-1.0479084253311157,-2.9468798637390137
1751120024445496300,5.832496337890625,-4.772855281829834,-1.1331216096878052,-3.0065901279449463
1751120024455441400,5.84244140625,-5.0263566970825195,-1.2418525218963623,-2.959707736968994
1751120024465386200,5.85238623046875,-5.0391845703125,-1.0117157697677612,-2.7935571670532227
1751120024475331300,5.862331298828125,-4.771786212921143,-0.21807247400283813,-2.4899661540985107
1751120024485276200,5.872276123046875,-4.290285587310791,1.0388984680175781,-2.100092887878418
1751120024495221200,5.88222119140625,-3.7107443809509277,2.577164649963379,-1.7314465045928955
1751120024505166000,5.892166015625,-3.1696863174438477,4.099395751953125,-1.3595932722091675
1751120024515111200,5.902111083984375,-2.7265167236328125,5.133865833282471,-0.9197832345962524
1751120024525056000,5.912055908203125,-2.3131258487701416,5.215871810913086,-0.474475622177124
1751120024535000800,5.922000732421875,-1.9583762884140015,4.145209312438965,-0.08780929446220398
1751120024544946000,5.93194580078125,-1.7432053089141846,2.1617884635925293,0.21165858209133148
1751120024554890800,5.941890869140625,-1.751757264137268,-0.07635590434074402,0.2286095917224884
1751120024564835800,5.9518359375,-1.9403563737869263,-1.8042900562286377,-0.13560809195041656
1751120024574780700,5.96178076171875,-2.166217088699341,-2.7204082012176514,-0.6224533319473267
1751120024584725800,5.971725830078125,-2.3568015098571777,-3.039881467819214,-0.9729269742965698
1751120024594670600,5.981670654296875,-2.493173122406006,-3.0559160709381104,-1.1636639833450317
1751120024604615700,5.99161572265625,-2.557159423828125,-2.884420871734619,-1.2606359720230103
1751120024614560500,6.001560546875,-2.499587059020996,-2.6489391326904297,-1.2882769107818604
1751120024624505600,6.011505615234375,-2.24501633644104,-2.5467748641967773,-1.2510151863098145
1751120024634450400,6.021450439453125,-1.764585018157959,-2.670318841934204,-1.1433533430099487
1751120024644395300,6.031395263671875,-1.1349542140960693,-2.9259583950042725,-0.9645278453826904
1751120024654340400,6.04134033203125,-0.5277720093727112,-3.1336464881896973,-0.7887565493583679
1751120024664285200,6.05128515625,-0.08139539510011673,-3.2145836353302,-0.670404851436615
1751120024674230300,6.061230224609375,0.19974705576896667,-3.1858739852905273,-0.5905365943908691
1751120024684175000,6.071175048828125,0.3733803927898407,-3.068743944168091,-0.50853031873703
1751120024694120200,6.0811201171875,0.48104220628738403,-2.8715929985046387,-0.40514445304870605
1751120024704065000,6.09106494140625,0.548082709312439,-2.592588424682617,-0.2826695740222931
1751120024714010000,6.101010009765625,0.5949652194976807,-2.178128719329834,-0.1325538605451584
1751120024723955000,6.110954833984375,0.6461237072944641,-1.6518837213516235,0.05497625470161438
1751120024733900000,6.120900146484375,0.717440128326416,-1.0841012001037598,0.3052709102630615
1751120024743844900,6.130844970703125,0.7974610924720764,-0.5621321797370911,0.6814001202583313
1751120024753789700,6.140789794921875,0.8602256774902344,-0.19256959855556488,1.1778662204742432
1751120024763734800,6.15073486328125,0.881605327129364,-0.034818295389413834,1.6656277179718018
1751120024773679600,6.1606796875,0.9145910739898682,0.24006296694278717,1.9724258184432983
1751120024783624700,6.170624755859375,1.0040801763534546,0.9579612016677856,2.1503350734710693
1751120024793569500,6.180569580078125,0.8889354467391968,1.4991718530654907,2.1045215129852295
1751120024803514600,6.1905146484375,0.06872031837701797,1.395785927772522,1.2778924703598022
1751120024813459500,6.20045947265625,-1.2777397632598877,0.7151494026184082,0.1178935244679451
1751120024823404500,6.210404541015625,-2.5304348468780518,0.16752485930919647,-0.6245913505554199
1751120024833349400,6.220349365234375,-3.2645204067230225,0.3038965165615082,-0.9718579649925232
1751120024843294500,6.23029443359375,-3.162203550338745,0.897334635257721,-1.0465340614318848
1751120024853239300,6.2402392578125,-2.3184707164764404,1.6163018941879272,-0.8228112459182739
1751120024873129200,6.260129150390625,-0.3211529552936554,2.7689707279205322,0.29794076085090637
1751120024883074000,6.270073974609375,0.39048412442207336,2.740108013153076,0.901915967464447
1751120024893019100,6.28001904296875,1.0317209959030151,2.922293186187744,1.0873081684112549
1751120024902964000,6.2899638671875,1.5014625787734985,3.2014505863189697,0.7623373866081238
1751120024922854000,6.30985400390625,1.1552648544311523,-0.12751436233520508,1.1299147605895996
1751120024932799000,6.319799072265625,0.7120952010154724,-1.414416790008545,1.3301198482513428
1751120024942743800,6.329743896484375,0.4309527277946472,-1.186418056488037,1.0020949840545654
1751120024952689000,6.33968896484375,0.208298921585083,-0.554649293422699,0.5375455617904663
1751120024962633700,6.3496337890625,0.1113269105553627,-0.5088357925415039,0.20310671627521515
1751120024972578600,6.35957861328125,0.2286095917224884,-0.9254335761070251,-0.045202698558568954
1751120024982523600,6.369523681640625,0.48424917459487915,-1.2300937175750732,-0.20814619958400726
1751120024992468500,6.379468505859375,0.8015843033790588,-1.260941505432129,-0.2229592502117157
1751120025002413600,6.38941357421875,1.1499199867248535,-1.1384665966033936,-0.06642963737249374
1751120025012358400,6.3993583984375,1.5174973011016846,-0.9286405444145203,0.24250635504722595
1751120025022303500,6.409303466796875,1.8893505334854126,-0.6601731777191162,0.6526902914047241
1751120025032248300,6.419248291015625,2.126817464828491,-0.4662291705608368,1.1299147605895996
1751120025042193400,6.429193359375,2.088486671447754,-0.47264307737350464,1.6731106042861938
1751120025052138200,6.43913818359375,1.8435369729995728,-0.5557183027267456,2.2175283432006836
1751120025062083000,6.4490830078125,1.5686557292938232,-0.5120427012443542,2.6403872966766357
1751120025072028200,6.459028076171875,1.417318344116211,-0.3171824514865875,2.8769378662109375
1751120025081973000,6.468972900390625,1.4515258073806763,-0.02092151902616024,2.9461164474487305
1751120025101863000,6.48886279296875,1.6783028841018677,0.7524111270904541,2.7575173377990723
1751120025111808000,6.49880810546875,1.659213900566101,1.4193036556243896,2.51149845123291
1751120025121752800,6.5087529296875,1.5611728429794312,2.499434232711792,2.172783613204956
1751120025131698000,6.518697998046875,1.4099881649017334,3.7883219718933105,1.8094823360443115
1751120025141642800,6.528642822265625,1.213906168937683,4.700316905975342,1.5155121088027954
1751120025151587800,6.538587890625,1.0147700309753418,4.914418697357178,1.3130161762237549
1751120025161532700,6.54853271484375,0.8411366939544678,4.6384687423706055,1.142589807510376
1751120025171477500,6.5584775390625,0.6876612901687622,4.133603572845459,0.9455915689468384
1751120025181422600,6.568422607421875,0.5609105229377747,3.4677798748016357,0.6952968835830688
1751120025191367400,6.578367431640625,0.5215108394622803,2.68803334236145,0.4161396920681
1751120025201312500,6.5883125,0.5864133834838867,1.9113410711288452,0.16156910359859467
1751120025211257300,6.59825732421875,0.6865923404693604,1.1998567581176758,0.007024743594229221
1751120025221202400,6.608202392578125,0.7568397521972656,0.5841227173805237,-0.03558185324072838
1751120025231147300,6.618147216796875,0.7792884111404419,0.08231166750192642,-0.0035123717971146107
1751120025241092400,6.62809228515625,0.7803573608398438,-0.2915268540382385,0.05604523420333862
1751120025251037200,6.638037109375,0.8090671896934509,-0.4940227270126343,0.10185877978801727
1751120025260982300,6.647982177734375,0.8709154725074768,-0.4950917065143585,0.129499614238739
1751120025270927000,6.657927001953125,0.9315420985221863,-0.33947837352752686,0.17424418032169342
1751120025280872000,6.667871826171875,0.9678874611854553,-0.06459710001945496,0.2861819267272949
1751120025290817000,6.677817138671875,0.9678874611854553,0.33688226342201233,0.48959407210350037
1751120025300761900,6.687761962890625,0.9231429100036621,0.8194515705108643,0.7143858671188354
1751120025310707000,6.69770703125,0.8411366939544678,1.2328424453735352,0.8443436026573181
1751120025320651800,6.70765185546875,0.7495095729827881,1.501309871673584,0.8167027831077576
1751120025330596900,6.717596923828125,0.6621584296226501,1.7004460096359253,0.6302416324615479
1751120025340541700,6.727541748046875,0.5906893014907837,1.8517835140228271,0.293664813041687
1751120025350486800,6.73748681640625,0.559841513633728,1.812383770942688,-0.15378080308437347
1751120025360431600,6.747431640625,0.5874823331832886,1.4341166019439697,-0.6213843822479248
1751120025370376700,6.757376708984375,0.6557445526123047,0.7481352090835571,-0.9932376146316528
1751120025380321500,6.767321533203125,0.7537854909896851,0.001374406274408102,-1.1848909854888916
1751120025390266400,6.777266357421875,0.8921424150466919,-0.319320410490036,-1.096470832824707
1751120025400211500,6.78721142578125,0.9700254201889038,0.29748260974884033,-0.648108959197998
1751120025410156300,6.79715625,0.8186880350112915,1.3456965684890747,-0.1782146841287613
1751120025430046200,6.817046142578125,-0.12613995373249054,1.6685292720794678,-0.40193748474121094
1751120025439991300,6.8269912109375,-0.7302678823471069,1.1198357343673706,-0.7844805717468262
1751120025449936100,6.83693603515625,-1.3736428022384644,0.40728241205215454,-1.1508362293243408
1751120025459881200,6.846881103515625,-2.0617620944976807,-0.3426853120326996,-1.4959648847579956
1751120025469826000,6.856825927734375,-2.7935571670532227,-0.7113316059112549,-1.8230736255645752
1751120025479771100,6.866771240234375,-3.523366928100586,-0.21272756159305573,-2.1245267391204834
1751120025489716000,6.876716064453125,-4.1933135986328125,0.8173136115074158,-2.3589394092559814
1751120025499660800,6.886660888671875,-4.750559329986572,1.4512203931808472,-2.482483148574829
1751120025509606000,6.89660595703125,-5.114776611328125,1.3223315477371216,-2.4600346088409424
1751120025519550700,6.90655078125,-5.195713996887207,0.7684458494186401,-2.2896082401275635
1751120025529495800,6.916495849609375,-4.9422125816345215,0.4083513915538788,-2.010603666305542
1751120025539440600,6.926440673828125,-4.373361110687256,0.670404851436615,-1.626991629600525
1751120025549385700,6.9363857421875,-3.602166175842285,1.5161229372024536,-1.1199884414672852
1751120025559330600,6.94633056640625,-2.78302001953125,2.4632415771484375,-0.5160132050514221
1751120025569275600,6.956275634765625,-2.051072359085083,3.193967580795288,0.07207997888326645
1751120025579220500,6.966220458984375,-1.5397932529449463,3.4112765789031982,0.4853181540966034
1751120025589165300,6.976165283203125,-1.23940908908844,2.797680377960205,0.7430956959724426
1751120025599110400,6.9861103515625,-1.0263761281967163,1.508792757987976,0.9136747717857361
1751120025609055200,6.99605517578125,-0.883590579032898,-0.10521844029426575,0.885881245136261
1751120025619000300,7.006000244140625,-0.8612946271896362,-1.6636425256729126,0.5705313682556152
1751120025628945200,7.015945068359375,-0.9486457705497742,-2.8833518028259277,0.09972081333398819
1751120025638890200,7.02589013671875,-1.0902096033096313,-3.6119399070739746,-0.37536564469337463
1751120025648835000,7.0358349609375,-1.2447539567947388,-3.795193910598755,-0.7545490860939026
1751120025658780200,7.0457802734375,-1.4194563627243042,-3.552382230758667,-0.9559759497642517
1751120025678670000,7.065670166015625,-1.7294613122940063,-2.997274875640869,-0.8536590337753296
1751120025688615000,7.075614990234375,-1.7144955396652222,-2.8886966705322266,-0.6256603002548218
1751120025698559700,7.085559814453125,-1.5121524333953857,-2.7172012329101562,-0.3924693763256073
1751120025708504800,7.0955048828125,-1.2244433164596558,-2.464768648147583,-0.1985253542661667
1751120025718449700,7.10544970703125,-0.9465078115463257,-2.3102242946624756,-0.04825693368911743
1751120025728394800,7.115394775390625,-0.7046123147010803,-2.3474860191345215,0.06887302547693253
1751120025738339600,7.125339599609375,-0.4969242513179779,-2.4838576316833496,0.15836215019226074
1751120025748284700,7.13528466796875,-0.31260108947753906,-2.5478439331054688,0.22433365881443024
1751120025758229500,7.1452294921875,-0.1250709742307663,-2.372072696685791,0.29259583353996277
1751120025768174600,7.155174560546875,0.08796200156211853,-1.9522678852081299,0.4011739492416382
1751120025778119400,7.165119384765625,0.30740886926651,-1.454885482788086,0.568393349647522
1751120025798009300,7.18500927734375,0.6737645268440247,-0.5387672781944275,1.097845196723938
1751120025807954200,7.1949541015625,0.8655705451965332,-0.21807247400283813,1.449387788772583
1751120025817899300,7.204899169921875,1.129762053489685,-0.018783552572131157,1.85422682762146
1751120025827844000,7.214843994140625,1.485580563545227,0.023823043331503868,2.287775754928589
1751120025837789200,7.2247890625,1.9861698150634766,0.08338065445423126,2.530740261077881
1751120025847734000,7.234734130859375,2.5699870586395264,0.774707019329071,1.2960652112960815
1751120025857679000,7.24467919921875,2.427201509475708,1.2945380210876465,-1.4959648847579956
1751120025867624000,7.2546240234375,1.26399564743042,0.03008422814309597,-2.4004769325256348
1751120025877569000,7.264569091796875,-0.3083251416683197,-1.5762913227081299,-0.6768187880516052
1751120025887513900,7.274513916015625,-1.8103985786437988,-1.5368916988372803,0.8965710401535034
1751120025897459000,7.284458984375,-2.7520196437835693,-0.1572931706905365,0.8773293495178223
1751120025907403800,7.29440380859375,-2.626337766647339,1.2679661512374878,0.15943112969398499
1751120025917348600,7.3043486328125,-1.7922258377075195,2.273573398590088,-0.1910424828529358
1751120025927293700,7.314293701171875,-1.186112642288208,2.6315300464630127,0.0006108472589403391
1751120025937238500,7.324238525390625,-0.9869764447212219,2.3044211864471436,0.5642701387405396
1751120025947183600,7.33418359375,-0.7386670708656311,1.8517835140228271,1.2641483545303345
1751120025957128400,7.34412841796875,-0.06337540596723557,1.9624994993209839,1.5420838594436646
1751120025967073500,7.354073486328125,0.9411629438400269,2.939397096633911,0.6717792749404907
1751120025977018400,7.364018310546875,1.6538689136505127,3.7499914169311523,-0.6778877377510071
1751120025986963500,7.37396337890625,1.6740269660949707,2.750797986984253,-1.0538642406463623
1751120025996908300,7.383908203125,1.2565127611160278,0.5627430081367493,-0.5425850749015808
1751120026006853400,7.393853271484375,0.8548807501792908,-0.9530744552612305,-0.09407047927379608
1751120026016798200,7.403798095703125,0.6300889253616333,-1.1810731887817383,-0.04092676565051079
1751120026026743000,7.413742919921875,0.4746283292770386,-0.8860339522361755,-0.09941539168357849
1751120026036688100,7.423688232421875,0.38193225860595703,-0.7453863620758057,-0.0856713280081749
1751120026046633000,7.433633056640625,0.4969242513179779,-0.867861270904541,-0.03665083646774292
1751120026056578000,7.443578125,0.8154810667037964,-1.057529330253601,0.0038177953101694584
1751120026066523000,7.45352294921875,1.2171131372451782,-1.0958600044250488,0.05925218388438225
1751120026076468000,7.463468017578125,1.627297043800354,-0.9701781868934631,0.16691401600837708
1751120026086412800,7.473412841796875,1.9979286193847656,-0.8177717924118042,0.3617742955684662
1751120026096358000,7.48335791015625,2.277085781097412,-0.7528692483901978,0.6473453640937805
1751120026106302700,7.493302734375,2.4432363510131836,-0.8284615874290466,0.9956810474395752
1751120026116247600,7.50324755859375,2.496532678604126,-1.03828763961792,1.3620367050170898
1751120026126192600,7.513192626953125,2.4601874351501465,-1.3163758516311646,1.675248622894287
1751120026136137500,7.523137451171875,2.398491859436035,-1.4921470880508423,1.858502745628357
1751120026146082600,7.53308251953125,2.4081125259399414,-1.3834162950515747,1.8818676471710205
1751120026156027400,7.54302734375,2.4869120121002197,-1.0275977849960327,1.8094823360443115
1751120026165972500,7.552972412109375,2.533794403076172,-0.6058077812194824,1.744579792022705
1751120026175917300,7.562917236328125,2.4804980754852295,-0.21058958768844604,1.729614019393921
1751120026185862400,7.5728623046875,2.34305739402771,0.17286977171897888,1.7381658554077148
1751120026195807200,7.58280712890625,2.172631025314331,0.5680879354476929,1.7615307569503784
1751120026205752300,7.59275244140625,2.016101360321045,1.0772291421890259,1.878660798072815
1751120026215697200,7.602697265625,1.8966807126998901,1.6908252239227295,2.100245475769043
1751120026225642000,7.61264208984375,1.773136854171753,2.221346139907837,2.2239420413970947
1751120026235587000,7.622587158203125,1.5665178298950195,2.447206735610962,2.0991766452789307
1751120026245532000,7.632531982421875,1.2704095840454102,2.3874964714050293,1.7893242835998535
1751120026255477000,7.64247705078125,0.9880454540252686,2.311904191970825,1.3556227684020996
1751120026265421800,7.652421875,0.7931851744651794,2.3396975994110107,0.8220477104187012
1751120026275367000,7.662366943359375,0.6673506498336792,2.2949531078338623,0.2808370292186737
1751120026285311700,7.672311767578125,0.5906893014907837,2.007244110107422,-0.14843589067459106
1751120026295256800,7.6822568359375,0.5544965863227844,1.556591510772705,-0.4265241026878357
1751120026305201700,7.69220166015625,0.530062735080719,1.1827529668807983,-0.5628957748413086
1751120026315146800,7.702146728515625,0.4990622103214264,0.9654440879821777,-0.6033644080162048
1751120026325091600,7.712091552734375,0.4778352677822113,0.8695410490036011,-0.5926745533943176
1751120026335036400,7.722036376953125,0.47676628828048706,0.8738170266151428,-0.5393781065940857
1751120026344981500,7.7319814453125,0.47676628828048706,0.9600991606712341,-0.4340069890022278
1751120026354926300,7.74192626953125,0.47355934977531433,1.0943328142166138,-0.27091076970100403
1751120026364871400,7.751871337890625,0.4874561131000519,1.2594143152236938,-0.06749862432479858
1751120026374816300,7.761816162109375,0.5352548956871033,1.4661861658096313,0.15836215019226074
1751120026384761300,7.77176123046875,0.6099309921264648,1.6685292720794678,0.38422292470932007
1751120026394706200,7.7817060546875,0.6844543814659119,1.7633633613586426,0.5737382769584656
1751120026404651300,7.7916513671875,0.755770742893219,1.683495044708252,0.6717792749404907
1751120026414596000,7.80159619140625,0.8538117408752441,1.4777922630310059,0.649483323097229
1751120026424541200,7.811541259765625,0.9891144037246704,1.2232216596603394,0.5184566378593445
1751120026434486000,7.821486083984375,1.122279167175293,0.8909206986427307,0.26694026589393616
1751120026444430800,7.831430908203125,1.2149752378463745,0.3965925872325897,-0.09941539168357849
1751120026454376000,7.8413759765625,1.275754451751709,-0.2020377367734909,-0.48394373059272766
1751120026464320800,7.85132080078125,1.3023263216018677,-0.5066977739334106,-0.7470661997795105
1751120026474265900,7.861265869140625,1.2042853832244873,-0.09666658192873001,-0.8632798790931702
1751120026484210700,7.871210693359375,0.8495358228683472,0.7481352090835571,-1.0326372385025024
1751120026494155800,7.88115576171875,0.20936790108680725,1.2594143152236938,-1.401283621788025
1751120026504100600,7.8911005859375,-0.6332958936691284,0.9994988441467285,-1.7772600650787354
1751120026514045700,7.901045654296875,-1.5962965488433838,0.11010521650314331,-1.9147007465362549
1751120026523990500,7.910990478515625,-2.6306138038635254,-0.9659022092819214,-1.84109365940094
1751120026533935600,7.920935546875,-3.6777586936950684,-1.6486767530441284,-1.7432053089141846
1751120026543880400,7.93088037109375,-4.6503801345825195,-1.4047960042953491,-1.683495044708252
1751120026553825300,7.9408251953125,-5.468457221984863,-0.32665055990219116,-1.6802880764007568
1751120026563770400,7.950770263671875,-6.022495746612549,0.7853968739509583,-1.8209357261657715
1751120026573715200,7.960715087890625,-6.2237701416015625,1.444806456565857,-2.07657527923584
1751120026583660300,7.970660400390625,-6.06296443939209,1.9550166130065918,-2.2715883255004883
1751120026593605000,7.980605224609375,-5.539926528930664,2.710329294204712,-2.091541051864624
1751120026603550200,7.99055029296875,-4.743076324462891,3.6264474391937256,-1.3021736145019531
1751120026613495000,8.0004951171875,-3.8684957027435303,4.033424377441406,-0.08979454636573792
1751120026623440100,8.010440185546875,-3.0588176250457764,3.587047815322876,0.9914051294326782
1751120026633385000,8.020385009765626,-2.3856639862060547,2.5037102699279785,1.4035743474960327
1751120026643329800,8.030329833984375,-1.8679709434509277,1.282931923866272,1.199093222618103
1751120026653275000,8.04027490234375,-1.3905937671661377,0.23364907503128052,0.8167027831077576
1751120026663219700,8.0502197265625,-0.9071081876754761,-0.6345176100730896,0.5279247164726257
1751120026673164800,8.060164794921874,-0.5309789776802063,-1.4484715461730957,0.35108447074890137
1751120026683109600,8.070109619140625,-0.32222193479537964,-2.3337419033050537,0.2648022770881653
1751120026693054700,8.0800546875,-0.3136700689792633,-3.0388123989105225,0.19027891755104065
1751120026702999600,8.08999951171875,-0.48516544699668884,-3.248791217803955,0.07314895838499069
1751120026712944600,8.099944580078125,-0.7611156702041626,-2.9899446964263916,-0.08032641559839249
1751120026722889500,8.109889404296876,-1.0518789291381836,-2.6106085777282715,-0.2411319613456726
1751120026732834600,8.11983447265625,-1.284153699874878,-2.427354335784912,-0.3742966651916504
1751120026742779400,8.129779296875,-1.4258701801300049,-2.4583547115325928,-0.4297310411930084
1751120026752724200,8.13972412109375,-1.4567179679870605,-2.5594499111175537,-0.39979952573776245
1751120026762669300,8.14966943359375,-1.3779187202453613,-2.633057117462158,-0.3614688515663147
1751120026772614100,8.1596142578125,-1.2053543329238892,-2.6778016090393066,-0.38391751050949097
1751120026782559200,8.169559326171875,-0.9677347540855408,-2.7011666297912598,-0.43293800950050354
1751120026792504000,8.179504150390626,-0.7163711190223694,-2.6767327785491943,-0.4509579837322235
1751120026802449200,8.18944921875,-0.47982051968574524,-2.6138153076171875,-0.4372139275074005
1751120026812394000,8.19939404296875,-0.265718549489975,-2.4337682723999023,-0.38391751050949097
1751120026822339000,8.209339111328125,-0.06444438546895981,-2.144073963165283,-0.26251161098480225
1751120026832284000,8.219283935546875,0.12629267573356628,-1.8191031217575073,-0.072843536734581
1751120026842229000,8.22922900390625,0.31596073508262634,-1.458092451095581,0.17225892841815948
1751120026852173800,8.239173828125,0.5448757410049438,-1.0191986560821533,0.4874561131000519
1751120026862118700,8.24911865234375,0.8154810667037964,-0.611152708530426,0.8997780084609985
1751120026882008600,8.269008544921874,1.3299671411514282,-0.6665870547294617,1.838192105293274
1751120026891953700,8.27895361328125,1.6815097332000732,-0.9329164624214172,2.0235843658447266
1751120026901898500,8.2888984375,1.9191293716430664,-0.38422292470932007,1.1361758708953857
1751120026911843600,8.298843505859375,1.553689956665039,0.5595360994338989,-0.47233763337135315
1751120026921788400,8.308788330078125,0.5821374654769897,0.47859883308410645,-0.6449019908905029
1751120026931733500,8.3187333984375,-0.739736020565033,0.34008920192718506,0.4225535988807678
1751120026941678300,8.32867822265625,-1.9626522064208984,0.8322793841362,1.0201148986816406
1751120026951623400,8.33862353515625,-2.423994541168213,1.3414205312728882,0.712247908115387
1751120026961568300,8.348568359375,-1.975480079650879,1.8145217895507812,0.2658712565898895
1751120026971513000,8.35851318359375,-1.2777397632598877,2.3885655403137207,0.17958909273147583
1751120026981458200,8.368458251953125,-0.8409839868545532,2.563267707824707,0.28404396772384644
1751120026991403000,8.378403076171875,-0.5821374654769897,1.9156169891357422,0.4352286756038666
1751120027001348000,8.38834814453125,-0.2892361879348755,0.7237012982368469,0.633448600769043
1751120027011293000,8.39829296875,0.14965757727622986,-0.04443913698196411,0.6707102656364441
1751120027021238000,8.408238037109374,0.5183038711547852,0.10689827054738998,0.3245126008987427
1751120027031182800,8.418182861328125,0.5225798487663269,0.6757497787475586,-0.23258009552955627
1751120027041128000,8.4281279296875,0.2423536479473114,0.9003888368606567,-0.6277982592582703
1751120027051072800,8.43807275390625,-0.03558185324072838,0.7502731680870056,-0.6044333577156067
1751120027061017600,8.448017578125,-0.3115321099758148,0.5978667736053467,-0.04932591691613197
1751120027070962700,8.457962646484376,-0.6226060390472412,0.571294903755188,0.6760551929473877
1751120027080907500,8.467907470703125,-0.7142331600189209,0.5244123935699463,0.8454126119613647
1751120027090852600,8.4778525390625,-0.4500417113304138,0.2773246467113495,0.3384093940258026
1751120027100797400,8.48779736328125,-0.0004581354442052543,0.010995250195264816,-0.27839362621307373
1751120027110742500,8.497742431640624,0.47142136096954346,-0.05619794875383377,-0.5586197972297668
1751120027120687400,8.507687255859375,0.9507837295532227,0.07482878863811493,-0.453095942735672
1751120027140577300,8.527577392578126,1.9276812076568604,0.5520532131195068,0.17118994891643524
1751120027150522400,8.5375224609375,2.2961747646331787,0.728893518447876,0.39796698093414307
1751120027160467200,8.54746728515625,2.5475385189056396,0.650094211101532,0.5961869359016418
1751120027170412000,8.557412109375,2.71597957611084,0.1579040139913559,0.8167027831077576
1751120027180357000,8.567357177734374,2.8618195056915283,-0.6293253898620605,1.0488247871398926
1751120027190302000,8.577302001953125,3.0217087268829346,-1.34080970287323,1.2374237775802612
1751120027200247000,8.5872470703125,3.1782383918762207,-1.6796772480010986,1.333326816558838
1751120027210192000,8.59719189453125,3.3017821311950684,-1.6529526710510254,1.3566917181015015
1751120027220137000,8.607136962890625,3.361492395401001,-1.4165548086166382,1.3844853639602661
1751120027230081800,8.617081787109376,3.349733591079712,-1.1149489879608154,1.5037531852722168
1751120027240027000,8.62702685546875,3.292161226272583,-0.7518002390861511,1.7690136432647705
1751120027249971700,8.6369716796875,3.2240517139434814,-0.29259583353996277,2.1674387454986572
1751120027259916800,8.646916748046875,3.127079725265503,0.2516690790653229,2.572277784347534
1751120027269861600,8.656861572265624,2.9459636211395264,0.7907418012619019,2.788517713546753
1751120027279806500,8.666806396484375,2.6562693119049072,1.2200146913528442,2.756448268890381
1751120027289751600,8.67675146484375,2.3036577701568604,1.622715711593628,2.530740261077881
1751120027299696400,8.6866962890625,1.9169913530349731,2.178739547729492,1.9447849988937378
1751120027319586300,8.70658642578125,1.1393828392028809,1.403268814086914,0.11361759155988693
1751120027329531400,8.716531494140625,0.9529217481613159,0.08017370104789734,-0.3434488773345947
1751120027339476200,8.726476318359374,0.9017632603645325,-0.5792359113693237,-0.569309651851654
1751120027349421300,8.73642138671875,0.8783983588218689,-0.358720064163208,-0.6736118197441101
1751120027359366100,8.7463662109375,0.8079982399940491,0.23258009552955627,-0.6736118197441101
1751120027369311200,8.756311279296876,0.6887302994728088,0.7417212724685669,-0.5734328627586365
1751120027379256000,8.766256103515625,0.5470137000083923,1.0645540952682495,-0.40514445304870605
1751120027389201000,8.776200927734376,0.4500417113304138,1.2403253316879272,-0.2304421216249466
1751120027399146000,8.78614599609375,0.4437805414199829,1.3553173542022705,-0.06749862432479858
1751120027409090800,8.7960908203125,0.5097520351409912,1.4544273614883423,0.1316375881433487
1751120027419036000,8.806035888671875,0.6077930331230164,1.5535372495651245,0.33413344621658325
1751120027428980700,8.815980712890624,0.7047650218009949,1.6237847805023193,0.4459185004234314
1751120027438925800,8.82592578125,0.7824953198432922,1.6109569072723389,0.4566083252429962
1751120027448870700,8.83587060546875,0.8133431077003479,1.468324065208435,0.40972578525543213
1751120027458815700,8.845815673828126,0.816550076007843,1.1998567581176758,0.3202366828918457
1751120027468760600,8.855760498046875,0.8336538076400757,0.823727548122406,0.1701209545135498
1751120027478705700,8.86570556640625,0.8719844818115234,0.27946263551712036,-0.056808795779943466
1751120027488650500,8.875650390625,0.9263498783111572,-0.4375193417072296,-0.31137940287590027
1751120027498595300,8.88559521484375,1.0051491260528564,-1.1352596282958984,-0.4627167880535126
1751120027508540400,8.89554052734375,1.1041064262390137,-1.5155121088027954,-0.3646758198738098
1751120027518485200,8.9054853515625,1.145796775817871,-1.368603229522705,0.045355409383773804
1751120027528430300,8.915430419921876,0.9837695360183716,-0.6633801460266113,0.5812211632728577
1751120027538375200,8.925375244140625,0.5352548956871033,0.567018985748291,0.724006712436676
1751120027548320300,8.9353203125,-0.2560977041721344,2.4206349849700928,-0.21242213249206543
1751120027558265000,8.94526513671875,-1.2447539567947388,3.121582269668579,-1.5642271041870117
1751120027568210200,8.955210205078124,-2.195995807647705,1.5886609554290771,-2.0936789512634277
1751120027578155000,8.965155029296875,-3.10676908493042,-0.6740699410438538,-1.9455485343933105
1751120027588100000,8.97510009765625,-4.019680500030518,-2.0822255611419678,-1.8177287578582764
1751120027598045000,8.985044921875,-4.884792804718018,-2.0907773971557617,-1.9211146831512451
1751120027607989800,8.99498974609375,-5.61017370223999,-0.7783721089363098,-2.105285167694092
1751120027617934800,9.004934814453126,-6.107708930969238,0.7704311013221741,-2.3077809810638428
1751120027627879700,9.014879638671875,-6.300431251525879,1.6163018941879272,-2.557006597518921
1751120027637824800,9.02482470703125,-6.256755828857422,2.207602024078369,-2.816922187805176
1751120027647769600,9.03476953125,-6.0565505027771,3.217485189437866,-2.7115509510040283
1751120027657714700,9.044714599609375,-5.626208782196045,4.513855934143066,-1.6813570261001587
1751120027667659500,9.054659423828125,-4.884792804718018,4.840811729431152,0.03268032893538475
1751120027677605000,9.064605224609375,-3.818406105041504,3.748922348022461,1.3588297367095947
1751120027687549400,9.074549560546876,-2.624199867248535,1.9892240762710571,1.7114412784576416
1751120027697493800,9.08449365234375,-1.6292823553085327,0.4434750974178314,1.4335057735443115
1751120027707438000,9.09443798828125,-0.9400939345359802,-0.611152708530426,0.9796462655067444
1751120027717382400,9.10438232421875,-0.5022691488265991,-1.405864953994751,0.5131117105484009
1751120027727327000,9.114326904296876,-0.24662958085536957,-2.1472809314727783,0.16050012409687042
1751120027737271600,9.124271484375,-0.14751961827278137,-2.8418142795562744,-0.010995250195264816
1751120027747216100,9.134216064453126,-0.182643324136734,-3.3233144283294678,-0.09834641218185425
1751120027757160700,9.14416064453125,-0.3104631304740906,-3.4031827449798584,-0.22937314212322235
1751120027767105500,9.15410546875,-0.4808894991874695,-3.1379222869873047,-0.40193748474121094
1751120027777050600,9.164050537109375,-0.6587987542152405,-2.840745210647583,-0.587329626083374
1751120027786995700,9.17399560546875,-0.8228112459182739,-2.6713876724243164,-0.7502731680870056
1751120027796940800,9.18394091796875,-0.9507837295532227,-2.5786917209625244,-0.8206732869148254
1751120027806886100,9.19388623046875,-1.0146173238754272,-2.5360851287841797,-0.7939487099647522
1751120027816831500,9.20383154296875,-0.982700526714325,-2.5382230281829834,-0.7695148587226868
1751120027826776800,9.21377685546875,-0.8538117408752441,-2.528602123260498,-0.8163973689079285
1751120027836722200,9.22372216796875,-0.6801784038543701,-2.479581832885742,-0.8962656259536743
1751120027846667500,9.23366748046875,-0.5256340503692627,-2.4082653522491455,-0.9591829180717468
1751120027856612900,9.24361279296875,-0.40636613965034485,-2.250514030456543,-0.9857547879219055
1751120027866558200,9.25355810546875,-0.2976353168487549,-1.9043163061141968,-0.9303203821182251
1751120027876503300,9.26350341796875,-0.16660858690738678,-1.41762375831604,-0.7737907767295837
1751120027896393000,9.28339306640625,0.23273280262947083,-0.5567872524261475,-0.17928366363048553
1751120027906338000,9.293338134765625,0.47676628828048706,-0.2958027720451355,0.2851129472255707
1751120027916283000,9.303282958984376,0.7249229550361633,-0.11468657106161118,0.7847860455513
1751120027926227700,9.313227783203125,0.9710944294929504,-0.0198525357991457,1.1117420196533203
1751120027936172500,9.323172607421874,1.0999832153320312,0.23899398744106293,0.9455915689468384
1751120027946117600,9.33311767578125,0.9017632603645325,1.03996741771698,0.3906368315219879
1751120027956062500,9.3430625,0.3765873312950134,1.4193036556243896,0.4289674758911133
1751120027966007300,9.35300732421875,-0.2295258641242981,0.9888089895248413,1.142589807510376
1751120027975952100,9.3629521484375,-0.6033644080162048,0.6383354067802429,1.4590086936950684
1751120027985897200,9.372897216796876,-0.6823163628578186,0.5404471158981323,0.9668185114860535
1751120028005787000,9.392786865234376,-0.2710634768009186,-0.11361759155988693,-0.15912571549415588
1751120028015731700,9.402731689453125,-0.1432436853647232,-0.279920756816864,-0.10689827054738998
1751120028025676800,9.4126767578125,-0.20188501477241516,-0.34696123003959656,0.1423274129629135
1751120028035621600,9.42262158203125,-0.265718549489975,-0.5493044257164001,0.43324342370033264
1751120028045566500,9.43256640625,-0.19974705576896667,-0.9370396733283997,0.7527165412902832
1751120028055511300,9.44251123046875,0.01969982497394085,-1.3919682502746582,1.03828763961792
1751120028065456400,9.452456298828125,0.27320143580436707,-1.562394618988037,1.1341906785964966
1751120028075401200,9.462401123046876,0.4543176591396332,-1.009577751159668,0.885881245136261
1751120028085346000,9.472345947265625,0.5502206683158875,0.5031854510307312,0.23823043704032898
1751120028095291000,9.482290771484376,0.39262208342552185,2.279987335205078,-0.3571929335594177
1751120028105236000,9.492236083984375,-0.029320668429136276,3.369738817214966,-0.48302745819091797
1751120028115180800,9.502180908203124,-0.4489727318286896,3.681881904602051,-0.2357870489358902
1751120028125125600,9.512125732421875,-0.7120952010154724,3.3622560501098633,0.2307475507259369
1751120028135070500,9.522070556640625,-0.7046123147010803,2.5846474170684814,0.6420004963874817
1751120028145015600,9.532015625,-0.32756683230400085,1.60561203956604,0.7143858671188354
1751120028154960400,9.54196044921875,0.34253260493278503,0.6117635369300842,0.4512633979320526
1751120028164905200,9.5519052734375,1.1073133945465088,-0.2692309319972992,0.07528692483901978
1751120028174850000,9.56185009765625,1.7816886901855469,-0.8913788795471191,-0.20493926107883453
1751120028184795100,9.571795166015624,2.268533945083618,-1.2258176803588867,-0.3242071866989136
1751120028194740000,9.581739990234375,2.542346239089966,-1.3707412481307983,-0.31886225938796997
1751120028204684800,9.591684814453124,2.6136627197265625,-1.3718101978302002,-0.18142163753509521
1751120028214629600,9.601629638671875,2.5305874347686768,-1.3067549467086792,0.1498102843761444
1751120028224574700,9.61157470703125,2.386733055114746,-1.211920976638794,0.70797199010849
1751120028234519600,9.62151953125,2.2749478816986084,-1.0181297063827515,1.3705885410308838
1751120028244464400,9.63146435546875,2.2728099822998047,-0.6910209655761719,1.907523274421692
1751120028254409200,9.6414091796875,2.415595531463623,-0.23410721123218536,2.196148633956909
1751120028264354300,9.651354248046875,2.635958671569824,0.31886225938796997,2.288844585418701
1751120028274299100,9.661299072265624,2.832040548324585,0.9196305274963379,2.3038103580474854
1751120028284244200,9.671244140625,2.94810152053833,1.5182608366012573,2.311293363571167
1751120028294189000,9.68118896484375,2.9491705894470215,2.0115199089050293,2.2984654903411865
1751120028304134100,9.691134033203125,2.805468797683716,2.2459325790405273,2.2196662425994873
1751120028314079000,9.701078857421875,2.540208339691162,2.177670478820801,2.042825937271118
1751120028324024000,9.711024169921876,2.2439475059509277,1.965706467628479,1.7668757438659668
1751120028333969000,9.720968994140625,1.9893767833709717,1.792073130607605,1.4217469692230225
1751120028343914000,9.7309140625,1.760309100151062,1.7186187505722046,1.0691354274749756
1751120028353858800,9.74085888671875,1.5078765153884888,1.565143346786499,0.728282630443573
1751120028363803600,9.7508037109375,1.2522368431091309,1.1178505420684814,0.4405735731124878
1751120028373748700,9.760748779296875,1.0456178188323975,0.4627167880535126,0.2435753494501114
1751120028383693600,9.770693603515625,0.911384105682373,-0.091321662068367,0.09865183383226395
1751120028393638700,9.780638671875,0.8431219458580017,-0.3171824514865875,-0.04092676565051079
1751120028403583500,9.79058349609375,0.8186880350112915,-0.20524467527866364,-0.1644706279039383
1751120028413528600,9.800528564453124,0.8026533126831055,0.08124268800020218,-0.24540787935256958
1751120028423473400,9.810473388671875,0.7696675658226013,0.37948885560035706,-0.2912214398384094
1751120028433418500,9.82041845703125,0.7227849960327148,0.5691569447517395,-0.3242071866989136
1751120028443363300,9.83036328125,0.6962131857872009,0.6415423154830933,-0.3177932798862457
1751120028453308400,9.840308349609375,0.7238540053367615,0.6980457305908203,-0.21028417348861694
1751120028463253200,9.850253173828126,0.7931851744651794,0.760962963104248,0.005955760832875967
1751120028473198000,9.860197998046875,0.8538117408752441,0.7811209559440613,0.27656111121177673
1751120028483143200,9.87014306640625,0.8666395545005798,0.7363763451576233,0.5375455617904663
1751120028493088000,9.880087890625,0.846328854560852,0.6235223412513733,0.7336275577545166
1751120028503033000,9.890033203125,0.8261709213256836,0.48073679208755493,0.818840742111206
1751120028512978000,9.89997802734375,0.8090671896934509,0.4030064642429352,0.7974610924720764
1751120028522923000,9.909923095703125,0.7782194018363953,0.44454410672187805,0.70797199010849
1751120028542813000,9.92981298828125,0.7313368916511536,0.6757497787475586,0.3500154912471771
1751120028552757800,9.9397578125,0.7718055248260498,0.5883986353874207,0.07528692483901978
1751120028562702800,9.949702880859375,0.8580876588821411,0.2411319613456726,-0.21990501880645752
1751120028572647700,9.959647705078124,0.9593356251716614,-0.2724378705024719,-0.4402681589126587
1751120028582592500,9.969592529296875,1.0040801763534546,-0.698503851890564,-0.492495596408844
1751120028592537600,9.97953759765625,0.9103151559829712,-0.7869240045547485,-0.33917292952537537
1751120028602482400,9.989482421875,0.6163448691368103,-0.2095206081867218,-0.025961007922887802
1751120028612427500,9.999427490234375,0.16141638159751892,1.2818629741668701,-0.039857782423496246
1751120028622372400,10.009372314453126,-0.40636613965034485,2.8935835361480713,-0.9559759497642517
1751120028632317400,10.0193173828125,-1.0221002101898193,2.9383280277252197,-1.9626522064208984
1751120028642262300,10.02926220703125,-1.6207305192947388,1.4214415550231934,-2.155374526977539
1751120028652207400,10.039207275390625,-2.224705696105957,-0.4608842432498932,-1.7164808511734009
1751120028662152200,10.049152099609374,-2.875716209411621,-1.9096612930297852,-1.2510151863098145
1751120028672097300,10.05909716796875,-3.58720064163208,-2.582967519760132,-1.0443960428237915
1751120028682042000,10.0690419921875,-4.2892165184021,-2.2804455757141113,-1.0773818492889404
1751120028691987000,10.078987060546876,-4.83470344543457,-1.1767972707748413,-1.3447802066802979
1751120028701932000,10.08893212890625,-5.135087490081787,-0.14889401197433472,-1.8070389032363892
1751120028711876900,10.098876953125,-5.209610939025879,0.3805578351020813,-2.305643081665039
1751120028721822000,10.108822021484375,-5.145777225494385,0.8057075142860413,-2.6773436069488525
1751120028731766800,10.118766845703124,-5.061633110046387,1.569419264793396,-2.7156741619110107
1751120028741712000,10.1287119140625,-4.9135026931762695,2.684826374053955,-2.138423442840576
1751120028751656700,10.13865673828125,-4.543787479400635,3.6553099155426025,-1.056002140045166
1751120028761601800,10.148601806640626,-3.9217920303344727,3.9236247539520264,0.05390727147459984
1751120028771546600,10.158546630859375,-3.2005341053009033,3.3686699867248535,0.791047215461731
1751120028781491500,10.168491455078126,-2.5730414390563965,2.1937053203582764,1.0946383476257324
1751120028801381400,10.18838134765625,-1.6292823553085327,-0.34696123003959656,0.885881245136261
1751120028811326500,10.198326416015625,-1.2479609251022339,-1.2620104551315308,0.5311316847801208
1751120028821271300,10.208271240234374,-0.978424608707428,-1.8991241455078125,0.16798299551010132
1751120028831216400,10.21821630859375,-0.8090671896934509,-2.343209981918335,-0.038788799196481705
1751120028841161200,10.2281611328125,-0.7313368916511536,-2.6287810802459717,-0.05894676223397255
1751120028851106300,10.238106201171876,-0.7461498975753784,-2.6478700637817383,-0.0004581354442052543
1751120028861052400,10.248052490234375,-0.8292251825332642,-2.3911616802215576,0.02092151902616024
1751120028870996000,10.257995849609374,-0.9379559755325317,-2.0406880378723145,-0.01954711228609085
1751120028880939800,10.267939697265625,-1.024238109588623,-1.7764965295791626,-0.07498150318861008
1751120028890883600,10.277883544921876,-1.045465111732483,-1.6816625595092773,-0.11651911586523056
1751120028900827400,10.287827392578125,-0.9698727130889893,-1.7477867603302002,-0.14309096336364746
1751120028910771500,10.297771484375,-0.7930324673652649,-1.8905723094940186,-0.18462859094142914
1751120028920715500,10.307715576171875,-0.5523586273193359,-2.0503089427948,-0.25502872467041016
1751120028930660000,10.31766015625,-0.3190149664878845,-2.2121832370758057,-0.3274141252040863
1751120028940604700,10.327604736328125,-0.12400199472904205,-2.3592448234558105,-0.37002071738243103
1751120028950549500,10.337549560546876,0.03894151374697685,-2.3975753784179688,-0.36253786087036133
1751120028960494600,10.34749462890625,0.18493400514125824,-2.242114782333374,-0.31031039357185364
1751120028970440000,10.35743994140625,0.3542914092540741,-1.938523769378662,-0.2283041626214981
1751120028980385300,10.36738525390625,0.568393349647522,-1.6411938667297363,-0.10048437118530273
1751120028990331000,10.377330810546875,0.8015843033790588,-1.4281609058380127,0.10720369219779968
1751120029000276500,10.3872763671875,1.0370659828186035,-1.284459114074707,0.376740038394928
1751120029010222300,10.397222412109375,1.2607887983322144,-1.281252145767212,0.6120689511299133
1751120029020168200,10.407168212890625,1.4226632118225098,-1.4228159189224243,0.6302416324615479
1751120029030114000,10.417114013671876,1.4504568576812744,-1.029735803604126,-0.1175880953669548
1751120029040059600,10.4270595703125,1.1126582622528076,0.17928366363048553,-1.1114366054534912
1751120029050004700,10.437004638671874,0.3564293682575226,1.0304993391036987,-0.5628957748413086
1751120029059949600,10.446949462890625,-0.6418477296829224,1.2977449893951416,0.8496885299682617
1751120029079839500,10.466839599609376,-2.38887095451355,1.2722420692443848,0.6366555690765381
1751120029089784300,10.476784423828125,-2.499587059020996,1.3617312908172607,-0.20707722008228302
1751120029099729200,10.486729248046874,-2.0202245712280273,1.735569715499878,-0.4850127100944519
1751120029109674000,10.496674072265625,-1.4226632118225098,1.8239898681640625,-0.2518217861652374
1751120029129564000,10.51656396484375,-0.41705596446990967,0.14736689627170563,0.6270347237586975
1751120029139508700,10.5265087890625,0.20722992718219757,-0.9168817400932312,0.9785773158073425
1751120029149453600,10.53645361328125,0.9614735841751099,-1.4399197101593018,1.1031901836395264
1751120029159398700,10.546398681640625,1.6389031410217285,-1.1650384664535522,0.8167027831077576
1751120029169343500,10.556343505859376,1.9020256996154785,-0.12216944992542267,0.11254860460758209
1751120029179288300,10.566288330078125,1.5633108615875244,1.2467392683029175,-0.6288672685623169
1751120029189233200,10.576233154296874,0.7484406232833862,1.9337897300720215,-0.8354863524436951
1751120029199178200,10.58617822265625,-0.06016845628619194,1.7708462476730347,-0.571294903755188
1751120029209123000,10.596123046875,-0.44255882501602173,1.4501514434814453,-0.2582356929779053
1751120029219068000,10.60606787109375,-0.5118899941444397,1.1827529668807983,-0.055739812552928925
1751120029229012700,10.6160126953125,-0.3849864900112152,0.9217684864997864,0.023059483617544174
1751120029238957800,10.625957763671876,-0.03451287001371384,0.6331431865692139,0.017714571207761765
1751120029248902700,10.635902587890625,0.4906630516052246,0.1760767251253128,0.028404397889971733
1751120029258847500,10.645847412109376,1.0753966569900513,-0.536629319190979,0.11896250396966934
1751120029268792300,10.655792236328125,1.6080553531646729,-1.4026579856872559,0.293664813041687
1751120029278737400,10.6657373046875,2.022515296936035,-2.2889974117279053,0.5195255875587463
1751120029288682200,10.67568212890625,2.3132786750793457,-3.0505712032318115,0.7272136807441711
1751120029298627000,10.685626953125,2.467670202255249,-3.4873270988464355,0.8635852932929993
1751120029308572000,10.695572021484375,2.479429006576538,-3.4318926334381104,0.9434536099433899
1751120029318517000,10.70551708984375,2.372836112976074,-2.916337490081787,1.001025915145874
1751120029328461800,10.7154619140625,2.166217088699341,-2.198439359664917,1.0020949840545654
1751120029338406700,10.72540673828125,1.8988187313079834,-1.4632846117019653,0.976439356803894
1751120029348351500,10.7353515625,1.6656277179718018,-0.7304205894470215,1.0404255390167236
1751120029358296600,10.745296630859375,1.5814836025238037,0.07696675509214401,1.2907202243804932
1751120029368241400,10.755241455078124,1.6688346862792969,0.9868237376213074,1.7551169395446777
1751120029378186200,10.765186279296875,1.8572810888290405,1.8879761695861816,2.343209981918335
1751120029388131000,10.775131103515625,2.0298454761505127,2.598544120788574,2.832193374633789
1751120029398076200,10.785076171875,2.115058660507202,2.9926934242248535,3.0388123989105225
1751120029408021000,10.79502099609375,2.1139895915985107,3.083251476287842,2.9546682834625244
1751120029417965800,10.8049658203125,2.0416042804718018,2.961693048477173,2.6829938888549805
1751120029427910700,10.81491064453125,1.9116464853286743,2.6891024112701416,2.3239684104919434
1751120029437855700,10.824855712890624,1.7816886901855469,2.2523465156555176,1.9629576206207275
1751120029447800600,10.834800537109375,1.705027461051941,1.7377077341079712,1.7189241647720337
1751120029457745400,10.844745361328124,1.6868547201156616,1.2594143152236938,1.6688346862792969
1751120029467690200,10.854690185546875,1.6932686567306519,0.8173136115074158,1.6401249170303345
1751120029477635300,10.86463525390625,1.627297043800354,0.48394373059272766,1.3343958854675293
1751120029487580200,10.874580078125,1.4545800685882568,0.3614688515663147,0.7058340311050415
1751120029497525000,10.88452490234375,1.259719729423523,0.4721849262714386,0.057114217430353165
1751120029507469800,10.8944697265625,1.1031901836395264,0.7950177192687988,-0.3571929335594177
1751120029517415000,10.904414794921875,0.9721634387969971,1.1998567581176758,-0.561826765537262
1751120029527359700,10.91435986328125,0.8484668135643005,1.5139849185943604,-0.6513158679008484
1751120029537304600,10.9243046875,0.7505785822868347,1.6802880764007568,-0.640626072883606
1751120029547249400,10.93424951171875,0.6983511447906494,1.7377077341079712,-0.5181511640548706
1751120029557194500,10.944194580078126,0.6930062174797058,1.7398457527160645,-0.29656633734703064
1751120029567139300,10.954139404296875,0.733474850654602,1.731293797492981,-0.023823043331503868
1751120029577084200,10.964084228515626,0.8133431077003479,1.7143428325653076,0.24250635504722595
1751120029587029000,10.974029052734375,0.8964183330535889,1.7143428325653076,0.4459185004234314
1751120029596974000,10.98397412109375,0.9636115431785583,1.7366387844085693,0.5450284481048584
1751120029606919000,10.9939189453125,1.0115630626678467,1.7409147024154663,0.5311316847801208
1751120029616864000,11.003864013671874,1.0445488691329956,1.7132738828659058,0.43736663460731506
1751120029626808800,11.013808837890625,1.0743275880813599,1.6492875814437866,0.29473379254341125
1751120029636754000,11.02375390625,1.12655508518219,1.5385714769363403,0.12003148347139359
1751120029646698800,11.03369873046875,1.2267340421676636,1.3009519577026367,-0.09941539168357849
1751120029656643800,11.043643798828125,1.3779187202453613,0.8461761474609375,-0.3742966651916504
1751120029666588700,11.053588623046876,1.5686557292938232,0.21226942539215088,-0.6245913505554199
1751120029676533500,11.063533447265625,1.7412201166152954,-0.37353309988975525,-0.6682668924331665
1751120029686478600,11.073478515625,1.784895658493042,-0.6079457402229309,-0.32634514570236206
1751120029696423400,11.08342333984375,1.5782766342163086,-0.13499724864959717,0.31168481707572937
1751120029706368500,11.093368408203125,1.0306520462036133,1.295607089996338,0.43324342370033264
1751120029716313300,11.103313232421876,0.16462333500385284,2.968106746673584,-0.7737907767295837
1751120029726258400,11.113258544921875,-0.7589777112007141,2.9543628692626953,-2.2268435955047607
1751120029736203300,11.123203369140626,-1.521620512008667,1.3542484045028687,-2.667875289916992
1751120029746148400,11.1331484375,-2.1426994800567627,-0.42041563987731934,-2.282125473022461
1751120029756093200,11.14309326171875,-2.7733993530273438,-1.737096905708313,-1.800624966621399
1751120029766038300,11.153038330078125,-3.476484537124634,-2.5041682720184326,-1.5407094955444336
1751120029775983000,11.162983154296874,-4.196520805358887,-2.592588424682617,-1.4458754062652588
1751120029785928000,11.172927978515625,-4.885861873626709,-1.918213129043579,-1.4118207693099976
1751120029795873000,11.182873046875,-5.477009296417236,-0.789061963558197,-1.4449591636657715
1751120029805817900,11.19281787109375,-5.864744663238525,0.2357870489358902,-1.6014888286590576
1751120029815763000,11.202762939453125,-6.012875080108643,0.9367342591285706,-1.8091769218444824
1751120029825707800,11.212707763671874,-5.921247959136963,1.6845639944076538,-1.84109365940094
1751120029835652900,11.22265283203125,-5.567567348480225,2.878617763519287,-1.4364073276519775
1751120029845597700,11.23259765625,-4.990163803100586,4.147347450256348,-0.5745018720626831
1751120029855542800,11.242542724609375,-4.3031134605407715,4.708715915679932,0.5407525300979614
1751120029865487600,11.252487548828125,-3.5287117958068848,4.178348064422607,1.5292561054229736
1751120029875432400,11.262432373046876,-2.722240924835205,2.8392181396484375,1.9873915910720825
1751120029885377500,11.27237744140625,-1.9979286193847656,1.3372973203659058,1.676317572593689
1751120029895322400,11.282322265625,-1.4076975584030151,0.05360184609889984,0.7527165412902832
1751120029905267500,11.292267333984375,-0.8718317747116089,-1.0766183137893677,0.03161134570837021
1751120029915212300,11.30221240234375,-0.3946073353290558,-2.230355978012085,-0.11331216990947723
1751120029925157400,11.312157470703125,-0.06978929787874222,-3.2956736087799072,0.034818295389413834
1751120029935102200,11.322102294921875,0.06016845628619194,-3.9966208934783936,0.13270656764507294
1751120029945047300,11.33204736328125,0.010231691412627697,-4.138184547424316,0.04749337583780289
1751120029954992000,11.3419921875,-0.182643324136734,-3.763277292251587,-0.1698155403137207
1751120029964937200,11.351937255859376,-0.4840964674949646,-3.1773219108581543,-0.3509317636489868
1751120029974882000,11.361882080078125,-0.8473978638648987,-2.7011666297912598,-0.4265241026878357
1751120029984827000,11.371826904296874,-1.206423282623291,-2.4136102199554443,-0.439351886510849
1751120029994772000,11.38177197265625,-1.469545841217041,-2.236769914627075,-0.4509579837322235
1751120030004716800,11.391716796875,-1.533379316329956,-2.117501974105835,-0.5149442553520203
1751120030014661600,11.40166162109375,-1.4183872938156128,-2.070619583129883,-0.6203153729438782
1751120030024606500,11.4116064453125,-1.2329951524734497,-2.0811564922332764,-0.6928535103797913
1751120030034551600,11.421551513671876,-1.0188932418823242,-2.0663435459136963,-0.6810947060585022
1751120030044496400,11.431496337890625,-0.7429429888725281,-1.975785493850708,-0.6012263894081116
1751120030054441200,11.441441162109374,-0.3967452943325043,-1.8042900562286377,-0.4808894991874695
1751120030064386000,11.451385986328125,-0.04413371533155441,-1.5294088125228882,-0.3124483823776245
1751120030074331100,11.4613310546875,0.2530434727668762,-1.103342890739441,-0.08032641559839249
1751120030084276000,11.47127587890625,0.48638713359832764,-0.5621321797370911,0.1817270666360855
1751120030094220800,11.481220703125,0.6930062174797058,-0.02733541466295719,0.4289674758911133
1751120030104165600,11.49116552734375,0.9092461466789246,0.32313820719718933,0.6526902914047241
1751120030114110700,11.50111083984375,1.1798515319824219,0.28160059452056885,0.8422056436538696
1751120030124055600,11.5110556640625,1.5292561054229736,-0.14248012006282806,0.9093988537788391
1751120030134000400,11.52100048828125,1.800930380821228,-0.48333290219306946,0.5407525300979614
1751120030143945200,11.5309453125,1.5930896997451782,0.010995250195264816,-0.6299362182617188
1751120030153890300,11.540890380859375,0.8090671896934509,0.7982246279716492,-1.3852488994598389
1751120030163835100,11.550835205078124,-0.05803048983216286,0.6053496599197388,-0.3092414140701294
1751120030173780000,11.560780029296875,-0.7653915882110596,0.30282753705978394,1.3834162950515747
1751120030183724800,11.570724853515625,-1.4258701801300049,0.7598940134048462,1.845674991607666
1751120030193669600,11.580669677734376,-1.990445852279663,1.4703093767166138,0.989267110824585
1751120030203614700,11.59061474609375,-2.012741804122925,2.03076171875,-0.004581354558467865
1751120030213559600,11.6005595703125,-1.466338872909546,2.450413703918457,-0.2954973578453064
1751120030223504400,11.61050439453125,-0.8857285380363464,2.479123592376709,0.051769305020570755
1751120030233449200,11.62044921875,-0.4883723855018616,1.7473286390304565,0.7047650218009949
1751120030243394300,11.630394287109375,-0.10384403169155121,0.4434750974178314,1.2001621723175049
1751120030253339100,11.640339111328124,0.29351210594177246,-0.5312843918800354,1.0498937368392944
1751120030263284000,11.650283935546875,0.45111069083213806,-0.7113316059112549,0.28190600872039795
1751120030273228800,11.660228759765625,0.2211267054080963,-0.41201648116111755,-0.4584408700466156
1751120030283174000,11.670173828125,-0.19440214335918427,-0.09452861547470093,-0.6427640318870544
1751120030303063600,11.6900634765625,-0.7003363966941833,0.45416492223739624,0.10827267915010452
1751120030313008400,11.70000830078125,-0.7185090780258179,0.7395833134651184,0.5428904891014099
1751120030322953500,11.709953369140624,-0.4990622103214264,0.9249754548072815,0.7004891037940979
1751120030332898300,11.719898193359375,-0.0462716780602932,0.9014578461647034,0.4799732267856598
1751120030342843100,11.729843017578125,0.5236487984657288,0.7140804529190063,0.06994201242923737
1751120030352788000,11.7397880859375,1.0392038822174072,0.49142661690711975,-0.29229041934013367
1751120030362733000,11.749733154296875,1.4183872938156128,0.2826695740222931,-0.5436540842056274
1751120030372678000,11.759677978515626,1.73159921169281,0.08765657991170883,-0.7076665759086609
1751120030382622700,11.769622802734375,2.0266385078430176,-0.07742489129304886,-0.7470661997795105
1751120030392567600,11.779567626953124,2.2492923736572266,-0.26495498418807983,-0.5990884304046631
1751120030402512600,11.7895126953125,2.3441264629364014,-0.5567872524261475,-0.2582356929779053
1751120030412457500,11.79945751953125,2.331298589706421,-0.9765920639038086,0.223264679312706
1751120030422402300,11.80940234375,2.3047266006469727,-1.4281609058380127,0.7411104440689087
1751120030432347100,11.81934716796875,2.360161066055298,-1.761683464050293,1.166107416152954
1751120030442292200,11.829292236328126,2.5145528316497803,-1.8927102088928223,1.4164021015167236
1751120030452237000,11.839237060546875,2.710634708404541,-1.8319308757781982,1.5133740901947021
1751120030462182000,11.849181884765626,2.8714401721954346,-1.6349326372146606,1.5570496320724487
1751120030472126700,11.859126708984375,2.9609293937683105,-1.332257866859436,1.6561596393585205
1751120030482071800,11.86907177734375,2.97910213470459,-0.9136747717857361,1.8606407642364502
1751120030492016600,11.8790166015625,2.9268746376037598,-0.38101598620414734,2.125901222229004
1751120030501961500,11.88896142578125,2.796916961669922,0.1963873952627182,2.3186235427856445
1751120030511906300,11.89890625,2.612593650817871,0.6937697529792786,2.329313278198242
1751120030521851400,11.908851318359375,2.403836727142334,1.0187405347824097,2.1449902057647705
1751120030531796200,11.918796142578126,2.1822519302368164,1.1848909854888916,1.8276549577713013
1751120030551686000,11.938685791015626,1.7039583921432495,1.3756279945373535,1.0361496210098267
1751120030561631000,11.948630859375,1.4748907089233398,1.4341166019439697,0.658951461315155
1751120030571575800,11.958575927734374,1.2894985675811768,1.3628002405166626,0.36070531606674194
1751120030581520600,11.968520751953125,1.1648857593536377,1.1241116523742676,0.1817270666360855
1751120030591465500,11.978465576171875,1.085017442703247,0.7971556782722473,0.1050657257437706
1751120030601410600,11.98841064453125,1.0349279642105103,0.4871506989002228,0.06139015033841133
1751120030611356700,11.998356689453125,0.9976662993431091,0.2208212912082672,-0.0035123717971146107
1751120030621301200,12.00830126953125,0.9593356251716614,0.013133215717971325,-0.08460234850645065
1751120030631245600,12.01824560546875,0.9188669919967651,-0.130721315741539,-0.16019469499588013
1751120030641190100,12.028190185546874,0.8794673681259155,-0.21272756159305573,-0.21776704490184784
1751120030651134700,12.038134765625,0.832584798336029,-0.21593450009822845,-0.22509720921516418
1751120030661079300,12.048079345703124,0.7568397521972656,-0.1178935244679451,-0.14629791676998138
1751120030671023900,12.05802392578125,0.6632274389266968,0.06856760382652283,0.008093725889921188
1751120030680968400,12.067968505859374,0.5842754244804382,0.32100024819374084,0.19562382996082306
1751120030690913300,12.077913330078125,0.5609105229377747,0.5946598052978516,0.3489464819431305
1751120030700858000,12.087858154296875,0.6077930331230164,0.8269344568252563,0.4086568057537079
1751120030710803000,12.097802978515626,0.6823163628578186,0.9356653094291687,0.3574983477592468
1751120030720747800,12.107747802734375,0.7463026642799377,0.8631271719932556,0.2020377367734909
1751120030730692900,12.11769287109375,0.8144121170043945,0.6171084642410278,-0.022754060104489326
1751120030740637700,12.1276376953125,0.9135220646858215,0.2473931461572647,-0.25289076566696167
1751120030750582800,12.137582763671874,1.02851402759552,-0.18722468614578247,-0.4115583300590515
1751120030760528000,12.14752783203125,1.118003249168396,-0.5770979523658752,-0.43614494800567627
1751120030770473200,12.15747314453125,1.146865725517273,-0.8199097514152527,-0.29977330565452576
1751120030780418300,12.167418212890626,1.064706802368164,-0.8593093752861023,-0.012064233422279358
1751120030790363400,12.17736328125,0.812274158000946,-0.6697940230369568,0.37353309988975525
1751120030800308700,12.187308837890624,0.4106420576572418,-0.05512896552681923,0.694227933883667
1751120030810253800,12.19725390625,-0.013285927474498749,1.84109365940094,0.2585411071777344
1751120030820199200,12.20719921875,-0.45111069083213806,4.308305740356445,-1.3585243225097656
1751120030830144300,12.217144287109376,-0.9538379907608032,4.426504611968994,-2.6752054691314697
1751120030840089000,12.227089111328125,-1.4759596586227417,2.3268699645996094,-2.811577320098877
1751120030850034000,12.237033935546876,-1.9936527013778687,-0.011453386396169662,-2.2949531078338623
1751120030859978800,12.246978759765625,-2.5678491592407227,-1.5901881456375122,-1.816659688949585
1751120030869923800,12.256923828125,-3.199465274810791,-2.424147367477417,-1.6014888286590576
1751120030879868700,12.26686865234375,-3.815199375152588,-2.7033045291900635,-1.5642271041870117
1751120030889813500,12.2768134765625,-4.3435821533203125,-2.520050287246704,-1.6237847805023193
1751120030899758300,12.28675830078125,-4.735593318939209,-2.007702112197876,-1.7943638563156128
1751120030909703400,12.296703369140625,-4.944350242614746,-1.2939271926879883,-2.051072359085083
1751120030919648300,12.306648193359376,-4.98054313659668,-0.2990097403526306,-2.278918504714966
1751120030929593000,12.316593017578125,-4.922054290771484,1.1178505420684814,-2.320456027984619
1751120030939538000,12.326537841796876,-4.804771900177002,2.6538259983062744,-2.111698865890503
1751120030949483000,12.33648291015625,-4.535387992858887,3.9182796478271484,-1.6280606985092163
1751120030959427800,12.346427734375,-4.090080738067627,4.772702217102051,-0.8110524415969849
1751120030969372700,12.35637255859375,-3.5861315727233887,4.946335792541504,0.31916770339012146
1751120030979317500,12.3663173828125,-3.098217248916626,4.295477867126465,1.5133740901947021
1751120030989262600,12.3762626953125,-2.6136627197265625,2.9959003925323486,2.3761959075927734
1751120030999207400,12.38620751953125,-2.108644723892212,1.4799301624298096,2.7639310359954834
1751120031009152300,12.39615234375,-1.6037794351577759,0.11315945535898209,2.7778279781341553
1751120031019097000,12.40609716796875,-1.2212363481521606,-1.0905150175094604,2.273878812789917
1751120031029042200,12.416042236328124,-1.0561549663543701,-2.213252305984497,1.283237338066101
1751120031038987000,12.425987060546875,-0.9912523627281189,-3.188011884689331,0.4853181540966034
1751120031048931800,12.435931884765624,-0.9475768208503723,-3.832455635070801,0.18493400514125824
1751120031058876700,12.445876708984375,-0.9602518677711487,-4.026399612426758,0.13591352105140686
1751120031068821800,12.45582177734375,-1.012479305267334,-3.833524703979492,0.08276980370283127
1751120031078766600,12.4657666015625,-1.0338590145111084,-3.4755682945251465,-0.0035123717971146107
1751120031088711400,12.47571142578125,-0.9698727130889893,-3.1454052925109863,-0.061084724962711334
1751120031098656300,12.48565625,-0.8238802552223206,-2.867316961288452,-0.07070557028055191
1751120031108601300,12.495601318359375,-0.6311579346656799,-2.60953950881958,-0.04718795046210289
1751120031118546200,12.505546142578124,-0.41705596446990967,-2.3997135162353516,-0.01954711228609085
1751120031128491000,12.515490966796875,-0.18157434463500977,-2.2804455757141113,-0.03130592033267021
1751120031138435800,12.525435791015624,0.06551336497068405,-2.2228732109069824,-0.09727742522954941
1751120031148381000,12.535380859375,0.27121618390083313,-2.1014673709869385,-0.1569877415895462
1751120031158325800,12.54532568359375,0.4234698712825775,-1.882020354270935,-0.15484978258609772
1751120031168270600,12.5552705078125,0.548082709312439,-1.6274497509002686,-0.08460234850645065
1751120031178215400,12.56521533203125,0.6801784038543701,-1.3696722984313965,0.03268032893538475
1751120031188160500,12.575160400390626,0.8495358228683472,-1.0958600044250488,0.17531315982341766
1751120031198105300,12.585105224609375,1.0552386045455933,-0.7858549952507019,0.32878854870796204
1751120031208050200,12.59505029296875,1.2704095840454102,-0.5248705148696899,0.4459185004234314
1751120031217995000,12.6049951171875,1.4674078226089478,-0.46729815006256104,0.4831801950931549
1751120031227940000,12.614940185546875,1.6080553531646729,-0.5238015055656433,0.16050012409687042
1751120031237885000,12.624885009765626,1.4652698040008545,-0.046577103435993195,-1.0955545902252197
1751120031247829800,12.634829833984375,0.9454388618469238,0.7779139876365662,-1.4438902139663696
1751120031257774600,12.644774658203126,0.2722851634025574,1.0144646167755127,0.2701472043991089
1751120031267719700,12.6547197265625,-0.5577035546302795,1.0581401586532593,1.7743586301803589
1751120031277664500,12.66466455078125,-1.5430002212524414,1.449082374572754,1.5750696659088135
1751120031287609300,12.674609375,-2.2056167125701904,2.138270854949951,0.5471664071083069
1751120031297554200,12.68455419921875,-2.0936789512634277,3.0299551486968994,-0.12400199472904205
1751120031307499300,12.694499267578125,-1.5205515623092651,3.839480400085449,-0.1644706279039383
1751120031317444000,12.704444091796875,-0.9602518677711487,4.0972580909729,0.15408621728420258
1751120031327389000,12.714388916015626,-0.5001311898231506,3.4326562881469727,0.6867450475692749
1751120031337333800,12.724333740234375,0.03573456406593323,1.7569494247436523,1.3078240156173706
1751120031347278800,12.73427880859375,0.7814263701438904,-0.16798299551010132,1.5048222541809082
1751120031357223700,12.7442236328125,1.5142903327941895,-1.0830321311950684,0.9796462655067444
1751120031367168500,12.75416845703125,1.8913358449935913,-1.001025915145874,0.17531315982341766
1751120031377113300,12.76411328125,1.8264333009719849,-0.6143596172332764,-0.2987042963504791
1751120031387058400,12.774058349609374,1.3747117519378662,-0.5056288242340088,-0.2357870489358902
1751120031397003300,12.784003173828125,0.7302678823471069,-0.8603783845901489,-0.007788302376866341
1751120031406948000,12.793947998046875,0.19974705576896667,-1.1235008239746094,0.0016798300202935934
1751120031416893000,12.803892822265626,-0.10598199814558029,-1.009577751159668,-0.18142163753509521
1751120031426838000,12.813838134765625,-0.23380178213119507,-0.7229377031326294,-0.31137940287590027
1751120031436782800,12.823782958984374,-0.19440214335918427,-0.4662291705608368,-0.3348970115184784
1751120031446727700,12.833727783203125,-0.004734066314995289,-0.23716144263744354,-0.37536564469337463
1751120031456672500,12.843672607421874,0.29778802394866943,0.04077405482530594,-0.48928865790367126
1751120031466617600,12.85361767578125,0.6769714951515198,0.37735089659690857,-0.6055023670196533
1751120031476562400,12.8635625,1.0871554613113403,0.6671979427337646,-0.636350154876709
1751120031486507300,12.87350732421875,1.4973393678665161,0.7267554998397827,-0.5543438792228699
1751120031496452000,12.8834521484375,1.8797297477722168,0.4115583300590515,-0.3614688515663147
1751120031506397200,12.893397216796876,2.1875967979431152,-0.28938889503479004,-0.056808795779943466
1751120031516342000,12.903342041015625,2.371919870376587,-1.2470446825027466,0.33199548721313477
1751120031526286800,12.913286865234374,2.430408477783203,-2.201646327972412,0.7154548764228821
1751120031536231700,12.923231689453125,2.4197187423706055,-2.791724681854248,0.9956810474395752
1751120031546176800,12.9331767578125,2.4207875728607178,-2.9120616912841797,1.1309837102890015
1751120031556121600,12.94312158203125,2.4772911071777344,-2.727891206741333,1.142589807510376
1751120031566066400,12.95306640625,2.55395245552063,-2.400782346725464,1.1192249059677124
1751120031576011300,12.96301123046875,2.5881597995758057,-2.0183920860290527,1.1490037441253662
1751120031585956400,12.972956298828125,2.545553207397461,-1.55170476436615,1.2704095840454102
1751120031595901200,12.982901123046876,2.435753345489502,-0.8338065147399902,1.50589120388031
1751120031605846000,12.992845947265625,2.3015198707580566,0.18676654994487762,1.8403301239013672
1751120031615790800,13.002790771484374,2.175837993621826,1.2530004978179932,2.152472972869873
1751120031625736000,13.01273583984375,2.0544321537017822,2.0232789516448975,2.3048794269561768
1751120031635680800,13.0226806640625,1.9073705673217773,2.3758904933929443,2.259065866470337
1751120031645625600,13.03262548828125,1.7444270849227905,2.3823041915893555,2.059777021408081
1751120031655570400,13.0425703125,1.627297043800354,2.1733944416046143,1.7647377252578735
1751120031665515500,13.052515625,1.599503517150879,1.9646375179290771,1.4558017253875732
1751120031675460400,13.06246044921875,1.656006932258606,1.9881551265716553,1.2491827011108398
1751120031685405200,13.0724052734375,1.7561858892440796,2.386580228805542,1.1682454347610474
1751120031695350000,13.08235009765625,1.8242952823638916,2.890376567840576,1.0393565893173218
1751120031705295000,13.092295166015624,1.793447494506836,3.00536847114563,0.7389724850654602
1751120031715240000,13.102239990234375,1.667765736579895,2.63580584526062,0.3521534502506256
1751120031735129600,13.122129638671876,1.4599249362945557,1.5747642517089844,-0.012064233422279358
1751120031745074700,13.13207470703125,1.4354910850524902,1.3030898571014404,0.1316375881433487
1751120031755019500,13.14201953125,1.391815423965454,1.1198357343673706,0.3778090178966522
1751120031764964400,13.15196435546875,1.2725476026535034,0.8898517489433289,0.5748072862625122
1751120031774909200,13.1619091796875,1.1137272119522095,0.5926745533943176,0.6420004963874817
1751120031784854300,13.171854248046875,0.982700526714325,0.30282753705978394,0.5865660905838013
1751120031794799000,13.181799072265624,0.8932114243507385,0.06642963737249374,0.4405735731124878
1751120031804744000,13.191743896484375,0.816550076007843,-0.11468657106161118,0.23181653022766113
1751120031814688800,13.201688720703125,0.7452336549758911,-0.24678228795528412,-0.013133215717971325
1751120031824633900,13.2116337890625,0.668419599533081,-0.33627140522003174,-0.26877278089523315
1751120031834578700,13.22157861328125,0.5917583107948303,-0.4428642690181732,-0.5160132050514221
1751120031844523500,13.2315234375,0.5332696437835693,-0.6239804625511169,-0.7418739795684814
1751120031854468400,13.24146826171875,0.5257867574691772,-0.8785510659217834,-0.9208522439002991
1751120031864413400,13.251413330078124,0.5832064151763916,-1.1352596282958984,-0.9846857786178589
1751120031874358300,13.261358154296875,0.6673506498336792,-1.2226108312606812,-0.8686248064041138
1751120031884303000,13.27130322265625,0.6748335361480713,-0.9956810474395752,-0.6001574397087097
1751120031894248000,13.281248046875,0.5076140761375427,-0.6271874308586121,-0.31351736187934875
1751120031904193000,13.291193115234375,0.15286453068256378,-0.4268295168876648,-0.16126367449760437
1751120031914137900,13.301137939453126,-0.3584146201610565,-0.33413344621658325,-0.21349111199378967
1751120031924082700,13.311082763671875,-1.015686273574829,0.18676654994487762,-0.5787777900695801
1751120031934027500,13.321027587890624,-1.8061226606369019,1.0005677938461304,-1.2617050409317017
1751120031943972600,13.33097265625,-2.641303539276123,0.8791618943214417,-1.81986665725708
1751120031953917400,13.34091748046875,-3.479691505432129,-0.24785128235816956,-2.0318307876586914
1751120031963862300,13.3508623046875,-4.297768592834473,-1.2386455535888672,-2.086196184158325
