time,seconds_elapsed,z,y,x
1747993812743918600,0.103918701171875,10.718840599060059,3.359065055847168,-3.2800562381744385
1747993812759696100,0.119696044921875,10.38844108581543,3.0119056701660156,-3.3925838470458984
1747993812775534800,0.135534912109375,9.311050415039062,3.07415509223938,-3.378218650817871
1747993812791373600,0.15137353515625,8.635885238647461,3.1699230670928955,-3.5194764137268066
1747993812807212000,0.1672119140625,8.908824920654297,3.7229835987091064,-3.162740468978882
1747993812823020300,0.183020263671875,9.947908401489258,4.034229755401611,-1.8124107122421265
1747993812838828300,0.198828369140625,10.730812072753906,3.890577793121338,-0.5793967843055725
1747993812854667000,0.2146669921875,10.606313705444336,3.5745432376861572,-0.20350714027881622
1747993812870475000,0.23047509765625,9.38048267364502,3.4596214294433594,0.3447650372982025
1747993812886283300,0.246283203125,7.668628215789795,3.529053211212158,-0.2753331959247589
1747993812902091300,0.26209130859375,5.671864032745361,3.3255462646484375,-2.959233283996582
1747993812917930000,0.277929931640625,5.705382823944092,4.027047157287598,-4.616020679473877
1747993812933707500,0.29370751953125,6.567295074462891,4.742913722991943,-3.6774938106536865
1747993812949546000,0.3095458984375,6.2847795486450195,4.177882194519043,-2.1499931812286377
1747993812965293000,0.32529296875,6.852205276489258,3.4955344200134277,-1.4867992401123047
1747993812981131800,0.3411318359375,8.214506149291992,2.8874073028564453,-1.3311761617660522
1747993812996939800,0.356939697265625,9.473855972290039,2.7006595134735107,-1.721431016921997
1747993813012778500,0.372778564453125,8.695740699768066,3.758896589279175,-4.51067590713501
1747993813028586500,0.38858642578125,6.993463039398193,3.711012601852417,-5.8442463874816895
1747993813044394800,0.404394775390625,4.63517427444458,3.5913026332855225,-5.530605792999268
1747993813060172300,0.42017236328125,5.406107425689697,3.7229835987091064,-4.441244125366211
1747993813075980500,0.43598046875,8.746018409729004,3.732560396194458,-1.2282254695892334
1747993813091788500,0.45178857421875,9.672574996948242,3.227383852005005,2.8227639198303223
1747993813107566000,0.467566162109375,8.78432559967041,2.5474305152893066,3.423708438873291
1747993813123313200,0.483313232421875,7.769184589385986,2.2840683460235596,0.3232172429561615
1747993813139152000,0.49915185546875,6.955155849456787,2.1140801906585693,-1.7717092037200928
1747993813154960000,0.5149599609375,6.926425457000732,2.2864625453948975,-2.540247917175293
1747993813170768100,0.53076806640625,8.051700592041016,5.006275653839111,-9.186552047729492
1747993813186545700,0.546545654296875,9.119514465332031,3.428496837615967,-3.179499864578247
1747993813202353700,0.562353759765625,8.822632789611816,2.557007312774658,4.1395745277404785
1747993813218192400,0.5781923828125,8.7268648147583,3.9456443786621094,4.022258758544922
1747993813234000400,0.59400048828125,7.888894557952881,2.978386878967285,2.3319525718688965
1747993813249839000,0.609839111328125,7.8098859786987305,2.8826189041137695,-0.49320554733276367
1747993813265647000,0.625647216796875,9.071630477905273,2.9281086921691895,-1.867477297782898
1747993813281485800,0.64148583984375,10.108319282531738,3.581725835800171,-1.316810965538025
1747993813297324500,0.657324462890625,10.541669845581055,4.520252704620361,-0.016759412363171577
1747993813313102000,0.67310205078125,11.08754825592041,4.989516258239746,1.9249382019042969
1747993813328940500,0.6889404296875,12.073959350585938,5.200206279754639,2.054224967956543
1747993813344779300,0.704779296875,14.231135368347168,5.085284233093262,1.2306196689605713
1747993813360556800,0.720556884765625,15.964536666870117,4.709394931793213,0.3016694188117981
1747993813376334300,0.736334228515625,16.565481185913086,4.228160381317139,0.2849099934101105
1747993813392112000,0.752112060546875,15.974113464355469,4.036623954772949,0.6871358752250671
1747993813407950600,0.76795068359375,13.998897552490234,4.079719543457031,1.656787633895874
1747993813423728000,0.78372802734375,11.537657737731934,4.4532151222229,2.762908697128296
1747993813439536400,0.799536376953125,9.14345645904541,4.833893299102783,2.9759926795959473
1747993813455344400,0.815344482421875,7.058106422424316,4.975151062011719,2.164358377456665
1747993813471183000,0.83118310546875,5.954379558563232,4.666299343109131,1.094150185585022
1747993813486960600,0.846960693359375,5.501875400543213,4.55616569519043,-1.2737152576446533
1747993813502738200,0.86273828125,5.152322292327881,3.6583402156829834,-1.2617442607879639
1747993813518546400,0.87854638671875,5.130774021148682,3.224989652633667,-1.0271124839782715
1747993813534354400,0.8943544921875,5.2911858558654785,2.6431987285614014,0.028730420395731926
1747993813550162400,0.910162353515625,5.377377033233643,1.9512743949890137,1.0342950820922852
1747993813566001200,0.926001220703125,5.4252610206604,1.5610195398330688,0.9457096457481384
1747993813581809200,0.94180908203125,5.063736438751221,1.1061211824417114,0.6153098344802856
1747993813597648000,0.95764794921875,4.865017890930176,0.5147533416748047,0.4381389021873474
1747993813613456100,0.9734560546875,5.284003257751465,0.6248866319656372,0.07422025501728058
1747993813629264100,0.98926416015625,6.026205539703369,0.9481038451194763,0.49320554733276367
1747993813645072100,1.005072021484375,6.349422931671143,1.2258312702178955,1.3311761617660522
1747993813660880400,1.02088037109375,6.981492042541504,2.229001760482788,0.4405331015586853
1747993813676658000,1.036657958984375,11.192893028259277,5.327098846435547,-4.668693542480469
1747993813692496600,1.05249658203125,11.4849853515625,6.404489517211914,-2.9927520751953125
1747993813708304600,1.0683046875,13.998897552490234,5.523423194885254,0.3208230137825012
1747993813724173800,1.084173828125,17.19515609741211,5.073313236236572,5.995080947875977
1747993813739981800,1.09998193359375,20.618865966796875,4.802768707275391,11.597513198852539
1747993813763663600,1.12366357421875,23.429656982421875,4.4532151222229,11.511322021484375
1747993813779471600,1.1394716796875,21.27248191833496,3.9240965843200684,8.063671112060547
1747993813795279600,1.155279541015625,17.26219367980957,3.313575267791748,4.977545261383057
1747993813811088000,1.171087890625,13.232752799987793,4.280832767486572,5.193023681640625
1747993813826957000,1.18695703125,10.596736907958984,4.19224739074707,5.95677375793457
1747993813842765000,1.20276513671875,8.53532886505127,3.9217023849487305,4.431667327880859
1747993813858542600,1.21854248046875,5.825092792510986,3.8977603912353516,3.603273630142212
1747993813874381300,1.23438134765625,3.531447410583496,3.6367924213409424,3.3710360527038574
1747993813890220000,1.250219970703125,2.937685489654541,3.3063924312591553,2.913743495941162
1747993813906058500,1.26605859375,3.4165258407592773,2.892195701599121,3.292027235031128
1747993813921897200,1.281897216796875,5.717353820800781,2.5977089405059814,4.189853191375732
1747993813937766400,1.297766357421875,5.841852188110352,2.499546527862549,5.039794445037842
1747993813953544000,1.3135439453125,6.232107162475586,2.1595699787139893,5.317522048950195
1747993813969352000,1.32935205078125,5.657498836517334,1.9153614044189453,4.49870491027832
1747993813985190700,1.345190673828125,4.551377296447754,1.5322890281677246,3.0621838569641113
1747993814001090300,1.36109033203125,3.5266590118408203,1.2090718746185303,2.5306711196899414
1747993814016867800,1.376867919921875,2.786850690841675,1.3215993642807007,2.8443117141723633
1747993814032676000,1.392676025390625,2.7988216876983643,2.0254945755004883,2.8778305053710938
1747993814048514600,1.4085146484375,2.964021682739258,2.942473888397217,2.4612393379211426
1747993814064322800,1.42432275390625,4.977545261383057,3.9384617805480957,1.7477672100067139
1747993814080191700,1.440191650390625,7.094019412994385,8.224082946777344,-4.570530891418457
1747993814096030500,1.456030517578125,5.647922039031982,9.911994934082031,-8.827422142028809
1747993814111869200,1.471869140625,5.348646640777588,9.275136947631836,-7.654263019561768
1747993814127707600,1.487707763671875,10.716446876525879,9.509769439697266,-4.778826713562012
1747993814143516000,1.503515869140625,14.702792167663574,6.9024834632873535,1.2114660739898682
1747993814159293400,1.51929345703125,19.100940704345703,4.23773717880249,3.9695863723754883
1747993814175071000,1.535071044921875,21.2485408782959,2.5498247146606445,3.3303346633911133
1747993814190879200,1.550879150390625,18.65322494506836,1.0271124839782715,1.920149803161621
1747993814206717700,1.5667177734375,12.12902545928955,2.0207061767578125,0.4189853072166443
1747993814222526000,1.58252587890625,7.86734676361084,3.2609026432037354,0.11252748221158981
1747993814238303500,1.598303466796875,6.904877662658691,2.9975404739379883,1.920149803161621
1747993814254111500,1.614111572265625,6.141127586364746,2.942473888397217,4.888959884643555
1747993814269950200,1.6299501953125,5.772420406341553,2.8395233154296875,5.612008571624756
1747993814285727700,1.645727783203125,6.315904140472412,2.011129379272461,5.307945251464844
1747993814301505300,1.66150537109375,6.368576526641846,1.338358759880066,4.065354347229004
1747993814317313500,1.6773134765625,5.7341132164001465,1.0630255937576294,2.4660277366638184
1747993814333091000,1.693091064453125,4.616020679473877,0.4644751250743866,0.9074024558067322
1747993814348899000,1.708899169921875,4.369418144226074,1.7190368175506592,1.1659762859344482
1747993814364707300,1.724707275390625,5.389348030090332,1.5322890281677246,0.993593692779541
1747993814380545800,1.7405458984375,5.944802761077881,1.048660397529602,0.1843535304069519
1747993814396415000,1.7564150390625,5.530605792999268,1.3024457693099976,0.569819986820221
1747993814412223000,1.772222900390625,5.937620162963867,2.4013843536376953,0.7350199222564697
1747993814428031200,1.78803125,7.898471355438232,4.0964789390563965,0.31842881441116333
1747993814443808800,1.803808837890625,10.970232009887695,5.458779811859131,-0.17477671802043915
1747993814459617000,1.819616943359375,13.627796173095703,5.889736175537109,0.7709329724311829
1747993814475486000,1.83548583984375,15.686809539794922,6.030993938446045,3.799597978591919
1747993814491263700,1.851263671875,15.830461502075195,6.406883716583252,7.603984832763672
1747993814507102200,1.867102294921875,12.859257698059082,6.938396453857422,7.115567684173584
1747993814522941000,1.88294091796875,9.308655738830566,6.653486728668213,5.640739440917969
1747993814538779400,1.898779296875,7.989450931549072,6.540958881378174,4.371812343597412
1747993814554587600,1.914587646484375,7.922413349151611,5.5760955810546875,5.293580055236816
1747993814570365200,1.930365234375,8.59997272491455,4.912901878356934,6.469132900238037
1747993814586142700,1.946142822265625,10.211270332336426,4.223371982574463,6.423643112182617
1747993814601920300,1.961920166015625,11.39400577545166,3.399766445159912,5.540182590484619
1747993814617728500,1.977728515625,10.994174003601074,2.9712042808532715,4.37420654296875
1747993814633506000,1.993506103515625,9.349357604980469,3.136404275894165,4.158728122711182
1747993814649314000,2.00931396484375,7.3238630294799805,3.1914708614349365,4.383783340454102
1747993814665183200,2.025183349609375,6.327875137329102,3.1268274784088135,4.28322696685791
1747993814680960800,2.040960693359375,5.48272180557251,2.7988216876983643,3.8977603912353516
1747993814696799500,2.056799560546875,4.596867084503174,2.4372973442077637,3.337517261505127
1747993814712699100,2.07269921875,4.14915132522583,2.140416383743286,3.177105665206909
1747993814728476700,2.0884765625,3.4308910369873047,2.0590133666992188,3.335123062133789
1747993814744254500,2.10425439453125,2.829946517944336,2.0925323963165283,3.0573954582214355
1747993814760001500,2.12000146484375,3.361459255218506,2.008735179901123,2.717418909072876
1747993814775840000,2.135840087890625,4.955997467041016,2.190694570541382,2.387019157409668
1747993814791587000,2.151587158203125,7.785943984985352,3.004723072052002,2.049436569213867
1747993814807364600,2.167364501953125,10.096348762512207,4.548983097076416,1.072602391242981
1747993814823142400,2.183142333984375,10.76193618774414,6.761225700378418,-0.031124621629714966
1747993814838920000,2.198919921875,9.691728591918945,7.881711959838867,0.7086837291717529
1747993814854758400,2.21475830078125,9.277531623840332,8.60236644744873,2.209848165512085
1747993814870566700,2.230566650390625,10.759542465209961,9.296685218811035,2.1739351749420166
1747993814886344200,2.24634423828125,12.6150484085083,8.700529098510742,1.05105459690094
1747993814902183000,2.262182861328125,12.801796913146973,7.400477409362793,-0.11971008777618408
1747993814918021400,2.278021484375,13.309367179870605,5.817910194396973,1.3407529592514038
1747993814933829600,2.29382958984375,15.619771957397461,5.228936672210693,4.268861770629883
1747993814949729300,2.309729248046875,14.733917236328125,4.563348293304443,4.929661273956299
1747993814965506800,2.3255068359375,10.632649421691895,4.6255974769592285,3.1459810733795166
1747993814981345500,2.341345458984375,6.090848922729492,4.51067590713501,1.3072341680526733
1747993814997123000,2.357123046875,3.28963303565979,4.333505153656006,0.2849099934101105
1747993815012931000,2.37293115234375,2.7676970958709717,3.936067581176758,0.17956513166427612
1747993815028739300,2.3887392578125,3.912125587463379,3.552995204925537,0.5674257874488831
1747993815044516900,2.404516845703125,4.987122058868408,3.0310592651367188,1.2401964664459229
1747993815060386000,2.420385986328125,5.475539207458496,2.674323320388794,1.7549498081207275
1747993815076163600,2.43616357421875,5.616796970367432,2.408566951751709,1.5705963373184204
1747993815091971600,2.4519716796875,5.231330871582031,2.3104045391082764,1.036689281463623
1747993815107749000,2.4677490234375,4.422090530395508,2.1380221843719482,1.2066776752471924
1747993815123527000,2.48352685546875,3.892971992492676,2.097320795059204,1.3910311460494995
1747993815139395800,2.499395751953125,4.508281707763672,2.4875755310058594,1.4987702369689941
1747993815155173600,2.515173583984375,6.655880928039551,3.19865345954895,1.5610195398330688
1747993815170981600,2.530981689453125,9.263166427612305,4.271255970001221,2.118868589401245
1747993815186759200,2.54675927734375,12.375628471374512,5.719748020172119,2.4229321479797363
1747993815202567400,2.5625673828125,14.480132102966309,6.993463039398193,1.7908629179000854
1747993815218345000,2.578344970703125,14.79616641998291,7.575253963470459,2.4875755310058594
1747993815234153000,2.594153076171875,13.536816596984863,7.850587368011475,3.292027235031128
1747993815249961200,2.609961181640625,12.014103889465332,7.266402244567871,4.67827033996582
1747993815265769200,2.625769287109375,10.790667533874512,6.766014099121094,5.377377033233643
1747993815281577500,2.641577392578125,9.038111686706543,6.457161903381348,4.9152960777282715
1747993815297355000,2.65735498046875,7.108384609222412,5.686229228973389,5.214571475982666
1747993815313163000,2.6731630859375,6.344634532928467,5.212177276611328,6.00226354598999
1747993815328971300,2.68897119140625,6.090848922729492,4.125209331512451,6.1315507888793945
1747993815344809700,2.704809814453125,5.698200225830078,3.0526070594787598,5.872976779937744
1747993815360648400,2.7206484375,5.310339450836182,2.1595699787139893,5.738901615142822
1747993815376456400,2.73645654296875,4.534617900848389,1.338358759880066,5.343858242034912
1747993815392234000,2.75223388671875,4.173093795776367,1.1013327836990356,4.443638324737549
1747993815408072700,2.76807275390625,4.955997467041016,0.950498104095459,4.228160381317139
1747993815423850200,2.783850341796875,7.757213592529297,1.015141487121582,4.424484729766846
1747993815439658500,2.799658447265625,10.38604736328125,1.094150185585022,4.659116744995117
1747993815455436000,2.81543603515625,10.96544361114502,1.4772224426269531,5.4659624099731445
1747993815471244000,2.831244140625,9.718064308166504,2.169146776199341,5.731719017028809
1747993815487082800,2.847082763671875,7.374141216278076,2.5761611461639404,4.9368438720703125
1747993815502829800,2.862829833984375,4.505887508392334,2.5737667083740234,4.278438568115234
1747993815518637800,2.878637939453125,4.838681697845459,3.2968156337738037,3.993528366088867
1747993815534507000,2.894507080078125,8.461109161376953,4.280832767486572,4.194641590118408
1747993815550315300,2.910315185546875,10.158597946166992,5.396530628204346,4.618414878845215
1747993815566153700,2.92615380859375,10.29746150970459,7.141903877258301,5.805939197540283
1747993815581931300,2.94193115234375,12.914323806762695,8.556877136230469,8.767566680908203
1747993815597770000,2.95777001953125,17.932571411132812,8.429984092712402,11.367670059204102
1747993815613547500,2.973547607421875,24.253263473510742,7.623138427734375,11.66694450378418
1747993815629325000,2.989324951171875,26.290729522705078,7.603984832763672,8.686163902282715
1747993815645133300,3.00513330078125,22.191856384277344,7.931990146636963,5.810727596282959
1747993815660910800,3.020910888671875,17.271770477294922,7.920019149780273,5.169081687927246
1747993815676688400,3.0366884765625,13.977349281311035,7.383718013763428,6.054935932159424
1747993815692466000,3.0524658203125,9.940725326538086,6.524199485778809,5.477933406829834
1747993815708243700,3.06824365234375,6.234501361846924,5.901707172393799,3.49314022064209
1747993815724082200,3.084082275390625,4.122815132141113,5.336675643920898,1.9129672050476074
1747993815739921000,3.0999208984375,2.2864625453948975,4.477157115936279,0.8595184087753296
1747993815755698400,3.115698486328125,0.6991068720817566,3.9600095748901367,0.22505496442317963
1747993815771506400,3.13150634765625,-1.280897855758667,2.8203697204589844,0.1412578970193863
1747993815787314700,3.147314697265625,-2.585737943649292,1.9728221893310547,0.17717093229293823
1747993815803122700,3.163122802734375,-2.1930887699127197,1.280897855758667,0.849941611289978
1747993815818900200,3.178900146484375,-1.2114660739898682,0.6991068720817566,0.8690952062606812
1747993815834861000,3.194861083984375,-0.9217676520347595,0.33279404044151306,0.05027823522686958
1747993815850699800,3.21069970703125,-1.048660397529602,0.031124621629714966,-1.1228805780410767
1747993815866599400,3.226599365234375,-0.9911994934082031,-0.22266076505184174,-1.7693150043487549
1747993815882651600,3.242651611328125,-0.05746084079146385,-0.21547815203666687,-1.721431016921997
1747993815898490000,3.258489990234375,0.8188169598579407,0.38307225704193115,-1.2234370708465576
1747993815914420500,3.27442041015625,1.4532804489135742,1.7764976024627686,-0.5770025849342346
1747993815930259000,3.290259033203125,2.190694570541382,4.050989151000977,1.5682021379470825
1747993815946006000,3.306006103515625,2.3056161403656006,6.737283706665039,3.6343982219696045
1747993815961814300,3.321814208984375,3.155557870864868,9.160215377807617,3.9001545906066895
1747993815977561300,3.337561279296875,5.928043365478516,10.893617630004883,2.454056739807129
1747993815993369300,3.353369384765625,8.71728801727295,13.278243064880371,-0.4572925269603729
1747993816009147000,3.36914697265625,10.979808807373047,13.194445610046387,-1.3838485479354858
1747993816024924400,3.38492431640625,13.148955345153809,11.705251693725586,2.7437551021575928
1747993816040732700,3.400732666015625,15.804125785827637,10.065223693847656,11.099518775939941
1747993816056540700,3.416540771484375,17.240646362304688,8.53532886505127,15.844826698303223
1747993816072318200,3.432318115234375,15.322891235351562,6.615179061889648,12.20803451538086
1747993816088096000,3.448095947265625,13.615824699401855,4.6040496826171875,6.449979305267334
1747993816103873500,3.46387353515625,10.560823440551758,3.2417490482330322,2.518700122833252
1747993816119681500,3.479681640625,6.785167694091797,2.6647465229034424,0.05746084079146385
1747993816135428600,3.4954287109375,3.1938650608062744,2.070984363555908,0.363918662071228
1747993816151206100,3.5112060546875,1.1348515748977661,2.3343467712402344,3.6320040225982666
1747993816167014400,3.527014404296875,1.0989385843276978,2.9951462745666504,5.566518783569336
1747993816182822400,3.542822509765625,1.6543933153152466,2.1595699787139893,5.870582580566406
1747993816198661000,3.5586611328125,2.1116859912872314,0.9816226959228516,4.896142482757568
1747993816222373000,3.582373046875,3.1866824626922607,0.790086567401886,4.8482584953308105
1747993816238211800,3.5982119140625,4.548983097076416,1.3623007535934448,4.953603267669678
1747993816254050600,3.614050537109375,6.4164605140686035,1.9249382019042969,4.309563159942627
1747993816269797600,3.629797607421875,7.491456985473633,2.1140801906585693,4.436455726623535
1747993816285575200,3.6455751953125,7.800309181213379,2.473210334777832,5.169081687927246
1747993816301352700,3.661352783203125,7.462726593017578,3.3446998596191406,6.057330131530762
1747993816317130200,3.677130126953125,7.747636795043945,4.572925090789795,6.435614109039307
1747993816332969000,3.692968994140625,8.492233276367188,6.31829833984375,5.109226226806641
1747993816348746500,3.70874658203125,11.51850414276123,7.163451671600342,5.398924827575684
1747993816364554800,3.7245546875,16.627731323242188,7.536946773529053,7.129932880401611
1747993816380362800,3.74036279296875,18.727445602416992,7.326257228851318,6.821080684661865
1747993816396201500,3.756201416015625,18.011579513549805,7.733271598815918,7.218518257141113
1747993816412040000,3.7720400390625,14.54716968536377,7.137115478515625,7.029376029968262
1747993816427787000,3.787787109375,10.333374977111816,6.687005519866943,6.710947513580322
1747993816443595300,3.80359521484375,7.955932140350342,6.0597243309021,6.141127586364746
1747993816459372800,3.819372802734375,7.273584842681885,5.2911858558654785,4.838681697845459
1747993816475150300,3.835150390625,7.680599212646484,4.211400985717773,3.9240965843200684
1747993816490927900,3.850927978515625,7.9415669441223145,3.3063924312591553,3.8163576126098633
1747993816506705400,3.866705322265625,7.785943984985352,2.3104045391082764,3.397372245788574
1747993816522452500,3.882452392578125,7.115567684173584,1.3838485479354858,2.8203697204589844
1747993816538260700,3.8982607421875,6.162675380706787,0.5937620401382446,2.8419175148010254
1747993816554068700,3.91406884765625,5.631162166595459,-0.026336219161748886,2.6839001178741455
1747993816569846300,3.92984619140625,5.396530628204346,-0.6943184733390808,2.410961151123047
1747993816585685000,3.94568505859375,5.384559631347656,-1.2066776752471924,3.043030261993408
1747993816601523700,3.961523681640625,5.51624059677124,-1.3982137441635132,3.318363666534424
1747993816617393000,3.977392822265625,5.03021764755249,-1.5107412338256836,3.2800562381744385
1747993816633261800,3.99326171875,3.998316764831543,-1.158793568611145,3.2752678394317627
1747993816649100500,4.0091005859375,2.9927520751953125,-1.05105459690094,2.784456491470337
1747993816664908500,4.024908447265625,3.5434184074401855,-1.1180921792984009,1.6687586307525635
1747993816680686300,4.040686279296875,7.960720539093018,-1.4245500564575195,-0.0933738648891449
1747993816696464000,4.0564638671875,12.440272331237793,-1.4293384552001953,-1.8962076902389526
1747993816712302300,4.07230224609375,14.43464183807373,-0.6248866319656372,-1.235408067703247
1747993816728171500,4.088171630859375,13.57751750946045,1.6184803247451782,0.3016694188117981
1747993816743979800,4.103979736328125,12.0021333694458,3.270479440689087,2.7892448902130127
1747993816759757300,4.11975732421875,13.029245376586914,5.216965675354004,6.40927791595459
1747993816775534800,4.135534912109375,14.85362720489502,7.359776020050049,10.103530883789062
1747993816791373600,4.15137353515625,13.711592674255371,8.259995460510254,13.352462768554688
1747993816807181600,4.167181640625,10.87446403503418,8.087613105773926,15.58864688873291
1747993816823050800,4.18305078125,10.278307914733887,7.534552574157715,17.628507614135742
1747993816838858800,4.198858642578125,10.491392135620117,6.873753070831299,16.52238655090332
1747993816854697500,4.214697509765625,9.615114212036133,5.9974751472473145,12.648567199707031
1747993816870475000,4.23047509765625,7.589619159698486,5.078101634979248,9.445125579833984
1747993816886313700,4.246313720703125,5.185841083526611,4.129997730255127,7.757213592529297
1747993816902091300,4.26209130859375,2.9735984802246094,3.339911460876465,5.868188381195068
1747993816917930000,4.277929931640625,0.9959878921508789,2.513911724090576,4.537012100219727
1747993816933707500,4.29370751953125,-0.40222588181495667,2.0638017654418945,4.000710964202881
1747993816949546000,4.3095458984375,-0.727837324142456,1.6903064250946045,4.446032524108887
1747993816965384700,4.325384765625,-0.6057330369949341,1.656787633895874,5.233725070953369
1747993816981131800,4.3411318359375,-0.790086567401886,1.5825673341751099,6.0190229415893555
1747993816996970500,4.356970458984375,-0.5195417404174805,1.4437036514282227,5.542576789855957
1747993817012748000,4.372748046875,0.7661445140838623,1.6855180263519287,4.395754337310791
1747993817028556000,4.38855615234375,2.319981336593628,1.5442601442337036,3.8738183975219727
1747993817044303000,4.40430322265625,4.424484729766846,1.5634137392044067,4.125209331512451
1747993817060080600,4.42008056640625,6.540958881378174,1.922544002532959,5.971138954162598
1747993817075858400,4.4358583984375,7.785943984985352,2.513911724090576,8.729259490966797
1747993817091713800,4.4517138671875,8.219294548034668,2.9735984802246094,9.682151794433594
1747993817107521800,4.467521728515625,7.90086555480957,4.050989151000977,7.623138427734375
1747993817123329800,4.483329833984375,8.274360656738281,5.406107425689697,6.179434776306152
1747993817139107600,4.499107666015625,9.452308654785156,6.44279670715332,6.399701118469238
1747993817154915600,4.51491552734375,10.187328338623047,7.060500621795654,7.63989782333374
1747993817170693000,4.530693115234375,10.165780067443848,7.321468830108643,8.851364135742188
1747993817186531800,4.54653173828125,9.452308654785156,7.117961883544922,8.848969459533691
1747993817202339800,4.56233984375,7.979874134063721,6.936002254486084,7.108384609222412
1747993817218148000,4.578148193359375,7.264008045196533,6.701370716094971,5.602431774139404
1747993817233925600,4.593925537109375,8.911218643188477,6.222530364990234,4.881777286529541
1747993817249703200,4.609703125,10.793061256408691,5.468356609344482,4.886565685272217
1747993817265511400,4.625511474609375,11.118672370910645,4.793191909790039,5.4228668212890625
1747993817281289000,4.6412890625,9.53849983215332,4.395754337310791,5.22175407409668
1747993817297097000,4.657096923828125,6.967126846313477,4.0294413566589355,4.3406877517700195
1747993817312874500,4.67287451171875,5.530605792999268,3.5386300086975098,3.35667085647583
1747993817328743700,4.68874365234375,4.932055473327637,3.1244332790374756,3.0550012588500977
1747993817344582400,4.70458251953125,4.4292731285095215,2.6144683361053467,3.5194764137268066
1747993817360360000,4.72035986328125,4.280832767486572,2.425326347351074,4.975151062011719
1747993817376168000,4.73616796875,4.812345504760742,2.497152328491211,6.22731876373291
1747993817392006700,4.752006591796875,5.4228668212890625,2.6168625354766846,6.026205539703369
1747993817407814700,4.767814697265625,5.386953830718994,2.2625205516815186,5.200206279754639
1747993817423623000,4.783622802734375,5.12119722366333,2.0925323963165283,4.548983097076416
1747993817439461600,4.799461669921875,4.733336925506592,1.9991583824157715,3.9384617805480957
1747993817455239200,4.8152392578125,4.707000732421875,1.778891921043396,3.643975019454956
1747993817471047200,4.831047119140625,5.638344764709473,2.2194249629974365,2.580949544906616
1747993817486916400,4.846916259765625,5.07570743560791,2.6599581241607666,-0.811634361743927
1747993817502724400,4.862724365234375,4.398148536682129,3.1531636714935303,-5.456385612487793
1747993817518502100,4.878502197265625,5.990292549133301,3.620033025741577,-5.980715751647949
1747993817534340600,4.894340576171875,10.66137981414795,3.8331170082092285,-0.9265560507774353
1747993817550087700,4.910087646484375,15.919047355651855,3.754108190536499,6.605602264404297
1747993817565956900,4.925956787109375,21.296424865722656,2.851494312286377,17.73863983154297
1747993817581764900,4.941764892578125,23.39613914489746,2.875436305999756,24.949975967407227
1747993817597603600,4.957603515625,18.780118942260742,3.4620156288146973,21.085735321044922
1747993817613381000,4.973381103515625,13.93664836883545,4.304774761199951,13.043610572814941
1747993817629189400,4.989189453125,12.880805015563965,4.271255970001221,9.536105155944824
1747993817644997400,5.004997314453125,12.806585311889648,3.5649664402008057,9.732429504394531
1747993817660836000,5.020836181640625,12.952630996704102,3.1723172664642334,9.86889934539795
1747993817676705300,5.036705322265625,10.989385604858398,2.964021682739258,8.281543731689453
1747993817692543700,5.052543701171875,7.589619159698486,2.5953147411346436,5.6191911697387695
1747993817708382500,5.068382568359375,5.240907669067383,2.2816741466522217,4.113238334655762
1747993817724221000,5.084220947265625,4.084507942199707,1.9584569931030273,3.8762125968933105
1747993817740029200,5.100029296875,3.6798880100250244,1.577778935432434,3.737348794937134
1747993817755837200,5.115837158203125,3.713406801223755,0.9840168952941895,3.687070608139038
1747993817771676000,5.131676025390625,3.9839515686035156,0.6584054827690125,3.1699230670928955
1747993817787484000,5.14748388671875,3.9432501792907715,0.24181437492370605,2.5689783096313477
1747993817803292200,5.163292236328125,3.442862033843994,-0.16998831927776337,1.8794482946395874
1747993817819100200,5.17910009765625,2.4899697303771973,-0.5003881454467773,1.6663644313812256
1747993817834969300,5.19496923828125,1.656787633895874,-0.8212111592292786,1.6328455209732056
1747993817858742500,5.218742431640625,0.3663128614425659,-1.0127472877502441,0.31364041566848755
1747993817874642200,5.23464208984375,-0.5554547905921936,-1.1180921792984009,-1.314416766166687
1747993817890419700,5.250419677734375,-1.867477297782898,-0.44532153010368347,-4.376600742340088
1747993817906197200,5.266197265625,-4.750096321105957,1.8124107122421265,-8.073247909545898
1747993817922036000,5.282035888671875,-9.131484985351562,4.376600742340088,-7.728483200073242
1747993817937844000,5.297843994140625,-8.403648376464844,4.987122058868408,1.6304513216018677
1747993817953652200,5.31365234375,4.592078685760498,4.333505153656006,14.355633735656738
1747993817969521400,5.329521484375,26.48705291748047,1.941697597503662,33.29376983642578
1747993817985299000,5.345298828125,38.71424102783203,1.9488801956176758,44.28794479370117
1747993818001076500,5.361076416015625,30.277074813842773,4.496310710906982,36.88985824584961
1747993818016884500,5.376884521484375,16.852785110473633,6.167463779449463,20.733787536621094
1747993818032723200,5.39272314453125,11.5065336227417,6.449979305267334,10.467450141906738
1747993818048562000,5.40856201171875,8.362946510314941,5.901707172393799,5.937620162963867
1747993818064370000,5.424369873046875,6.830657482147217,5.542576789855957,2.6168625354766846
1747993818080178200,5.44017822265625,5.813121795654297,4.903325080871582,1.113303780555725
1747993818095986200,5.455986083984375,4.426878929138184,4.46518611907959,1.0055646896362305
1747993818111794200,5.471794189453125,2.3989901542663574,4.273650169372559,0.8978256583213806
1747993818127633000,5.4876328125,1.256955862045288,3.4979286193847656,0.5027823448181152
1747993818143410400,5.503410400390625,1.3958195447921753,2.6575639247894287,-0.0694318488240242
1747993818159218700,5.51921875,2.0231003761291504,1.5131354331970215,-0.8834604024887085
1747993818175026700,5.535026611328125,2.7006595134735107,0.5410895943641663,-1.7381904125213623
1747993818190895900,5.550895751953125,4.010287761688232,-0.47644615173339844,-2.212242364883423
1747993818206703900,5.566703857421875,4.759673118591309,-1.0821791887283325,-1.8914192914962769
1747993818222481400,5.5824814453125,4.405331134796143,-0.7254431247711182,-1.2210428714752197
1747993818238259200,5.59825927734375,4.043806552886963,0.9433154463768005,0.0454898327589035
1747993818254067200,5.614067138671875,4.402936935424805,3.3303346633911133,2.499546527862549
1747993818269906000,5.629906005859375,6.382941722869873,5.039794445037842,3.6750996112823486
1747993818285714000,5.6457138671875,11.456254959106445,5.674258232116699,4.491522312164307
1747993818301491500,5.661491455078125,16.306907653808594,6.196194171905518,7.55131196975708
1747993818317269200,5.677269287109375,17.628507614135742,6.562506675720215,12.507309913635254
1747993818333046800,5.693046875,16.361974716186523,6.892906665802002,17.367538452148438
1747993818348793900,5.7087939453125,11.51611042022705,7.058106422424316,18.432958602905273
1747993818364601900,5.724601806640625,6.7061591148376465,6.92881965637207,14.563928604125977
1747993818380379400,5.74037939453125,5.664681434631348,5.904101371765137,9.696516990661621
1747993818396187600,5.756187744140625,6.421248912811279,5.056553840637207,6.54574728012085
1747993818411995600,5.77199560546875,7.273584842681885,4.189853191375732,5.621585369110107
1747993818427804000,5.787803955078125,7.599195957183838,3.3662476539611816,4.965574264526367
1747993818443612000,5.80361181640625,7.0317702293396,2.4444799423217773,4.5394062995910645
1747993818459450600,5.81945068359375,6.174646377563477,1.821987509727478,4.3861775398254395
1747993818475319600,5.835319580078125,5.106832027435303,1.4053963422775269,4.278438568115234
1747993818491158300,5.851158203125,3.909731388092041,1.0031704902648926,3.533841609954834
1747993818506997000,5.8669970703125,2.8155810832977295,0.9241618514060974,2.5737667083740234
1747993818522805000,5.882804931640625,2.2146365642547607,0.950498104095459,2.499546527862549
1747993818538643700,5.898643798828125,1.9752163887023926,1.2186486721038818,3.2393548488616943
1747993818554482200,5.914482177734375,1.9943699836730957,1.1061211824417114,3.4955344200134277
1747993818570290400,5.93029052734375,2.0374655723571777,0.667982280254364,2.832340717315674
1747993818586098400,5.946098388671875,2.942473888397217,1.2114660739898682,1.6735470294952393
1747993818601906700,5.96190673828125,3.3063924312591553,1.6903064250946045,1.7166426181793213
1747993818617745200,5.9777451171875,4.1874589920043945,2.300827741622925,4.0533833503723145
1747993818633553400,5.993553466796875,5.480327606201172,3.155557870864868,6.253654956817627
1747993818649361400,6.009361328125,8.243236541748047,4.07014274597168,7.266402244567871
1747993818665169400,6.02516943359375,10.24239444732666,5.212177276611328,5.200206279754639
1747993818680947200,6.040947265625,10.867281913757324,6.380547523498535,3.93367338180542
1747993818696724700,6.056724853515625,11.896788597106934,6.964732646942139,6.773196697235107
1747993818712563200,6.072563232421875,13.421895027160645,7.433996200561523,10.718840599060059
1747993818728371500,6.088371337890625,15.483302116394043,6.976703643798828,13.934253692626953
1747993818744179500,6.104179443359375,16.71392250061035,6.4595561027526855,14.982913970947266
1747993818760048600,6.120048583984375,14.877569198608398,5.861005783081055,13.309367179870605
1747993818775826200,6.135826171875,11.32457447052002,5.51624059677124,10.079588890075684
1747993818791634400,6.151634521484375,8.508993148803711,5.145139217376709,6.830657482147217
1747993818807473000,6.167472900390625,7.110779285430908,4.627991676330566,4.4292731285095215
1747993818823311600,6.1833115234375,6.761225700378418,3.914519786834717,3.691859006881714
1747993818839150300,6.199150390625,6.821080684661865,3.2130186557769775,3.955221176147461
1747993818854928000,6.214927978515625,6.296750545501709,2.671929121017456,4.2090067863464355
1747993818870675000,6.230675048828125,5.0254292488098145,2.1595699787139893,3.971980571746826
1747993818886513400,6.246513427734375,2.920926094055176,1.7118542194366455,3.7493197917938232
1747993818902321700,6.26232177734375,0.8044517636299133,1.414973258972168,3.7158010005950928
1747993818918099200,6.27809912109375,-0.17238251864910126,1.721431016921997,3.5482068061828613
1747993818933907200,6.2939072265625,0.11971008777618408,2.0925323963165283,3.3039982318878174
1747993818949654300,6.309654296875,2.22660756111145,2.097320795059204,2.741360902786255
1747993818965493000,6.325492919921875,4.666299343109131,1.987187385559082,2.5546131134033203
1747993818981270500,6.3412705078125,7.151480674743652,1.8938134908676147,3.1675288677215576
1747993818997078800,6.357078857421875,8.865729331970215,2.205059766769409,4.2951979637146
1747993819012886800,6.37288671875,9.75397777557373,2.559401512145996,4.692635536193848
1747993819028664300,6.388664306640625,9.14345645904541,3.3925838470458984,4.757278919219971
1747993819044441900,6.40444189453125,8.798690795898438,4.953603267669678,4.364629745483398
1747993819060280600,6.420280517578125,9.679757118225098,6.72531270980835,4.953603267669678
1747993819076088800,6.4360888671875,10.462661743164062,8.678980827331543,5.602431774139404
1747993819091836000,6.4518359375,11.05642318725586,9.248801231384277,6.993463039398193
1747993819107704800,6.467704833984375,12.97657299041748,8.757989883422852,6.92881965637207
1747993819123513000,6.48351318359375,15.91665267944336,7.673416614532471,6.478709697723389
1747993819139321000,6.499321044921875,16.58224105834961,6.449979305267334,7.1490864753723145
1747993819155190300,6.515190185546875,14.961366653442383,5.501875400543213,7.800309181213379
1747993819170998300,6.530998291015625,12.126631736755371,4.620809078216553,7.826645374298096
1747993819186776000,6.546776123046875,9.883264541625977,3.7636849880218506,6.8162922859191895
1747993819202584000,6.562583984375,8.185775756835938,2.8155810832977295,5.044582843780518
1747993819218453200,6.578453369140625,9.2033109664917,1.5442601442337036,2.9448680877685547
1747993819234230800,6.594230712890625,13.505691528320312,-0.08619125932455063,0.5578489899635315
1747993819250069500,6.610069580078125,15.260642051696777,-1.1827356815338135,-0.19871874153614044
1747993819265908000,6.625907958984375,13.910311698913574,-1.2018892765045166,0.11971008777618408
1747993819281746700,6.64174658203125,11.077971458435059,-0.8403648138046265,0.9552865028381348
1747993819297616000,6.657615966796875,8.219294548034668,-0.38546648621559143,1.1683704853057861
1747993819313424000,6.673423828125,5.748478412628174,0.22026655077934265,0.6416460275650024
1747993819329262600,6.6892626953125,4.07014274597168,0.6727706789970398,0.12689268589019775
1747993819345131800,6.7051318359375,2.1164743900299072,0.9481038451194763,0.12689268589019775
1747993819360939800,6.720939697265625,1.455674648284912,1.1252747774124146,0.9409212470054626
1747993819376870000,6.736869873046875,2.011129379272461,1.4891934394836426,1.235408067703247
1747993819392678100,6.75267822265625,2.918531894683838,1.558625340461731,1.678335428237915
1747993819408486100,6.768486083984375,4.355052947998047,1.8746598958969116,1.6543933153152466
1747993819424324900,6.784324951171875,6.490680694580078,2.382230758666992,0.7469909191131592
1747993819440163300,6.800163330078125,8.494627952575684,3.3925838470458984,-0.6607996821403503
1747993819456002000,6.816001953125,10.067618370056152,4.527435302734375,-1.522712230682373
1747993819471810000,6.83181005859375,10.556035041809082,5.097255229949951,-1.036689281463623
1747993819487648800,6.847648681640625,10.63504409790039,5.583278179168701,0.507570743560791
1747993819503395800,6.863395751953125,11.403582572937012,6.1315507888793945,2.0422539710998535
1747993819519234600,6.879234619140625,12.483367919921875,7.074865818023682,1.2976573705673218
1747993819535042600,6.89504248046875,11.657367706298828,6.806715488433838,0.2298433631658554
1747993819550881300,6.91088134765625,9.550470352172852,6.169857978820801,-0.06464344263076782
1747993819566658800,6.926658935546875,8.018181800842285,5.628767967224121,0.38067805767059326
1747993819582466800,6.942466796875,8.214506149291992,4.924872875213623,0.40222588181495667
1747993819598305500,6.958305419921875,9.186552047729492,4.381389141082764,-0.16519992053508759
1747993819614052600,6.974052490234375,9.734824180603027,4.003105163574219,-0.4836287498474121
1747993819629891000,6.98989111328125,9.035717010498047,3.9863457679748535,-0.13168109953403473
1747993819645699300,7.00569921875,8.157045364379883,4.0749311447143555,0.40222588181495667
1747993819661476900,7.021476806640625,8.312667846679688,4.158728122711182,0.6703764796257019
1747993819677285000,7.03728515625,9.014169692993164,3.936067581176758,0.6392518281936646
1747993819693093000,7.053093017578125,8.920795440673828,3.5027170181274414,0.3998316824436188
1747993819708870700,7.06887060546875,7.989450931549072,3.1675288677215576,-0.21787235140800476
1747993819724648200,7.084648193359375,6.801927089691162,2.8802247047424316,-1.0103530883789062
1747993819740395300,7.100395263671875,5.796362400054932,2.609679937362671,-1.0606313943862915
1747993819756234000,7.11623388671875,4.821922302246094,2.494758129119873,-0.021547814831137657
1747993819772011500,7.132011474609375,4.778826713562012,2.3487119674682617,0.5147533416748047
1747993819787789000,7.1477890625,5.95677375793457,1.7956513166427612,-0.023942016065120697
1747993819803627800,7.163627685546875,7.5848307609558105,1.2952631711959839,-1.0319008827209473
1747993819819466500,7.179466552734375,8.760383605957031,0.9888052940368652,-1.9584569931030273
1747993819835274500,7.1952744140625,9.373299598693848,1.5921441316604614,-2.296039342880249
1747993819851021600,7.211021484375,10.070012092590332,3.265691041946411,-2.557007312774658
1747993819866829600,7.22682958984375,11.81299114227295,5.1595048904418945,-2.142810583114624
1747993819882607400,7.242607421875,13.532028198242188,6.145915985107422,-1.4700398445129395
1747993819898445800,7.25844580078125,14.61660099029541,6.275202751159668,-0.7709329724311829
1747993819914254000,7.274254150390625,15.708357810974121,6.110002517700195,0.11013327538967133
1747993819930001200,7.290001220703125,15.7107515335083,5.489904403686523,2.094926595687866
1747993819945809200,7.30580908203125,10.146626472473145,4.838681697845459,4.491522312164307
1747993819961586700,7.321586669921875,13.048398971557617,5.652710437774658,7.407660007476807
1747993819977364200,7.3373642578125,12.844892501831055,5.094861030578613,6.303933143615723
1747993819993203000,7.353202880859375,11.745953559875488,4.153939723968506,4.309563159942627
1747993820009011000,7.369010986328125,10.512939453125,4.244919776916504,2.7940332889556885
1747993820024819200,7.384819091796875,9.121908187866211,3.9647979736328125,2.4013843536376953
1747993820040627200,7.400627197265625,6.840234279632568,3.6607344150543213,2.5929205417633057
1747993820056466000,7.4164658203125,4.434061527252197,3.272873640060425,3.4763808250427246
1747993820072304600,7.4323046875,3.6104562282562256,2.4444799423217773,4.261679172515869
1747993820088082200,7.448082275390625,4.7405195236206055,1.8602946996688843,3.308786630630493
1747993820103890200,7.46389013671875,6.191405773162842,0.9888052940368652,2.250549554824829
1747993820119698400,7.479698486328125,6.734889507293701,0.7182605266571045,1.7334020137786865
1747993820135506400,7.49550634765625,6.069301128387451,0.7086837291717529,2.2146365642547607
1747993820151345200,7.51134521484375,4.9583916664123535,0.9576807022094727,3.002328872680664
1747993820167092200,7.52709228515625,4.098873138427734,1.2497732639312744,3.466804027557373
1747993820182869800,7.542869873046875,3.643975019454956,1.4915876388549805,2.7437551021575928
1747993820198739000,7.558739013671875,3.205836057662964,1.86508309841156,1.5203180313110352
1747993820214547000,7.574546875,2.580949544906616,2.322375535964966,0.8762778043746948
1747993820230355000,7.59035498046875,2.3319525718688965,3.1004912853240967,0.5003881454467773
1747993820246163200,7.6061630859375,3.6607344150543213,4.10366153717041,0.6272808313369751
1747993820261940700,7.621940673828125,6.19379997253418,5.307945251464844,0.6153098344802856
1747993820277748700,7.637748779296875,9.29189682006836,6.2392897605896,0.7422025203704834
1747993820293618000,7.653617919921875,12.325350761413574,6.947973251342773,2.300827741622925
1747993820309426200,7.66942626953125,16.95094871520996,7.445967197418213,3.1292216777801514
1747993820325203700,7.68520361328125,23.046585083007812,5.298368453979492,4.898536682128906
1747993820340981200,7.700981201171875,27.870901107788086,3.8331170082092285,7.793126583099365
1747993820356758800,7.7167587890625,29.472623825073242,2.9975404739379883,9.102754592895508
1747993820372567000,7.732567138671875,25.33065414428711,3.6391866207122803,6.418854713439941
1747993820388375000,7.748375,16.4625301361084,5.216965675354004,3.464409828186035
1747993820404183300,7.764183349609375,9.097966194152832,6.691793918609619,1.922544002532959
1747993820420021800,7.780021728515625,4.774038314819336,7.228095054626465,0.9959878921508789
1747993820435799300,7.79579931640625,3.773261785507202,6.890512466430664,0.4620809257030487
1747993820451607600,7.811607666015625,3.646369218826294,6.720524311065674,-0.912190854549408
1747993820467415600,7.82741552734375,2.559401512145996,6.033388137817383,-1.2018892765045166
1747993820483223800,7.843223876953125,1.37906014919281,5.585672378540039,-1.05105459690094
1747993820499092700,7.8590927734375,0.950498104095459,4.548983097076416,-0.2106897532939911
1747993820514901000,7.87490087890625,1.0654197931289673,3.5386300086975098,0.6799532771110535
1747993820530678500,7.890678466796875,1.6711528301239014,2.4588451385498047,0.9696516990661621
1747993820546486800,7.90648681640625,2.425326347351074,1.4915876388549805,-0.019153613597154617
1747993820562355700,7.922355712890625,3.0310592651367188,0.8164227604866028,-0.9959878921508789
1747993820578194400,7.9381943359375,2.6647465229034424,0.5003881454467773,-1.2330138683319092
1747993820594033200,7.954033203125,1.9536685943603516,0.7948749661445618,-1.3694833517074585
1747993820609871600,7.96987158203125,1.1109095811843872,1.4652514457702637,-2.1164743900299072
1747993820625710300,7.98571044921875,2.027888774871826,2.846705913543701,-4.649539470672607
1747993820641518300,8.001518310546874,5.521028995513916,4.972756862640381,-6.789956092834473
1747993820657326600,8.01732666015625,14.075511932373047,6.983886241912842,-6.730101108551025
1747993820673195500,8.033195556640624,23.40092658996582,5.370194435119629,-0.9097966551780701
1747993820689064700,8.049064697265624,29.28348159790039,4.302380561828613,3.737348794937134
1747993820704873000,8.064873046875,27.732038497924805,4.95120906829834,4.4292731285095215
1747993820720681000,8.080680908203124,21.222204208374023,5.731719017028809,2.9951462745666504
1747993820736550100,8.096550048828124,17.164031982421875,5.872976779937744,3.6104562282562256
1747993820752358100,8.112358154296874,16.40028190612793,5.525817394256592,4.711789131164551
1747993820768136000,8.128135986328125,14.63814926147461,5.5114521980285645,4.458003520965576
1747993820783974400,8.143974365234374,10.900800704956055,5.5976433753967285,3.07415509223938
1747993820799782700,8.15978271484375,7.249642848968506,5.468356609344482,1.2210428714752197
1747993820815560200,8.175560302734375,4.6040496826171875,4.960785865783691,0.40462008118629456
1747993820831368200,8.1913681640625,3.488351821899414,4.266467571258545,0.43335050344467163
1747993820847207000,8.20720703125,2.9951462745666504,3.442862033843994,0.3711012601852417
1747993820863076000,8.223076171875,3.1747114658355713,2.2361843585968018,0.7661445140838623
1747993820878914600,8.23891455078125,4.501099109649658,1.403002142906189,0.6703764796257019
1747993820894783700,8.25478369140625,5.578489780426025,0.8307880163192749,0.5530605912208557
1747993820910561300,8.270561279296874,5.736507415771484,0.40701428055763245,0.23942017555236816
1747993820926400000,8.28639990234375,4.577713489532471,0.2777273952960968,0.2322375625371933
1747993820942238700,8.30223876953125,2.9927520751953125,0.38546648621559143,0.8188169598579407
1747993820957985800,8.31798583984375,2.7030537128448486,0.6943184733390808,1.2521674633026123
1747993820973763300,8.333763427734375,2.741360902786255,1.0965443849563599,0.9433154463768005
1747993820989571300,8.3495712890625,2.583343744277954,1.5969325304031372,0.5770025849342346
1747993821005410000,8.36541015625,3.064578056335449,2.10210919380188,0.13168109953403473
1747993821021218000,8.381218017578124,5.415684223175049,3.203441858291626,-0.689530074596405
1747993821037026300,8.3970263671875,8.33182144165039,4.888959884643555,-1.0414776802062988
1747993821052803800,8.412803955078125,10.69489860534668,6.7923502922058105,-0.8858546018600464
1747993821068611800,8.42861181640625,11.022904396057129,7.613561630249023,0.6536170840263367
1747993821084450600,8.444450439453124,12.263101577758789,7.4986395835876465,3.3686418533325195
1747993821100289000,8.4602890625,16.924612045288086,7.2113356590271,5.6670756340026855
1747993821116097300,8.47609716796875,21.222204208374023,6.643909931182861,5.635950565338135
1747993821131905300,8.4919052734375,21.87582015991211,5.808333396911621,4.821922302246094
1747993821147683000,8.50768310546875,19.88384437561035,5.193023681640625,4.127603530883789
1747993821163460600,8.523460693359375,16.88630485534668,4.831499099731445,3.5434184074401855
1747993821179268600,8.5392685546875,13.340492248535156,4.812345504760742,2.5953147411346436
1747993821195137800,8.5551376953125,9.512163162231445,4.898536682128906,1.6615760326385498
1747993821211007000,8.571007080078125,6.464344501495361,4.771644115447998,1.2114660739898682
1747993821226784500,8.586784423828124,4.8937482833862305,4.503493309020996,0.849941611289978
1747993821242592500,8.602592529296874,4.60165548324585,3.88818359375,0.6536170840263367
1747993821258400800,8.61840087890625,4.683058738708496,3.268085241317749,0.49799394607543945
1747993821274208800,8.634208740234374,4.668693542480469,2.6024973392486572,0.524330198764801
1747993821290078000,8.650077880859374,4.367023944854736,1.821987509727478,0.6200982332229614
1747993821305855500,8.66585546875,4.1611223220825195,1.0630255937576294,0.5147533416748047
1747993821321602600,8.6816025390625,4.185064792633057,0.4189853072166443,0.4620809257030487
1747993821337441300,8.697441162109374,4.616020679473877,-0.26336219906806946,0.47405192255973816
1747993821353188400,8.713188232421874,5.324704647064209,-0.7254431247711182,0.6512228846549988
1747993821368966000,8.7289658203125,5.736507415771484,-0.9217676520347595,1.1252747774124146
1747993821384774000,8.74477392578125,5.693411827087402,-0.7781155705451965,1.015141487121582
1747993821400612600,8.760612548828124,4.845864295959473,-0.3974374830722809,0.9074024558067322
1747993821416451300,8.776451416015625,5.12119722366333,0.304063618183136,0.13407529890537262
1747993821432259300,8.79225927734375,7.000645637512207,1.599326729774475,-2.0183119773864746
1747993821448098000,8.80809814453125,11.058817863464355,4.072536945343018,-4.857835292816162
1747993821463906000,8.823906005859374,16.23029327392578,5.353435039520264,-4.5154643058776855
1747993821479683600,8.83968359375,19.472042083740234,4.434061527252197,0.21308395266532898
1747993821495491800,8.855491943359375,20.750545501708984,4.240131378173828,5.657498836517334
1747993821511361000,8.871361083984375,19.673154830932617,3.2848446369171143,10.752359390258789
1747993821527138600,8.887138671875,18.363527297973633,3.1866824626922607,15.488090515136719
1747993821543007700,8.9030078125,17.152061462402344,3.8307228088378906,18.574216842651367
1747993821558785300,8.918785400390625,14.13057804107666,4.37420654296875,17.08262825012207
1747993821574562800,8.934562744140624,10.737994194030762,4.790797710418701,12.648567199707031
1747993821590401500,8.950401611328125,8.678980827331543,4.788403511047363,8.935160636901855
1747993821606179000,8.966178955078124,7.675810813903809,4.654327869415283,6.828263282775879
1747993821622017500,8.982017578125,6.406883716583252,4.6255974769592285,5.602431774139404
1747993821637856300,8.997856201171874,5.616796970367432,4.216189384460449,5.207388877868652
1747993821653633800,9.0136337890625,4.402936935424805,3.778050184249878,4.474762916564941
1747993821669442000,9.029442138671875,3.093308687210083,3.3303346633911133,3.5625722408294678
1747993821685311200,9.045311279296875,2.073378562927246,3.0382418632507324,2.9951462745666504
1747993821701088800,9.0610888671875,0.9983820915222168,2.913743495941162,2.940079689025879
1747993821716896800,9.076896728515624,0.1364694982767105,2.8850131034851074,2.875436305999756
1747993821732705000,9.092705078125,-0.3734954595565796,2.875436305999756,2.7748796939849854
1747993821748452000,9.1084521484375,-0.1388636976480484,2.827552318572998,2.9544448852539062
1747993821764229600,9.124229736328125,1.0342950820922852,2.674323320388794,3.469198226928711
1747993821780037600,9.14003759765625,2.5091233253479004,2.674323320388794,3.7277719974517822
1747993821795876400,9.15587646484375,3.8355112075805664,2.585737943649292,3.8067808151245117
1747993821811684400,9.171684326171874,5.731719017028809,2.6001031398773193,4.352658748626709
1747993821827492600,9.18749267578125,8.44195556640625,3.2632968425750732,5.0469770431518555
1747993821843331000,9.2033310546875,10.04846477508545,4.5609540939331055,4.726154327392578
1747993821859139300,9.219139404296875,9.624691009521484,6.282385349273682,3.6296098232269287
1747993821882943000,9.24294287109375,9.030928611755371,8.561665534973145,3.251325845718384
1747993821898720500,9.258720458984374,10.266336441040039,9.526528358459473,5.585672378540039
1747993821914498000,9.274498046875,10.737994194030762,9.622296333312988,8.513781547546387
1747993821930306300,9.290306396484375,11.298237800598145,8.848969459533691,10.879252433776855
1747993821946083800,9.306083740234374,12.294225692749023,7.769184589385986,11.501745223999023
1747993821961861400,9.321861328125,12.543222427368164,6.572083473205566,9.299078941345215
1747993821977639000,9.337638916015624,11.578359603881836,5.750872611999512,5.245696067810059
1747993821993416700,9.353416748046875,10.189722061157227,5.34625244140625,1.8124107122421265
1747993822009224700,9.369224609375,8.844181060791016,5.056553840637207,0.13168109953403473
1747993822025002200,9.385002197265624,7.46033239364624,4.649539470672607,0.16519992053508759
1747993822040749300,9.400749267578124,6.900089263916016,4.285621166229248,0.42377370595932007
1747993822056557600,9.4165576171875,6.979097843170166,3.711012601852417,0.7924807667732239
1747993822072365600,9.432365478515624,6.718130111694336,3.205836057662964,0.849941611289978
1747993822088234800,9.44823486328125,6.179434776306152,2.892195701599121,0.7015010714530945
1747993822104012300,9.46401220703125,5.738901615142822,2.5330653190612793,0.9097966551780701
1747993822119789800,9.479789794921874,5.504269599914551,2.2026655673980713,1.2425906658172607
1747993822135628500,9.495628662109375,5.0254292488098145,1.8842366933822632,1.900996208190918
1747993822151436500,9.5114365234375,4.292803764343262,1.8507179021835327,2.389413356781006
1747993822167305700,9.5273056640625,3.445256233215332,1.9728221893310547,2.032677173614502
1747993822183113700,9.54311376953125,3.3662476539611816,1.9273324012756348,1.5969325304031372
1747993822198922000,9.558921875,4.565742492675781,2.0901381969451904,0.871489405632019
1747993822214730000,9.57472998046875,6.167463779449463,2.456450939178467,0.12689268589019775
1747993822230507800,9.5905078125,7.608773231506348,2.875436305999756,-0.10055647045373917
1747993822246315800,9.606315673828124,8.695740699768066,3.883395195007324,0.19153612852096558
1747993822262093300,9.62209326171875,9.153033256530762,5.281609058380127,0.8810662031173706
1747993822277962500,9.63796240234375,9.715670585632324,5.87776517868042,2.4803929328918457
1747993822293740000,9.653739990234374,11.341333389282227,6.3063273429870605,3.6367924213409424
1747993822309548300,9.66954833984375,13.261483192443848,6.861782073974609,5.961562156677246
1747993822325325800,9.685325927734375,14.913482666015625,7.0988078117370605,8.662221908569336
1747993822341133800,9.7011337890625,15.76581859588623,6.584054470062256,10.407594680786133
1747993822356942000,9.716942138671875,15.928624153137207,5.937620162963867,10.553641319274902
1747993822372780500,9.732780517578124,14.81771469116211,5.449203014373779,9.133879661560059
1747993822388649700,9.748649658203124,13.204022407531738,4.9799394607543945,7.637503623962402
1747993822404457700,9.764457763671874,11.726799964904785,4.527435302734375,6.512228488922119
1747993822420296400,9.78029638671875,10.558429718017578,3.8546648025512695,5.535394191741943
1747993822436104700,9.796104736328125,9.030928611755371,3.1938650608062744,4.290409564971924
1747993822451882200,9.81188232421875,7.146692276000977,2.6001031398773193,3.6152446269989014
1747993822467690200,9.827690185546874,5.2049946784973145,2.298433542251587,3.1866824626922607
1747993822483467800,9.8434677734375,3.464409828186035,2.0877439975738525,3.0789434909820557
1747993822499245600,9.85924560546875,2.410961151123047,1.8124107122421265,3.090914487838745
1747993822515053600,9.875053466796874,2.073378562927246,1.4652514457702637,3.28963303565979
1747993822530831000,9.8908310546875,2.346317768096924,1.1994950771331787,3.6607344150543213
1747993822546669800,9.906669921875,3.1890766620635986,0.849941611289978,4.788403511047363
1747993822562477800,9.922477783203124,3.4189200401306152,0.9528923034667969,4.891354084014893
1747993822578286000,9.9382861328125,2.6575639247894287,1.41257905960083,4.031835556030273
1747993822594063600,9.954063720703125,2.229001760482788,1.6184803247451782,3.265691041946411
1747993822609871600,9.96987158203125,3.4620156288146973,1.9536685943603516,3.066972494125366
1747993822625649200,9.985649169921874,5.724536418914795,2.5546131134033203,3.9911341667175293
1747993822641427000,10.001427001953125,9.531316757202148,3.332728862762451,5.240907669067383
1747993822657265400,10.017265380859374,13.809755325317383,4.616020679473877,7.24485445022583
1747993822673073700,10.03307373046875,14.923059463500977,6.01423454284668,9.155426979064941
1747993822688820700,10.04882080078125,14.396334648132324,6.761225700378418,10.244789123535156
1747993822704628700,10.064628662109374,14.125789642333984,7.137115478515625,9.720458984375
1747993822720406300,10.08040625,13.417106628417969,7.534552574157715,8.494627952575684
1747993822736183800,10.096183837890624,12.284648895263672,7.8745293617248535,7.8745293617248535
1747993822752022500,10.1120224609375,11.650185585021973,7.589619159698486,7.812280178070068
1747993822767830500,10.12783056640625,11.221623420715332,6.543353080749512,7.445967197418213
1747993822783669200,10.143669189453124,10.407594680786133,5.731719017028809,6.63433313369751
1747993822799477500,10.1594775390625,8.650250434875488,5.39174222946167,5.12119722366333
1747993822815316000,10.17531591796875,6.464344501495361,5.430049419403076,3.5266590118408203
1747993822831154700,10.19115478515625,4.474762916564941,5.295974254608154,2.449268341064453
1747993822846962700,10.206962646484374,3.399766445159912,5.073313236236572,1.680729627609253
1747993822862771000,10.22277099609375,2.9041666984558105,4.7620673179626465,1.4867992401123047
1747993822878609400,10.238609375,2.964021682739258,4.211400985717773,1.6855180263519287
1747993822894448000,10.2544482421875,3.265691041946411,3.8139634132385254,2.1068975925445557
1747993822910286600,10.27028662109375,2.9975404739379883,3.426102638244629,2.6360161304473877
1747993822926064400,10.286064453125,2.341529369354248,3.313575267791748,2.4205379486083984
1747993822941842000,10.301842041015625,1.9033904075622559,3.1076738834381104,1.922544002532959
1747993822957711000,10.317711181640625,2.846705913543701,2.540247917175293,2.3558945655822754
1747993822973519000,10.33351904296875,5.212177276611328,2.9544448852539062,2.274491548538208
1747993822989357800,10.34935791015625,7.187393665313721,3.028665065765381,2.255337953567505
1747993823005105000,10.36510498046875,7.228095054626465,2.564189910888672,3.5649664402008057
1747993823020882400,10.38088232421875,8.719682693481445,2.7317841053009033,4.876988887786865
1747993823036721200,10.39672119140625,9.859322547912598,4.611232280731201,3.378218650817871
1747993823060402700,10.420402587890624,7.362170219421387,6.071695327758789,4.242525577545166
1747993823076210700,10.436210693359374,8.96149730682373,7.841010570526123,3.5027170181274414
1747993823091988500,10.451988525390625,10.548852920532227,8.518569946289062,2.4875755310058594
1747993823107735600,10.467735595703125,13.249512672424316,8.169015884399414,2.3080103397369385
1747993823123513000,10.48351318359375,15.662867546081543,7.46033239364624,4.5394062995910645
1747993823139290600,10.49929052734375,16.364368438720703,6.593631267547607,7.577648162841797
1747993823155098600,10.5150986328125,15.186421394348145,6.0621185302734375,9.603142738342285
1747993823170876400,10.53087646484375,12.777854919433594,5.403713226318359,11.037269592285156
1747993823186715000,10.54671484375,10.714052200317383,5.008669853210449,10.649409294128418
1747993823202462000,10.5624619140625,8.83939266204834,4.7189717292785645,7.936778545379639
1747993823218239500,10.578239501953124,6.742072105407715,4.311957359313965,6.2847795486450195
1747993823234047700,10.5940478515625,4.201824188232422,4.120420932769775,5.595249176025391
1747993823249855700,10.609855712890624,2.983175277709961,4.015076160430908,5.803544998168945
1747993823265664000,10.6256640625,3.643975019454956,3.40216064453125,5.9735331535339355
1747993823281441500,10.641441650390625,5.3582234382629395,2.650381326675415,5.793968200683594
1747993823297219000,10.657218994140624,7.038952827453613,2.2912509441375732,4.910507678985596
1747993823313027000,10.673027099609374,8.01339340209961,1.843535304069519,3.8953661918640137
1747993823328804900,10.688804931640625,8.554482460021973,1.6903064250946045,3.1292216777801514
1747993823344582400,10.70458251953125,8.650250434875488,1.647210717201233,2.779668092727661
1747993823360390400,10.720390380859374,8.157045364379883,1.5275006294250488,3.203441858291626
1747993823376229000,10.73622900390625,6.88332986831665,1.644816517829895,3.627215623855591
1747993823392067600,10.752067626953124,5.559336185455322,1.6352397203445435,4.010287761688232
1747993823407875800,10.767875732421874,5.8873419761657715,1.8124107122421265,3.272873640060425
1747993823423714600,10.783714599609375,7.376535415649414,1.53707754611969,3.203441858291626
1747993823439553000,10.799552978515624,8.51138687133789,1.7549498081207275,3.490746021270752
1747993823455391700,10.815391845703125,9.069235801696777,2.760514497756958,4.326322555541992
1747993823471138800,10.831138916015625,10.105925559997559,3.885789394378662,4.793191909790039
1747993823486946800,10.84694677734375,11.245565414428711,5.604825973510742,3.375824451446533
1747993823502785500,10.86278564453125,11.791443824768066,7.194576263427734,0.7493851184844971
1747993823518593500,10.878593505859374,10.979808807373047,7.994239330291748,-0.4572925269603729
1747993823534432300,10.894432373046875,10.091560363769531,8.643068313598633,-0.047884032130241394
1747993823550240300,10.910240234375,10.582371711730957,7.659051418304443,1.3910311460494995
1747993823566109400,10.926109375,11.319786071777344,6.133944988250732,2.456450939178467
1747993823581887000,10.941886962890624,10.915165901184082,4.987122058868408,1.9057846069335938
1747993823597695200,10.9576953125,9.167398452758789,4.522646903991699,-0.7709329724311829
1747993823613533700,10.97353369140625,6.71334171295166,4.4723687171936035,-3.3063924312591553
1747993823629342000,10.989342041015625,4.357447147369385,4.381389141082764,-4.7405195236206055
1747993823645180400,11.005180419921874,2.8203697204589844,4.1395745277404785,-4.8937482833862305
1747993823660988700,11.02098876953125,2.6408045291900635,3.7253777980804443,-3.754108190536499
1747993823676827100,11.0368271484375,3.4356794357299805,3.464409828186035,-2.145204782485962
1747993823692635400,11.052635498046875,3.7924153804779053,2.7269957065582275,-1.0534487962722778
1747993823708413000,11.068412841796874,3.1747114658355713,1.9297266006469727,-0.31364041566848755
1747993823724282000,11.0842822265625,2.3247697353363037,1.4628572463989258,0.05506663769483566
1747993823740059600,11.1000595703125,1.5490485429763794,1.072602391242981,0.3687070608139038
1747993823755928800,11.1159287109375,1.6041151285171509,0.8547300100326538,0.7757213711738586
1747993823771889400,11.131889404296874,1.9943699836730957,0.7661445140838623,1.2617442607879639
1747993823787758600,11.147758544921874,2.319981336593628,0.9840168952941895,1.2976573705673218
1747993823803566800,11.16356689453125,2.559401512145996,1.5298948287963867,0.9696516990661621
1747993823819344400,11.179344482421875,3.49314022064209,2.1763293743133545,1.338358759880066
1747993823835152400,11.19515234375,5.69580602645874,2.956839084625244,2.829946517944336
1747993823850991000,11.2109912109375,8.975862503051758,4.347870349884033,4.182670593261719
1747993823866799000,11.226799072265624,12.143390655517578,6.1267619132995605,3.464409828186035
1747993823882607400,11.242607421875,14.686033248901367,8.252813339233398,2.2457611560821533
1747993823898415400,11.258415283203124,16.6420955657959,10.02691650390625,2.741360902786255
1747993823922066400,11.28206640625,18.96686553955078,10.491392135620117,7.570465564727783
1747993823937905200,11.2979052734375,20.22861099243164,10.491392135620117,9.758766174316406
1747993823953743600,11.31374365234375,19.98440170288086,9.315838813781738,11.468226432800293
1747993823969612800,11.32961279296875,18.028339385986328,8.520963668823242,11.530475616455078
1747993823985421000,11.345421142578125,13.931859970092773,7.884106159210205,9.744400978088379
1747993824001198600,11.361198486328124,9.816226959228516,7.565677165985107,7.005434036254883
1747993824016976100,11.37697607421875,7.249642848968506,7.247248649597168,4.697423934936523
1747993824032784400,11.392784423828125,6.179434776306152,6.246472358703613,3.689464807510376
1747993824048592400,11.40859228515625,6.4834980964660645,5.185841083526611,3.287238836288452
1747993824064400400,11.424400390625,6.14831018447876,4.14915132522583,3.0789434909820557
1747993824080178200,11.44017822265625,5.128379821777344,3.2537200450897217,2.806004285812378
1747993824095925200,11.45592529296875,3.818751811981201,2.607285737991333,2.5330653190612793
1747993824111733200,11.471733154296874,2.7054479122161865,2.0877439975738525,2.2170307636260986
1747993824127541200,11.487541259765624,2.2002713680267334,1.6184803247451782,2.2194249629974365
1747993824143349500,11.503349609375,3.6296098232269287,0.8762778043746948,3.40216064453125
1747993824159127000,11.519126953125,3.533841609954834,1.9129672050476074,2.9161376953125
1747993824174965800,11.5349658203125,3.3901896476745605,0.9864110946655273,5.003881454467773
1747993824190712800,11.550712890625,3.869029998779297,1.2114660739898682,4.757278919219971
1747993824206520800,11.566520751953124,3.4141316413879395,1.4053963422775269,4.335899353027344
1747993824222390000,11.58239013671875,2.365471363067627,1.5107412338256836,4.565742492675781
1747993824246102000,11.60610205078125,2.2146365642547607,2.58813214302063,3.0095114707946777
1747993824261910300,11.62191015625,3.1890766620635986,3.7038300037384033,1.7310078144073486
1747993824277748700,11.637748779296874,7.110779285430908,4.702212333679199,2.4684219360351562
1747993824293526500,11.653526611328125,11.987768173217773,6.54574728012085,3.883395195007324
1747993824309365000,11.669364990234374,14.994885444641113,7.970297336578369,6.962338447570801
1747993824325203700,11.68520361328125,16.235082626342773,8.765172004699707,10.04846477508545
1747993824341011700,11.70101171875,16.548721313476562,9.59596061706543,11.331756591796875
1747993824356850400,11.716850341796874,15.294160842895508,10.158597946166992,10.007762908935547
1747993824372628000,11.7326279296875,12.126631736755371,10.256759643554688,7.711723804473877
1747993824388466700,11.748466796875,10.812214851379395,9.873687744140625,6.682217121124268
1747993824404274700,11.764274658203124,10.939107894897461,8.96389102935791,6.04775333404541
1747993824420083000,11.7800830078125,10.706870079040527,7.704541206359863,5.202600479125977
1747993824435951900,11.795951904296874,9.658209800720215,6.646304130554199,3.974374771118164
1747993824451790600,11.81179052734375,7.982268333435059,5.822698593139648,2.7533318996429443
1747993824467598600,11.8275986328125,6.3733649253845215,5.082890033721924,1.7764976024627686
1747993824483376400,11.84337646484375,4.946420669555664,4.345476150512695,1.0893617868423462
1747993824499154000,11.85915380859375,3.557783842086792,3.691859006881714,0.7661445140838623
1747993824514992600,11.87499267578125,2.497152328491211,3.071760892868042,0.7469909191131592
1747993824530800600,11.890800537109374,1.778891921043396,2.4612393379211426,1.0989385843276978
1747993824546578200,11.906578125,1.3335703611373901,1.968033790588379,1.3120225667953491
1747993824562355700,11.922355712890624,1.0031704902648926,1.6927006244659424,1.2713210582733154
1747993824578438700,11.938438720703125,0.8667010068893433,1.5131354331970215,1.2880805730819702
1747993824594277000,11.954277099609374,0.790086567401886,1.434126853942871,1.5466543436050415
1747993824610146300,11.970146240234374,0.8595184087753296,1.4891934394836426,2.166752576828003
1747993824626015500,11.986015380859374,1.0295066833496094,1.6950948238372803,2.808398485183716
1747993824641793000,12.00179296875,1.6424223184585571,2.070984363555908,2.9448680877685547
1747993824657601300,12.017601318359375,2.956839084625244,2.832340717315674,2.851494312286377
1747993824673470200,12.03347021484375,4.654327869415283,3.885789394378662,3.60566782951355
1747993824689339400,12.04933935546875,7.108384609222412,5.152322292327881,5.590460777282715
1747993824705117000,12.065116943359374,10.654197692871094,6.665457725524902,7.615955829620361
1747993824720925200,12.08092529296875,13.060370445251465,8.061277389526367,7.740454196929932
1747993824736763600,12.096763671875,13.235146522521973,8.992621421813965,8.949525833129883
1747993824752541400,12.11254150390625,12.435483932495117,10.347740173339844,9.919178009033203
1747993824768288500,12.12828857421875,12.164938926696777,10.896012306213379,11.279084205627441
1747993824784096500,12.144096435546874,12.866439819335938,11.348516464233398,14.563928604125977
1747993824799874000,12.1598740234375,12.928689002990723,11.403582572937012,17.300500869750977
1747993824815712800,12.175712646484374,10.898406028747559,10.931924819946289,16.58463478088379
1747993824831490300,12.191490234375,8.796297073364258,10.287884712219238,13.93664836883545
1747993824847267800,12.207267822265624,7.515398979187012,9.246406555175781,11.111490249633789
1747993824863106600,12.2231064453125,7.271190643310547,7.967903137207031,8.62391471862793
1747993824878914600,12.23891455078125,7.527369976043701,6.651092529296875,7.316680431365967
1747993824894722800,12.254722900390625,7.486668586730957,5.5329999923706055,6.497863292694092
1747993824910530800,12.27053076171875,6.687005519866943,4.747702121734619,5.564124584197998
1747993824926339000,12.286339111328125,5.39174222946167,3.9839515686035156,4.5394062995910645
1747993824950081500,12.31008154296875,3.7636849880218506,2.7988216876983643,3.222595453262329
1747993824965889800,12.325889892578125,3.88818359375,2.1308395862579346,3.00711727142334
1747993824981759000,12.341759033203125,3.869029998779297,1.53707754611969,3.117250680923462
1747993824997567000,12.35756689453125,3.56017804145813,0.9624691009521484,3.5242648124694824
1747993825013405700,12.37340576171875,3.2369606494903564,0.5315127968788147,3.4596214294433594
1747993825029244200,12.389244140625,2.0398597717285156,0.16998831927776337,2.2912509441375732
1747993825045052400,12.405052490234375,0.24420857429504395,-0.2298433631658554,1.53707754611969
1747993825060952000,12.4209521484375,-1.4437036514282227,-0.2346317619085312,0.7015010714530945
1747993825076851700,12.436851806640625,-2.1068975925445557,0.2849099934101105,0.4692635238170624
1747993825092659700,12.45265966796875,-2.212242364883423,1.53707754611969,0.9002198576927185
1747993825108437200,12.468437255859374,-1.8291701078414917,3.043030261993408,2.1068975925445557
1747993825124215000,12.484215087890625,0.4357447028160095,5.0014872550964355,3.1866824626922607
1747993825140053500,12.500053466796874,2.9735984802246094,8.394071578979492,1.2425906658172607
1747993825155861800,12.51586181640625,4.072536945343018,10.812214851379395,-0.2849099934101105
1747993825171700200,12.5317001953125,5.451597213745117,12.751518249511719,0.10773907601833344
1747993825187447300,12.547447265625,6.588842868804932,15.272612571716309,2.6671407222747803
1747993825203347000,12.563346923828124,9.437943458557129,14.755465507507324,8.56884765625
1747993825219155200,12.5791552734375,13.764266014099121,13.110648155212402,15.866374969482422
1747993825234993700,12.59499365234375,15.375563621520996,11.101913452148438,17.86313819885254
1747993825250802000,12.610802001953125,13.87918758392334,9.10993766784668,14.092270851135254
1747993825266579500,12.626579345703124,10.78348445892334,8.846575736999512,7.161057472229004
1747993825282418200,12.642418212890625,8.147468566894531,7.922413349151611,1.723825216293335
1747993825298226200,12.65822607421875,7.709329605102539,7.060500621795654,-0.42377370595932007
1747993825314065000,12.67406494140625,7.510610580444336,6.3973069190979,-0.751779317855835
1747993825329933800,12.689933837890624,7.240066051483154,5.485116004943848,0.5410895943641663
1747993825345742000,12.7057421875,6.385335922241211,4.797980308532715,1.2449848651885986
1747993825361489200,12.7214892578125,4.489128112792969,4.050989151000977,1.1348515748977661
1747993825377297200,12.737297119140624,2.4133553504943848,3.318363666534424,0.5434837937355042
1747993825393105400,12.75310546875,0.6033388376235962,2.9305028915405273,0.12449848651885986
1747993825408943900,12.76894384765625,-0.5602431893348694,2.5067291259765625,0.727837324142456
1747993825424721400,12.784721435546874,-0.5099649429321289,2.0614075660705566,1.965639591217041
1747993825440499200,12.800499267578125,-0.33758243918418884,1.7381904125213623,2.126051187515259
1747993825456337700,12.816337646484374,-0.9600749015808105,1.534683346748352,1.1899182796478271
1747993825472298500,12.832298583984375,-0.9744400978088379,1.5705963373184204,0.7445967197418213
1747993825488106500,12.8481064453125,-0.8212111592292786,2.1116859912872314,0.5363011956214905
1747993825503975700,12.8639755859375,0.8762778043746948,2.604891538619995,1.4844050407409668
1747993825519783700,12.87978369140625,4.273650169372559,3.957615375518799,2.2170307636260986
1747993825535652900,12.89565283203125,7.826645374298096,5.7556610107421875,3.4955344200134277
1747993825551491600,12.91149169921875,9.193734169006348,7.3669586181640625,5.1810526847839355
1747993825567330000,12.927330078125,10.043676376342773,9.148244857788086,5.078101634979248
1747993825583077000,12.9430771484375,12.876016616821289,10.524910926818848,3.095702886581421
1747993825598885400,12.958885498046875,16.302120208740234,12.030863761901855,3.1483752727508545
1747993825614663000,12.974662841796874,19.464859008789062,12.306197166442871,9.66299819946289
1747993825646248700,13.006248779296875,20.005949020385742,11.08754825592041,22.18706703186035
1747993825662026200,13.022026123046874,14.355633735656738,10.508151054382324,18.796876907348633
1747993825677834200,13.037834228515624,8.35336971282959,10.445901870727539,12.9741792678833
1747993825693611800,13.05361181640625,6.066906929016113,8.942343711853027,8.856152534484863
1747993825709450500,13.069450439453124,7.266402244567871,7.311892032623291,6.31829833984375
1747993825725258800,13.0852587890625,8.552088737487793,5.813121795654297,4.812345504760742
1747993825741036300,13.101036376953125,8.322244644165039,4.786009311676025,3.2776620388031006
1747993825756813800,13.116813720703124,6.955155849456787,4.134786128997803,2.4013843536376953
1747993825772652500,13.132652587890625,5.736507415771484,3.471592426300049,1.8315643072128296
1747993825788460500,13.14846044921875,4.570530891418457,2.9257144927978516,1.5131354331970215
1747993825804329700,13.164329833984375,3.751713991165161,2.296039342880249,1.764526605606079
1747993825820137700,13.1801376953125,2.7988216876983643,1.8315643072128296,1.8698714971542358
1747993825835915300,13.195915283203124,2.145204782485962,1.4245500564575195,1.889025092124939
1747993825851754000,13.21175390625,1.6280571222305298,1.0989385843276978,1.8124107122421265
1747993825867623200,13.227623046875,1.1899182796478271,0.7206547260284424,1.721431016921997
1747993825883583700,13.243583740234374,0.4692635238170624,0.6727706789970398,1.436521053314209
1747993825899514000,13.25951416015625,-0.3519476354122162,0.8619126081466675,1.290474772453308
1747993825915352600,13.2753525390625,-0.12689268589019775,1.414973258972168,1.7118542194366455
1747993825931130000,13.291130126953124,0.6823474764823914,2.2361843585968018,3.026270866394043
1747993825946968800,13.30696875,2.0422539710998535,3.093308687210083,4.7405195236206055
1747993825962776800,13.32277685546875,4.467580318450928,4.479551315307617,5.257667064666748
1747993825978615600,13.338615478515624,6.485892295837402,6.543353080749512,3.576937437057495
1747993825994362600,13.354362548828124,7.886500358581543,8.621520042419434,0.4884171485900879
1747993826010109700,13.370109619140624,8.884882926940918,10.180145263671875,0.5770025849342346
1747993826025917700,13.385917724609374,9.066842079162598,13.019668579101562,2.1332337856292725
1747993826041695500,13.401695556640625,9.706093788146973,13.886369705200195,7.134721279144287
1747993826057473000,13.41747314453125,14.176068305969238,12.591106414794922,13.046005249023438
1747993826073311500,13.4333115234375,16.211139678955078,10.778696060180664,16.850391387939453
1747993826089119700,13.44911962890625,14.695610046386719,8.935160636901855,15.583858489990234
1747993826104927700,13.464927734375,11.142614364624023,8.13789176940918,9.354146003723145
1747993826120705300,13.480705322265624,6.528987884521484,7.548917770385742,2.87064790725708
1747993826136483000,13.496483154296875,4.153939723968506,6.53377628326416,-0.21547815203666687
1747993826152321500,13.512321533203124,4.031835556030273,5.901707172393799,-0.9888052940368652
1747993826168099300,13.528099365234375,4.649539470672607,5.327098846435547,-0.9696516990661621
1747993826183907300,13.5439072265625,4.6471452713012695,4.675876140594482,-0.7158663272857666
1747993826199715300,13.55971533203125,3.1292216777801514,4.19224739074707,-0.7326257228851318
1747993826215462400,13.57546240234375,1.314416766166687,3.3662476539611816,0.07182604819536209
1747993826231270700,13.591270751953125,0.7350199222564697,3.066972494125366,0.15083470940589905
1747993826247109000,13.607109130859374,1.1061211824417114,2.4827871322631836,0.751779317855835
1747993826262917400,13.62291748046875,1.4413094520568848,1.922544002532959,0.7996633648872375
1747993826278817000,13.638817138671875,1.525106430053711,1.259350061416626,1.015141487121582
1747993826294686200,13.654686279296875,1.6400281190872192,0.7469909191131592,1.3000515699386597
1747993826310646800,13.670646728515624,1.7860745191574097,0.4836287498474121,0.7924807667732239
1747993826326546400,13.68654638671875,2.296039342880249,-0.05746084079146385,1.1061211824417114
1747993826342354700,13.702354736328125,3.287238836288452,-0.05027823522686958,1.1540051698684692
1747993826358132200,13.71813232421875,4.627991676330566,0.6847416758537292,0.15322890877723694
1747993826373909800,13.73390966796875,4.426878929138184,2.032677173614502,-0.3758896589279175
1747993826389717800,13.7497177734375,2.8802247047424316,4.800374507904053,-1.8483237028121948
1747993826405526000,13.765526123046875,1.0127472877502441,8.978256225585938,-3.6176388263702393
1747993826421334000,13.781333984375,7.546523571014404,10.02452278137207,-0.5985504388809204
1747993826437172700,13.7971728515625,25.476699829101562,10.66137981414795,9.028534889221191
1747993826452980700,13.812980712890624,36.37750244140625,9.59596061706543,22.52704429626465
1747993826468789000,13.8287890625,35.35996627807617,8.978256225585938,32.54677963256836
1747993826484627500,13.84462744140625,23.39613914489746,10.445901870727539,32.393550872802734
1747993826500466200,13.860466064453124,13.558363914489746,11.099518775939941,25.380931854248047
1747993826516305000,13.876304931640625,12.157755851745605,9.481039047241211,17.712305068969727
1747993826532113000,13.89211279296875,12.255918502807617,6.962338447570801,11.068394660949707
1747993826547921000,13.9079208984375,11.046846389770508,4.797980308532715,5.738901615142822
1747993826563759600,13.923759521484374,9.129091262817383,3.3303346633911133,2.7293899059295654
1747993826579598300,13.939598388671875,6.677428722381592,2.4636335372924805,1.0797849893569946
1747993826595406300,13.95540625,4.367023944854736,1.7166426181793213,0.28730419278144836
1747993826611214300,13.97121435546875,2.626439332962036,1.2258312702178955,0.2346317619085312
1747993826626992000,13.9869921875,1.4460978507995605,0.8020575642585754,0.5027823448181152
1747993826642983200,14.002983154296874,0.6607996821403503,0.2968810200691223,1.0797849893569946
1747993826658822000,14.01882177734375,-0.15322890877723694,-0.14604631066322327,1.4963760375976562
1747993826674813200,14.034813232421875,-0.7733271718025208,-0.4692635238170624,1.5945383310317993
1747993826690773800,14.050773681640624,-1.7836803197860718,-0.5674257874488831,1.1420341730117798
1747993826706612500,14.066612548828125,-2.540247917175293,-0.8906430602073669,0.7254431247711182
1747993826722359600,14.082359619140625,-3.3470940589904785,-1.0007762908935547,0.014365210197865963
1747993826738167600,14.09816748046875,-3.5434184074401855,-1.05105459690094,-0.5602431893348694
1747993826753975600,14.1139755859375,-3.1962592601776123,-0.9481038451194763,-0.8882488012313843
1747993826769783800,14.12978369140625,-3.1890766620635986,-0.6105214357376099,-1.86508309841156
1747993826785561300,14.145561279296874,-4.230554580688477,-0.019153613597154617,-3.0550012588500977
1747993826801400000,14.161400146484375,-5.882553577423096,1.3215993642807007,-5.525817394256592
1747993826817147100,14.177147216796875,-7.647080421447754,4.072536945343018,-7.68538761138916
1747993826832924700,14.192924560546874,-2.3343467712402344,6.584054470062256,-3.4093432426452637
1747993826848793900,14.2087939453125,8.887276649475098,9.23682975769043,9.35893440246582
1747993826864663000,14.2246630859375,18.808849334716797,12.042834281921387,25.268404006958008
1747993826880440600,14.240440673828125,22.888568878173828,14.109030723571777,35.79810333251953
1747993826896218000,14.256218017578124,22.282835006713867,15.670049667358398,36.736629486083984
1747993826912026000,14.272026123046874,19.141643524169922,14.666879653930664,29.53726577758789
1747993826927834400,14.28783447265625,16.77617073059082,12.646173477172852,18.499996185302734
1747993826943612000,14.30361181640625,14.279019355773926,10.390835762023926,9.57201862335205
1747993826959420000,14.319419921875,10.953473091125488,8.458714485168457,4.817133903503418
1747993826998940200,14.358940185546874,5.252878665924072,5.681440830230713,1.800439715385437
1747993827014748400,14.37474853515625,3.404554843902588,5.224148273468018,1.072602391242981
1747993827030556400,14.390556396484374,1.7717092037200928,4.532223701477051,0.4118026793003082
1747993827046395100,14.40639501953125,0.6392518281936646,3.8379054069519043,0.07900865375995636
1747993827062203100,14.422203125,-0.07661445438861847,3.2968156337738037,0.2513911724090576
1747993827077980700,14.437980712890624,-1.0989385843276978,3.2178070545196533,-0.3495534360408783
1747993827093789000,14.453788818359374,-2.0039467811584473,2.8347349166870117,-0.3734954595565796
1747993827109597000,14.469596923828124,-2.8227639198303223,2.5761611461639404,-0.5793967843055725
1747993827125435600,14.485435546875,-2.937685489654541,1.8387469053268433,-0.11252748221158981
1747993827141304800,14.501304931640625,-1.9345149993896484,1.7118542194366455,0.24420857429504395
1747993827157082400,14.517082275390624,-1.1827356815338135,1.7046716213226318,1.0821791887283325
1747993827172860000,14.53285986328125,-1.0127472877502441,2.3582887649536133,0.45250412821769714
1747993827188729000,14.54872900390625,-1.3862427473068237,2.7461493015289307,0.3232172429561615
1747993827204537000,14.564537109375,0.5051765441894531,3.8379054069519043,1.4724340438842773
1747993827220375800,14.580375732421874,5.6670756340026855,5.765237808227539,2.4013843536376953
1747993827236214500,14.596214599609375,11.487380027770996,8.485051155090332,1.4197616577148438
1747993827251961600,14.611961669921875,17.13290786743164,10.948684692382812,-0.38307225704193115
1747993827267739100,14.6277392578125,21.552602767944336,10.979808807373047,0.45489832758903503
1747993827283608300,14.6436083984375,26.652254104614258,12.009315490722656,8.034940719604492
1747993827299385900,14.6593857421875,29.460651397705078,12.258312225341797,21.495141983032227
1747993827315133000,14.6751328125,26.072856903076172,11.662156105041504,29.750350952148438
1747993827330910500,14.690910400390624,15.974113464355469,9.837775230407715,26.204538345336914
1747993827346718500,14.706718505859374,6.430825710296631,9.531316757202148,14.970943450927734
1747993827362496300,14.722496337890625,2.8131868839263916,7.762001991271973,8.04930591583252
1747993827378304300,14.73830419921875,3.464409828186035,5.837063789367676,4.687847137451172
1747993827394051300,14.75405126953125,5.87776517868042,3.9432501792907715,3.201047658920288
1747993827409920500,14.76992041015625,7.38132381439209,2.2170307636260986,1.6974890232086182
1747993827425759200,14.78575927734375,6.722918510437012,1.0893617868423462,-0.09576806426048279
1747993827441536800,14.801536865234375,5.013458251953125,0.49559974670410156,-0.9026140570640564
1747993827457314300,14.817314208984374,2.9472622871398926,0.17956513166427612,-1.161187767982483
1747993827473091800,14.833091796875,1.5490485429763794,-0.22744916379451752,-0.7613561153411865
1747993827489083100,14.849083251953125,0.4668693244457245,-0.3758896589279175,0.40940847992897034
1747993827504891100,14.86489111328125,-0.2298433631658554,-0.3663128614425659,1.3886369466781616
1747993827520729900,14.880729736328124,-0.3711012601852417,-0.26336219906806946,1.8507179021835327
1747993827536507400,14.89650732421875,-0.11013327538967133,-0.33997663855552673,3.047818660736084
1747993827552285000,14.912284912109374,-0.6105214357376099,-0.33279404044151306,3.3854012489318848
1747993827568062500,14.9280625,-1.7477672100067139,-0.35673606395721436,2.6671407222747803
1747993827583809500,14.9438095703125,-3.4572272300720215,-0.29209262132644653,2.1164743900299072
1747993827599617800,14.95961767578125,-4.627991676330566,-0.12928688526153564,1.1755530834197998
1747993827615395300,14.975395263671874,-5.295974254608154,0.13407529890537262,0.031124621629714966
1747993827631172900,14.9911728515625,-5.035006046295166,0.8379706144332886,-0.33279404044151306
1747993827646950400,15.006950439453124,-3.9671921730041504,2.4684219360351562,-0.05506663769483566
1747993827662758700,15.022758544921874,-1.5083470344543457,4.802768707275391,2.1978771686553955
1747993827678627800,15.0386279296875,3.976768970489502,7.608773231506348,9.097966194152832
1747993827694435800,15.054435791015624,12.806585311889648,10.979808807373047,20.2764949798584
1747993827710305000,15.070304931640624,17.73863983154297,14.381969451904297,27.317840576171875
1747993827726113000,15.086113037109374,15.58864688873291,15.7107515335083,28.66338348388672
1747993827741982200,15.101982177734374,14.903905868530273,15.842432975769043,25.845407485961914
1747993827757790500,15.11779052734375,14.518439292907715,13.675680160522461,22.256498336791992
1747993827773659400,15.133659423828124,13.041216850280762,11.128249168395996,15.78976058959961
1747993827789467600,15.149467529296874,11.109095573425293,9.222464561462402,9.888052940368652
1747993827805336800,15.1653369140625,9.363722801208496,8.293514251708984,5.676652431488037
1747993827821175300,15.18117529296875,7.989450931549072,7.726089000701904,3.754108190536499
1747993827836953000,15.196953125,6.282385349273682,7.3454108238220215,2.0183119773864746
1747993827852791600,15.21279150390625,4.043806552886963,6.9240312576293945,0.667982280254364
1747993827868538600,15.22853857421875,1.8124107122421265,6.196194171905518,-0.12449848651885986
1747993827884316200,15.244316162109374,0.0454898327589035,5.5329999923706055,-0.8619126081466675
1747993827900155000,15.26015478515625,-0.7374141216278076,4.797980308532715,-0.5722141861915588
1747993827915963000,15.275962890625,-0.9026140570640564,4.110844135284424,0.004788403399288654
1747993827931771100,15.291771240234375,-0.646434485912323,3.5649664402008057,0.22266076505184174
1747993827947579100,15.3075791015625,-0.38546648621559143,3.0142998695373535,0.05746084079146385
1747993827963387400,15.323387451171875,-0.2561795711517334,2.449268341064453,-0.4908113479614258
1747993827979165000,15.3391650390625,0.22266076505184174,1.946485996246338,-0.950498104095459
1747993827995003400,15.35500341796875,0.7996633648872375,1.6160861253738403,-1.2521674633026123
1747993828010872600,15.37087255859375,1.460463047027588,1.3527239561080933,-1.2689268589019775
1747993828034798300,15.39479833984375,1.7381904125213623,1.6280571222305298,-2.647987127304077
1747993828050606600,15.410606689453125,2.5546131134033203,2.5474305152893066,-3.5745432376861572
1747993828066414600,15.42641455078125,3.315969467163086,4.620809078216553,-4.668693542480469
1747993828082283800,15.44228369140625,6.670246124267578,8.214506149291992,-5.621585369110107
1747993828098153000,15.458153076171875,17.13290786743164,10.228029251098633,1.4891934394836426
1747993828113961000,15.4739609375,30.243555068969727,11.51611042022705,19.25895881652832
1747993828129738500,15.489738525390624,38.11329650878906,12.15296745300293,37.34715270996094
1747993828145516300,15.505516357421875,35.54671096801758,10.086771965026855,44.189781188964844
1747993828161293800,15.5212939453125,23.975536346435547,8.508993148803711,35.575443267822266
1747993828177041000,15.537041015625,9.50737476348877,8.959102630615234,19.491195678710938
1747993828192849000,15.552848876953124,2.8562827110290527,6.782773494720459,12.622231483459473
1747993828208687600,15.5686875,0.7757213711738586,5.57370138168335,8.252813339233398
1747993828224556800,15.584556884765625,1.436521053314209,4.553771495819092,5.779603004455566
1747993828240364800,15.60036474609375,2.6599581241607666,3.335123062133789,4.431667327880859
1747993828256203500,15.61620361328125,2.6575639247894287,2.4803929328918457,2.612074136734009
1747993828271950600,15.63195068359375,1.5059528350830078,1.7956513166427612,1.3311761617660522
1747993828287880700,15.647880615234374,0.22266076505184174,1.4173674583435059,0.2825157940387726
1747993828303750000,15.66375,-0.31842881441116333,0.8595184087753296,0.07900865375995636
1747993828319680000,15.679679931640624,-0.028730420395731926,0.3687070608139038,0.8762778043746948
1747993828335579600,15.69557958984375,0.16759411990642548,-0.12689268589019775,2.3582887649536133
1747993828351418400,15.71141845703125,0.043095629662275314,-0.35434186458587646,3.557783842086792
1747993828367226400,15.727226318359374,-0.790086567401886,-0.31842881441116333,3.7612907886505127
1747993828383095600,15.743095458984374,-2.229001760482788,-0.4692635238170624,3.0142998695373535
1747993828398964700,15.75896484375,-3.160346269607544,-0.7038952708244324,2.1140801906585693
1747993828414772700,15.774772705078124,-3.584120035171509,-0.7469909191131592,1.4484920501708984
1747993828430550300,15.79055029296875,-4.532223701477051,-0.3878606855869293,0.35913026332855225
1747993828446328000,15.806328125,-7.3885064125061035,0.043095629662275314,-1.7764976024627686
1747993828462136000,15.822135986328124,-11.094730377197266,0.29209262132644653,-4.292803764343262
1747993828477913600,15.83791357421875,-13.005303382873535,0.5506663918495178,-6.315904140472412
1747993828493691100,15.853691162109374,-12.229581832885742,0.4908113479614258,-6.445190906524658
1747993828509469000,15.869468994140625,-7.876923561096191,1.0654197931289673,-3.4835634231567383
1747993828525277000,15.88527685546875,1.4484920501708984,2.276885747909546,6.435614109039307
1747993828541115600,15.90111572265625,12.495338439941406,5.34625244140625,20.860679626464844
1747993828556923600,15.916923583984374,18.35873794555664,7.568071365356445,37.519535064697266
1747993828572792800,15.932792724609374,21.62921905517578,8.884882926940918,44.65186309814453
1747993828588631600,15.948631591796875,22.254104614257812,9.634267807006836,34.14131546020508
1747993828604409000,15.9644091796875,20.341136932373047,9.093177795410156,20.743364334106445
1747993828620247600,15.98024755859375,17.24782943725586,8.26239013671875,12.368446350097656
1747993828636025300,15.996025390625,13.199234008789062,7.745242595672607,7.793126583099365
1747993828651863800,16.01186376953125,9.823410034179688,7.46033239364624,4.434061527252197
1747993828667702500,16.02770263671875,7.702147006988525,7.103596210479736,2.631227731704712
1747993828683541000,16.043541015625,6.186617374420166,6.866570472717285,1.558625340461731
1747993828699288000,16.0592880859375,5.04218864440918,6.471527099609375,0.6943184733390808
1747993828715096300,16.075096435546875,3.7876269817352295,5.822698593139648,-0.11013327538967133
1747993828730904300,16.090904296875,2.561795711517334,5.214571475982666,-0.181959331035614
1747993828746712600,16.106712646484375,1.7573440074920654,4.8051629066467285,0.14365209639072418
1747993828762581500,16.12258154296875,1.3407529592514038,4.501099109649658,0.3926490843296051
1747993828778450700,16.13845068359375,0.9289502501487732,3.993528366088867,0.5027823448181152
1747993828794259000,16.154259033203125,0.5674257874488831,3.579331636428833,0.2082955539226532
1747993828810067000,16.17006689453125,0.44532153010368347,3.2106244564056396,-0.18914192914962769
1747993828825844500,16.185844482421874,0.7230489253997803,2.760514497756958,-0.30885201692581177
1747993828841622300,16.201622314453125,1.5825673341751099,2.5234885215759277,-0.3232172429561615
1747993828857460700,16.217460693359374,2.5019407272338867,2.207453966140747,-0.4620809257030487
1747993828873330000,16.233329833984374,4.412513732910156,2.161964178085327,-1.036689281463623
1747993828889107500,16.249107421875,6.0405707359313965,2.454056739807129,-1.292868971824646
1747993828904976600,16.2649765625,5.74129581451416,4.084507942199707,-1.0534487962722778
1747993828920784600,16.28078466796875,5.686229228973389,7.544129371643066,-1.7956513166427612
1747993828952462000,16.312462158203125,24.382549285888672,10.903194427490234,12.437877655029297
1747993828968300500,16.328300537109374,33.85401153564453,11.008539199829102,29.22602081298828
1747993828984108800,16.34410888671875,33.60501480102539,9.986215591430664,41.54897689819336
1747993828999947300,16.359947265625,23.661895751953125,8.7268648147583,36.779727935791016
1747993829015725000,16.37572509765625,10.249577522277832,7.733271598815918,24.140735626220703
1747993829031502600,16.391502685546875,3.423708438873291,5.913678169250488,16.3883113861084
1747993829047310600,16.407310546875,1.2425906658172607,4.697423934936523,11.025299072265625
1747993829063118800,16.423118896484375,1.6903064250946045,3.7684733867645264,7.1706342697143555
1747993829078866000,16.438865966796875,3.0789434909820557,3.0406360626220703,5.140350818634033
1747993829094643500,16.4546435546875,3.1459810733795166,2.387019157409668,4.1156325340271
1747993829110421000,16.4704208984375,1.9057846069335938,1.800439715385437,3.73016619682312
1747993829126229000,16.48622900390625,0.6727706789970398,1.3694833517074585,3.31118106842041
1747993829142067700,16.502067626953124,0.3016694188117981,0.8331822156906128,3.1052796840667725
1747993829157875700,16.517875732421874,0.3280056416988373,0.42377370595932007,3.0550012588500977
1747993829173714400,16.53371435546875,0.3232172429561615,0.12928688526153564,2.9664158821105957
1747993829189461500,16.54946142578125,0.33518823981285095,-0.07182604819536209,3.1004912853240967
1747993829205269500,16.56526953125,0.35673606395721436,-0.11971008777618408,3.224989652633667
1747993829221108200,16.581108154296874,0.15322890877723694,-0.26575639843940735,3.0095114707946777
1747993829236916200,16.596916259765624,-0.05027823522686958,-0.33518823981285095,2.8419175148010254
1747993829252755000,16.6127548828125,-0.5722141861915588,-0.28730419278144836,2.4181437492370605
1747993829268624100,16.6286240234375,-0.8930372595787048,-0.43335050344467163,1.8507179021835327
1747993829284432100,16.64443212890625,-1.1683704853057861,-0.6823474764823914,0.9002198576927185
1747993829300301300,16.66030126953125,-1.8507179021835327,-0.43335050344467163,-0.1867477297782898
1747993829316140000,16.67614013671875,-2.7102363109588623,-0.021547814831137657,-1.5897499322891235
1747993829331917600,16.69191748046875,-3.6559460163116455,0.7757213711738586,-3.8139634132385254
1747993829347725600,16.7077255859375,-5.628767967224121,1.6424223184585571,-6.124367713928223
1747993829363533800,16.723533935546875,-4.106055736541748,3.8594532012939453,-7.754819393157959
1747993829379311400,16.739311279296874,2.4468741416931152,5.571307182312012,-1.0462661981582642
1747993829395119400,16.755119384765624,10.15141487121582,9.593565940856934,14.88714599609375
1747993829410958000,16.7709580078125,13.385981559753418,13.469779014587402,33.25785446166992
1747993829426827300,16.7868271484375,8.501810073852539,13.73074722290039,42.1762580871582
1747993829442666000,16.802666015625,4.383783340454102,15.026009559631348,30.85647201538086
1747993829458412800,16.818412841796874,7.5632829666137695,14.020444869995117,20.5494327545166
1747993829474221000,16.834220947265624,11.525687217712402,11.784260749816895,15.409082412719727
1747993829490059800,16.850059814453125,12.210428237915039,10.02691650390625,11.094730377197266
1747993829505898200,16.865898193359374,9.646238327026367,8.310274124145508,7.6351094245910645
1747993829521737000,16.881737060546875,6.550535678863525,7.264008045196533,5.22175407409668
1747993829537484000,16.897484130859375,4.120420932769775,6.335057735443115,4.106055736541748
1747993829553322500,16.913322509765624,2.4181437492370605,5.580883979797363,3.2968156337738037
1747993829584877800,16.9448779296875,-0.08140286058187485,4.218583583831787,2.892195701599121
1747993829600655400,16.9606552734375,-1.213860273361206,3.931279182434082,2.63362193107605
1747993829616402400,16.97640234375,-1.946485996246338,3.5194764137268066,2.4205379486083984
1747993829632149500,16.9921494140625,-2.1068975925445557,3.0358476638793945,2.0183119773864746
1747993829647988200,17.00798828125,-1.8339585065841675,2.5953147411346436,1.482010841369629
1747993829663796200,17.023796142578124,-1.1204863786697388,2.164358377456665,0.9385270476341248
1747993829679604200,17.039604248046874,0.49799394607543945,1.723825216293335,0.7398083209991455
1747993829695687200,17.055687255859375,1.482010841369629,1.3551181554794312,0.13407529890537262
1747993829711556400,17.071556396484375,1.8818424940109253,0.9959878921508789,-0.6009446382522583
1747993829727425300,17.08742529296875,1.9512743949890137,0.8978256583213806,-1.9823989868164062
1747993829743294500,17.10329443359375,2.427720546722412,1.0247182846069336,-3.706224203109741
1747993829759133200,17.11913330078125,2.5043349266052246,1.7693150043487549,-6.030993938446045
1747993829774971600,17.1349716796875,3.6774938106536865,3.0789434909820557,-7.110779285430908
1747993829790810400,17.150810302734374,8.334216117858887,4.912901878356934,-4.946420669555664
1747993829806588000,17.166587890625,13.287819862365723,5.540182590484619,5.770026206970215
1747993829822396200,17.182396240234375,16.256629943847656,8.042123794555664,21.5645751953125
1747993829838204200,17.1982041015625,15.98129653930664,11.106701850891113,37.32081604003906
1747993829853981700,17.213981689453124,12.066776275634766,12.373234748840332,43.84501647949219
1747993829869851000,17.229850830078124,10.488997459411621,13.958195686340332,38.77888488769531
1747993829885659100,17.2456591796875,9.066842079162598,12.251130104064941,32.56353759765625
1747993829901467100,17.261467041015624,9.014169692993164,9.555258750915527,25.32826042175293
1747993829917305900,17.277305908203125,7.864952564239502,6.557718276977539,17.544710159301758
1747993829933144300,17.293144287109374,6.586448669433594,4.194641590118408,10.673351287841797
1747993829948952600,17.30895263671875,5.559336185455322,2.5761611461639404,6.756437301635742
1747993829964730000,17.324730224609375,4.225766181945801,1.4915876388549805,4.944026470184326
1747993829980538000,17.3405380859375,2.2385785579681396,0.8858546018600464,3.823540210723877
1747993829996346400,17.356346435546875,0.3016694188117981,0.31124621629714966,3.0095114707946777
1747993830012124000,17.3721240234375,-0.5027823448181152,-0.13168109953403473,1.965639591217041
1747993830027993000,17.3879931640625,-0.5841852426528931,-0.6009446382522583,1.0271124839782715
1747993830043953700,17.40395361328125,-0.5913678407669067,-1.0079588890075684,0.33997663855552673
1747993830059853300,17.419853271484374,-1.659181833267212,-1.259350061416626,-0.24899697303771973
1747993830075722500,17.435722412109374,-2.6839001178741455,-1.3215993642807007,-0.49320554733276367
1747993830091530500,17.451530517578124,-3.265691041946411,-1.335964560508728,-0.5793967843055725
1747993830107308300,17.467308349609375,-3.0573954582214355,-1.5107412338256836,-0.40701428055763245
1747993830123116300,17.4831162109375,-1.9608511924743652,-1.5705963373184204,-1.0295066833496094
1747993830138924300,17.49892431640625,-1.3623007535934448,-1.802833914756775,-2.1523873805999756
1747993830154793500,17.51479345703125,-1.036689281463623,-1.9345149993896484,-2.9472622871398926
1747993830170540500,17.53054052734375,-1.656787633895874,-1.9584569931030273,-3.2800562381744385
1747993830186318000,17.546318115234374,-3.9911341667175293,-1.8124107122421265,-3.2393548488616943
1747993830202156800,17.56215673828125,-5.717353820800781,-1.2856862545013428,-2.027888774871826
1747993830217995500,17.57799560546875,-4.46518611907959,0.2992752194404602,1.094150185585022
1747993830233803500,17.593803466796874,-1.2234370708465576,1.941697597503662,6.0405707359313965
1747993830249611800,17.60961181640625,5.0469770431518555,4.434061527252197,12.969390869140625
1747993830265450200,17.6254501953125,9.952696800231934,6.4380083084106445,23.9851131439209
1747993830281227800,17.641227783203124,12.770671844482422,8.070854187011719,35.77416229248047
1747993830296974800,17.656974853515624,11.233593940734863,9.478644371032715,44.12274169921875
1747993830312783000,17.672783203125,6.186617374420166,10.54406452178955,40.248924255371094
1747993830328560600,17.688560546875,4.395754337310791,9.952696800231934,30.097509384155273
1747993830344399400,17.7043994140625,4.41969633102417,8.413225173950195,19.292476654052734
1747993830360207400,17.720207275390624,4.553771495819092,7.003039836883545,10.685321807861328
1747993830376046000,17.736046142578125,5.207388877868652,5.571307182312012,5.410895824432373
1747993830391884500,17.751884521484374,5.195417881011963,4.932055473327637,2.6001031398773193
1747993830407692800,17.76769287109375,4.2951979637146,4.888959884643555,0.5961562395095825
1747993830423500800,17.783500732421874,1.8076223134994507,5.0254292488098145,-0.667982280254364
1747993830439278300,17.7992783203125,-1.0031704902648926,5.372588634490967,-1.0103530883789062
1747993830455086600,17.815086669921875,-1.7573440074920654,5.75326681137085,-0.3471592366695404
1747993830470894600,17.83089453125,-1.659181833267212,6.071695327758789,0.19632454216480255
1747993830486702800,17.846702880859375,-1.4939818382263184,5.896918773651123,0.5051765441894531
1747993830502480400,17.86248046875,-0.5147533416748047,5.714959621429443,1.4101848602294922
1747993830518318800,17.87831884765625,-0.33758243918418884,5.396530628204346,2.231395959854126
1747993830534188000,17.89418798828125,-0.31364041566848755,4.8482584953308105,1.9057846069335938
1747993830550026800,17.91002685546875,1.1109095811843872,4.393360137939453,1.4269442558288574
1747993830565865200,17.925865234375,3.361459255218506,4.2760443687438965,1.1683704853057861
1747993830581673500,17.941673583984375,4.752490520477295,4.76924991607666,2.9448680877685547
1747993830597451000,17.957450927734374,6.2416839599609375,5.578489780426025,7.781155586242676
1747993830613228500,17.973228515625,10.366893768310547,7.237671852111816,14.168885231018066
1747993830629036800,17.989036865234375,17.721881866455078,8.492233276367188,18.95728874206543
1747993830644814300,18.004814453125,23.45838737487793,8.372523307800293,28.60592269897461
1747993830660622300,18.020622314453124,21.44965362548828,6.636727333068848,38.81240463256836
1747993830676461000,18.0364609375,14.516044616699219,4.771644115447998,37.31363296508789
1747993830692299500,18.052299560546874,7.5632829666137695,3.6080620288848877,26.477476119995117
1747993830708138200,18.06813818359375,3.40216064453125,2.561795711517334,18.179174423217773
1747993830723885300,18.08388525390625,2.8826189041137695,1.4173674583435059,14.449007034301758
1747993830739693600,18.099693603515625,3.708618402481079,0.363918662071228,10.366893768310547
1747993830755501600,18.11550146484375,3.9839515686035156,-0.3208230137825012,6.40927791595459
1747993830771309600,18.1313095703125,3.993528366088867,-0.8092401623725891,3.555389642715454
1747993830787117800,18.147117919921875,3.8283286094665527,-1.1875240802764893,2.0829553604125977
1747993830802925800,18.16292578125,3.004723072052002,-1.2665326595306396,1.4245500564575195
1747993830818764500,18.1787646484375,1.4173674583435059,-1.436521053314209,0.6512228846549988
1747993830834542000,18.1945419921875,-0.2346317619085312,-1.723825216293335,-0.031124621629714966
1747993830850350000,18.21035009765625,-1.656787633895874,-1.941697597503662,-0.20111294090747833
1747993830866158300,18.226158447265625,-2.6886885166168213,-1.800439715385437,-0.35434186458587646
1747993830882027500,18.242027587890625,-3.603273630142212,-1.4245500564575195,-0.4620809257030487
1747993830897835500,18.25783544921875,-4.376600742340088,-1.3407529592514038,0.016759412363171577
1747993830913674200,18.27367431640625,-4.359841346740723,-0.8762778043746948,1.2186486721038818
1747993830929482200,18.289482177734374,-4.417302131652832,-0.42616790533065796,2.3750481605529785
1747993830945290200,18.305290283203124,-4.4723687171936035,-0.24420857429504395,2.8443117141723633
1747993830961098500,18.321098388671874,-3.6583402156829834,-0.1843535304069519,2.5665841102600098
1747993830976937200,18.336937255859375,-2.7126305103302,-0.43335050344467163,1.9369091987609863
1747993830992714800,18.35271484375,-3.2082302570343018,-0.3256114423274994,1.941697597503662
1747993831008522800,18.368522705078124,-4.568136692047119,0.1843535304069519,3.5266590118408203
1747993831024331000,18.3843310546875,-5.983109951019287,1.1228805780410767,5.841852188110352
1747993831040078000,18.400078125,-6.054935932159424,2.7772738933563232,8.556877136230469
1747993831055886000,18.415885986328124,-0.7038952708244324,5.410895824432373,13.407529830932617
1747993831071694000,18.431694091796874,9.004592895507812,7.987056732177734,20.810401916503906
1747993831087502300,18.44750244140625,17.264589309692383,9.440337181091309,28.43832778930664
1747993831103279900,18.46327978515625,19.112911224365234,11.022904396057129,30.365659713745117
1747993831119149000,18.479149169921875,17.20473289489746,11.101913452148438,27.600357055664062
1747993831134957000,18.49495703125,14.757859230041504,9.832986831665039,22.7904052734375
1747993831150734600,18.510734619140624,13.146561622619629,7.68538761138916,16.8408145904541
1747993831166542800,18.52654296875,11.508927345275879,5.975927352905273,10.654197692871094
1747993831182350800,18.542350830078124,9.90241813659668,4.977545261383057,6.315904140472412
1747993831198098000,18.558097900390624,8.470685958862305,4.390965938568115,4.201824188232422
1747993831213875500,18.57387548828125,6.971915245056152,4.048594951629639,3.421314239501953
1747993831229714200,18.589714111328124,5.626373767852783,3.8115692138671875,3.155557870864868
1747993831245553000,18.605552978515625,4.120420932769775,3.5697548389434814,2.7126305103302
1747993831261361000,18.62136083984375,2.6216509342193604,3.3063924312591553,2.1763293743133545
1747993831277230000,18.63722998046875,1.0534487962722778,3.0861260890960693,1.6496049165725708
1747993831293068800,18.65306884765625,-0.33279404044151306,2.9903578758239746,1.0678139925003052
1747993831308816000,18.66881591796875,-1.2306196689605713,2.9520506858825684,0.7445967197418213
1747993831324624000,18.684623779296874,-1.8698714971542358,2.8586769104003906,0.7948749661445618
1747993831340432000,18.700431884765624,-1.9632453918457031,2.8634653091430664,0.8523358106613159
1747993831356240100,18.716240234375,-1.9823989868164062,2.7533318996429443,0.7781155705451965
1747993831372048100,18.732048095703124,-1.1444283723831177,2.5019407272338867,0.6344634294509888
1747993831387825700,18.74782568359375,-0.3878606855869293,2.3535003662109375,0.2059013396501541
1747993831403603500,18.763603515625,0.44532153010368347,2.1978771686553955,-0.35434186458587646
1747993831419411500,18.779411376953124,1.5322890281677246,2.47560453414917,-1.0630255937576294
1747993831435280600,18.79528076171875,2.583343744277954,3.1699230670928955,-1.4628572463989258
1747993831451088600,18.811088623046874,3.4356794357299805,4.855441093444824,-2.22660756111145
1747993831466897000,18.82689697265625,7.553706169128418,7.474697589874268,1.5682021379470825
1747993831482735400,18.8427353515625,16.440982818603516,9.05247688293457,14.420276641845703
1747993831498543600,18.858543701171875,26.393678665161133,10.44350814819336,29.558815002441406
1747993831514321200,18.874321044921874,29.925127029418945,10.046070098876953,40.33990478515625
1747993831530129200,18.890129150390624,25.95314598083496,8.607154846191406,35.795711517333984
1747993831545907000,18.905906982421875,18.600553512573242,6.648698329925537,23.69062614440918
1747993831561745400,18.921745361328124,12.22000503540039,4.714183330535889,16.496049880981445
1747993831577523000,18.93752294921875,9.114726066589355,3.1459810733795166,12.677297592163086
1747993831593331200,18.953331298828125,7.680599212646484,1.965639591217041,9.718064308166504
1747993831609200400,18.969200439453125,6.268020153045654,1.036689281463623,7.070077419281006
1747993831624947500,18.984947509765625,4.630385875701904,0.3687070608139038,4.793191909790039
1747993831640755500,19.00075537109375,3.141192674636841,-0.014365210197865963,2.964021682739258
1747993831656563500,19.0165634765625,1.5705963373184204,-0.26096799969673157,1.9369091987609863
1747993831672493800,19.032493896484375,0.11013327538967133,-0.3471592366695404,1.6041151285171509
1747993831688271400,19.048271240234374,-1.400607943534851,-0.395043283700943,1.8770540952682495
1747993831704079400,19.064079345703124,-1.9177556037902832,-0.4165911078453064,2.557007312774658
1747993831719887600,19.0798876953125,-2.03507137298584,-0.3878606855869293,3.184288263320923
1747993831735665200,19.0956650390625,-1.7764976024627686,-0.3902548849582672,3.8762125968933105
1747993831751504000,19.11150390625,-1.920149803161621,-0.22266076505184174,3.845088005065918
1747993831767281400,19.127281494140625,-2.6671407222747803,-0.12689268589019775,2.8850131034851074
1747993831783059000,19.143058837890624,-2.6791117191314697,0.1173158809542656,2.142810583114624
1747993831798806000,19.158805908203124,-2.7724854946136475,0.12449848651885986,1.9105730056762695
1747993831814614000,19.174614013671874,-2.8107926845550537,0.16998831927776337,1.7166426181793213
1747993831830391800,19.190391845703125,-3.179499864578247,0.36152446269989014,1.4460978507995605
1747993831846199800,19.20619970703125,-3.907337188720703,0.33279404044151306,1.2114660739898682
1747993831862007800,19.2220078125,-5.147533416748047,0.7469909191131592,0.7972691655158997
1747993831877877000,19.237876953125,-6.57926607131958,1.7286136150360107,-0.13168109953403473
1747993831893715700,19.2537158203125,-7.058106422424316,3.529053211212158,-1.9823989868164062
1747993831909462800,19.269462890625,-1.0079588890075684,4.405331134796143,2.410961151123047
1747993831925270800,19.285270751953124,16.742652893066406,5.990292549133301,16.361974716186523
1747993831941048300,19.30104833984375,27.293899536132812,7.4316020011901855,29.937097549438477
1747993831956856600,19.316856689453125,25.304317474365234,8.667010307312012,34.91225051879883
1747993831972695000,19.332695068359374,20.046649932861328,9.394847869873047,30.415939331054688
1747993831988472800,19.348472900390625,16.737863540649414,8.736441612243652,23.16150665283203
1747993832004280800,19.36428076171875,13.860033988952637,7.723694801330566,16.294937133789062
1747993832020088800,19.3800888671875,12.066776275634766,6.701370716094971,10.47942066192627
1747993832035958000,19.3959580078125,9.816226959228516,5.7772088050842285,6.052541732788086
1747993832051796700,19.411796630859374,7.407660007476807,5.240907669067383,3.6750996112823486
1747993832067604700,19.427604736328124,5.427655220031738,4.900930881500244,2.7293899059295654
1747993832083382500,19.443382568359375,3.708618402481079,4.680664539337158,2.2816741466522217
1747993832099160000,19.45916015625,2.319981336593628,4.4508209228515625,1.9369091987609863
1747993832114937600,19.4749375,1.1109095811843872,4.120420932769775,1.778891921043396
1747993832130776300,19.4907763671875,0.8188169598579407,3.8546648025512695,1.4772224426269531
1747993832146584300,19.506584228515624,1.072602391242981,3.4572272300720215,1.0438719987869263
1747993832162453500,19.52245361328125,1.6519991159439087,3.0358476638793945,0.6799532771110535
1747993832178292000,19.5382919921875,2.6001031398773193,2.4636335372924805,0.42856210470199585
1747993832194069800,19.55406982421875,3.6822822093963623,2.0470423698425293,-0.0454898327589035
1747993832209908200,19.569908203125,4.3406877517700195,1.6136919260025024,-0.8379706144332886
1747993832249428500,19.609428466796874,5.954379558563232,1.139639973640442,-2.166752576828003
1747993832265297700,19.625297607421874,7.115567684173584,1.644816517829895,-2.0159177780151367
1747993832281075200,19.6410751953125,9.545681953430176,3.177105665206909,-2.7892448902130127
1747993832296914000,19.656913818359374,13.87918758392334,5.738901615142822,-2.2601263523101807
1747993832312752600,19.672752685546875,20.681114196777344,8.367734909057617,-0.2992752194404602
1747993832328591000,19.688591064453124,23.62358856201172,8.741230010986328,2.786850690841675
1747993832344429800,19.704429931640625,24.387338638305664,8.020575523376465,6.936002254486084
1747993832360299000,19.720299072265625,24.67464256286621,8.317456245422363,11.405977249145508
1747993832376076500,19.73607666015625,23.305158615112305,7.620744228363037,16.065093994140625
1747993832391823600,19.75182373046875,19.481618881225586,7.015010833740234,16.934188842773438
1747993832407662000,19.767662109375,14.597447395324707,6.224924564361572,14.879963874816895
1747993832423500800,19.783500732421874,9.976638793945312,5.386953830718994,11.896788597106934
1747993832439339500,19.799339599609375,6.382941722869873,4.879383087158203,8.939949035644531
1747993832455147500,19.8151474609375,4.247313976287842,3.9624037742614746,5.803544998168945
1747993832470986200,19.830986328125,4.532223701477051,2.7030537128448486,2.585737943649292
1747993832486824700,19.84682470703125,8.056488990783691,1.4748282432556152,0.040701430290937424
1747993832502602500,19.8626025390625,11.599906921386719,0.18914192914962769,0.06703764945268631
1747993832518410500,19.878410400390624,10.606313705444336,-0.24899697303771973,1.50355863571167
1747993832534157600,19.894157470703124,7.73087739944458,-0.2849099934101105,2.410961151123047
1747993832549965600,19.909965576171874,5.3127336502075195,-0.35434186458587646,2.734178304672241
1747993832565743400,19.925743408203125,3.3446998596191406,-0.2825157940387726,2.2385785579681396
1747993832581581800,19.941581787109374,2.382230758666992,-0.2825157940387726,1.8363527059555054
1747993832597390000,19.95739013671875,2.121262788772583,-0.21308395266532898,1.2761094570159912
1747993832613259000,19.973259033203124,2.8347349166870117,-0.28969839215278625,0.9385270476341248
1747993832629036800,19.989036865234375,3.627215623855591,-0.2082955539226532,0.6631938815116882
1747993832644875300,20.004875244140624,3.4596214294433594,-0.031124621629714966,0.5650315880775452
1747993832660714000,20.0207138671875,4.637568473815918,0.011971008032560349,0.42856210470199585
1747993832676491500,20.036491455078124,7.134721279144287,0.17238251864910126,0.2106897532939911
1747993832692299500,20.052299560546874,9.174580574035645,0.6847416758537292,0.20350714027881622
1747993832708107800,20.068107666015624,9.126696586608887,1.7286136150360107,0.730231523513794
1747993832723885300,20.08388525390625,7.951143741607666,3.1866824626922607,1.4915876388549805
1747993832739662800,20.099662841796874,6.71334171295166,4.869806289672852,1.7501614093780518
1747993832755471000,20.11547119140625,7.06528902053833,6.387730121612549,2.410961151123047
1747993832779183000,20.13918310546875,9.93354320526123,7.38132381439209,3.002328872680664
1747993832794991400,20.154991455078125,12.351686477661133,8.13789176940918,2.3247697353363037
1747993832810829800,20.170829833984374,12.224793434143066,7.726089000701904,1.599326729774475
1747993832826668500,20.18666845703125,11.341333389282227,7.295132637023926,0.7757213711738586
1747993832842476500,20.2024765625,11.231200218200684,7.4555439949035645,0.1388636976480484
1747993832858345700,20.218345703125,11.298237800598145,7.4770917892456055,-0.47405192255973816
1747993832874215000,20.23421484375,10.824186325073242,7.328651428222656,-1.0031704902648926
1747993832889992400,20.249992431640624,9.739612579345703,6.885724067687988,-1.4891934394836426
1747993832905800700,20.26580078125,8.432378768920898,6.370970726013184,-1.8339585065841675
1747993832921578200,20.281578125,7.354987621307373,5.724536418914795,-1.7908629179000854
1747993832937416700,20.297416748046874,5.954379558563232,4.972756862640381,-1.778891921043396
1747993832953163800,20.313163818359374,4.910507678985596,4.304774761199951,-1.7142484188079834
1747993832969002500,20.32900244140625,3.8953661918640137,3.8977603912353516,-1.7070658206939697
1747993832984841200,20.34484130859375,3.3494882583618164,3.4356794357299805,-1.3862427473068237
1747993833000649200,20.360649169921874,3.7014358043670654,2.9328970909118652,-0.9696516990661621
1747993833016426800,20.3764267578125,4.809951305389404,2.2649147510528564,-0.8188169598579407
1747993833032204500,20.39220458984375,5.451597213745117,1.7693150043487549,-1.0007762908935547
1747993833048012500,20.408012451171874,5.7125654220581055,1.4844050407409668,-1.4532804489135742
1747993833063820500,20.423820556640624,6.311115741729736,1.1324573755264282,-1.3766659498214722
1747993833079598300,20.439598388671875,7.067683219909668,0.8643068075180054,-0.6248866319656372
1747993833095436800,20.455436767578124,7.6782050132751465,0.811634361743927,-0.40462008118629456
1747993833111184000,20.471183837890624,8.643068313598633,1.1516109704971313,-0.4836287498474121
1747993833134957000,20.49495703125,9.59835433959961,3.1316158771514893,-1.2186486721038818
1747993833150765300,20.510765380859375,9.287108421325684,5.049371242523193,-1.4628572463989258
1747993833166603800,20.526603759765624,8.951920509338379,6.3518171310424805,-1.8076223134994507
1747993833182442500,20.5424423828125,9.014169692993164,6.449979305267334,-2.2242133617401123
1747993833198250500,20.55825048828125,11.008539199829102,6.042964935302734,-2.2457611560821533
1747993833214028300,20.5740283203125,13.340492248535156,5.884947776794434,-2.1523873805999756
1747993833229836300,20.589836181640624,14.566323280334473,5.485116004943848,-2.363077163696289
