time,seconds_elapsed,z,y,x
1751214194035026400,0.1570263671875,0.45193809270858765,-0.23036326467990875,-0.29161593317985535
1751214194044913700,0.16691357421875,0.35712963342666626,-0.10466215014457703,-0.2000032514333725
1751214194054831600,0.17683154296875,0.29534435272216797,-0.0035952648613601923,-0.17550218105316162
1751214194064781800,0.18678173828125,0.303866446018219,0.1093226820230484,-0.2138516753911972
1751214194074764800,0.196764892578125,0.37204334139823914,0.1806953400373459,-0.2990727722644806
1751214194084780000,0.206780029296875,0.4679170548915863,0.1327584832906723,-0.3928159773349762
1751214194094825000,0.216824951171875,0.529702365398407,0.07097318768501282,-0.4535360038280487
1751214194104896500,0.226896484375,0.5446160435676575,0.019840534776449203,-0.47910231351852417
1751214194114990600,0.236990478515625,0.5520728826522827,-0.07590003311634064,-0.4769718050956726
1751214194125102300,0.247102294921875,0.6021402478218079,-0.23355905711650848,-0.45992758870124817
1751214194135226000,0.25722607421875,0.689491868019104,-0.4263717830181122,-0.4205128252506256
1751214194145356300,0.267356201171875,0.7661908864974976,-0.5872265696525574,-0.35659700632095337
1751214194155487500,0.277487548828125,0.8471509218215942,-0.6958834528923035,-0.29587697982788086
1751214194165501200,0.287501220703125,0.9217193722724915,-0.8279761672019958,-0.25859275460243225
1751214194175495200,0.2974951171875,1.012266755104065,-0.9653951525688171,-0.2277000993490219
1751214194185489400,0.307489501953125,1.1028141975402832,-1.0303763151168823,-0.20213377475738525
1751214194195483400,0.3174833984375,1.1922963857650757,-1.1560773849487305,-0.17017586529254913
1751214194205477400,0.327477294921875,1.3158669471740723,-1.4927006959915161,-0.1392832249403
1751214194215471400,0.337471435546875,1.5118753910064697,-1.9891135692596436,-0.08175898343324661
1751214194225465600,0.347465576171875,1.808018684387207,-2.5441157817840576,0.0023968431632965803
1751214194235459600,0.35745947265625,2.17020845413208,-3.1289455890655518,0.09827057272195816
1751214194245453600,0.36745361328125,2.4961791038513184,-3.777691125869751,0.21544957160949707
1751214194255447800,0.37744775390625,2.7145581245422363,-4.4946136474609375,0.35712963342666626
1751214194265441800,0.38744189453125,2.8658254146575928,-5.187035083770752,0.5222455263137817
1751214194275435800,0.397435791015625,3.083139181137085,-5.785713195800781,0.6873613595962524
1751214194285430000,0.407429931640625,3.410175323486328,-6.3897175788879395,0.8269109129905701
1751214194295424000,0.417424072265625,3.8107142448425293,-7.050180912017822,0.9302414655685425
1751214194305418000,0.42741796875,4.243211269378662,-7.611575126647949,1.0559425354003906
1751214194315412200,0.437412109375,4.693818092346191,-8.033419609069824,1.1720563173294067
1751214194325406200,0.44740625,5.1092705726623535,-8.312518119812012,1.2562121152877808
1751214194335400200,0.457400146484375,5.428849697113037,-8.347672462463379,1.279647946357727
1751214194345394200,0.467394287109375,5.679186820983887,-8.181490898132324,1.2817784547805786
1751214194355388400,0.477388427734375,5.9529595375061035,-7.964177131652832,1.3073447942733765
1751214194365382400,0.48738232421875,6.277864933013916,-7.685078144073486,1.3915005922317505
1751214194375376400,0.49737646484375,6.537789344787598,-7.2429938316345215,1.5161365270614624
1751214194385370600,0.50737060546875,6.641119956970215,-6.646446228027344,1.6386418342590332
1751214194395364600,0.517364501953125,6.532463073730469,-5.972134113311768,1.7590166330337524
1751214194405358600,0.527358642578125,6.273603916168213,-5.329780101776123,1.8964356184005737
1751214194415352800,0.537352783203125,5.950829029083252,-4.686360836029053,2.080726146697998
1751214194425346800,0.547346923828125,5.649359226226807,-3.9502639770507812,2.2714083194732666
1751214194435340800,0.5573408203125,5.41287088394165,-3.17688250541687,2.3225409984588623
1751214194445335000,0.5673349609375,5.24775505065918,-2.4003052711486816,2.2181451320648193
1751214194455329000,0.5773291015625,5.089030742645264,-1.5736607313156128,2.0647473335266113
1751214194465323000,0.587322998046875,4.8269758224487305,-0.7970834970474243,1.9337198734283447
1751214194475317000,0.59731689453125,4.458394527435303,-0.14634059369564056,1.8570208549499512
1751214194485311200,0.607311279296875,4.1526641845703125,0.2179795652627945,1.8165408372879028
1751214194495305200,0.61730517578125,3.921501874923706,0.5066660046577454,1.529984951019287
1751214194505299200,0.62729931640625,3.734015464782715,1.2406326532363892,0.6522076725959778
1751214194515293400,0.63729345703125,3.723362684249878,1.5058833360671997,-0.007190529722720385
1751214194525287400,0.647287353515625,3.7297542095184326,1.3769863843917847,0.03009369783103466
1751214194535281400,0.657281494140625,3.514570951461792,1.006274700164795,0.6639255881309509
1751214194545275600,0.667275634765625,3.0703561305999756,0.24887222051620483,1.7302544116973877
1751214194555270000,0.677269775390625,2.4269368648529053,-0.228232741355896,1.8719345331192017
1751214194565264000,0.687263916015625,2.0093536376953125,-0.7597993016242981,1.5161365270614624
1751214194575258000,0.697258056640625,1.8026924133300781,-1.3073447942733765,1.925197720527649
1751214194585252000,0.707252197265625,1.5193322896957397,-1.3488900661468506,2.4098925590515137
1751214194595246300,0.717246337890625,1.2785826921463013,-0.9707214832305908,1.7100144624710083
1751214194605240300,0.727240234375,1.0953572988510132,-0.6980140209197998,1.2338416576385498
1751214194615234600,0.737234619140625,0.7171887755393982,0.0294279083609581,0.8791088461875916
1751214194625228500,0.747228515625,0.31025803089141846,0.5098618268966675,0.3795001804828644
1751214194635222800,0.757222900390625,0.00985368900001049,0.6334323883056641,0.04287686198949814
1751214194645216800,0.767216796875,-0.20319904386997223,0.45446810126304626,0.019441060721874237
1751214194655211000,0.7772109375,-0.3470096290111542,0.09440898895263672,0.08335687965154648
1751214194665205000,0.787205078125,-0.450340211391449,-0.22610220313072205,0.04607265070080757
1751214194675199200,0.79719921875,-0.49827706813812256,-0.4498075842857361,-0.09986846894025803
1751214194685193200,0.807193115234375,-0.5600623488426208,-0.5478118062019348,-0.3033338189125061
1751214194695187500,0.8171875,-0.7816371917724609,-0.5094623565673828,-0.5419528484344482
1751214194705181400,0.827181396484375,-1.4346438646316528,-0.43808966875076294,-0.7187866568565369
1751214194715175700,0.83717578125,-1.7265260219573975,-0.5137233734130859,-0.6900244951248169
1751214194725169700,0.847169677734375,-1.9896461963653564,-0.4221107065677643,-0.8135951161384583
1751214194735164000,0.857163818359375,-2.280463218688965,-0.14088112115859985,-1.049018383026123
1751214194745158000,0.867157958984375,-2.3614232540130615,0.19667430222034454,-1.1299784183502197
1751214194755152100,0.877152099609375,-2.5041685104370117,0.45553335547447205,-0.9925593733787537
1751214194765146000,0.88714599609375,-2.374206304550171,0.6898913383483887,-0.8391614556312561
1751214194775140400,0.897140380859375,-2.0247998237609863,0.8475503921508789,-0.8295740485191345
1751214194785134300,0.90713427734375,-1.8980334997177124,1.0872347354888916,-0.8945551514625549
1751214194795128600,0.917128662109375,-2.189915657043457,0.9945567846298218,-0.7166560888290405
1751214194805122600,0.92712255859375,-2.2272000312805176,0.7325019240379333,-0.2426137924194336
1751214194835105000,0.95710498046875,-2.298572540283203,0.3724428117275238,0.26338642835617065
1751214194845099000,0.96709912109375,-2.3017683029174805,0.43103229999542236,0.1898832470178604
1751214194855093200,0.97709326171875,-2.249570608139038,0.3628554344177246,0.2623211741447449
1751214194865087200,0.987087158203125,-2.01627779006958,0.2222406268119812,0.5275717973709106
1751214194875081500,0.99708154296875,-1.71587336063385,-0.017443692311644554,0.8460856676101685
1751214194885075500,1.007075439453125,-1.4303827285766602,-0.3613906800746918,0.9962878227233887
1751214194895069700,1.017069580078125,-1.2109384536743164,-0.7491466403007507,0.9078709483146667
1751214194905063700,1.027063720703125,-1.1139994859695435,-1.0037447214126587,0.6585992574691772
1751214194915058000,1.037057861328125,-1.133174180984497,-1.116662621498108,0.33475908637046814
1751214194925052000,1.047052001953125,-1.1768499612808228,-0.982439398765564,0.03328948840498924
1751214194935046100,1.057046142578125,-1.1427615880966187,-0.672447681427002,-0.22237378358840942
1751214194945040100,1.0670400390625,-0.9840372800827026,-0.3166496157646179,-0.38003280758857727
1751214194955034400,1.077034423828125,-0.588824450969696,0.11464899778366089,-0.4258391261100769
1751214194965028400,1.0870283203125,-0.06897582113742828,0.4768386483192444,-0.33848753571510315
1751214194975022600,1.097022705078125,0.3986749053001404,0.7175882458686829,-0.17443692684173584
1751214194985016600,1.1070166015625,0.9558078050613403,0.8571377396583557,-0.04127896577119827
1751214194995010800,1.1170107421875,1.5789870023727417,0.9029440879821777,0.05779055133461952
1751214195005004800,1.1270048828125,2.0732693672180176,0.9551420211791992,0.1898832470178604
1751214195014999000,1.1369990234375,2.3715431690216064,1.0563420057296753,0.33902016282081604
1751214195024993000,1.146992919921875,2.494048595428467,1.1383674144744873,0.44128546118736267
1751214195034987300,1.1569873046875,2.578204393386841,1.0392978191375732,0.4860265254974365
1751214195044981500,1.1669814453125,2.6900570392608643,0.5748428702354431,0.35393384099006653
1751214195054975500,1.1769755859375,2.894587516784668,-0.0153131652623415,0.24421168863773346
1751214195064969700,1.1869697265625,3.1289455890655518,-0.5350286364555359,0.3922833502292633
1751214195074963700,1.196963623046875,3.1843392848968506,-0.8407593369483948,0.6575340032577515
1751214195084958000,1.2069580078125,2.9766130447387695,-1.061268925666809,0.8727172613143921
1751214195094952000,1.216951904296875,2.665555953979492,-1.3915005922317505,1.0879005193710327
1751214195104946200,1.2269462890625,2.4642210006713867,-1.7249281406402588,1.3318458795547485
1751214195114940200,1.236940185546875,2.373673677444458,-1.925197720527649,1.5193322896957397
1751214195124934400,1.246934326171875,2.1989705562591553,-2.1425116062164307,1.609879732131958
1751214195134928400,1.256928466796875,1.7430375814437866,-2.293778896331787,1.7196018695831299
1751214195144922600,1.266922607421875,1.1177278757095337,-2.5260064601898193,2.0775303840637207
1751214195154916600,1.27691650390625,0.4082622826099396,-2.194709300994873,2.080726146697998
1751214195164910800,1.286910888671875,-0.09560741484165192,-1.413871169090271,1.421328067779541
1751214195174904800,1.29690478515625,-0.4908202290534973,-0.5819002389907837,0.689491868019104
1751214195184899000,1.306899169921875,-1.074584722518921,0.04966791719198227,0.26338642835617065
1751214195194893000,1.31689306640625,-1.7339829206466675,0.45020705461502075,0.13662005960941315
1751214195204887300,1.32688720703125,-2.2069599628448486,0.934902012348175,0.04713791608810425
1751214195214881300,1.33688134765625,-2.62241268157959,1.5676685571670532,-0.22130851447582245
1751214195224875500,1.34687548828125,-3.1443920135498047,2.1642162799835205,-0.6058686971664429
1751214195234869500,1.356869384765625,-3.742004871368408,2.4518375396728516,-0.8540751338005066
1751214195244863700,1.36686376953125,-4.145739555358887,2.603104829788208,-1.153414249420166
1751214195254857700,1.376857666015625,-4.4152512550354,2.4667510986328125,-1.6210649013519287
1751214195264851700,1.386851806640625,-4.5345611572265625,1.8947045803070068,-1.9800587892532349
1751214195274845700,1.396845703125,-4.571845054626465,0.7516766786575317,-1.997102975845337
1751214195284840000,1.40683984375,-4.473841190338135,-0.885500431060791,-1.7478313446044922
1751214195294834000,1.416833984375,-3.882619619369507,-2.0924441814422607,-1.2865722179412842
1751214195304828000,1.426827880859375,-3.206177234649658,-2.4844610691070557,-0.6868287324905396
1751214195314822100,1.436822265625,-2.3955116271972656,-2.344911575317383,-0.17337165772914886
1751214195324816100,1.446816162109375,-1.7041555643081665,-2.1329240798950195,-0.028495801612734795
1751214195334810000,1.45681005859375,-1.3685975074768066,-1.5928354263305664,-0.2553969621658325
1751214195344804400,1.466804443359375,-1.2120037078857422,-0.34328120946884155,-0.9669930934906006
1751214195354798300,1.47679833984375,-0.9755151867866516,1.1351715326309204,-1.9065556526184082
1751214195364792300,1.486792236328125,-0.4311654567718506,2.0214710235595703,-2.701242208480835
1751214195374786300,1.496786376953125,0.492418110370636,2.860898733139038,-3.112434148788452
1751214195384780500,1.506780517578125,1.4351764917373657,3.3487894535064697,-3.2807457447052
1751214195394774500,1.5167744140625,2.111618757247925,3.3700947761535645,-3.3989899158477783
1751214195404768500,1.5267685546875,2.64105486869812,3.307244062423706,-3.3936636447906494
1751214195414762800,1.5367626953125,3.2354719638824463,3.1655640602111816,-3.346791982650757
1751214195424756700,1.5467568359375,3.788343906402588,2.57753849029541,-3.3127036094665527
1751214195434750700,1.556750732421875,4.184621810913086,2.002296209335327,-3.3084425926208496
1751214195444745000,1.566744873046875,4.282626152038574,1.4270538091659546,-3.484210968017578
1751214195454739000,1.576739013671875,3.811779737472534,0.6110618710517883,-3.6951332092285156
1751214195464733000,1.58673291015625,3.231210947036743,-0.07816372066736221,-3.6205646991729736
1751214195474727200,1.59672705078125,2.9563729763031006,-0.8546077609062195,-3.202981472015381
1751214195484721200,1.60672119140625,3.0863351821899414,-1.1731215715408325,-2.481797933578491
1751214195494715100,1.616715087890625,3.3728909492492676,-0.8098666667938232,-1.377119541168213
1751214195504709000,1.626709228515625,3.5657036304473877,0.12423637509346008,-0.2191779911518097
1751214195514703400,1.636703369140625,3.6200320720672607,1.0595378875732422,0.6372939944267273
1751214195524697300,1.646697265625,3.6168363094329834,1.3961611986160278,1.2029489278793335
1751214195534691300,1.65669140625,3.574225902557373,1.2257189750671387,1.5161365270614624
1751214195544685600,1.666685546875,3.5912699699401855,0.7559376955032349,1.6674039363861084
1751214195554679600,1.676679443359375,3.6157710552215576,0.10399636626243591,1.7345155477523804
1751214195564673500,1.686673583984375,3.2983224391937256,-1.0655299425125122,1.7568860054016113
1751214195574667800,1.696667724609375,2.6293370723724365,-2.6580991744995117,1.6429028511047363
1751214195584661800,1.706661865234375,1.9433071613311768,-4.002461910247803,1.4021532535552979
1751214195594655700,1.71665576171875,1.7323850393295288,-4.131358623504639,0.9568730592727661
1751214195604650000,1.72664990234375,2.015745162963867,-3.6722300052642822,0.6522076725959778
1751214195614644000,1.73664404296875,2.2415809631347656,-3.2333414554595947,0.668186604976654
1751214195624638200,1.74663818359375,2.388587474822998,-2.796583414077759,0.6500771641731262
1751214195634632200,1.756632080078125,2.244776725769043,-2.9361329078674316,0.4764391779899597
1751214195644626400,1.76662646484375,1.7355808019638062,-3.5316152572631836,0.19414429366588593
1751214195654620700,1.77662060546875,1.165664792060852,-4.168642997741699,-0.138217955827713
1751214195664614700,1.78661474609375,0.772582471370697,-4.5489420890808105,-0.4066644012928009
1751214195674609000,1.79660888671875,0.47537389397621155,-3.633880615234375,-0.14141374826431274
1751214195684603000,1.806602783203125,0.1675127148628235,-1.443698525428772,0.5158539414405823
1751214195694597000,1.81659716796875,0.029028434306383133,0.5844302773475647,0.9877657294273376
1751214195704591000,1.826591064453125,0.0727042406797409,1.9596856832504272,1.1379679441452026
1751214195714585300,1.83658544921875,0.23142851889133453,2.741589069366455,1.1315762996673584
1751214195724579300,1.846579345703125,0.42424124479293823,3.0814082622528076,1.042094111442566
1751214195734573600,1.856573486328125,0.6181192398071289,3.1410629749298096,0.915327787399292
1751214195744567600,1.866567626953125,0.7906919121742249,2.9972524642944336,0.7715172171592712
1751214195754561800,1.876561767578125,0.8908267021179199,2.6989786624908447,0.5946834087371826
1751214195764555800,1.8865556640625,0.8439550995826721,2.1940436363220215,0.3826959729194641
1751214195774550000,1.896550048828125,0.6309024095535278,1.3322453498840332,0.1771000772714615
1751214195794538200,1.916538330078125,0.04500738903880119,-0.7065361142158508,-0.3139864504337311
1751214195804532200,1.9265322265625,-0.10519478470087051,-1.3137364387512207,-0.5696497559547424
1751214195814526500,1.9365263671875,-0.08602003753185272,-1.5257238149642944,-0.7326350808143616
1751214195824520400,1.9465205078125,0.048203181475400925,-1.4000227451324463,-0.760331928730011
1751214195834514700,1.9565146484375,0.21118851006031036,-1.0357025861740112,-0.6452834606170654
1751214195844508700,1.9665087890625,0.3262369930744171,-0.5392897129058838,-0.45566651225090027
1751214195854503000,1.9765029296875,0.3549990952014923,-0.03874896466732025,-0.2905506491661072
1751214195864497000,1.986496826171875,0.3230412006378174,0.3671164810657501,-0.21065588295459747
1751214195874491100,1.9964912109375,0.2751043438911438,0.6142576336860657,-0.2181127369403839
1751214195884485000,2.006485107421875,0.22184115648269653,0.6408892273902893,-0.2649843394756317
1751214195894479400,2.016479248046875,0.15899059176445007,0.44061967730522156,-0.2937464416027069
1751214195904473300,2.026473388671875,0.09400951862335205,0.09760478138923645,-0.30546435713768005
1751214195914467600,2.036467529296875,0.023702116683125496,-0.2697780132293701,-0.3257043659687042
1751214195924461600,2.046461669921875,-0.04340949282050133,-0.596813976764679,-0.35340121388435364
1751214195934455800,2.056455810546875,-0.08069372177124023,-0.839694082736969,-0.3842938542366028
1751214195944449800,2.06644970703125,-0.10199899226427078,-0.9888309836387634,-0.3842938542366028
1751214195954444000,2.076444091796875,-0.15206637978553772,-1.074052095413208,-0.3033338189125061
1751214195964438000,2.08643798828125,-0.16804534196853638,-1.0932267904281616,-0.13289164006710052
1751214195974432300,2.096432373046875,-0.1339569091796875,-1.0166609287261963,0.07163897901773453
1751214195984426200,2.10642626953125,-0.08921582996845245,-0.8077361583709717,0.24314641952514648
1751214195994420500,2.11642041015625,-0.030626330524683,-0.5510076284408569,0.3784348964691162
1751214196004414500,2.12641455078125,0.020506324246525764,-0.3464770019054413,0.45726442337036133
1751214196014408700,2.13640869140625,0.015180006623268127,-0.10040109604597092,0.44661179184913635
1751214196024402700,2.146402587890625,-0.06578002870082855,0.19987009465694427,0.3848264813423157
1751214196034397000,2.15639697265625,-0.18295903503894806,0.5364934206008911,0.2900180220603943
1751214196044391000,2.166390869140625,-0.27350643277168274,0.910400927066803,0.18029586970806122
1751214196054385200,2.17638525390625,-0.32463908195495605,1.2896348237991333,0.09294424951076508
1751214196064379100,2.186379150390625,-0.33955278992652893,1.66354238986969,0.036485280841588974
1751214196074373400,2.196373291015625,-0.31505173444747925,2.0065572261810303,-0.035952646285295486
1751214196084367400,2.206367431640625,-0.2894853949546814,2.235589027404785,-0.25859275460243225
1751214196094361600,2.216361572265625,-0.3043990731239319,2.6297364234924316,-0.5099949836730957
1751214196104355600,2.22635546875,-0.3704454302787781,3.3051135540008545,-0.48016759753227234
1751214196114349800,2.236349853515625,-0.31505173444747925,3.5980610847473145,-0.28628960251808167
1751214196124343800,2.24634375,-0.12330426275730133,3.223088264465332,-0.03275685757398605
1751214196134338000,2.256338134765625,0.005592633970081806,2.1248013973236084,0.18349166214466095
1751214196144332300,2.266332275390625,0.0727042406797409,0.7080008387565613,0.32517173886299133
1751214196154326300,2.276326171875,0.0918789878487587,-0.15579481422901154,0.3976096510887146
1751214196164320500,2.286320556640625,0.12170637398958206,-0.38589176535606384,0.3549990952014923
1751214196174314500,2.296314453125,0.17923060059547424,-0.3070622384548187,0.24634221196174622
1751214196184308700,2.306308837890625,0.2655169665813446,-0.09933583438396454,0.12170637398958206
1751214196194302700,2.316302734375,0.35393384099006653,0.15086796879768372,0.010918952524662018
1751214196204297000,2.326296875,0.4295675754547119,0.37457332015037537,-0.08602003753185272
1751214196214291000,2.336291015625,0.4721781015396118,0.503470242023468,-0.14674006402492523
1751214196224285200,2.34628515625,0.4881570637226105,0.4960133731365204,-0.1723063886165619
1751214196234279200,2.356279052734375,0.48496127128601074,0.4022701680660248,-0.16804534196853638
1751214196244273400,2.3662734375,0.44661179184913635,0.3117227852344513,-0.12650005519390106
1751214196254267400,2.376267333984375,0.39547911286354065,0.2510027587413788,-0.06151897460222244
1751214196264261600,2.38626171875,0.34434646368026733,0.21904483437538147,0.017310533672571182
1751214196274255600,2.396255615234375,0.3134538233280182,0.16365112364292145,0.08016108721494675
1751214196284249900,2.406249755859375,0.30599698424339294,0.08269108831882477,0.12170637398958206
1751214196294243800,2.416243896484375,0.3123885691165924,0.014514217153191566,0.13129374384880066
1751214196304238000,2.426238037109375,0.32410645484924316,-0.012117373757064342,0.10466215014457703
1751214196314232000,2.436232177734375,0.3273022472858429,-0.004660528618842363,0.06311687082052231
1751214196324226300,2.446226318359375,0.30173593759536743,0.04860265180468559,0.03009369783103466
1751214196334220300,2.45622021484375,0.2612559199333191,0.14767217636108398,0.008788425475358963
1751214196344214500,2.466214599609375,0.2239716798067093,0.2318280041217804,-0.008255792781710625
1751214196354208500,2.47620849609375,0.19627483189105988,0.28083011507987976,-0.016777902841567993
1751214196364202800,2.48620263671875,0.18242639303207397,0.2829606533050537,-0.030626330524683
1751214196374196700,2.49619677734375,0.18029586970806122,0.23076273500919342,-0.07004108279943466
1751214196384191000,2.50619091796875,0.17496955394744873,0.14873743057250977,-0.1435442715883255
1751214196394185000,2.51618505859375,0.15153375267982483,0.07523424178361893,-0.24474431574344635
1751214196404179000,2.526178955078125,0.11211899667978287,-0.001464737462811172,-0.3406180441379547
1751214196414173200,2.536173095703125,0.052464235574007034,-0.12929637730121613,-0.39920756220817566
1751214196424167200,2.546167236328125,-0.028495801612734795,-0.3273022472858429,-0.42796966433525085
1751214196434161200,2.5561611328125,-0.138217955827713,-0.5520728826522827,-0.45140546560287476
1751214196444155400,2.5661552734375,-0.26391905546188354,-0.7246456146240234,-0.5036033987998962
1751214196454149400,2.5761494140625,-0.4162517786026001,-0.8119972348213196,-0.6133255362510681
1751214196464143400,2.586143310546875,-0.6239781975746155,-0.7864308953285217,-0.8050730228424072
1751214196474137600,2.5961376953125,-0.8711193203926086,-0.6319676637649536,-1.0586057901382446
1751214196484131600,2.606131591796875,-1.1480878591537476,-0.3976096510887146,-1.3163995742797852
1751214196494125600,2.61612548828125,-1.4357091188430786,-0.13768532872200012,-1.5113427639007568
1751214196504119600,2.62611962890625,-1.7137428522109985,0.12743216753005981,-1.6295870542526245
1751214196514113800,2.63611376953125,-1.9502314329147339,0.35539859533309937,-1.6807197332382202
1751214196524107800,2.646107666015625,-2.0876505374908447,0.5451486706733704,-1.6966986656188965
1751214196534101800,2.656101806640625,-2.125999927520752,0.7612640261650085,-1.6828502416610718
1751214196544096000,2.666095947265625,-2.0386483669281006,0.880573570728302,-1.6455659866333008
1751214196554090000,2.676090087890625,-1.8682061433792114,0.8166577219963074,-1.5614101886749268
1751214196564084000,2.686083984375,-1.6796544790267944,0.6749776601791382,-1.4495575428009033
1751214196574078200,2.696078125,-1.4847111701965332,0.48855653405189514,-1.341965913772583
1751214196584072200,2.706072265625,-1.2982900142669678,0.24248063564300537,-1.2407658100128174
1751214196594066200,2.716066162109375,-1.1416963338851929,-0.014247900806367397,-1.1267826557159424
1751214196604060200,2.72606005859375,-1.024517297744751,-0.2143843024969101,-1.0404962301254272
1751214196614054400,2.736054443359375,-0.9744499325752258,-0.41358861327171326,-0.9904288649559021
1751214196624048400,2.74604833984375,-1.0607362985610962,-0.5584644675254822,-0.9701888561248779
1751214196634042400,2.75604248046875,-1.2439615726470947,-0.5062665343284607,-1.1001510620117188
1751214196644036600,2.76603662109375,-1.4335784912109375,-0.22610220313072205,-1.3984248638153076
1751214196654030600,2.776030517578125,-1.5816501379013062,0.21584904193878174,-1.7435702085494995
1751214196664024600,2.786024658203125,-1.7201344966888428,0.6259755492210388,-1.9576882123947144
1751214196674018800,2.796018798828125,-1.8618144989013672,0.8081356287002563,-1.9225345849990845
1751214196694006800,2.8160068359375,-2.1238694190979004,0.5364934206008911,-1.2695279121398926
1751214196704001000,2.8260009765625,-2.3379874229431152,0.4065312445163727,-1.0234520435333252
1751214196713995000,2.8359951171875,-2.6799368858337402,0.4193144142627716,-1.108673095703125
1751214196723989000,2.845989013671875,-3.0261476039886475,0.28509119153022766,-1.3163995742797852
1751214196733983200,2.855983154296875,-3.15824031829834,-0.22077588737010956,-1.4080122709274292
1751214196743977200,2.865977294921875,-3.0719540119171143,-0.7246456146240234,-1.2887027263641357
1751214196753971500,2.875971435546875,-2.9206864833831787,-0.6990792751312256,-1.0724542140960693
1751214196763965400,2.88596533203125,-2.751309633255005,-0.36671701073646545,-0.8391614556312561
1751214196773959700,2.895959716796875,-2.58725905418396,-0.20160114765167236,-0.6516750454902649
1751214196783953700,2.90595361328125,-2.4264042377471924,-0.23142851889133453,-0.5707150101661682
1751214196793948000,2.915947998046875,-2.265549421310425,-0.3070622384548187,-0.5515402555465698
1751214196803942000,2.92594189453125,-2.131326198577881,-0.38163068890571594,-0.5472791790962219
1751214196813936000,2.93593603515625,-2.032256603240967,-0.3976096510887146,-0.5302349925041199
1751214196823930000,2.94593017578125,-1.9470356702804565,-0.3368896245956421,-0.5004075765609741
1751214196833924400,2.95592431640625,-1.833052396774292,-0.2559295892715454,-0.44714441895484924
1751214196853912600,2.97591259765625,-1.485776424407959,-0.2697780132293701,-0.27776750922203064
1751214196863906800,2.98590673828125,-1.2450268268585205,-0.3645864725112915,-0.1808284968137741
1751214196873900800,2.99590087890625,-0.9414267539978027,-0.5030707716941833,-0.0870852991938591
1751214196883895000,3.00589501953125,-0.6165213584899902,-0.6266413331031799,0.013049479573965073
1751214196893889000,3.015888916015625,-0.3235738277435303,-0.7001445293426514,0.10892320424318314
1751214196903883300,3.02588330078125,-0.09347688406705856,-0.7001445293426514,0.18029586970806122
1751214196913877200,3.035877197265625,0.10040109604597092,-0.6064013242721558,0.24314641952514648
1751214196923871500,3.04587158203125,0.2804306447505951,-0.4306328296661377,0.31451907753944397
1751214196933865500,3.055865478515625,0.4455465078353882,-0.22610220313072205,0.3826959729194641
1751214196943859700,3.065859619140625,0.5861613154411316,0.02516685426235199,0.4402202069759369
1751214196953853700,3.075853759765625,0.7001445293426514,0.3436806797981262,0.4902876019477844
1751214196963848000,3.085847900390625,0.7885614037513733,0.6440850496292114,0.5488771200180054
1751214196973842000,3.095842041015625,0.8578035235404968,0.8784430027008057,0.6106624007225037
1751214196983836200,3.105836181640625,0.9313067197799683,1.0147967338562012,0.6671213507652283
1751214196993830100,3.115830078125,1.0271804332733154,1.010535717010498,0.7086666226387024
1751214197013818400,3.135818359375,1.2274500131607056,0.7207840085029602,0.5243760347366333
1751214197023812600,3.1458125,1.230645775794983,0.5886912941932678,0.46152547001838684
1751214197033806600,3.155806640625,1.1315762996673584,0.8539419770240784,0.5861613154411316
1751214197043800800,3.16580078125,0.9355677962303162,1.583647608757019,0.8034750819206238
1751214197053794800,3.175794921875,0.7512772083282471,2.3122878074645996,0.823715090751648
1751214197063789000,3.1857890625,0.6340981721878052,2.8779428005218506,0.6436855792999268
1751214197083777300,3.20577734375,0.8886961936950684,3.4105746746063232,0.37204334139823914
1751214197093771300,3.215771240234375,1.163534164428711,2.9589028358459473,0.43276336789131165
1751214197103765500,3.225765625,1.359542727470398,2.063016176223755,0.5403549671173096
1751214197113759500,3.235759521484375,1.5203975439071655,1.157542109489441,0.6756434440612793
1751214197123753700,3.245753662109375,1.6663386821746826,0.5151881575584412,0.8727172613143921
1751214197133747700,3.255747802734375,1.7877787351608276,0.09227846562862396,1.0751173496246338
1751214197143742000,3.265741943359375,1.7728650569915771,-0.03874896466732025,1.178447961807251
1751214197153736000,3.27573583984375,1.6503597497940063,-0.0739026665687561,1.1741868257522583
1751214197163730200,3.285730224609375,1.5587470531463623,-0.1153147891163826,1.13370680809021
1751214197173724200,3.29572412109375,1.460742712020874,-0.17070849239826202,1.0484857559204102
1751214197183718400,3.305718505859375,1.3510205745697021,-0.2569948434829712,0.9057404398918152
1751214197193712400,3.31571240234375,1.2519510984420776,-0.3837612271308899,0.7406245470046997
1751214197203706600,3.32570654296875,1.1677953004837036,-0.4444812536239624,0.6117276549339294
1751214197213700600,3.33570068359375,1.1124016046524048,-0.40506649017333984,0.5169191956520081
1751214197223694800,3.34569482421875,1.1049447059631348,-0.38056543469429016,0.4487423002719879
1751214197233688800,3.355688720703125,1.1390331983566284,-0.4029359817504883,0.4082622826099396
1751214197243683000,3.36568310546875,1.200818419456482,-0.4625907242298126,0.39441385865211487
1751214197253677000,3.375677001953125,1.2594079971313477,-0.4860265254974365,0.40932756662368774
1751214197263671300,3.38567138671875,1.305214285850525,-0.4316980838775635,0.4125233590602875
1751214197273665300,3.395665283203125,1.3307806253433228,-0.303866446018219,0.4018706977367401
1751214197283659500,3.405659423828125,1.329715371131897,-0.10266478359699249,0.3784348964691162
1751214197293653500,3.415653564453125,1.305214285850525,0.16471639275550842,0.34860754013061523
1751214197303647700,3.425647705078125,1.2657995223999023,0.4438154697418213,0.3262369930744171
1751214197313641700,3.435641845703125,1.2359721660614014,0.6845650672912598,0.3123885691165924
1751214197323636000,3.445635986328125,1.219993233680725,0.8550072312355042,0.2996053993701935
1751214197333630000,3.4556298828125,1.2157320976257324,0.9615336060523987,0.29534435272216797
1751214197343624200,3.465624267578125,1.2231889963150024,1.023318886756897,0.30067065358161926
1751214197353618400,3.475618408203125,1.2338416576385498,1.0265146493911743,0.3177148699760437
1751214197363612400,3.4856123046875,1.2349069118499756,0.9913609623908997,0.34860754013061523
1751214197373606700,3.495606689453125,1.2338416576385498,0.9274451732635498,0.3933486044406891
1751214197383600600,3.5056005859375,1.2338416576385498,0.8613988161087036,0.4487423002719879
1751214197393595000,3.515594970703125,1.2189279794692993,0.7548724412918091,0.4764391779899597
1751214197403588900,3.5255888671875,1.2018836736679077,0.5972134470939636,0.4764391779899597
1751214197413583000,3.5355830078125,1.1933616399765015,0.40759649872779846,0.45193809270858765
1751214197423577000,3.5455771484375,1.1773825883865356,0.21584904193878174,0.39547911286354065
1751214197433571300,3.5555712890625,1.1432942152023315,0.027297381311655045,0.31558436155319214
1751214197443565300,3.5655654296875,1.0953572988510132,-0.1483379602432251,0.22503694891929626
1751214197453559600,3.5755595703125,1.0399636030197144,-0.2857569754123688,0.13981585204601288
1751214197463553500,3.585553466796875,0.9962878227233887,-0.3826959729194641,0.09827057272195816
1751214197473547800,3.5955478515625,0.9515467286109924,-0.4647212624549866,0.10466215014457703
1751214197483541800,3.605541748046875,0.8673909306526184,-0.5339633822441101,0.14407691359519958
1751214197493536000,3.615535888671875,0.7406245470046997,-0.5446160435676575,0.18668745458126068
1751214197503530000,3.625530029296875,0.6330329179763794,-0.5105276107788086,0.2047969400882721
1751214197513524200,3.635524169921875,0.5723128914833069,-0.5073317885398865,0.18029586970806122
1751214197523518200,3.645518310546875,0.5126581192016602,-0.5819002389907837,0.15579481422901154
1751214197533512400,3.655512451171875,0.46152547001838684,-0.622380256652832,0.13235901296138763
1751214197543506400,3.66550634765625,0.4103928208351135,-0.6255760788917542,0.11318425834178925
1751214197553500700,3.675500732421875,0.3699128031730652,-0.568051815032959,0.10892320424318314
1751214197563494700,3.68549462890625,0.36778226494789124,-0.4913528561592102,0.12809795141220093
1751214197573489000,3.695489013671875,0.34860754013061523,-0.3976096510887146,0.13981585204601288
1751214197583483000,3.70548291015625,0.2878875136375427,-0.29214856028556824,0.12383689731359482
1751214197593477000,3.71547705078125,0.24634221196174622,-0.17283903062343597,0.08974846452474594
1751214197603471000,3.72547119140625,0.23888537287712097,-0.011052110232412815,0.03861580789089203
1751214197613465300,3.73546533203125,0.2420811653137207,0.14128059148788452,-0.012516847811639309
1751214197623459300,3.745459228515625,0.2559295892715454,0.24354590475559235,-0.048735812306404114
1751214197633453600,3.75545361328125,0.2985401451587677,0.3213101327419281,-0.06684529036283493
1751214197643447600,3.765447509765625,0.36778226494789124,0.38522595167160034,-0.08069372177124023
1751214197653441800,3.77544189453125,0.4306328296661377,0.4150533378124237,-0.09347688406705856
1751214197663435800,3.785435791015625,0.46046021580696106,0.4257059693336487,-0.09986846894025803
1751214197673430000,3.795429931640625,0.4636560082435608,0.44168493151664734,-0.10306425392627716
1751214197683424000,3.805424072265625,0.44661179184913635,0.4725775718688965,-0.09560741484165192
1751214197693418200,3.815418212890625,0.4157191216945648,0.4619249403476715,-0.09880319982767105
1751214197703412200,3.825412109375,0.3922833502292633,0.3884217441082001,-0.11904320865869522
1751214197713406500,3.835406494140625,0.3549990952014923,0.28189539909362793,-0.16804534196853638
1751214197723400400,3.845400390625,0.31558436155319214,0.1892174482345581,-0.25326642394065857
1751214197733394700,3.855394775390625,0.28149592876434326,0.14554163813591003,-0.3171822428703308
1751214197743388700,3.865388671875,0.22077588737010956,0.11571425944566727,-0.318247526884079
1751214197753383000,3.8753828125,0.13662005960941315,0.06138581782579422,-0.3171822428703308
1751214197763377000,3.885376953125,0.06737792491912842,0.06564687192440033,-0.37577176094055176
1751214197773371000,3.895370849609375,0.016245270147919655,0.13062795996665955,-0.4673844277858734
1751214197783365000,3.905365234375,-0.010386320762336254,0.1892174482345581,-0.5238434076309204
1751214197793359000,3.915359130859375,0.006657897960394621,0.23715431988239288,-0.5089297294616699
1751214197803353000,3.92535302734375,0.04713791608810425,0.21158799529075623,-0.4269044101238251
1751214197813347300,3.935347412109375,0.10040109604597092,0.07949529588222504,-0.3043990731239319
1751214197823341300,3.94534130859375,0.19201377034187317,-0.07909582555294037,-0.14567480981349945
1751214197833335300,3.955335205078125,0.27297380566596985,-0.29534435272216797,0.03328948840498924
1751214197843329300,3.965329345703125,0.3070622384548187,-0.5744433999061584,0.1898832470178604
1751214197853323500,3.975323486328125,0.2900180220603943,-0.7821698188781738,0.30599698424339294
1751214197863317500,3.9853173828125,0.24314641952514648,-0.8982835412025452,0.35819488763809204
1751214197873311500,3.9953115234375,0.1664474457502365,-0.9813741445541382,0.284691721200943
1751214197883305700,4.0053056640625,0.048203181475400925,-1.0090709924697876,0.006657897960394621
1751214197893299700,4.0152998046875,-0.11265163123607635,-0.8056056499481201,-0.42903491854667664
1751214197903293700,4.025293701171875,-0.2937464416027069,-0.30067065358161926,-0.844487726688385
1751214197913288000,4.035287841796875,-0.45673179626464844,0.3543333113193512,-1.1385005712509155
1751214197923282000,4.045281982421875,-0.5909550189971924,0.986034631729126,-1.310007929801941
1751214197933276000,4.05527587890625,-0.7198519110679626,1.534645438194275,-1.3877722024917603
1751214197943270100,4.065270263671875,-0.8870983123779297,1.970338225364685,-1.376054286956787
1751214197953264000,4.07526416015625,-1.1054773330688477,2.289917469024658,-1.2759195566177368
1751214197963258000,4.085258056640625,-1.364336371421814,2.4720773696899414,-1.1097383499145508
1751214197973252000,4.095252197265625,-1.644500732421875,2.429466962814331,-0.9254477620124817
1751214197983246300,4.105246337890625,-1.8554229736328125,2.061950922012329,-0.7273087501525879
1751214197993240300,4.115240234375,-1.967275619506836,1.4068137407302856,-0.5366265773773193
1751214198003234300,4.125234375,-2.0524966716766357,0.7122619152069092,-0.43755704164505005
1751214198013228500,4.135228515625,-2.1494357585906982,-0.04194475710391998,-0.383228600025177
1751214198023222500,4.145222412109375,-2.24424409866333,-0.629837155342102,-0.38642439246177673
1751214198033216500,4.155216552734375,-2.2857894897460938,-0.8801741003990173,-0.5078644156455994
1751214198043210800,4.165210693359375,-2.2570273876190186,-0.8759130239486694,-0.6900244951248169
1751214198053204700,4.175204833984375,-2.1781978607177734,-0.7555382251739502,-0.8380961418151855
1751214198063198700,4.18519873046875,-2.085519790649414,-0.6575340032577515,-0.903077244758606
1751214198073193000,4.19519287109375,-1.9704713821411133,-0.6585992574691772,-0.8583361506462097
1751214198083187000,4.20518701171875,-1.8437050580978394,-0.7523424625396729,-0.7262434959411621
1751214198103175200,4.225175048828125,-1.6849807500839233,-1.3041490316390991,-0.37151068449020386
1751214198113169400,4.23516943359375,-1.6828502416610718,-1.6301196813583374,-0.261788547039032
1751214198123163400,4.245163330078125,-1.7542228698730469,-1.7579513788223267,-0.2692453861236572
1751214198133157600,4.25515771484375,-1.8959029912948608,-1.6727302074432373,-0.38109806180000305
1751214198143151600,4.265151611328125,-2.0354526042938232,-1.4831132888793945,-0.45140546560287476
1751214198153145900,4.275145751953125,-2.1121513843536377,-1.2881700992584229,-0.40986019372940063
1751214198163139800,4.285139892578125,-2.1568925380706787,-1.1603384017944336,-0.3352917432785034
1751214198173134000,4.295134033203125,-2.1718063354492188,-1.1326415538787842,-0.29161593317985535
1751214198183128000,4.305128173828125,-2.160088300704956,-1.188035249710083,-0.2894853949546814
1751214198193122300,4.315122314453125,-2.1430442333221436,-1.2583426237106323,-0.32463908195495605
1751214198203116300,4.3251162109375,-2.125999927520752,-1.3009532690048218,-0.3747064769268036
1751214198213110500,4.335110595703125,-2.0993683338165283,-1.3158669471740723,-0.4258391261100769
1751214198223104500,4.3451044921875,-2.0535619258880615,-1.3350416421890259,-0.4546012580394745
1751214198233098800,4.3550986328125,-2.00136399269104,-1.2775174379348755,-0.4460791349411011
1751214198243092700,4.3650927734375,-1.9310566186904907,-1.0837725400924683,-0.4162517786026001
1751214198253087000,4.3750869140625,-1.820269227027893,-0.8599340915679932,-0.3970770239830017
1751214198273075200,4.3950751953125,-1.5518227815628052,-0.5371592044830322,-0.383228600025177
1751214198293063400,4.4150634765625,-1.2865722179412842,-0.3464770019054413,-0.32890015840530396
1751214198303057400,4.425057373046875,-1.1683279275894165,-0.31984540820121765,-0.30652961134910583
1751214198313051600,4.4350517578125,-1.066062569618225,-0.31878015398979187,-0.29694223403930664
1751214198323045600,4.445045654296875,-0.9851025342941284,-0.35286858677864075,-0.27670222520828247
1751214198333039900,4.455039794921875,-0.9147951602935791,-0.3976096510887146,-0.21704746782779694
1751214198343033900,4.465033935546875,-0.8508793115615845,-0.4391549229621887,-0.14460954070091248
1751214198353028000,4.475028076171875,-0.760331928730011,-0.45726442337036133,-0.10412952303886414
1751214198363022300,4.485022216796875,-0.626108705997467,-0.5062665343284607,-0.10839057713747025
1751214198373016300,4.495016357421875,-0.4450138807296753,-0.6095971465110779,-0.1243695318698883
1751214198383010600,4.505010498046875,-0.23409168422222137,-0.6990792751312256,-0.11478215456008911
1751214198393004500,4.515004638671875,-0.019973693415522575,-0.6958834528923035,-0.08282424509525299
1751214198402998800,4.524998779296875,0.18668745458126068,-0.5893571376800537,-0.044474758207798004
1751214198412992800,4.53499267578125,0.360325425863266,-0.36778226494789124,-0.007190529722720385
1751214198422987000,4.544987060546875,0.47430863976478577,-0.03235738351941109,0.020506324246525764
1751214198432981000,4.55498095703125,0.546746551990509,0.37137752771377563,0.05352949723601341
1751214198442975200,4.564975341796875,0.6095971465110779,0.7399587631225586,0.07696529477834702
1751214198452969200,4.57496923828125,0.6756434440612793,0.9796430468559265,0.08016108721494675
1751214198462963500,4.58496337890625,0.7640603184700012,1.0712558031082153,0.056725289672613144
1751214198472957400,4.59495751953125,0.8844351172447205,1.0435588359832764,0.011984216049313545
1751214198482951700,4.60495166015625,1.036767840385437,0.9689904451370239,-0.029561065137386322
1751214198492945700,4.614945556640625,1.1933616399765015,0.8624640703201294,-0.03275685757398605
1751214198502940000,4.62493994140625,1.3201279640197754,0.6270408034324646,0.02263685315847397
1751214198512934000,4.634933837890625,1.4000227451324463,0.344745934009552,0.29214856028556824
1751214198522928000,4.64492822265625,1.4660691022872925,0.4704470634460449,0.7693866491317749
1751214198532922000,4.654922119140625,1.5704649686813354,1.131975769996643,1.120923638343811
1751214198542916400,4.664916259765625,1.7014923095703125,1.9809908866882324,1.0815088748931885
1751214198552910300,4.674910400390625,1.795235514640808,2.6148228645324707,0.6585992574691772
1751214198562904600,4.684904541015625,1.7696691751480103,2.8055050373077393,0.44235071539878845
1751214198572898600,4.694898681640625,1.706818699836731,2.8395934104919434,0.6106624007225037
1751214198582892800,4.704892822265625,1.7196018695831299,2.681934356689453,0.8716519474983215
1751214198592886800,4.71488671875,1.7515597343444824,2.255828857421875,1.0516815185546875
1751214198602881000,4.724881103515625,1.6919050216674805,1.7530244588851929,1.1294457912445068
1751214198612875000,4.734875,1.5800522565841675,1.3684643507003784,1.0879005193710327
1751214198622869200,4.744869140625,1.5491596460342407,1.1383674144744873,0.9739173054695129
1751214198632863200,4.75486328125,1.5747259855270386,0.9135967493057251,0.8876309394836426
1751214198642857500,4.764857421875,1.5693997144699097,0.5844302773475647,0.8791088461875916
1751214198652851500,4.7748515625,1.5022881031036377,0.28615644574165344,0.9025446176528931
1751214198662845700,4.784845703125,1.4096101522445679,0.14341111481189728,0.9036098718643188
1751214198672839700,4.794839599609375,1.3126710653305054,0.14980269968509674,0.8588688373565674
1751214198682834000,4.804833984375,1.2349069118499756,0.23395852744579315,0.7747129797935486
1751214198692828000,4.814827880859375,1.1891005039215088,0.3032006621360779,0.6799045205116272
1751214198702822100,4.824822265625,1.1688605546951294,0.314918577671051,0.5946834087371826
1751214198712816000,4.834816162109375,1.1592731475830078,0.2563290596008301,0.5169191956520081
1751214198722810400,4.844810302734375,1.165664792060852,0.1849564015865326,0.46046021580696106
1751214198732804400,4.854804443359375,1.1869699954986572,0.09760478138923645,0.43276336789131165
1751214198742798600,4.864798583984375,1.2029489278793335,0.014514217153191566,0.40932756662368774
1751214198752792600,4.87479248046875,1.2029489278793335,-0.04407528415322304,0.3848264813423157
1751214198762786800,4.884786865234375,1.2040141820907593,-0.0600542388856411,0.3635212182998657
1751214198772780800,4.89478076171875,1.2189279794692993,-0.061119500547647476,0.33795487880706787
1751214198782775000,4.904775146484375,1.2359721660614014,-0.02383527345955372,0.32091066241264343
1751214198792769000,4.91476904296875,1.2487553358078003,0.026232117787003517,0.31558436155319214
1751214198802763300,4.92476318359375,1.2444941997528076,0.050733182579278946,0.32091066241264343
1751214198812757200,4.93475732421875,1.2317110300064087,0.04221107065677643,0.32091066241264343
1751214198822751500,4.94475146484375,1.2295805215835571,0.009187898598611355,0.3177148699760437
1751214198832745500,4.954745361328125,1.242363691329956,-0.02383527345955372,0.32091066241264343
1751214198842739700,4.96473974609375,1.262603759765625,-0.021704746410250664,0.3273022472858429
1751214198852734000,4.97473388671875,1.2892353534698486,0.0017310534603893757,0.32836753129959106
1751214198862728000,4.98472802734375,1.3158669471740723,0.01771000772714615,0.32091066241264343
1751214198872722200,4.99472216796875,1.3371721506118774,0.014514217153191566,0.31984540820121765
1751214198882716200,5.004716064453125,1.3361068964004517,-0.00892158318310976,0.3230412006378174
1751214198892710400,5.01471044921875,1.3105405569076538,-0.0588558167219162,0.3304980397224426
1751214198902704400,5.024704345703125,1.2508858442306519,-0.12064110487699509,0.33795487880706787
1751214198912698600,5.03469873046875,1.1592731475830078,-0.17816534638404846,0.3454117476940155
1751214198922692600,5.044692626953125,1.0570077896118164,-0.23462431132793427,0.3560643792152405
1751214198932686800,5.054686767578125,0.9632646441459656,-0.3166496157646179,0.37097805738449097
1751214198942680800,5.064680908203125,0.8727172613143921,-0.4157191216945648,0.38589176535606384
1751214198952675000,5.074675048828125,0.7779088020324707,-0.47111284732818604,0.3848264813423157
1751214198962669000,5.0846689453125,0.6990792751312256,-0.5211802124977112,0.3848264813423157
1751214198972663300,5.094663330078125,0.6415550112724304,-0.568051815032959,0.3976096510887146
1751214198982657300,5.1046572265625,0.5904223918914795,-0.6042708158493042,0.41891491413116455
1751214198992651500,5.114651611328125,0.5584644675254822,-0.6713824272155762,0.4348938763141632
1751214199002645500,5.1246455078125,0.5371592044830322,-0.7427550554275513,0.43702441453933716
1751214199012639700,5.1346396484375,0.5052012801170349,-0.7970834970474243,0.41784965991973877
1751214199022633700,5.1446337890625,0.4338286221027374,-0.802409827709198,0.3795001804828644
1751214199032628000,5.1546279296875,0.35393384099006653,-0.6905571818351746,0.32410645484924316
1751214199042622000,5.1646220703125,0.28149592876434326,-0.5946834087371826,0.2708432674407959
1751214199052616200,5.1746162109375,0.228232741355896,-0.5893571376800537,0.25060325860977173
1751214199062610200,5.184610107421875,0.21651484072208405,-0.58403080701828,0.22610220313072205
1751214199072604400,5.1946044921875,0.23142851889133453,-0.5488771200180054,0.17816534638404846
1751214199082598400,5.204598388671875,0.23888537287712097,-0.4636560082435608,0.11105373501777649
1751214199092592600,5.214592529296875,0.22503694891929626,-0.33902016282081604,0.05459476262331009
1751214199102586600,5.224586669921875,0.20586219429969788,-0.19840535521507263,0.0141147430986166
1751214199112580900,5.234580810546875,0.1898832470178604,-0.05352949723601341,-0.008255792781710625
1751214199122574800,5.244574951171875,0.20266640186309814,0.09653951972723007,-0.023169483989477158
1751214199132569000,5.254569091796875,0.2474074810743332,0.24887222051620483,-0.035952646285295486
1751214199142563000,5.26456298828125,0.293213814496994,0.4054659605026245,-0.03382211923599243
1751214199152557300,5.274557373046875,0.32517173886299133,0.5110602378845215,-0.029561065137386322
1751214199162551300,5.28455126953125,0.3507380485534668,0.5226449966430664,-0.029561065137386322
1751214199172545500,5.294545654296875,0.3795001804828644,0.4704470634460449,-0.03488738462328911
1751214199182539500,5.30453955078125,0.4157191216945648,0.4097270369529724,-0.030626330524683
1751214199192533800,5.31453369140625,0.47111284732818604,0.39374807476997375,-0.0007989477599039674
1751214199202527700,5.32452783203125,0.5392897129058838,0.39374807476997375,0.04394212365150452
1751214199212522000,5.33452197265625,0.6127929091453552,0.39481332898139954,0.09294424951076508
1751214199222516000,5.344515869140625,0.6777740120887756,0.3916175365447998,0.14407691359519958
1751214199232510200,5.35451025390625,0.7321024537086487,0.3585943877696991,0.1909485012292862
1751214199242504200,5.364504150390625,0.7885614037513733,0.2744385600090027,0.22610220313072205
1751214199252498400,5.37449853515625,0.8290414214134216,0.1519332230091095,0.2324937880039215
1751214199262492400,5.384492431640625,0.8269109129905701,-0.004660528618842363,0.20160114765167236
1751214199272486700,5.394486572265625,0.7693866491317749,-0.1621863842010498,0.14620743691921234
1751214199282480600,5.404480712890625,0.6703171730041504,-0.28149592876434326,0.0918789878487587
1751214199292475000,5.414474853515625,0.5360939502716064,-0.3454117476940155,0.03861580789089203
1751214199302468900,5.42446875,0.37204334139823914,-0.34754225611686707,-0.04767054691910744
1751214199312463000,5.434463134765625,0.19307903945446014,-0.2900180220603943,-0.16165375709533691
1751214199322457000,5.44445703125,0.017310533672571182,-0.21758009493350983,-0.27350643277168274
1751214199332451000,5.454451171875,-0.1435442715883255,-0.1525990217924118,-0.35766226053237915
1751214199342445300,5.4644453125,-0.2948117256164551,-0.03235738351941109,-0.41305598616600037
1751214199352439300,5.474439208984375,-0.4173170328140259,0.14447638392448425,-0.4684496819972992
1751214199362433300,5.484433349609375,-0.5121254920959473,0.1988048255443573,-0.5696497559547424
1751214199372427500,5.494427490234375,-0.5877591967582703,0.010253162123262882,-0.7667235136032104
1751214199382421500,5.50442138671875,-0.6367613673210144,-0.2569948434829712,-1.0671278238296509
1751214199392415500,5.51441552734375,-0.6964160799980164,-0.4295675754547119,-1.3707280158996582
1751214199402409700,5.52440966796875,-0.8231824636459351,-0.5179844498634338,-1.5560839176177979
1751214199412403700,5.53440380859375,-0.9829720258712769,-0.3464770019054413,-1.6508923768997192
1751214199422397700,5.544397705078125,-1.1896331310272217,0.24248063564300537,-1.6935029029846191
1751214199432391700,5.5543916015625,-1.4357091188430786,1.036102056503296,-1.6849807500839233
1751214199442386000,5.564385986328125,-1.6764585971832275,1.7338497638702393,-1.6562186479568481
1751214199452380000,5.5743798828125,-1.8809893131256104,2.190847873687744,-1.6231955289840698
1751214199462374000,5.584373779296875,-2.010951519012451,2.335723638534546,-1.5816501379013062
1751214199472368000,5.5943681640625,-2.0684757232666016,2.117344617843628,-1.510277509689331
1751214199482362000,5.604362060546875,-2.040778875350952,1.6784560680389404,-1.3930984735488892
1751214199492356000,5.614356201171875,-1.9459702968597412,1.1543463468551636,-1.297224760055542
1751214199502350300,5.624350341796875,-1.8149429559707642,0.32344067096710205,-1.1800458431243896
1751214199512344300,5.63434423828125,-1.833052396774292,-0.3795001804828644,-1.0852373838424683
1751214199522338300,5.64433837890625,-1.9235998392105103,-0.6905571818351746,-1.0468878746032715
1751214199532332500,5.65433251953125,-1.9395787715911865,-0.8716519474983215,-1.04475736618042
1751214199542326500,5.664326416015625,-1.887380838394165,-1.086835265159607,-1.0596710443496704
1751214199552320500,5.674320556640625,-1.8170734643936157,-1.292431116104126,-1.0468878746032715
1751214199562314500,5.684314453125,-1.7552881240844727,-1.3978922367095947,-0.9978857040405273
1751214199572308700,5.694308837890625,-1.7009596824645996,-1.393631100654602,-0.9297088384628296
1751214199582302700,5.704302734375,-1.6658060550689697,-1.296692132949829,-0.8764456510543823
1751214199592296700,5.714296630859375,-1.6892417669296265,-1.1305110454559326,-0.835965633392334
1751214199602291000,5.724291015625,-1.778723955154419,-0.9888309836387634,-0.7795066833496094
1751214199612285000,5.734284912109375,-1.9278608560562134,-0.9419593811035156,-0.6804371476173401
1751214199622279200,5.744279052734375,-2.1121513843536377,-0.9781783223152161,-0.5376918315887451
1751214199632273200,5.754273193359375,-2.314551591873169,-0.982439398765564,-0.41412124037742615
1751214199642267400,5.764267333984375,-2.492450714111328,-0.8844351172447205,-0.35233595967292786
1751214199652261400,5.774261474609375,-2.5851285457611084,-0.6937529444694519,-0.3448790907859802
1751214199662255600,5.784255615234375,-2.5691494941711426,-0.5787044763565063,-0.4077296555042267
1751214199672249600,5.79424951171875,-2.478602170944214,-0.6266413331031799,-0.5206475853919983
1751214199682243800,5.804243896484375,-2.3369221687316895,-0.7757782340049744,-0.6122602820396423
1751214199692237800,5.81423779296875,-2.2122862339019775,-0.8258456587791443,-0.6335655450820923
1751214199702232000,5.824232177734375,-2.1323914527893066,-0.7693866491317749,-0.5653886795043945
1751214199712226000,5.83422607421875,-2.0631494522094727,-0.6649908423423767,-0.4311654567718506
1751214199722220300,5.84422021484375,-1.9662103652954102,-0.5446160435676575,-0.2798980176448822
1751214199732214300,5.85421435546875,-1.8437050580978394,-0.4636560082435608,-0.16484954953193665
1751214199742208500,5.86420849609375,-1.7222650051116943,-0.44235071539878845,-0.0966726765036583
1751214199752202500,5.874202392578125,-1.6306523084640503,-0.500940203666687,-0.0540621280670166
1751214199762196700,5.88419677734375,-1.5614101886749268,-0.5552686452865601,-0.008255792781710625
1751214199772190700,5.894190673828125,-1.485776424407959,-0.5318328738212585,0.04713791608810425
1751214199782185000,5.90418505859375,-1.3835111856460571,-0.4764391779899597,0.09720530360937119
1751214199792179000,5.914178955078125,-1.2769848108291626,-0.4125233590602875,0.13235901296138763
1751214199802173200,5.924173095703125,-1.1768499612808228,-0.3688475489616394,0.1664474457502365
1751214199812167200,5.934167236328125,-1.0639320611953735,-0.3400854170322418,0.1952095627784729
1751214199822161400,5.944161376953125,-0.936100423336029,-0.3411506712436676,0.22290641069412231
1751214199832155400,5.9541552734375,-0.7997466921806335,-0.37204334139823914,0.23995064198970795
1751214199842149600,5.964149658203125,-0.6612623929977417,-0.41891491413116455,0.2569948434829712
1751214199852143600,5.9741435546875,-0.5206475853919983,-0.45726442337036133,0.2655169665813446
1751214199862137900,5.984137939453125,-0.3779022693634033,-0.4870918095111847,0.25912538170814514
1751214199872131800,5.9941318359375,-0.2564622163772583,-0.5254412889480591,0.26338642835617065
1751214199882126000,6.0041259765625,-0.15952323377132416,-0.5265065431594849,0.28256118297576904
1751214199892120000,6.0141201171875,-0.06897582113742828,-0.44128546118736267,0.293213814496994
1751214199902114300,6.0241142578125,0.017310533672571182,-0.2942790687084198,0.3091927766799927
1751214199912108300,6.0341083984375,0.10253162682056427,-0.13235901296138763,0.34754225611686707
1751214199922102500,6.0441025390625,0.20266640186309814,0.034754227846860886,0.4071970283985138
1751214199932096500,6.054096435546875,0.303866446018219,0.21904483437538147,0.48496127128601074
1751214199942090800,6.0640908203125,0.4210454523563385,0.4235754609107971,0.5563339591026306
1751214199952085000,6.0740849609375,0.5371592044830322,0.57058185338974,0.6309024095535278
1751214199962079000,6.084078857421875,0.6554034352302551,0.6717818975448608,0.705470860004425
1751214199972073200,6.0940732421875,0.7832350730895996,0.7793735265731812,0.7715172171592712
1751214199982067200,6.104067138671875,0.9121319651603699,0.8986830115318298,0.8002793192863464
1751214199992061400,6.1140615234375,1.0250499248504639,1.0669946670532227,0.7544729709625244
1751214200002055400,6.124055419921875,1.1486204862594604,1.2523505687713623,0.7001445293426514
1751214200012049700,6.134049560546875,1.3382374048233032,1.4696643352508545,0.7416898012161255
1751214200022043600,6.144043701171875,1.498026967048645,1.764742374420166,0.8322372436523438
1751214200042031900,6.164031982421875,1.6823176145553589,2.360224723815918,0.8375635147094727
1751214200052026000,6.174026123046875,1.706818699836731,2.4507720470428467,0.7821698188781738
1751214200062020000,6.18402001953125,1.6482291221618652,2.517883777618408,0.7406245470046997
1751214200072014300,6.194014404296875,1.6088143587112427,2.5019047260284424,0.7118624448776245
1751214200082008300,6.20400830078125,1.699361801147461,2.1780645847320557,0.7683213949203491
1751214200092002600,6.21400244140625,1.8793914318084717,1.581516981124878,0.8972182869911194
1751214200101996500,6.22399658203125,1.972069263458252,0.9625988602638245,1.053812026977539
1751214200111990800,6.23399072265625,1.907088279724121,0.5313002467155457,1.1528816223144531
1751214200121984800,6.24398486328125,1.729189157485962,0.28615644574165344,1.1187931299209595
1751214200131979000,6.25397900390625,1.5502249002456665,0.15406376123428345,1.0058752298355103
1751214200141973000,6.263972900390625,1.4596774578094482,0.12636689841747284,0.8982835412025452
1751214200151967200,6.27396728515625,1.4160016775131226,0.16365112364292145,0.8205193281173706
1751214200161961200,6.283961181640625,1.3275848627090454,0.16258586943149567,0.756603479385376
1751214200171955500,6.29395556640625,1.238102674484253,0.07843003422021866,0.6831002831459045
1751214200181949400,6.303949462890625,1.1901657581329346,-0.04727107286453247,0.60533607006073
1751214200191943700,6.313943603515625,1.1805784702301025,-0.21012325584888458,0.5201149582862854
1751214200201937700,6.323937744140625,1.1901657581329346,-0.38589176535606384,0.4391549229621887
1751214200211932000,6.333931884765625,1.212536334991455,-0.5360939502716064,0.37204334139823914
1751214200221926000,6.34392578125,1.2263847589492798,-0.6309024095535278,0.3177148699760437
1751214200231920000,6.353920166015625,1.2285152673721313,-0.651142418384552,0.2761695981025696
1751214200241914000,6.3639140625,1.2263847589492798,-0.5914876461029053,0.2420811653137207
1751214200251908400,6.373908447265625,1.2093405723571777,-0.48496127128601074,0.20692746341228485
1751214200271896600,6.393896484375,1.1400984525680542,-0.24634221196174622,0.19307903945446014
1751214200291884800,6.413884765625,1.0570077896118164,0.004926844500005245,0.24314641952514648
1751214200301878800,6.423878662109375,1.0218541622161865,0.08801741153001785,0.2857569754123688
1751214200311873000,6.433873046875,0.9845699071884155,0.18176060914993286,0.33902016282081604
1751214200321867000,6.443866943359375,0.969656229019165,0.27124276757240295,0.3922833502292633
1751214200331861200,6.453861328125,0.9749825596809387,0.336223840713501,0.42743703722953796
1751214200341855200,6.463855224609375,0.9749825596809387,0.38522595167160034,0.4455465078353882
1751214200351849500,6.473849365234375,0.9664604663848877,0.4246407151222229,0.4391549229621887
1751214200361843500,6.483843505859375,0.9472857117652893,0.47896915674209595,0.4071970283985138
1751214200371837700,6.493837646484375,0.9217193722724915,0.5535376071929932,0.3741738498210907
1751214200381831700,6.503831787109375,0.8929572701454163,0.6259755492210388,0.349672794342041
1751214200391826000,6.513825927734375,0.86952143907547,0.6803039908409119,0.32836753129959106
1751214200401820000,6.52381982421875,0.8450203537940979,0.6845650672912598,0.2996053993701935
1751214200411814100,6.533814208984375,0.818388819694519,0.6707166433334351,0.27830013632774353
1751214200421808000,6.54380810546875,0.7928224802017212,0.6483460664749146,0.25806012749671936
1751214200431802400,6.55380224609375,0.7597993016242981,0.5854955315589905,0.228232741355896
1751214200441796600,6.563796630859375,0.7278413772583008,0.47896915674209595,0.19201377034187317
1751214200451790600,6.57379052734375,0.6926876902580261,0.33302804827690125,0.15899059176445007
1751214200461784800,6.583784912109375,0.651142418384552,0.19028271734714508,0.14940322935581207
1751214200471778800,6.59377880859375,0.6170539855957031,0.06458161026239395,0.15579481422901154
1751214200481773000,6.60377294921875,0.5797697305679321,-0.0504668653011322,0.1760348230600357
1751214200491767000,6.61376708984375,0.5424855351448059,-0.14088112115859985,0.19201377034187317
1751214200501761300,6.62376123046875,0.5073317885398865,-0.21651484072208405,0.2090579867362976
1751214200511755300,6.63375537109375,0.5062665343284607,-0.27297380566596985,0.22077588737010956
1751214200521749500,6.64374951171875,0.5179844498634338,-0.3230412006378174,0.237820103764534
1751214200531743500,6.653743408203125,0.5307676196098328,-0.34221595525741577,0.2655169665813446
1751214200541737700,6.66373779296875,0.508397102355957,-0.30599698424339294,0.27190855145454407
1751214200551731700,6.673731689453125,0.4721781015396118,-0.20266640186309814,0.24847275018692017
1751214200561726000,6.683725830078125,0.4402202069759369,-0.11211899667978287,0.19414429366588593
1751214200571720000,6.693719970703125,0.4199801981449127,-0.09094688296318054,0.11851058155298233
1751214200581714200,6.703714111328125,0.3933486044406891,-0.08242477476596832,0.02583264373242855
1751214200591708200,6.713708251953125,0.360325425863266,-0.08668582886457443,-0.06684529036283493
1751214200601702400,6.723702392578125,0.3273022472858429,-0.12064110487699509,-0.14247901737689972
1751214200611696400,6.7336962890625,0.2985401451587677,-0.14634059369564056,-0.21491694450378418
1751214200621690600,6.743690673828125,0.2708432674407959,-0.1621863842010498,-0.2852243483066559
1751214200631684600,6.7536845703125,0.2420811653137207,-0.16538217663764954,-0.32463908195495605
1751214200641678800,6.763678955078125,0.21758009493350983,-0.13022847473621368,-0.3352917432785034
1751214200651672800,6.7736728515625,0.20586219429969788,-0.0739026665687561,-0.3416832983493805
1751214200661667000,6.7836669921875,0.20373167097568512,-0.01850895583629608,-0.35766226053237915
1751214200671661000,6.7936611328125,0.2005358785390854,0.02197106182575226,-0.38535910844802856
1751214200681655300,6.8036552734375,0.1994706094264984,0.04860265180468559,-0.41412124037742615
1751214200691649300,6.813649169921875,0.19414429366588593,0.06458161026239395,-0.4258391261100769
1751214200701643500,6.8236435546875,0.21012325584888458,0.06032055243849754,-0.41305598616600037
1751214200711637500,6.833637451171875,0.28256118297576904,0.0070573715493083,-0.36192330718040466
1751214200721631700,6.8436318359375,0.35819488763809204,-0.06431528925895691,-0.25007063150405884
1751214200731625700,6.853625732421875,0.41358861327171326,-0.10359688848257065,-0.11797794699668884
1751214200741620000,6.863619873046875,0.4636560082435608,-0.10892320424318314,0.008788425475358963
1751214200751614000,6.873614013671875,0.5201149582862854,-0.10998847335577011,0.12703268229961395
1751214200761608200,6.883608154296875,0.5616602301597595,-0.15046848356723785,0.24421168863773346
1751214200771602200,6.893602294921875,0.5723128914833069,-0.2047969400882721,0.3837612271308899
1751214200781596400,6.903596435546875,0.529702365398407,-0.293213814496994,0.5520728826522827
1751214200791590400,6.91359033203125,0.4785696864128113,-0.4263717830181122,0.7086666226387024
1751214200801584600,6.923584716796875,0.43702441453933716,-0.568051815032959,0.810931921005249
1751214200811578600,6.93357861328125,0.34860754013061523,-0.7076013684272766,0.84821617603302
1751214200821572900,6.94357275390625,0.2090579867362976,-0.856738269329071,0.7885614037513733
1751214200831566800,6.95356689453125,0.0354200154542923,-0.9771130681037903,0.5733781456947327
1751214200841561000,6.96356103515625,-0.15845796465873718,-1.0218541622161865,0.17923060059547424
1751214200851555000,6.97355517578125,-0.37683701515197754,-0.9760478138923645,-0.35233595967292786
1751214200861549300,6.98354931640625,-0.6058686971664429,-0.8343677520751953,-0.9169256687164307
1751214200871543300,6.993543212890625,-0.8242477178573608,-0.6255760788917542,-1.3739237785339355
1751214200881537500,7.00353759765625,-1.0138646364212036,-0.4338286221027374,-1.6551533937454224
1751214200891531500,7.013531494140625,-1.158740520477295,-0.293213814496994,-1.7691365480422974
1751214200901525800,7.02352587890625,-1.2727237939834595,-0.15366427600383759,-1.7925723791122437
1751214200911519700,7.033519775390625,-1.376054286956787,0.047537390142679214,-1.8053555488586426
1751214200921514000,7.043513916015625,-1.4879069328308105,0.33728909492492676,-1.8383787870407104
1751214200931508000,7.053508056640625,-1.6295870542526245,0.7090660929679871,-1.8916418552398682
1751214200941502200,7.063502197265625,-1.803225040435791,1.082973599433899,-1.9438397884368896
1751214200951496200,7.07349609375,-1.9832545518875122,1.3642032146453857,-1.9640798568725586
1751214200961490200,7.083490234375,-2.1291956901550293,1.479251742362976,-1.9331872463226318
1751214200971484400,7.093484375,-2.219743013381958,1.3588769435882568,-1.8255956172943115
1751214200981478400,7.103478515625,-2.2762022018432617,1.0169273614883423,-1.6050859689712524
1751214200991472400,7.113472412109375,-2.283658981323242,0.46512073278427124,-1.262071132659912
1751214201001466400,7.12346630859375,-2.2559621334075928,0.013448953628540039,-0.957405686378479
1751214201011460600,7.133460693359375,-2.161153554916382,-0.23462431132793427,-0.7880287766456604
1751214201021454600,7.14345458984375,-2.01627779006958,-0.2516685426235199,-0.7198519110679626
1751214201031448600,7.153448486328125,-1.8618144989013672,-0.21758009493350983,-0.6751108169555664
1751214201041442800,7.16344287109375,-1.753157615661621,-0.25060325860977173,-0.6197171211242676
1751214201051436800,7.173436767578125,-1.7105470895767212,-0.2708432674407959,-0.5877591967582703
1751214201061430800,7.1834306640625,-1.7329176664352417,-0.237820103764534,-0.6410223841667175
1751214201071425000,7.193425048828125,-1.8149429559707642,-0.20586219429969788,-0.8040077090263367
1751214201081419000,7.2034189453125,-1.8788588047027588,-0.26871275901794434,-0.9829720258712769
1751214201091413000,7.2134130859375,-1.9225345849990845,-0.435959130525589,-1.0149298906326294
1751214201101407200,7.2234072265625,-1.9811240434646606,-0.6383592486381531,-0.835965633392334
1751214201111401200,7.233401123046875,-2.007755756378174,-0.86952143907547,-0.5195823311805725
1751214201121395200,7.243395263671875,-2.017343044281006,-1.0229194164276123,-0.19361166656017303
1751214201131389200,7.25338916015625,-2.040778875350952,-0.9867004752159119,0.03435475379228592
1751214201141383400,7.263383544921875,-2.0823240280151367,-0.8279761672019958,0.11211899667978287
1751214201151377400,7.27337744140625,-2.1387829780578613,-0.743820309638977,0.004527370445430279
1751214201161371400,7.283371337890625,-2.161153554916382,-0.8737825155258179,-0.24154852330684662
1751214201171365600,7.29336572265625,-2.1579577922821045,-1.0976210832595825,-0.4535360038280487
1751214201181359600,7.303359619140625,-2.1387829780578613,-1.292431116104126,-0.5238434076309204
1751214201191353600,7.313353515625,-2.1046946048736572,-1.3339763879776,-0.46631917357444763
1751214201201347800,7.323347900390625,-2.0429093837738037,-1.219993233680725,-0.3704454302787781
1751214201211341800,7.333341796875,-1.9257303476333618,-1.0399636030197144,-0.33422645926475525
1751214201221335800,7.343335693359375,-1.7691365480422974,-0.8982835412025452,-0.36192330718040466
1751214201231330000,7.353330078125,-1.5997596979141235,-0.84821617603302,-0.39920756220817566
1751214201241324000,7.363323974609375,-1.4580795764923096,-0.8652604222297668,-0.393881231546402
1751214201251318300,7.373318359375,-1.3281174898147583,-0.8705866932868958,-0.337422251701355
1751214201261312300,7.383312255859375,-1.1896331310272217,-0.8119972348213196,-0.2553969621658325
1751214201271306500,7.393306396484375,-1.031974196434021,-0.7257108688354492,-0.17550218105316162
1751214201281300500,7.403300537109375,-0.8689888119697571,-0.6564686894416809,-0.10839057713747025
1751214201291294700,7.413294677734375,-0.7305045127868652,-0.6213150024414062,-0.05725792050361633
1751214201301288700,7.423288818359375,-0.6229129433631897,-0.6181192398071289,-0.013582111336290836
1751214201311283000,7.433282958984375,-0.5281044244766235,-0.6277065873146057,0.03435475379228592
1751214201321277000,7.44327685546875,-0.41518649458885193,-0.6255760788917542,0.08974846452474594
1751214201331271200,7.453271240234375,-0.2692453861236572,-0.6000097393989563,0.14407691359519958
1751214201341265200,7.46326513671875,-0.1009337306022644,-0.5605949759483337,0.1952095627784729
1751214201351259400,7.47325927734375,0.056725289672613144,-0.4647212624549866,0.24847275018692017
1751214201361253400,7.48325341796875,0.17283903062343597,-0.2942790687084198,0.29640960693359375
1751214201371247600,7.49324755859375,0.2889527678489685,-0.10892320424318314,0.3368896245956421
1751214201381241600,7.50324169921875,0.425306499004364,0.056059498339891434,0.3880222737789154
1751214201391235800,7.51323583984375,0.5733781456947327,0.212653249502182,0.4487423002719879
1751214201401229800,7.523229736328125,0.7331677079200745,0.3585943877696991,0.492418110370636
1751214201411224000,7.53322412109375,0.8972182869911194,0.4608596861362457,0.5094623565673828
1751214201421218000,7.543218017578125,1.0676604509353638,0.5269060134887695,0.5254412889480591
1751214201431212300,7.55321240234375,1.2434289455413818,0.5386239290237427,0.5478118062019348
1751214201441206300,7.563206298828125,1.4277195930480957,0.44168493151664734,0.5563339591026306
1751214201451200500,7.573200439453125,1.5395722389221191,0.457663893699646,0.5978792309761047
1751214201461194500,7.583194580078125,1.607749104499817,0.7442198395729065,0.7779088020324707
1751214201471188700,7.593188720703125,1.7089492082595825,1.2267842292785645,1.0431593656539917
1751214201481182700,7.6031826171875,1.8101491928100586,1.8723340034484863,1.1859047412872314
1751214201491177000,7.613177001953125,1.865543007850647,2.4209446907043457,1.1198583841323853
1751214201501171000,7.6231708984375,1.887913465499878,2.737328052520752,0.9781783223152161
1751214201511165200,7.633165283203125,1.9379808902740479,2.8971176147460938,0.8301066756248474
1751214201521159200,7.6431591796875,1.9614167213439941,2.832136631011963,0.7342329621315002
1751214201531153400,7.6531533203125,1.9134798049926758,2.5349280834198,0.785365641117096
1751214201541147400,7.6631474609375,1.845302939414978,2.0257320404052734,0.9195888638496399
1751214201551141600,7.6731416015625,1.8026924133300781,1.4632728099822998,1.0516815185546875
1751214201561135600,7.683135498046875,1.711079716682434,0.9924262166023254,1.2466248273849487
1751214201571129900,7.6931298828125,1.529984951019287,0.8475503921508789,1.475656509399414
1751214201581123800,7.703123779296875,1.3116058111190796,0.947685182094574,1.5534206628799438
1751214201591118000,7.7131181640625,1.170991063117981,0.9956220388412476,1.4479596614837646
1751214201601112000,7.723112060546875,1.1645994186401367,0.889095664024353,1.287104845046997
1751214201611106300,7.733106201171875,1.1571426391601562,0.6888260841369629,1.1645994186401367
1751214201621100300,7.743100341796875,1.116662621498108,0.4395544230937958,1.053812026977539
1751214201631094500,7.753094482421875,1.1070752143859863,0.2275669425725937,0.9366330504417419
1751214201641088500,7.763088623046875,1.1400984525680542,0.0954742506146431,0.8151929974555969
1751214201651082800,7.773082763671875,1.1891005039215088,0.014514217153191566,0.696948766708374
1751214201661076700,7.78307666015625,1.2391679286956787,-0.061119500547647476,0.5755086541175842
1751214201671071000,7.793071044921875,1.2934963703155518,-0.17283903062343597,0.4455465078353882
1751214201681065000,7.80306494140625,1.3361068964004517,-0.3262369930744171,0.303866446018219
1751214201691059200,7.81305908203125,1.3329111337661743,-0.47111284732818604,0.1621863842010498
1751214201701053200,7.82305322265625,1.3126710653305054,-0.5584644675254822,0.04287686198949814
1751214201711047400,7.83304736328125,1.287104845046997,-0.5723128914833069,-0.035952646285295486
1751214201721041400,7.84304150390625,1.2349069118499756,-0.5435507893562317,-0.06151897460222244
1751214201731035600,7.85303564453125,1.1528816223144531,-0.47111284732818604,-0.04127896577119827
1751214201741030000,7.86302978515625,1.0676604509353638,-0.3826959729194641,0.00985368900001049
1751214201751023900,7.87302392578125,0.982439398765564,-0.27190855145454407,0.06737792491912842
1751214201761018000,7.88301806640625,0.9345025420188904,-0.13129374384880066,0.11638005077838898
1751214201771012000,7.89301220703125,0.923849880695343,0.026232117787003517,0.15046848356723785
1751214201781006300,7.90300634765625,0.9387635588645935,0.1423458606004715,0.16325165331363678
1751214201791000300,7.913000244140625,0.9504814743995667,0.19667430222034454,0.18029586970806122
1751214201800994600,7.92299462890625,0.9568730592727661,0.22437115013599396,0.20373167097568512
1751214201810988500,7.932988525390625,0.9600688815116882,0.24674169719219208,0.25060325860977173
1751214201820982800,7.942982666015625,0.9930920004844666,0.24461115896701813,0.33369383215904236
1751214201830976800,7.952976806640625,1.0346373319625854,0.2978743314743042,0.4583296775817871
1751214201840971000,7.962970947265625,1.0570077896118164,0.3575291037559509,0.5904223918914795
1751214201850965000,7.972965087890625,1.044224739074707,0.37989965081214905,0.6862961053848267
1751214201860959200,7.982959228515625,0.9888309836387634,0.3490070104598999,0.726776123046875
1751214201870953200,7.992953125,0.9036098718643188,0.28083011507987976,0.7342329621315002
1751214201880947500,8.002947509765624,0.7928224802017212,0.1988048255443573,0.7246456146240234
1751214201890941400,8.01294140625,0.6990792751312256,0.10612688958644867,0.6980140209197998
1751214201900935700,8.022935791015625,0.6490118503570557,0.08695214241743088,0.6490118503570557
1751214201910929700,8.0329296875,0.6426202654838562,0.13701952993869781,0.5669865608215332
1751214201920924000,8.042923828125,0.6394245028495789,0.19028271734714508,0.47004759311676025
1751214201930918000,8.05291796875,0.6213150024414062,0.2169143110513687,0.37736964225769043
1751214201940912000,8.062912109375,0.592552900314331,0.17430377006530762,0.3166496157646179
1751214201950906000,8.072906005859375,0.5584644675254822,0.04434159770607948,0.3081275224685669
1751214201960900400,8.082900390625,0.5169191956520081,-0.09933583438396454,0.33369383215904236
1751214201970894300,8.092894287109376,0.47430863976478577,-0.15686006844043732,0.3273022472858429
1751214201980888600,8.102888671875,0.4391549229621887,-0.19201377034187317,0.3028011918067932
1751214201990882600,8.112882568359375,0.38589176535606384,-0.19734008610248566,0.2761695981025696
1751214202000876800,8.122876708984375,0.3304980397224426,-0.22610220313072205,0.2623211741447449
1751214202010870800,8.132870849609375,0.27830013632774353,-0.2836264371871948,0.25379905104637146
1751214202020865000,8.142864990234376,0.23462431132793427,-0.34434646368026733,0.23036326467990875
1751214202030859000,8.15285888671875,0.19734008610248566,-0.35712963342666626,0.19201377034187317
1751214202040853200,8.162853271484375,0.171773761510849,-0.29214856028556824,0.15046848356723785
1751214202050847200,8.17284716796875,0.16005586087703705,-0.1909485012292862,0.11744531989097595
1751214202070835500,8.19283544921875,0.2090579867362976,-0.04407528415322304,0.10040109604597092
1751214202080829700,8.20282958984375,0.24527695775032043,0.034754227846860886,0.10785794258117676
1751214202090823700,8.21282373046875,0.2900180220603943,0.09227846562862396,0.11957584321498871
1751214202100818000,8.22281787109375,0.3304980397224426,0.1093226820230484,0.12383689731359482
1751214202110812000,8.23281201171875,0.3507380485534668,0.06671213358640671,0.11105373501777649
1751214202120806100,8.24280615234375,0.34754225611686707,-0.007856319658458233,0.09400951862335205
1751214202130800000,8.252800048828124,0.34328120946884155,-0.07177213579416275,0.09400951862335205
1751214202140794400,8.26279443359375,0.3549990952014923,-0.08562056720256805,0.1249021589756012
1751214202150788400,8.272788330078125,0.37736964225769043,-0.06857634335756302,0.171773761510849
1751214202160782300,8.2827822265625,0.39121806621551514,-0.03768370300531387,0.20160114765167236
1751214202170776600,8.292776611328126,0.3890875577926636,-0.030226856470108032,0.1909485012292862
1751214202180770600,8.3027705078125,0.3826959729194641,-0.03874896466732025,0.13768532872200012
1751214202190764500,8.3127646484375,0.36245596408843994,-0.04500738903880119,0.060986343771219254
1751214202200758800,8.3227587890625,0.34221595525741577,-0.033422645181417465,-0.02210422046482563
1751214202210752800,8.332752685546875,0.3230412006378174,-0.017443692311644554,-0.08921582996845245
1751214202220746800,8.342746826171876,0.30493173003196716,-0.020639482885599136,-0.1435442715883255
1751214202230740700,8.35274072265625,0.28256118297576904,-0.01957421936094761,-0.18828535079956055
1751214202240735000,8.36273486328125,0.2527337968349457,0.011318426579236984,-0.2287653684616089
1751214202250729000,8.37272900390625,0.22077588737010956,0.0624510794878006,-0.26818013191223145
1751214202270717200,8.39271728515625,0.18029586970806122,0.15086796879768372,-0.2948117256164551
1751214202290705200,8.412705078125,0.09614004194736481,0.13915006816387177,-0.23409168422222137
1751214202300699400,8.422699462890625,0.032224226742982864,0.07736477255821228,-0.18402428925037384
1751214202310693400,8.432693359375,-0.056192658841609955,0.0006657897611148655,-0.14141374826431274
1751214202320687400,8.442687255859376,-0.1573926955461502,-0.08562056720256805,-0.12330426275730133
1751214202330681600,8.452681640625,-0.2607232630252838,-0.1675127148628235,-0.13076111674308777
1751214202340675600,8.462675537109375,-0.36298859119415283,-0.2836264371871948,-0.16378428041934967
1751214202350669600,8.472669677734375,-0.45673179626464844,-0.42317599058151245,-0.22450430691242218
1751214202360663600,8.48266357421875,-0.5334307551383972,-0.5733781456947327,-0.3139864504337311
1751214202370657800,8.49265771484375,-0.6101297736167908,-0.6660560965538025,-0.43223071098327637
1751214202380651800,8.50265185546875,-0.6783066391944885,-0.7065361142158508,-0.6325002908706665
1751214202390645800,8.512645751953125,-0.7422224283218384,-0.6820350289344788,-0.9637972712516785
1751214202400640000,8.522639892578125,-0.8434224724769592,-0.5350286364555359,-1.418664813041687
1751214202410634000,8.532634033203125,-0.9819067716598511,-0.11105373501777649,-1.883119821548462
1751214202420628000,8.5426279296875,-1.1299784183502197,0.5226449966430664,-2.238917827606201
1751214202430622200,8.552622314453124,-1.3089426755905151,1.2598074674606323,-2.463688373565674
1751214202440616200,8.5626162109375,-1.498559594154358,1.8712687492370605,-2.527604341506958
1751214202450610200,8.572610107421875,-1.7350481748580933,2.314418315887451,-2.413621187210083
1751214202460604400,8.5826044921875,-2.0194735527038574,2.6201491355895996,-2.1835241317749023
1751214202470598400,8.592598388671876,-2.293246269226074,2.6105616092681885,-1.8809893131256104
1751214202480592400,8.60259228515625,-2.4807326793670654,2.295243740081787,-1.5081470012664795
1751214202490586600,8.612586669921875,-2.5361263751983643,1.7998961210250854,-1.1385005712509155
1751214202500580600,8.62258056640625,-2.50203800201416,1.1937611103057861,-0.8253130316734314
1751214202510574800,8.632574951171875,-2.4413180351257324,0.700543999671936,-0.5909550189971924
1751214202520568800,8.64256884765625,-2.3550314903259277,0.3266364634037018,-0.4737760126590729
1751214202530563000,8.65256298828125,-2.2335915565490723,-0.03235738351941109,-0.4173170328140259
1751214202540557000,8.66255712890625,-2.105759859085083,-0.4551338851451874,-0.4301002025604248
1751214202550551300,8.67255126953125,-1.9779282808303833,-0.823715090751648,-0.5526055097579956
1751214202560545300,8.682545166015625,-1.8671408891677856,-1.036767840385437,-0.7496792674064636
1751214202570539500,8.69253955078125,-1.798964023590088,-1.0633994340896606,-0.948883593082428
1751214202580533500,8.702533447265624,-1.77339768409729,-0.9313067197799683,-1.1012163162231445
1751214202590527700,8.71252783203125,-1.753157615661621,-0.7715172171592712,-1.145957350730896
1751214202600521700,8.722521728515625,-1.7329176664352417,-0.6692518591880798,-1.0500836372375488
1751214202610516000,8.732515869140625,-1.7201344966888428,-0.6607297658920288,-0.8476835489273071
1751214202620510000,8.742510009765626,-1.7254607677459717,-0.6703171730041504,-0.5877591967582703
1751214202630504200,8.752504150390624,-1.782984972000122,-0.5723128914833069,-0.337422251701355
1751214202640498200,8.762498291015625,-1.8884460926055908,-0.4103928208351135,-0.17443692684173584
1751214202650492400,8.772492431640625,-2.055692434310913,-0.18775272369384766,-0.16058848798274994
1751214202660486400,8.782486328125,-2.2367873191833496,-0.006791055668145418,-0.2575274705886841
1751214202670480600,8.792480712890624,-2.384859085083008,0.06351634114980698,-0.3608580529689789
1751214202680474600,8.802474609375,-2.4892547130584717,-0.033422645181417465,-0.3789675533771515
1751214202690468900,8.81246875,-2.5062990188598633,-0.20586219429969788,-0.2980075180530548
1751214202700462800,8.822462890625,-2.4562315940856934,-0.3645864725112915,-0.18935060501098633
1751214202710457000,8.83245703125,-2.3710105419158936,-0.49880969524383545,-0.1339569091796875
1751214202720451000,8.842451171875,-2.2634189128875732,-0.5957486629486084,-0.13289164006710052
1751214202730445300,8.8524453125,-2.1270651817321777,-0.6788392663002014,-0.14674006402492523
1751214202740439300,8.862439208984375,-1.9726018905639648,-0.7448856234550476,-0.15419691801071167
1751214202750433500,8.87243359375,-1.7968333959579468,-0.7704519033432007,-0.12650005519390106
1751214202760427500,8.882427490234376,-1.610412359237671,-0.7523424625396729,-0.07217161357402802
1751214202770421800,8.892421875,-1.4271869659423828,-0.672447681427002,-0.0018642114009708166
1751214202780415700,8.902415771484375,-1.2343742847442627,-0.596813976764679,0.07483477145433426
1751214202790410000,8.912409912109375,-1.0436919927597046,-0.559529721736908,0.14514216780662537
1751214202800404000,8.922404052734375,-0.8668583035469055,-0.529702365398407,0.20373167097568512
1751214202810398200,8.932398193359376,-0.6687192320823669,-0.5094623565673828,0.23355905711650848
1751214202820392200,8.94239208984375,-0.4535360038280487,-0.5041360259056091,0.24314641952514648
1751214202830386400,8.952386474609375,-0.21065588295459747,-0.4583296775817871,0.23888537287712097
1751214202840380700,8.962380615234375,0.0034621069207787514,-0.4018706977367401,0.21971063315868378
1751214202850374700,8.972374755859375,0.17070849239826202,-0.36671701073646545,0.1856221854686737
1751214202860369000,8.982368896484376,0.3273022472858429,-0.31984540820121765,0.16112112998962402
1751214202870363000,8.99236279296875,0.4828307330608368,-0.2601906359195709,0.16325165331363678
1751214202880357000,9.002357177734375,0.6277065873146057,-0.1898832470178604,0.1994706094264984
1751214202890351000,9.01235107421875,0.7619298100471497,-0.0918789878487587,0.25060325860977173
1751214202900345300,9.022345458984375,0.8897614479064941,0.03688475489616394,0.30173593759536743
1751214202910339300,9.03233935546875,1.0080057382583618,0.1934785097837448,0.35712963342666626
1751214202920333600,9.04233349609375,1.1241194009780884,0.3671164810657501,0.4157191216945648
1751214202930327600,9.05232763671875,1.2434289455413818,0.4757733643054962,0.5030707716941833
1751214202940321800,9.06232177734375,1.329715371131897,0.4704470634460449,0.6149234175682068
1751214202950315800,9.072315673828125,1.3574122190475464,0.5428850054740906,0.7768434882164001
1751214202960310000,9.08231005859375,1.305214285850525,0.864594578742981,0.9835046529769897
1751214202970304000,9.092303955078124,1.212536334991455,1.3940306901931763,1.120923638343811
1751214202980298200,9.10229833984375,1.1369025707244873,2.0054919719696045,1.1230541467666626
1751214202990292200,9.112292236328125,1.0591384172439575,2.4358584880828857,1.0048099756240845
1751214203000286500,9.122286376953125,0.9398288726806641,2.554102659225464,0.8460856676101685
1751214203010280400,9.132280517578126,0.878043532371521,2.529601573944092,0.7203845381736755
1751214203020274700,9.142274658203124,1.0484857559204102,2.254763603210449,0.6191844940185547
1751214203030268700,9.1522685546875,1.267930030822754,1.6763254404067993,0.6447508335113525
1751214203040263000,9.162262939453125,1.3723258972167969,1.0488852262496948,0.7384940385818481
1751214203050257000,9.1722568359375,1.3627384901046753,0.5514070987701416,0.8162582516670227
1751214203060251100,9.182251220703124,1.284974217414856,0.36605122685432434,0.810931921005249
1751214203070245000,9.1922451171875,1.2530163526535034,0.24887222051620483,0.7363634705543518
1751214203080239400,9.2022392578125,1.3286501169204712,0.12104058265686035,0.6841655969619751
1751214203090233300,9.2122333984375,1.4596774578094482,0.008122635073959827,0.6916224360466003
1751214203100227600,9.2222275390625,1.5289196968078613,-0.0492684431374073,0.6980140209197998
1751214203120215800,9.2422158203125,1.6301196813583374,-0.061119500547647476,0.6916224360466003
1751214203130209800,9.252209716796875,1.6791218519210815,-0.14514216780662537,0.680969774723053
1751214203140204000,9.2622041015625,1.6791218519210815,-0.2878875136375427,0.6500771641731262
1751214203150198000,9.272197998046876,1.6237281560897827,-0.47963494062423706,0.5797697305679321
1751214203160192300,9.282192138671874,1.5491596460342407,-0.7001445293426514,0.4902876019477844
1751214203170186200,9.292186279296875,1.4788522720336914,-0.9121319651603699,0.4029359817504883
1751214203180180500,9.302180419921875,1.406414270401001,-1.0761826038360596,0.3273022472858429
1751214203190174500,9.312174560546875,1.3371721506118774,-1.1528816223144531,0.2665822207927704
1751214203200168700,9.322168701171876,1.275386929512024,-1.1390331983566284,0.237820103764534
1751214203210162700,9.33216259765625,1.2285152673721313,-1.0484857559204102,0.22929799556732178
1751214203220157000,9.342156982421875,1.170991063117981,-0.894022524356842,0.23462431132793427
1751214203230151000,9.35215087890625,1.1070752143859863,-0.689491868019104,0.24847275018692017
1751214203240145200,9.362145263671875,1.0506162643432617,-0.46152547001838684,0.26338642835617065
1751214203250139100,9.37213916015625,1.0048099756240845,-0.2516685426235199,0.27190855145454407
1751214203260133400,9.38213330078125,0.9760478138923645,-0.09094688296318054,0.27403905987739563
1751214203270127400,9.39212744140625,0.961134135723114,0.011318426579236984,0.28256118297576904
1751214203280121600,9.40212158203125,0.9515467286109924,0.09760478138923645,0.3134538233280182
1751214203290115600,9.412115478515625,0.9398288726806641,0.1806953400373459,0.3741738498210907
1751214203300109800,9.42210986328125,0.9376983046531677,0.25313326716423035,0.45087283849716187
1751214203310103800,9.432103759765624,0.945155143737793,0.31385329365730286,0.5062665343284607
1751214203320098000,9.44209814453125,0.9590035676956177,0.36179015040397644,0.5307676196098328
1751214203330092000,9.452092041015625,0.961134135723114,0.41292282938957214,0.5350286364555359
1751214203340086000,9.4620859375,0.9472857117652893,0.46405547857284546,0.5243760347366333
1751214203350080300,9.472080322265626,0.9334372878074646,0.5066660046577454,0.5030707716941833
1751214203360074200,9.48207421875,0.9195888638496399,0.5130575895309448,0.47430863976478577
1751214203370068200,9.492068115234375,0.9014793634414673,0.503470242023468,0.4498075842857361
1751214203380062200,9.502062255859375,0.8791088461875916,0.45020705461502075,0.42743703722953796
1751214203390056400,9.512056396484375,0.8535425066947937,0.35220280289649963,0.40932756662368774
1751214203400050400,9.522050537109376,0.8322372436523438,0.2605901062488556,0.4082622826099396
1751214203410044400,9.53204443359375,0.8098666667938232,0.15299849212169647,0.41358861327171326
1751214203420038700,9.54203857421875,0.7896266579627991,0.039015281945466995,0.4157191216945648
1751214203430032600,9.55203271484375,0.7683213949203491,-0.05685844644904137,0.406131774187088
1751214203440026600,9.562026611328125,0.743820309638977,-0.13235901296138763,0.3848264813423157
1751214203450020900,9.572020751953126,0.7150582075119019,-0.1952095627784729,0.349672794342041
1751214203460014800,9.582014892578124,0.6756434440612793,-0.25806012749671936,0.31878015398979187
1751214203470008800,9.5920087890625,0.613858163356781,-0.31558436155319214,0.3091927766799927
1751214203480002800,9.6020029296875,0.5499423742294312,-0.3549990952014923,0.31984540820121765
1751214203489997000,9.6119970703125,0.4956139028072357,-0.42317599058151245,0.34328120946884155
1751214203499991000,9.621990966796876,0.4348938763141632,-0.5307676196098328,0.3890875577926636
1751214203509985000,9.631985107421874,0.37630438804626465,-0.6756434440612793,0.44128546118736267
1751214203519979300,9.641979248046875,0.3166496157646179,-0.8013445734977722,0.4785696864128113
1751214203529973200,9.65197314453125,0.25060325860977173,-0.8471509218215942,0.48389601707458496
1751214203539967200,9.66196728515625,0.18242639303207397,-0.8098666667938232,0.4689823091030121
1751214203549961500,9.67196142578125,0.12277163565158844,-0.7107971906661987,0.425306499004364
1751214203559955500,9.68195556640625,0.0727042406797409,-0.5765739679336548,0.3613906800746918
1751214203569949400,9.691949462890625,0.017310533672571182,-0.4018706977367401,0.28149592876434326
1751214203579943700,9.701943603515625,-0.024234747514128685,-0.22290641069412231,0.2090579867362976
1751214203589937700,9.711937744140625,-0.05725792050361633,-0.0588558167219162,0.14940322935581207
1751214203599931600,9.721931640625,-0.07856319099664688,0.09227846562862396,0.09827057272195816
1751214203609925600,9.731925537109374,-0.08602003753185272,0.2318280041217804,0.060986343771219254
1751214203619920000,9.741919921875,-0.07856319099664688,0.35646384954452515,0.03861580789089203
1751214203629913900,9.751913818359375,-0.06471476703882217,0.4960133731365204,0.032224226742982864
1751214203639907800,9.761907958984375,-0.03488738462328911,0.637693464756012,0.032224226742982864
1751214203649902000,9.771902099609376,0.0141147430986166,0.767655611038208,0.02157158963382244
1751214203659896000,9.78189599609375,0.08761793375015259,0.8624640703201294,-0.00612526573240757
1751214203669890300,9.791890380859375,0.18455693125724792,0.8997483253479004,-0.029561065137386322
1751214203679884300,9.80188427734375,0.24421168863773346,0.8944219946861267,-0.029561065137386322
1751214203689878500,9.81187841796875,0.2623211741447449,0.8390282988548279,-0.01784316636621952
1751214203699872500,9.82187255859375,0.25912538170814514,0.759133517742157,-0.011451584286987782
1751214203709866800,9.83186669921875,0.25486433506011963,0.6803039908409119,-0.015712639316916466
1751214203719860700,9.84186083984375,0.23462431132793427,0.6259755492210388,-0.04127896577119827
1751214203729855000,9.85185498046875,0.19201377034187317,0.6142576336860657,-0.08388951420783997
1751214203739849000,9.861848876953125,0.1249021589756012,0.6291713118553162,-0.13715268671512604
1751214203749843200,9.87184326171875,0.048203181475400925,0.6589987277984619,-0.18935060501098633
1751214203759837200,9.881837158203124,-0.02210422046482563,0.6984134912490845,-0.23622220754623413
1751214203769831400,9.89183154296875,-0.07217161357402802,0.7293061017990112,-0.28628960251808167
1751214203779825400,9.901825439453125,-0.11478215456008911,0.7367629408836365,-0.3406180441379547
1751214203789819600,9.911819580078125,-0.13715268671512604,0.7335671782493591,-0.3779022693634033
1751214203799813600,9.921813720703126,-0.12863057851791382,0.7229145169258118,-0.39068543910980225
1751214203809808000,9.931807861328124,-0.10199899226427078,0.6845650672912598,-0.39494648575782776
1751214203819801900,9.9418017578125,-0.04660528525710106,0.6036050319671631,-0.41305598616600037
1751214203829796000,9.951796142578125,0.03968106955289841,0.46405547857284546,-0.43755704164505005
1751214203839790000,9.9617900390625,0.1430116444826126,0.2968090772628784,-0.44181808829307556
1751214203849784300,9.971784423828124,0.24527695775032043,0.0997353047132492,-0.40986019372940063
1751214203859778300,9.9817783203125,0.35393384099006653,-0.09933583438396454,-0.3257043659687042
1751214203869772500,9.9917724609375,0.4647212624549866,-0.2836264371871948,-0.1904158741235733
1751214203879766500,10.0017666015625,0.5478118062019348,-0.47537389397621155,-0.023169483989477158
1751214203889760800,10.0117607421875,0.5978792309761047,-0.6330329179763794,0.15366427600383759
1751214203899754800,10.021754638671876,0.635163426399231,-0.7459508776664734,0.303866446018219
1751214203909749000,10.0317490234375,0.6394245028495789,-0.8269109129905701,0.4210454523563385
1751214203919743000,10.041742919921875,0.6074665784835815,-0.8972182869911194,0.4966791868209839
1751214203929737200,10.0517373046875,0.5488771200180054,-0.9643298983573914,0.5488771200180054
1751214203939731200,10.061731201171876,0.45193809270858765,-1.0207889080047607,0.592552900314331
1751214203949725400,10.071725341796874,0.33475908637046814,-1.044224739074707,0.6010749936103821
1751214203959719400,10.081719482421875,0.21118851006031036,-1.0378330945968628,0.5499423742294312
1751214203969713700,10.091713623046875,0.08442214131355286,-0.9984183311462402,0.4391549229621887
1751214203979707600,10.101707763671875,-0.035952646285295486,-0.8727172613143921,0.25912538170814514
1751214203989702000,10.111701904296876,-0.14247901737689972,-0.6554034352302551,0.008788425475358963
1751214203999696000,10.12169580078125,-0.23941799998283386,-0.3965443968772888,-0.30652961134910583
1751214204009690000,10.131690185546875,-0.3470096290111542,-0.13342426717281342,-0.6751108169555664
1751214204019684000,10.14168408203125,-0.4972118139266968,0.10719215124845505,-1.0820415019989014
1751214204029678300,10.15167822265625,-0.6740455627441406,0.34155014157295227,-1.4889723062515259
1751214204039672300,10.16167236328125,-0.8583361506462097,0.5993439555168152,-1.8383787870407104
1751214204049666600,10.17166650390625,-1.0298435688018799,0.8986830115318298,-2.1025640964508057
1751214204059660500,10.18166064453125,-1.200285792350769,1.224653720855713,-2.254896879196167
1751214204069654800,10.19165478515625,-1.3909679651260376,1.5101443529129028,-2.2868547439575195
1751214204079648800,10.201648681640625,-1.5986944437026978,1.7093486785888672,-2.2282652854919434
1751214204089643000,10.21164306640625,-1.8181387186050415,1.8052223920822144,-2.139848232269287
1751214204099637000,10.221636962890624,-2.026930332183838,1.7913739681243896,-2.025865077972412
1751214204109631200,10.23163134765625,-2.165414571762085,1.581516981124878,-1.8362481594085693
1751214204119625200,10.241625244140625,-2.2176125049591064,1.3077442646026611,-1.590172290802002
1751214204129619500,10.251619384765625,-2.2580926418304443,1.0584726333618164,-1.359010100364685
1751214204139613400,10.261613525390626,-2.2474398612976074,0.6898913383483887,-1.0852373838424683
1751214204149607700,10.271607666015624,-2.2016336917877197,0.33196279406547546,-0.8178561329841614
1751214204159602000,10.281601806640625,-2.124934673309326,0.008122635073959827,-0.5877591967582703
1751214204169596000,10.291595947265625,-2.0279955863952637,-0.2793653905391693,-0.4024033546447754
1751214204179590100,10.301590087890625,-1.9502314329147339,-0.5105276107788086,-0.26285380125045776
1751214204189584100,10.311584228515626,-1.894837737083435,-0.6980140209197998,-0.16378428041934967
1751214204199578400,10.321578369140624,-1.8511618375778198,-0.8215845823287964,-0.14993585646152496
1751214204209572400,10.331572265625,-1.8383787870407104,-0.8652604222297668,-0.24580958485603333
1751214204219566600,10.341566650390625,-1.8479660749435425,-0.8130624890327454,-0.4343612492084503
1751214204229560600,10.351560546875,-1.8777934312820435,-0.8034750819206238,-0.6442182064056396
1751214204239554800,10.361554931640624,-1.8841850757598877,-0.8471509218215942,-0.7454182505607605
1751214204249548800,10.371548828125,-1.8714019060134888,-0.9110667109489441,-0.6601971387863159
1751214204269537000,10.391537109375,-1.9257303476333618,-1.0346373319625854,-0.18189376592636108
1751214204309513500,10.431513427734375,-2.4104251861572266,0.21478378772735596,-0.15952323377132416
1751214204319507700,10.4415078125,-2.4711453914642334,0.13701952993869781,-0.35340121388435364
1751214204329501700,10.451501708984376,-2.4104251861572266,-0.23036326467990875,-0.4450138807296753
1751214204339496000,10.461495849609374,-2.304964303970337,-0.6703171730041504,-0.41305598616600037
1751214204349490000,10.471489990234375,-2.1781978607177734,-0.9845699071884155,-0.3257043659687042
1751214204359484200,10.481484130859375,-2.0684757232666016,-1.103879451751709,-0.2575274705886841
1751214204369478100,10.49147802734375,-1.974732518196106,-1.0539451837539673,-0.23622220754623413
1751214204379472400,10.501472412109376,-1.9054902791976929,-0.8673909306526184,-0.2330264151096344
1751214204389466400,10.51146630859375,-1.8415745496749878,-0.6266413331031799,-0.2191779911518097
1751214204399460600,10.521460693359375,-1.7776587009429932,-0.39974018931388855,-0.17763271927833557
1751214204409454600,10.53145458984375,-1.6807197332382202,-0.3262369930744171,-0.13502216339111328
1751214204419448600,10.541448486328125,-1.540104866027832,-0.3688475489616394,-0.08388951420783997
1751214204429442800,10.55144287109375,-1.4080122709274292,-0.4295675754547119,-0.035952646285295486
1751214204439436800,10.561436767578124,-1.254614233970642,-0.4775044322013855,0.015180006623268127
1751214204449430800,10.5714306640625,-1.0873678922653198,-0.4966791868209839,0.07483477145433426
1751214204459425000,10.581425048828125,-0.9094688296318054,-0.48922231793403625,0.1483379602432251
1751214204469419000,10.5914189453125,-0.7198519110679626,-0.5073317885398865,0.21651484072208405
1751214204479413000,10.6014130859375,-0.5547360181808472,-0.5275717973709106,0.2751043438911438
1751214204489407200,10.6114072265625,-0.4247738718986511,-0.5052012801170349,0.3134538233280182
1751214204499401200,10.621401123046875,-0.31931278109550476,-0.4593949317932129,0.3358243703842163
1751214204509395200,10.631395263671875,-0.2372874766588211,-0.4348938763141632,0.3454117476940155
1751214204519389200,10.64138916015625,-0.16378428041934967,-0.4306328296661377,0.3454117476940155
1751214204529383400,10.651383544921876,-0.08388951420783997,-0.4157191216945648,0.3400854170322418
1751214204539377400,10.66137744140625,0.010918952524662018,-0.35393384099006653,0.3454117476940155
1751214204549371400,10.671371337890625,0.11424952745437622,-0.24634221196174622,0.38163068890571594
1751214204559365600,10.68136572265625,0.23355905711650848,-0.12809795141220093,0.45726442337036133
1751214204569359600,10.691359619140625,0.3837612271308899,0.019840534776449203,0.5627255439758301
1751214204579353600,10.701353515625,0.5712476372718811,0.1796300858259201,0.672447681427002
1751214204589347800,10.711347900390624,0.7821698188781738,0.3308975100517273,0.7597993016242981
1751214204599341800,10.721341796875,0.9867004752159119,0.4480765163898468,0.7747129797935486
1751214204609335800,10.731335693359375,1.1358373165130615,0.4480765163898468,0.6777740120887756
1751214204619330000,10.741330078125,1.238102674484253,0.38096490502357483,0.6330329179763794
1751214204629324000,10.751323974609376,1.352085828781128,0.5194491744041443,0.7970834970474243
1751214204639318000,10.761318115234374,1.4948312044143677,1.0542114973068237,1.0325068235397339
1751214204649312000,10.77131201171875,1.6333154439926147,1.717870831489563,1.1720563173294067
1751214204659306200,10.78130615234375,1.731319785118103,2.182325839996338,1.1294457912445068
1751214204669300200,10.79130029296875,1.7920397520065308,2.3676815032958984,0.9366330504417419
1751214204679294200,10.801294189453126,1.8250629901885986,2.285656213760376,0.7779088020324707
1751214204689288400,10.811288330078124,1.8719345331192017,2.107757329940796,0.7512772083282471
1751214204699282400,10.821282470703125,1.9166755676269531,1.8137445449829102,0.7896266579627991
1751214204709276400,10.8312763671875,1.9006966352462769,1.3045485019683838,0.7970834970474243
1751214204719270700,10.841270751953125,1.8740650415420532,0.8102661371231079,0.823715090751648
1751214204729264600,10.8512646484375,1.8570208549499512,0.6898913383483887,0.8897614479064941
1751214204739258600,10.861258544921874,1.7813870906829834,0.6717818975448608,0.982439398765564
1751214204749252600,10.871252685546875,1.5789870023727417,0.7580682635307312,0.9504814743995667
1751214204759246800,10.881246826171875,1.3723258972167969,0.8017440438270569,0.743820309638977
1751214204769240800,10.89124072265625,1.363803744316101,0.8241145610809326,0.5360939502716064
1751214204779235000,10.901235107421876,1.4596774578094482,0.7665903568267822,0.46578651666641235
1751214204789229000,10.91122900390625,1.535311222076416,0.5663207769393921,0.43808966875076294
1751214204799223300,10.921223388671875,1.5960313081741333,0.22330589592456818,0.3731085956096649
1751214204809217300,10.93121728515625,1.664208173751831,-0.15046848356723785,0.2900180220603943
1751214204819211500,10.94121142578125,1.7217323780059814,-0.508397102355957,0.20266640186309814
1751214204829205500,10.95120556640625,1.7654081583023071,-0.743820309638977,0.1249021589756012
1751214204839199700,10.96119970703125,1.7888439893722534,-0.8151929974555969,0.07590003311634064
1751214204849193700,10.97119384765625,1.7760608196258545,-0.7779088020324707,0.05352949723601341
1751214204859188000,10.98118798828125,1.7355808019638062,-0.7129276990890503,0.052464235574007034
1751214204869182000,10.991181884765625,1.6823176145553589,-0.672447681427002,0.07057371735572815
1751214204879176200,11.00117626953125,1.6120102405548096,-0.6245108246803284,0.10040109604597092
1751214204889170200,11.011170166015624,1.535311222076416,-0.5659213066101074,0.12809795141220093
1751214204899164400,11.021164306640625,1.4618080854415894,-0.5126581192016602,0.14514216780662537
1751214204909158400,11.031158447265625,1.3797826766967773,-0.4647212624549866,0.1525990217924118
1751214204919152600,11.041152587890625,1.2881700992584229,-0.4103928208351135,0.16112112998962402
1751214204929146600,11.051146728515626,1.1976226568222046,-0.3230412006378174,0.18242639303207397
1751214204939140900,11.061140869140624,1.1134668588638306,-0.19734008610248566,0.21758009493350983
1751214204949134800,11.071134765625,1.023984670639038,-0.05472791939973831,0.2655169665813446
1751214204959129000,11.081129150390625,0.9249151349067688,0.07523424178361893,0.31132328510284424
1751214204969123300,11.091123291015625,0.8162582516670227,0.1849564015865326,0.34860754013061523
1751214204979117300,11.101117431640626,0.7331677079200745,0.2786996066570282,0.38056543469429016
1751214204989111600,11.111111572265624,0.6980140209197998,0.336223840713501,0.4029359817504883
1751214204999105500,11.12110546875,0.6990792751312256,0.36498594284057617,0.42850229144096375
1751214205009099800,11.131099853515625,0.7193192839622498,0.3692470192909241,0.4583296775817871
1751214205019093800,11.14109375,0.7470161318778992,0.36072489619255066,0.4870918095111847
1751214205029088000,11.151087890625,0.7747129797935486,0.3404848873615265,0.5275717973709106
1751214205039082000,11.16108203125,0.7981488108634949,0.33835434913635254,0.5563339591026306
1751214205049076200,11.171076171875,0.8066709041595459,0.3596596419811249,0.546746551990509
1751214205059070200,11.1810703125,0.7960182428359985,0.33728909492492676,0.4775044322013855
1751214205069064400,11.191064453125,0.7683213949203491,0.279764860868454,0.3731085956096649
1751214205079058400,11.201058349609376,0.7235803008079529,0.2318280041217804,0.2569948434829712
1751214205089052700,11.211052734375,0.6660560965538025,0.18602167069911957,0.1664474457502365
1751214205099046700,11.221046630859375,0.60533607006073,0.14128059148788452,0.09933583438396454
1751214205109041000,11.231041015625,0.5520728826522827,0.10293109714984894,0.060986343771219254
1751214205119035000,11.241034912109376,0.4956139028072357,0.043276336044073105,0.040746334940195084
1751214205129029000,11.251029052734374,0.4210454523563385,-0.04301001876592636,0.04394212365150452
1751214205139023000,11.261023193359375,0.3592601716518402,-0.1249021589756012,0.0822916179895401
1751214205149017300,11.271017333984375,0.3411506712436676,-0.21225377917289734,0.14194637537002563
1751214205159011300,11.28101123046875,0.3549990952014923,-0.31558436155319214,0.21118851006031036
1751214205169005600,11.291005615234376,0.37630438804626465,-0.3784348964691162,0.2751043438911438
1751214205178999600,11.30099951171875,0.39121806621551514,-0.4157191216945648,0.3273022472858429
1751214205188993800,11.310993896484375,0.3965443968772888,-0.4082622826099396,0.360325425863266
1751214205198987800,11.32098779296875,0.39974018931388855,-0.3411506712436676,0.3560643792152405
1751214205208982000,11.33098193359375,0.3752391040325165,-0.2569948434829712,0.3273022472858429
1751214205218976000,11.34097607421875,0.34860754013061523,-0.21331904828548431,0.29640960693359375
1751214205228970200,11.35097021484375,0.32410645484924316,-0.24847275018692017,0.2559295892715454
1751214205238964200,11.360964111328125,0.2942790687084198,-0.32517173886299133,0.20373167097568512
1751214205248958500,11.37095849609375,0.2655169665813446,-0.3965443968772888,0.1579253375530243
1751214205258952400,11.380952392578125,0.228232741355896,-0.3922833502292633,0.12596742808818817
1751214205268946700,11.39094677734375,0.20373167097568512,-0.3358243703842163,0.08122635632753372
1751214205278940700,11.400940673828124,0.18242639303207397,-0.23568958044052124,0.020506324246525764
1751214205288935000,11.410934814453125,0.16431692242622375,-0.11957584321498871,-0.056192658841609955
1751214205298929000,11.420928955078125,0.16325165331363678,-0.009986846707761288,-0.12223900109529495
1751214205308923100,11.430923095703125,0.15579481422901154,0.09121319651603699,-0.16591481864452362
1751214205318917000,11.440917236328126,0.15046848356723785,0.15832480788230896,-0.20106850564479828
1751214205328911400,11.450911376953124,0.16325165331363678,0.18708692491054535,-0.2277000993490219
1751214205338905300,11.4609052734375,0.1856221854686737,0.21158799529075623,-0.22237378358840942
1751214205348899600,11.470899658203125,0.1994706094264984,0.2510027587413788,-0.18508955836296082
1751214205358893600,11.4808935546875,0.21225377917289734,0.3127880394458771,-0.12756532430648804
1751214205368887800,11.4908876953125,0.2239716798067093,0.37883439660072327,-0.08069372177124023
1751214205378881800,11.5008818359375,0.23462431132793427,0.4331628382205963,-0.07643266767263412
1751214205388876000,11.5108759765625,0.24101589620113373,0.4821649491786957,-0.09347688406705856
1751214205398870000,11.5208701171875,0.237820103764534,0.5258407592773438,-0.11584742367267609
1751214205408864300,11.5308642578125,0.23355905711650848,0.5482112765312195,-0.14034847915172577
1751214205418858200,11.540858154296876,0.2324937880039215,0.5354281663894653,-0.15526217222213745
1751214205428852500,11.5508525390625,0.23568958044052124,0.4715123176574707,-0.16058848798274994
1751214205438846500,11.560846435546875,0.2665822207927704,0.34261542558670044,-0.15100112557411194
1751214205448840700,11.5708408203125,0.2878875136375427,0.15086796879768372,-0.12756532430648804
1751214205458835000,11.5808349609375,0.29214856028556824,-0.06964161247015,-0.08921582996845245
1751214205468829000,11.590828857421876,0.26871275901794434,-0.2751043438911438,-0.04340949282050133
1751214205478823000,11.600822998046874,0.22290641069412231,-0.44661179184913635,0.015180006623268127
1751214205488817200,11.610817138671875,0.16857796907424927,-0.5776392221450806,0.08122635632753372
1751214205498811100,11.62081103515625,0.13342426717281342,-0.6585992574691772,0.13555480539798737
1751214205508805000,11.63080517578125,0.10785794258117676,-0.7086666226387024,0.17070849239826202
1751214205518799400,11.64079931640625,0.09933583438396454,-0.7363634705543518,0.18242639303207397
1751214205528793300,11.65079345703125,0.10679268091917038,-0.7374287843704224,0.18242639303207397
1751214205538787300,11.660787353515625,0.11744531989097595,-0.7065361142158508,0.19627483189105988
1751214205548781300,11.67078125,0.10998847335577011,-0.6617950201034546,0.22929799556732178
1751214205558775600,11.680775634765626,0.0684431865811348,-0.6000097393989563,0.29108327627182007
1751214205568769500,11.69076953125,-0.014647374860942364,-0.5233107805252075,0.3869570195674896
1751214205578763500,11.700763427734374,-0.10412952303886414,-0.492418110370636,0.5052012801170349
1751214205588757800,11.7107578125,-0.14993585646152496,-0.5478118062019348,0.6127929091453552
1751214205598751700,11.720751708984375,-0.1296958476305008,-0.705470860004425,0.6905571818351746
1751214205608745700,11.730745849609375,-0.08175898343324661,-0.9749825596809387,0.6990792751312256
1751214205618740000,11.740739990234376,-0.029561065137386322,-1.255146861076355,0.58403080701828
1751214205628734000,11.75073388671875,0.023702116683125496,-1.430915355682373,0.3123885691165924
1751214205638728000,11.76072802734375,0.03861580789089203,-1.3861743211746216,-0.110521100461483
1751214205648722200,11.77072216796875,-0.02636527456343174,-1.1379679441452026,-0.617586612701416
1751214205658716200,11.780716064453125,-0.13608743250370026,-0.7289066314697266,-1.1001510620117188
1751214205668710100,11.790710205078126,-0.2575274705886841,-0.21331904828548431,-1.5049512386322021
1751214205678704000,11.8007041015625,-0.40027281641960144,0.314918577671051,-1.8064208030700684
1751214205688698400,11.810698486328125,-0.563258171081543,0.8209187984466553,-1.9896461963653564
1751214205698692400,11.8206923828125,-0.7411571741104126,1.2768516540527344,-2.0695409774780273
1751214205708686300,11.830686279296875,-0.9222519993782043,1.660346508026123,-2.059953451156616
1751214205718680600,11.8406806640625,-1.1022815704345703,1.928792953491211,-1.997102975845337
1751214205728674600,11.850674560546874,-1.2791153192520142,2.0736687183380127,-1.900164008140564
1751214205738668500,11.86066845703125,-1.4495575428009033,2.107757329940796,-1.7744629383087158
1751214205748662800,11.870662841796875,-1.6029554605484009,2.0406455993652344,-1.639174461364746
1751214205758656800,11.88065673828125,-1.7180039882659912,1.8979003429412842,-1.485776424407959
1751214205768650800,11.890650634765626,-1.8064208030700684,1.6816518306732178,-1.3163995742797852
1751214205778645000,11.90064501953125,-1.8852503299713135,1.4952306747436523,-1.170458436012268
1751214205788639000,11.910638916015625,-1.9310566186904907,1.1777820587158203,-1.0032119750976562
1751214205798633000,11.920633056640625,-1.991776704788208,0.7548724412918091,-0.8040077090263367
1751214205808627000,11.930626953125,-2.055692434310913,0.3916175365447998,-0.6356960535049438
1751214205818621200,11.94062109375,-2.065279960632324,0.16684691607952118,-0.5217128396034241
1751214205828615200,11.950615234375,-2.0247998237609863,0.02516685426235199,-0.45566651225090027
1751214205838609200,11.960609130859375,-1.9726018905639648,-0.14194637537002563,-0.4577970504760742
1751214205848603400,11.970603271484375,-1.9502314329147339,-0.31878015398979187,-0.5472791790962219
1751214205858597400,11.980597412109375,-1.949166178703308,-0.4583296775817871,-0.6953508257865906
1751214205868591400,11.99059130859375,-1.9353177547454834,-0.5861613154411316,-0.8242477178573608
1751214205878585600,12.000585693359374,-1.907620906829834,-0.7587340474128723,-0.873249888420105
1751214205888579600,12.01057958984375,-1.8884460926055908,-0.9568730592727661,-0.8072035312652588
1751214205898573800,12.02057373046875,-1.8820545673370361,-1.219993233680725,-0.6314350366592407
1751214205908568000,12.030568115234376,-1.8714019060134888,-1.4522206783294678,-0.4162517786026001
1751214205918562000,12.04056201171875,-1.8564882278442383,-1.4554164409637451,-0.22663484513759613
1751214205928556300,12.050556396484374,-1.8223997354507446,-1.2338416576385498,-0.11158636957406998
1751214205938550300,12.06055029296875,-1.8149429559707642,-0.8737825155258179,-0.12117373943328857
1751214205948544500,12.07054443359375,-1.8863155841827393,-0.4444812536239624,-0.26391905546188354
1751214205958538500,12.08053857421875,-2.0194735527038574,-0.09733846783638,-0.4769718050956726
1751214205968532700,12.09053271484375,-2.170741081237793,0.12104058265686035,-0.6431529521942139
1751214205978526700,12.100526611328124,-2.2911157608032227,0.20945745706558228,-0.7070687413215637
1751214205988521000,12.11052099609375,-2.3475747108459473,0.25739431381225586,-0.6900244951248169
1751214205998515000,12.120514892578125,-2.324138879776001,0.27656906843185425,-0.6356960535049438
1751214206008509200,12.13050927734375,-2.2666146755218506,0.2680469751358032,-0.5834981799125671
1751214206018503200,12.140503173828124,-2.1984379291534424,0.203065887093544,-0.5515402555465698
1751214206028497400,12.150497314453125,-2.1334567070007324,0.14767217636108398,-0.5494097471237183
1751214206038491400,12.160491455078125,-2.050366163253784,0.10612688958644867,-0.517451822757721
1751214206048485600,12.170485595703125,-1.9683408737182617,0.052863709628582,-0.44288337230682373
1751214206058479600,12.180479736328126,-1.883119821548462,-0.04500738903880119,-0.33955278992652893
1751214206068473900,12.190473876953124,-1.7670060396194458,-0.20160114765167236,-0.23941799998283386
1751214206078467800,12.2004677734375,-1.6338480710983276,-0.3880222737789154,-0.1573926955461502
1751214206088462000,12.210462158203125,-1.493233323097229,-0.58403080701828,-0.09773793816566467
1751214206098456000,12.2204560546875,-1.351553201675415,-0.680969774723053,-0.03701791167259216
1751214206108450300,12.2304501953125,-1.2141342163085938,-0.6404897570610046,0.03435475379228592
1751214206118444300,12.2404443359375,-1.0628668069839478,-0.5637907981872559,0.09827057272195816
1751214206128438500,12.2504384765625,-0.9137299060821533,-0.5265065431594849,0.14514216780662537
1751214206138432500,12.2604326171875,-0.7763108611106873,-0.5328981280326843,0.17390428483486176
1751214206148426800,12.2704267578125,-0.6452834606170654,-0.5669865608215332,0.19734008610248566
1751214206158420700,12.280420654296876,-0.5142560005187988,-0.60533607006073,0.2186453640460968
1751214206168415000,12.2904150390625,-0.3960117697715759,-0.6372939944267273,0.23888537287712097
1751214206178409000,12.300408935546875,-0.2948117256164551,-0.6287718415260315,0.2569948434829712
1751214206188403200,12.3104033203125,-0.19254639744758606,-0.5584644675254822,0.2804306447505951
1751214206198397200,12.320397216796875,-0.08069372177124023,-0.44661179184913635,0.3081275224685669
1751214206208391400,12.330391357421876,-0.0050600022077560425,-0.3070622384548187,0.32836753129959106
1751214206218385400,12.340385498046874,0.09400951862335205,-0.15153375267982483,0.3464770019054413
1751214206228379600,12.350379638671875,0.18668745458126068,0.014514217153191566,0.35286858677864075
1751214206238373600,12.36037353515625,0.2751043438911438,0.15086796879768372,0.32517173886299133
1751214206248367900,12.370367919921875,0.36778226494789124,0.279764860868454,0.29640960693359375
1751214206278350000,12.40035009765625,0.7033402919769287,0.3735080659389496,0.2474074810743332
1751214206298338300,12.42033837890625,1.006940484046936,0.3404848873615265,0.2655169665813446
1751214206308332500,12.43033251953125,1.1837742328643799,0.3639206886291504,0.29640960693359375
1751214206318326500,12.440326416015624,1.322258472442627,0.4022701680660248,0.28149592876434326
1751214206328320800,12.45032080078125,1.3989574909210205,0.40440070629119873,0.20266640186309814
1751214206338314800,12.460314697265625,1.4351764917373657,0.5524723529815674,0.17816534638404846
1751214206348309000,12.47030908203125,1.463938593864441,0.81346195936203,0.2697780132293701
1751214206358303000,12.480302978515626,1.518267035484314,1.1255842447280884,0.4103928208351135
1751214206368297200,12.490297119140624,1.5811175107955933,1.4526201486587524,0.5765739679336548
1751214206378291200,12.500291259765625,1.5864439010620117,1.8648771047592163,0.7459508776664734
1751214206388285400,12.510285400390625,1.4330458641052246,2.41987943649292,0.7512772083282471
1751214206398279700,12.52027978515625,1.1198583841323853,2.7383933067321777,0.546746551990509
1751214206408273700,12.530273681640624,0.7896266579627991,2.490186929702759,0.37736964225769043
1751214206418268000,12.540267822265625,0.5850960612297058,2.2334582805633545,0.22610220313072205
1751214206428262000,12.550261962890625,0.7086666226387024,1.8627465963363647,0.10998847335577011
1751214206438256000,12.560256103515625,0.9217193722724915,1.353550672531128,0.20586219429969788
1751214206448250000,12.57025,1.1177278757095337,1.015861988067627,0.36671701073646545
1751214206458244400,12.580244384765624,1.3414332866668701,0.776177704334259,0.47537389397621155
1751214206468238300,12.59023828125,1.5491596460342407,0.45979443192481995,0.5552686452865601
1751214206478232600,12.600232666015625,1.6716649532318115,0.22117535769939423,0.6468813419342041
1751214206488226600,12.6102265625,1.7057534456253052,0.19028271734714508,0.7150582075119019
1751214206498220800,12.620220703125,1.7057534456253052,0.24674169719219208,0.7321024537086487
1751214206508214800,12.63021484375,1.6929702758789062,0.2275669425725937,0.7225150465965271
1751214206518208800,12.640208740234375,1.67699134349823,0.11038794368505478,0.7097318768501282
1751214206528203000,12.650203125,1.6503597497940063,-0.040879491716623306,0.6884266138076782
1751214206538197000,12.660197021484375,1.66953444480896,-0.23036326467990875,0.6500771641731262
1751214206548191000,12.67019091796875,1.6162712574005127,-0.3699128031730652,0.5861613154411316
1751214206558185000,12.68018505859375,1.5757912397384644,-0.4689823091030121,0.5201149582862854
1751214206568179200,12.69017919921875,1.540637493133545,-0.5403549671173096,0.46152547001838684
1751214206578173200,12.700173095703125,1.4916354417800903,-0.6021402478218079,0.40932756662368774
1751214206588167200,12.710167236328125,1.4479596614837646,-0.6767086982727051,0.3731085956096649
1751214206598161400,12.720161376953126,1.4202626943588257,-0.7448856234550476,0.3560643792152405
1751214206608155400,12.7301552734375,1.4287848472595215,-0.8045403361320496,0.3549990952014923
1751214206618149400,12.7401494140625,1.4415680170059204,-0.8705866932868958,0.3688475489616394
1751214206628143600,12.7501435546875,1.4319806098937988,-0.8886961936950684,0.3933486044406891
1751214206638137600,12.7601376953125,1.3946964740753174,-0.8652604222297668,0.4029359817504883
1751214206648131600,12.770131591796876,1.3584774732589722,-0.7874961495399475,0.40400123596191406
1751214206658125800,12.780125732421874,1.3265196084976196,-0.6479465961456299,0.4114580750465393
1751214206668119800,12.790119873046875,1.2956268787384033,-0.4530033767223358,0.4306328296661377
1751214206678113800,12.80011376953125,1.2572773694992065,-0.2239716798067093,0.45193809270858765
1751214206688107800,12.810107666015625,1.2231889963150024,0.024101590737700462,0.47963494062423706
1751214206698102000,12.82010205078125,1.1944268941879272,0.25739431381225586,0.5052012801170349
1751214206708096000,12.830095947265624,1.1731215715408325,0.466185986995697,0.5328981280326843
1751214206718090000,12.840090087890625,1.1432942152023315,0.6281060576438904,0.5648560523986816
1751214206728084200,12.850084228515625,1.0996184349060059,0.7570029497146606,0.596813976764679
