time,seconds_elapsed,z,y,x
1747543276707925500,0.107925537109375,9.085000038146973,3.2950000762939453,1.6640000343322754
1747543276717521700,0.117521728515625,9.161999702453613,3.3420000076293945,1.0260000228881836
1747543276727117000,0.127116943359375,9.192999839782715,3.3580000400543213,0.6079999804496765
1747543276736712000,0.1367119140625,9.116999626159668,3.6040000915527344,0.22499999403953552
1747543276746307300,0.146307373046875,9.069000244140625,3.7269999980926514,0.1469999998807907
1747543276755903500,0.155903564453125,9.125,3.5759999752044678,0.3269999921321869
1747543276765499000,0.165498779296875,8.994999885559082,3.7790000438690186,0.9819999933242798
1747543276775093800,0.17509375,8.60099983215332,4.040999889373779,2.4179999828338623
1747543276784689200,0.184689208984375,6.65500020980835,5.980000019073486,4.013000011444092
1747543276794285300,0.194285400390625,-5.598999977111816,7.754000186920166,2.1630001068115234
1747543276813475600,0.2134755859375,-6.718999862670898,6.948999881744385,1.6519999504089355
1747543276823071000,0.223071044921875,-6.658999919891357,6.97599983215332,1.7730000019073486
1747543276832667400,0.23266748046875,-6.574999809265137,7.02400016784668,1.8940000534057617
1747543276842262800,0.2422626953125,-6.464000225067139,7.0929999351501465,2.015000104904175
1747543276851857400,0.251857421875,-6.307000160217285,7.190000057220459,2.1640000343322754
1747543276861452800,0.261452880859375,-6.0929999351501465,7.315000057220459,2.3489999771118164
1747543276871049000,0.271049072265625,-5.834000110626221,7.458000183105469,2.5510001182556152
1747543276880644600,0.28064453125,-5.547999858856201,7.605000019073486,2.746000051498413
1747543276890239200,0.2902392578125,-5.260000228881836,7.749000072479248,2.9049999713897705
1747543276899834600,0.299834716796875,-4.991000175476074,7.886000156402588,3.007999897003174
1747543276909431000,0.30943115234375,-4.769999980926514,8.01099967956543,3.0380001068115234
1747543276919026400,0.3190263671875,-4.59499979019165,8.12600040435791,3.000999927520752
1747543276928621000,0.32862109375,-4.451000213623047,8.241000175476074,2.9040000438690186
1747543276947812900,0.347812744140625,-4.179999828338623,8.470000267028809,2.634999990463257
1747543276957408300,0.357408203125,-4.038000106811523,8.57699966430664,2.507999897003174
1747543276967003000,0.3670029296875,-3.8940000534057617,8.678999900817871,2.381999969482422
1747543276976598300,0.376598388671875,-3.75,8.777000427246094,2.25
1747543276986194700,0.386194580078125,-3.6040000915527344,8.871000289916992,2.117000102996826
1747543276995790000,0.3957900390625,-3.4560000896453857,8.958000183105469,1.9889999628067017
1747543277005384700,0.405384765625,-3.315000057220459,9.038000106811523,1.8660000562667847
1747543277014980000,0.41497998046875,-3.190000057220459,9.107999801635742,1.7410000562667847
1747543277024576500,0.424576416015625,-3.0940001010894775,9.163999557495117,1.6130000352859497
1747543277034172000,0.434171875,-3.0329999923706055,9.206000328063965,1.4869999885559082
1747543277043766500,0.4437666015625,-3.009999990463257,9.230999946594238,1.3700000047683716
1747543277053362000,0.45336181640625,-3.0260000228881836,9.241000175476074,1.2649999856948853
1747543277062958300,0.462958251953125,-3.071000099182129,9.23799991607666,1.1790000200271606
1747543277072553700,0.4725537109375,-3.125999927520752,9.22700023651123,1.1119999885559082
1747543277082148400,0.4821484375,-3.171999931335449,9.218000411987305,1.055999994277954
1747543277091743700,0.49174365234375,-3.1989998817443848,9.215999603271484,0.996999979019165
1747543277101340200,0.501340087890625,-3.2139999866485596,9.218000411987305,0.9210000038146973
1747543277110935600,0.510935546875,-3.2230000495910645,9.223999977111816,0.824999988079071
1747543277120530200,0.5205302734375,-3.2320001125335693,9.230999946594238,0.7049999833106995
1747543277130125600,0.53012548828125,-3.243000030517578,9.237000465393066,0.5619999766349792
1747543277139721700,0.5397216796875,-3.2660000324249268,9.237000465393066,0.40700000524520874
1747543277149317400,0.5493173828125,-3.311000108718872,9.22700023651123,0.24300000071525574
1747543277158912000,0.558912109375,-3.377000093460083,9.206000328063965,0.07199999690055847
1747543277168507600,0.568507568359375,-3.4600000381469727,9.175000190734863,-0.10300000011920929
1747543277178103800,0.578103759765625,-3.549999952316284,9.13599967956543,-0.28200000524520874
1747543277187699200,0.58769921875,-3.631999969482422,9.097000122070312,-0.46000000834465027
1747543277197293800,0.5972939453125,-3.694000005722046,9.062000274658203,-0.6299999952316284
1747543277206889500,0.606889404296875,-3.7290000915527344,9.03499984741211,-0.7870000004768372
1747543277216485400,0.6164853515625,-3.73799991607666,9.017999649047852,-0.9259999990463257
1747543277226081000,0.6260810546875,-3.7279999256134033,9.008999824523926,-1.0509999990463257
1747543277235675600,0.635675537109375,-3.7049999237060547,9.003000259399414,-1.1710000038146973
1747543277245271300,0.645271240234375,-3.677000045776367,8.998000144958496,-1.2940000295639038
1747543277254867200,0.6548671875,-3.6470000743865967,8.991000175476074,-1.4210000038146973
1747543277264462800,0.664462890625,-3.611999988555908,8.982000350952148,-1.5579999685287476
1747543277274057500,0.674057373046875,-3.569999933242798,8.972000122070312,-1.7059999704360962
1747543277283653000,0.683653076171875,-3.5209999084472656,8.960000038146973,-1.8650000095367432
1747543277293249000,0.6932490234375,-3.4609999656677246,8.946999549865723,-2.0320000648498535
1747543277302844700,0.7028447265625,-3.3929998874664307,8.930999755859375,-2.2100000381469727
1747543277312439300,0.712439208984375,-3.318000078201294,8.90999984741211,-2.4010000228881836
1747543277322034700,0.72203466796875,-3.240999937057495,8.883000373840332,-2.5980000495910645
1747543277331630800,0.731630859375,-3.1670000553131104,8.848999977111816,-2.7950000762939453
1747543277341226200,0.741226318359375,-3.0950000286102295,8.810999870300293,-2.992000102996826
1747543277350821000,0.750821044921875,-3.0250000953674316,8.769000053405762,-3.177999973297119
1747543277360416500,0.76041650390625,-2.9560000896453857,8.72700023651123,-3.3550000190734863
1747543277370013000,0.770012939453125,-2.884000062942505,8.682000160217285,-3.5290000438690186
1747543277379608300,0.7796083984375,-2.809999942779541,8.635000228881836,-3.7009999752044678
1747543277389203000,0.789202880859375,-2.7360000610351562,8.583000183105469,-3.872999906539917
1747543277398798300,0.79879833984375,-2.6610000133514404,8.527000427246094,-4.044000148773193
1747543277417990100,0.817990234375,-2.493000030517578,8.418000221252441,-4.367000102996826
1747543277427584800,0.827584716796875,-2.3959999084472656,8.369999885559082,-4.513000011444092
1747543277437180200,0.83718017578125,-2.2890000343322754,8.329000473022461,-4.642000198364258
1747543277446776600,0.846776611328125,-2.171999931335449,8.295999526977539,-4.755000114440918
1747543277456372000,0.8563720703125,-2.0450000762939453,8.27400016784668,-4.848999977111816
1747543277465966600,0.865966552734375,-1.909999966621399,8.258999824523926,-4.929999828338623
1747543277475562200,0.875562255859375,-1.7769999504089355,8.244999885559082,-5.001999855041504
1747543277485158400,0.885158447265625,-1.6510000228881836,8.22700023651123,-5.072999954223633
1747543277494753800,0.89475390625,-1.5410000085830688,8.204000473022461,-5.144999980926514
1747543277504348400,0.904348388671875,-1.4509999752044678,8.175000190734863,-5.2179999351501465
1747543277513944000,0.913944091796875,-1.3760000467300415,8.13700008392334,-5.296999931335449
1747543277523540200,0.923540283203125,-1.3109999895095825,8.090999603271484,-5.382999897003174
1747543277533135600,0.933135498046875,-1.253000020980835,8.038000106811523,-5.474999904632568
1747543277542730500,0.94273046875,-1.2009999752044678,7.98199987411499,-5.567999839782715
1747543277552326000,0.952325927734375,-1.1549999713897705,7.922999858856201,-5.660999774932861
1747543277561922000,0.961922119140625,-1.1119999885559082,7.86299991607666,-5.752999782562256
1747543277571517400,0.971517333984375,-1.0750000476837158,7.802999973297119,-5.841000080108643
1747543277581112300,0.9811123046875,-1.0399999618530273,7.742000102996826,-5.927000045776367
1747543277590707700,0.990707763671875,-1.00600004196167,7.685999870300293,-6.00600004196167
1747543277600303900,1.000303955078125,-0.9660000205039978,7.632999897003174,-6.078999996185303
1747543277609899300,1.009899169921875,-0.9200000166893005,7.585999965667725,-6.144999980926514
1747543277619494100,1.019494140625,-0.8659999966621399,7.539999961853027,-6.209000110626221
1747543277629089500,1.029089599609375,-0.8090000152587891,7.497000217437744,-6.269000053405762
1747543277638685700,1.038685791015625,-0.7570000290870667,7.456999778747559,-6.322999954223633
1747543277648281000,1.048281005859375,-0.7179999947547913,7.421999931335449,-6.368000030517578
1747543277657876000,1.0578759765625,-0.6959999799728394,7.388999938964844,-6.408999919891357
1747543277667471400,1.067471435546875,-0.6850000023841858,7.353000164031982,-6.451000213623047
1747543277677067500,1.077067626953125,-0.6740000247955322,7.315000057220459,-6.494999885559082
1747543277686663000,1.086662841796875,-0.6610000133514404,7.275000095367432,-6.540999889373779
1747543277696257800,1.0962578125,-0.6439999938011169,7.235000133514404,-6.5879998207092285
1747543277705853200,1.105853271484375,-0.621999979019165,7.192999839782715,-6.635000228881836
1747543277715449300,1.115449462890625,-0.6000000238418579,7.14900016784668,-6.684999942779541
1747543277725044700,1.125044677734375,-0.5830000042915344,7.103000164031982,-6.736000061035156
1747543277734639600,1.1346396484375,-0.5730000138282776,7.052000045776367,-6.789000034332275
1747543277744235000,1.144235107421875,-0.5690000057220459,6.999000072479248,-6.843999862670898
1747543277753831200,1.1538310546875,-0.5690000057220459,6.943999767303467,-6.901000022888184
1747543277763426600,1.163426513671875,-0.5730000138282776,6.883999824523926,-6.959000110626221
1747543277773021400,1.173021484375,-0.5789999961853027,6.818999767303467,-7.021999835968018
1747543277782616800,1.182616943359375,-0.5879999995231628,6.748000144958496,-7.090000152587891
1747543277792213000,1.192212890625,-0.6010000109672546,6.671000003814697,-7.1620001792907715
1747543277801808400,1.201808349609375,-0.6159999966621399,6.5879998207092285,-7.236999988555908
1747543277811403000,1.211403076171875,-0.6340000033378601,6.499000072479248,-7.315999984741211
1747543277820998700,1.22099853515625,-0.652999997138977,6.40500020980835,-7.395999908447266
1747543277830594800,1.2305947265625,-0.671999990940094,6.304999828338623,-7.480000019073486
1747543277840190200,1.240190185546875,-0.6880000233650208,6.198999881744385,-7.565999984741211
1747543277849784800,1.249784912109375,-0.7009999752044678,6.0879998207092285,-7.65500020980835
1747543277859380200,1.259380126953125,-0.7099999785423279,5.97599983215332,-7.742000102996826
1747543277868976600,1.2689765625,-0.7139999866485596,5.864999771118164,-7.826000213623047
1747543277878572300,1.278572265625,-0.7110000252723694,5.756999969482422,-7.906000137329102
1747543277888166700,1.288166748046875,-0.6990000009536743,5.65500020980835,-7.980000019073486
1747543277897762000,1.297761962890625,-0.6830000281333923,5.559000015258789,-8.048999786376953
1747543277907358500,1.3073583984375,-0.6620000004768372,5.464000225067139,-8.114999771118164
1747543277916953900,1.316953857421875,-0.6380000114440918,5.369999885559082,-8.180000305175781
1747543277926548700,1.326548828125,-0.6140000224113464,5.275000095367432,-8.243000030517578
1747543277936144100,1.33614404296875,-0.5929999947547913,5.179999828338623,-8.305000305175781
1747543277945740300,1.345740234375,-0.5699999928474426,5.085999965667725,-8.36400032043457
1747543277955336000,1.3553359375,-0.5429999828338623,4.993000030517578,-8.42199993133545
1747543277964930600,1.3649306640625,-0.5139999985694885,4.89900016784668,-8.479000091552734
1747543277974526000,1.37452587890625,-0.49300000071525574,4.801000118255615,-8.53600025177002
1747543277984122000,1.3841220703125,-0.4860000014305115,4.697999954223633,-8.593000411987305
1747543277993717500,1.393717529296875,-0.49900001287460327,4.590000152587891,-8.651000022888184
1747543278003312400,1.4033125,-0.5410000085830688,4.468999862670898,-8.711999893188477
1747543278012907800,1.41290771484375,-0.6019999980926514,4.335999965667725,-8.774999618530273
1747543278022504000,1.42250390625,-0.6740000247955322,4.203000068664551,-8.833999633789062
1747543278032099300,1.432099365234375,-0.7419999837875366,4.083000183105469,-8.885000228881836
1747543278041694200,1.441694091796875,-0.7950000166893005,3.9809999465942383,-8.925999641418457
1747543278051289600,1.45128955078125,-0.8320000171661377,3.890000104904175,-8.963000297546387
1747543278060885800,1.4608857421875,-0.8460000157356262,3.809999942779541,-8.996000289916992
1747543278070481200,1.470481201171875,-0.8360000252723694,3.73799991607666,-9.027000427246094
1747543278080076000,1.480075927734375,-0.796999990940094,3.6700000762939453,-9.057999610900879
1747543278089671400,1.48967138671875,-0.7250000238418579,3.6070001125335693,-9.09000015258789
1747543278099267600,1.499267578125,-0.6200000047683716,3.5409998893737793,-9.123000144958496
1747543278108863000,1.508863037109375,-0.48399999737739563,3.4670000076293945,-9.15999984741211
1747543278118457900,1.518457763671875,-0.335999995470047,3.38100004196167,-9.197999954223633
1747543278128053200,1.52805322265625,-0.1979999989271164,3.2850000858306885,-9.237000465393066
1747543278137649400,1.5376494140625,-0.07900000363588333,3.184000015258789,-9.27400016784668
1747543278147245000,1.5472451171875,0.017999999225139618,3.0820000171661377,-9.309000015258789
1747543278156839700,1.556839599609375,0.09300000220537186,2.9830000400543213,-9.340999603271484
1747543278166435000,1.56643505859375,0.14900000393390656,2.888000011444092,-9.369999885559082
1747543278176031200,1.57603125,0.19099999964237213,2.796999931335449,-9.397000312805176
1747543278185627000,1.585626953125,0.22100000083446503,2.7130000591278076,-9.420999526977539
1747543278195221500,1.595221435546875,0.24300000071525574,2.634999990463257,-9.442000389099121
1747543278204817000,1.60481689453125,0.2619999945163727,2.562000036239624,-9.461999893188477
1747543278214413000,1.6144130859375,0.27799999713897705,2.489000082015991,-9.480999946594238
1747543278224008700,1.6240087890625,0.28999999165534973,2.4159998893737793,-9.49899959564209
1747543278233603300,1.633603271484375,0.29899999499320984,2.3429999351501465,-9.517000198364258
1747543278243198700,1.64319873046875,0.3050000071525574,2.2709999084472656,-9.53499984741211
1747543278252795000,1.652794921875,0.3059999942779541,2.2009999752044678,-9.550999641418457
1747543278262390500,1.662390625,0.3050000071525574,2.134000062942505,-9.565999984741211
1747543278271985200,1.671985107421875,0.3059999942779541,2.071000099182129,-9.579999923706055
1747543278281580500,1.68158056640625,0.3109999895095825,2.009999990463257,-9.593000411987305
1747543278291176700,1.6911767578125,0.32199999690055847,1.9509999752044678,-9.604999542236328
1747543278300772000,1.700772216796875,0.33799999952316284,1.8969999551773071,-9.614999771118164
1747543278310367000,1.710366943359375,0.3569999933242798,1.847000002861023,-9.62399959564209
1747543278319962400,1.71996240234375,0.3720000088214874,1.7990000247955322,-9.631999969482422
1747543278329558500,1.72955859375,0.3790000081062317,1.753999948501587,-9.640000343322754
1747543278339154000,1.73915380859375,0.37700000405311584,1.7109999656677246,-9.64799976348877
1747543278348748500,1.74874853515625,0.367000013589859,1.6690000295639038,-9.656000137329102
1747543278358344200,1.75834423828125,0.3540000021457672,1.628000020980835,-9.663000106811523
1747543278367940400,1.7679404296875,0.33799999952316284,1.5870000123977661,-9.670999526977539
1747543278377536000,1.777535888671875,0.3230000138282776,1.5449999570846558,-9.678000450134277
1747543278387130400,1.78713037109375,0.3100000023841858,1.5049999952316284,-9.6850004196167
1747543278396726000,1.79672607421875,0.30000001192092896,1.465000033378601,-9.690999984741211
1747543278406322200,1.806322265625,0.2930000126361847,1.4259999990463257,-9.696999549865723
1747543278415917800,1.815917724609375,0.28700000047683716,1.3869999647140503,-9.70300006866455
1747543278425512200,1.82551220703125,0.28200000524520874,1.3480000495910645,-9.708999633789062
1747543278435107800,1.83510791015625,0.2759999930858612,1.309000015258789,-9.71399974822998
1747543278444704000,1.8447041015625,0.2669999897480011,1.2690000534057617,-9.720000267028809
1747543278454299600,1.854299560546875,0.2549999952316284,1.2289999723434448,-9.725000381469727
1747543278463894000,1.86389404296875,0.2409999966621399,1.187000036239624,-9.730999946594238
1747543278473489400,1.873489501953125,0.22599999606609344,1.1449999809265137,-9.736000061035156
1747543278483085800,1.8830859375,0.20999999344348907,1.100000023841858,-9.741999626159668
1747543278492681500,1.892681396484375,0.19499999284744263,1.0540000200271606,-9.746999740600586
1747543278502275800,1.90227587890625,0.18400000035762787,1.0080000162124634,-9.751999855041504
1747543278511871200,1.911871337890625,0.1770000010728836,0.9620000123977661,-9.756999969482422
1747543278521467600,1.921467529296875,0.1770000010728836,0.9150000214576721,-9.76200008392334
1747543278531063300,1.931063232421875,0.18400000035762787,0.8669999837875366,-9.765999794006348
1747543278559849500,1.959849365234375,0.2329999953508377,0.7170000076293945,-9.777000427246094
1747543278569444900,1.96944482421875,0.25,0.6690000295639038,-9.779999732971191
1747543278579039700,1.979039794921875,0.2669999897480011,0.6240000128746033,-9.782999992370605
1747543278588635100,1.98863525390625,0.28299999237060547,0.5820000171661377,-9.78499984741211
1747543278598231300,1.998231201171875,0.29899999499320984,0.5450000166893005,-9.78600025177002
1747543278607826700,2.00782666015625,0.3140000104904175,0.5109999775886536,-9.788000106811523
1747543278617421600,2.017421630859375,0.328000009059906,0.48100000619888306,-9.788999557495117
1747543278627017000,2.027016845703125,0.3370000123977661,0.453000009059906,-9.789999961853027
1747543278636613000,2.036613037109375,0.3409999907016754,0.42800000309944153,-9.791000366210938
1747543278646208500,2.04620849609375,0.3400000035762787,0.40299999713897705,-9.791999816894531
1747543278655803400,2.055803466796875,0.3319999873638153,0.3790000081062317,-9.793000221252441
1747543278665398800,2.065398681640625,0.3179999887943268,0.35499998927116394,-9.795000076293945
1747543278674995000,2.074994873046875,0.30000001192092896,0.3319999873638153,-9.795999526977539
1747543278684590300,2.08459033203125,0.2809999883174896,0.30799999833106995,-9.79699993133545
1747543278694185200,2.094185302734375,0.2639999985694885,0.2809999883174896,-9.798999786376953
1747543278703780600,2.103780517578125,0.24799999594688416,0.25,-9.800000190734863
1747543278713376800,2.113376708984375,0.23100000619888306,0.21699999272823334,-9.800999641418457
1747543278722972400,2.122972412109375,0.21400000154972076,0.1860000044107437,-9.802000045776367
1747543278732567000,2.132567138671875,0.19499999284744263,0.1589999943971634,-9.803000450134277
1747543278742162400,2.142162353515625,0.17399999499320984,0.1379999965429306,-9.803999900817871
1747543278751758600,2.151758544921875,0.14800000190734863,0.12399999797344208,-9.803999900817871
1747543278761354200,2.161354248046875,0.11599999666213989,0.11100000143051147,-9.805000305175781
1747543278770948900,2.170948974609375,0.0820000022649765,0.09799999743700027,-9.805000305175781
1747543278780544300,2.180544189453125,0.04600000008940697,0.0820000022649765,-9.805999755859375
1747543278790140400,2.190140380859375,0.010999999940395355,0.057999998331069946,-9.805999755859375
1747543278799736000,2.199736083984375,-0.02500000037252903,0.026000000536441803,-9.805999755859375
1747543278809330700,2.20933056640625,-0.061000000685453415,-0.012000000104308128,-9.805999755859375
1747543278818926000,2.218926025390625,-0.0989999994635582,-0.05400000140070915,-9.805000305175781
1747543278828522500,2.2285224609375,-0.14100000262260437,-0.09700000286102295,-9.805000305175781
1747543278838118000,2.238117919921875,-0.18299999833106995,-0.13699999451637268,-9.803000450134277
1747543278847712500,2.24771240234375,-0.22300000488758087,-0.17399999499320984,-9.802000045776367
1747543278857308000,2.257307861328125,-0.2590000033378601,-0.20600000023841858,-9.800999641418457
1747543278866904300,2.266904296875,-0.29100000858306885,-0.23100000619888306,-9.798999786376953
1747543278876499700,2.276499755859375,-0.3160000145435333,-0.24899999797344208,-9.79800033569336
1747543278886094300,2.28609423828125,-0.3330000042915344,-0.2619999945163727,-9.79699993133545
1747543278895689700,2.295689697265625,-0.3400000035762787,-0.2750000059604645,-9.795999526977539
1747543278905286100,2.3052861328125,-0.33799999952316284,-0.2930000126361847,-9.795999526977539
1747543278914881500,2.314881591796875,-0.32899999618530273,-0.3160000145435333,-9.795000076293945
1747543278924476200,2.32447607421875,-0.3149999976158142,-0.3449999988079071,-9.795000076293945
1747543278934071600,2.334071533203125,-0.29899999499320984,-0.3790000081062317,-9.793999671936035
1747543278943667700,2.343667724609375,-0.28200000524520874,-0.4169999957084656,-9.793000221252441
1747543278953263400,2.353263427734375,-0.26499998569488525,-0.45899999141693115,-9.791999816894531
1747543278962857700,2.362857666015625,-0.24899999797344208,-0.503000020980835,-9.789999961853027
1747543278972453400,2.372453369140625,-0.23000000417232513,-0.5460000038146973,-9.788000106811523
1747543278982049500,2.382049560546875,-0.20600000023841858,-0.5870000123977661,-9.78600025177002
1747543278991645200,2.391645263671875,-0.18000000715255737,-0.625,-9.78499984741211
1747543279001239600,2.401239501953125,-0.15299999713897705,-0.6600000262260437,-9.782999992370605
1747543279010835000,2.4108349609375,-0.1289999932050705,-0.6909999847412109,-9.781000137329102
1747543279020431400,2.420431396484375,-0.10700000077486038,-0.7200000286102295,-9.779000282287598
1747543279030026800,2.43002685546875,-0.08699999749660492,-0.75,-9.777000427246094
1747543279049217000,2.449217041015625,-0.05400000140070915,-0.8190000057220459,-9.772000312805176
1747543279058813200,2.458813232421875,-0.04399999976158142,-0.8550000190734863,-9.769000053405762
1747543279068408800,2.468408935546875,-0.035999998450279236,-0.890999972820282,-9.765000343322754
1747543279078003500,2.47800341796875,-0.03200000151991844,-0.9259999990463257,-9.76200008392334
1747543279087598800,2.487598876953125,-0.03099999949336052,-0.9599999785423279,-9.758999824523926
1747543279097195000,2.497195068359375,-0.03099999949336052,-0.9940000176429749,-9.755999565124512
1747543279106790700,2.506790771484375,-0.032999999821186066,-1.0269999504089355,-9.751999855041504
1747543279116385300,2.51638525390625,-0.03099999949336052,-1.062000036239624,-9.748000144958496
1747543279125980700,2.525980712890625,-0.02199999988079071,-1.0989999771118164,-9.744000434875488
1747543279145172500,2.54517236328125,0.009999999776482582,-1.1720000505447388,-9.736000061035156
1747543279154767000,2.55476708984375,0.028999999165534973,-1.2100000381469727,-9.730999946594238
1747543279164362500,2.564362548828125,0.04399999976158142,-1.2489999532699585,-9.72599983215332
1747543279173958700,2.573958740234375,0.052000001072883606,-1.2869999408721924,-9.720999717712402
1747543279183554000,2.583553955078125,0.054999999701976776,-1.3209999799728394,-9.715999603271484
1747543279193149000,2.59314892578125,0.05400000140070915,-1.350000023841858,-9.713000297546387
1747543279202744300,2.602744384765625,0.05400000140070915,-1.3730000257492065,-9.708999633789062
1747543279212340500,2.612340576171875,0.05700000002980232,-1.3899999856948853,-9.706999778747559
1747543279221936000,2.62193603515625,0.06400000303983688,-1.4040000438690186,-9.704999923706055
1747543279231530800,2.63153076171875,0.07199999690055847,-1.4179999828338623,-9.70300006866455
1747543279241126100,2.641126220703125,0.0820000022649765,-1.430999994277954,-9.701000213623047
1747543279250722300,2.650722412109375,0.08900000154972076,-1.4429999589920044,-9.699000358581543
1747543279260318000,2.66031787109375,0.09200000017881393,-1.4509999752044678,-9.697999954223633
1747543279269912600,2.66991259765625,0.0949999988079071,-1.4539999961853027,-9.696999549865723
1747543279279508000,2.679508056640625,0.10100000351667404,-1.4539999961853027,-9.696999549865723
1747543279289104400,2.6891044921875,0.11100000143051147,-1.4550000429153442,-9.696999549865723
1747543279298699800,2.69869970703125,0.11900000274181366,-1.4600000381469727,-9.696000099182129
1747543279308294400,2.70829443359375,0.12099999934434891,-1.4709999561309814,-9.694000244140625
1747543279317889800,2.717889892578125,0.1120000034570694,-1.4839999675750732,-9.692000389099121
1747543279327486200,2.727486328125,0.08799999952316284,-1.4980000257492065,-9.690999984741211
1747543279337081600,2.73708154296875,0.04800000041723251,-1.5119999647140503,-9.689000129699707
1747543279346676200,2.74667626953125,-0.004999999888241291,-1.5210000276565552,-9.687000274658203
1747543279356271600,2.756271728515625,-0.06400000303983688,-1.5240000486373901,-9.687000274658203
1747543279365868000,2.765867919921875,-0.12200000137090683,-1.5210000276565552,-9.687000274658203
1747543279375463400,2.77546337890625,-0.1770000010728836,-1.5130000114440918,-9.687000274658203
1747543279385058000,2.78505810546875,-0.23000000417232513,-1.4989999532699585,-9.687999725341797
1747543279394653400,2.7946533203125,-0.27799999713897705,-1.4809999465942383,-9.6899995803833
1747543279404249900,2.804249755859375,-0.3230000138282776,-1.4620000123977661,-9.690999984741211
1747543279413845200,2.81384521484375,-0.3630000054836273,-1.4470000267028809,-9.692000389099121
1747543279423440000,2.82343994140625,-0.4000000059604645,-1.4359999895095825,-9.692000389099121
1747543279433035300,2.83303515625,-0.4320000112056732,-1.4270000457763672,-9.692000389099121
1747543279442631700,2.842631591796875,-0.46000000834465027,-1.4179999828338623,-9.692000389099121
1747543279452227000,2.85222705078125,-0.48500001430511475,-1.406999945640564,-9.692999839782715
1747543279461821700,2.86182177734375,-0.5059999823570251,-1.3960000276565552,-9.692999839782715
1747543279471417000,2.8714169921875,-0.5239999890327454,-1.3860000371932983,-9.692999839782715
1747543279481013200,2.88101318359375,-0.5429999828338623,-1.3769999742507935,-9.694000244140625
1747543279490609000,2.89060888671875,-0.5690000057220459,-1.3650000095367432,-9.694000244140625
1747543279500203300,2.900203369140625,-0.6019999980926514,-1.3450000286102295,-9.694999694824219
1747543279509799000,2.909798828125,-0.6439999938011169,-1.3170000314712524,-9.696000099182129
1747543279519395000,2.91939501953125,-0.6930000185966492,-1.284000039100647,-9.696999549865723
1747543279528990700,2.92899072265625,-0.7480000257492065,-1.2489999532699585,-9.696999549865723
1747543279538585000,2.938585205078125,-0.8090000152587891,-1.215000033378601,-9.696999549865723
1747543279548180500,2.948180419921875,-0.875,-1.1829999685287476,-9.694999694824219
1747543279557777000,2.95777685546875,-0.9470000267028809,-1.1540000438690186,-9.692000389099121
1747543279567372500,2.96737255859375,-1.0190000534057617,-1.128000020980835,-9.687999725341797
1747543279576967000,2.976966796875,-1.0870000123977661,-1.1069999933242798,-9.682000160217285
1747543279586562300,2.986562255859375,-1.149999976158142,-1.0950000286102295,-9.677000045776367
1747543279596158700,2.99615869140625,-1.2070000171661377,-1.0920000076293945,-9.670000076293945
1747543279605754400,3.00575439453125,-1.2580000162124634,-1.1019999980926514,-9.661999702453613
1747543279615348700,3.0153486328125,-1.3070000410079956,-1.121000051498413,-9.654000282287598
1747543279624944000,3.024944091796875,-1.3580000400543213,-1.1469999551773071,-9.644000053405762
1747543279634540500,3.03454052734375,-1.4160000085830688,-1.1740000247955322,-9.631999969482422
1747543279644136200,3.04413623046875,-1.4839999675750732,-1.1970000267028809,-9.619000434875488
1747543279653730800,3.053730712890625,-1.565999984741211,-1.2200000286102295,-9.602999687194824
1747543279663326200,3.063326171875,-1.6649999618530273,-1.246000051498413,-9.583000183105469
1747543279672922400,3.07292236328125,-1.781999945640564,-1.2719999551773071,-9.557999610900879
1747543279682518000,3.08251806640625,-1.9199999570846558,-1.2960000038146973,-9.529000282287598
1747543279692112600,3.092112548828125,-2.078000068664551,-1.3170000314712524,-9.491999626159668
1747543279701708000,3.1017080078125,-2.253999948501587,-1.3329999446868896,-9.449999809265137
1747543279711304200,3.11130419921875,-2.447000026702881,-1.343000054359436,-9.399999618530273
1747543279720899600,3.120899658203125,-2.6429998874664307,-1.347000002861023,-9.345999717712402
1747543279730494500,3.130494384765625,-2.8329999446868896,-1.3459999561309814,-9.291000366210938
1747543279740089900,3.14008984375,-3.0179998874664307,-1.343000054359436,-9.232999801635742
1747543279749686000,3.14968603515625,-3.188999891281128,-1.3420000076293945,-9.175000190734863
1747543279759281400,3.159281494140625,-3.3489999771118164,-1.343000054359436,-9.118000030517578
1747543279768876300,3.168876220703125,-3.499000072479248,-1.3459999561309814,-9.060999870300293
1747543279778471700,3.1784716796875,-3.6429998874664307,-1.3489999771118164,-9.003999710083008
1747543279788067800,3.18806787109375,-3.7829999923706055,-1.3519999980926514,-8.944999694824219
1747543279797663200,3.197663330078125,-3.933000087738037,-1.3509999513626099,-8.880999565124512
1747543279807258000,3.207258056640625,-4.111999988555908,-1.343000054359436,-8.800000190734863
1747543279816853500,3.216853515625,-4.309000015258789,-1.3320000171661377,-8.706999778747559
1747543279826449700,3.22644970703125,-4.510000228881836,-1.3250000476837158,-8.605999946594238
1747543279836045000,3.236045166015625,-4.7129998207092285,-1.3259999752044678,-8.496000289916992
1747543279845640000,3.245639892578125,-4.914000034332275,-1.3339999914169312,-8.380000114440918
1747543279855235300,3.2552353515625,-5.110000133514404,-1.347000002861023,-8.260000228881836
1747543279864831500,3.26483154296875,-5.296999931335449,-1.3650000095367432,-8.137999534606934
1747543279874427000,3.274427001953125,-5.474999904632568,-1.3849999904632568,-8.015999794006348
1747543279884021800,3.284021728515625,-5.640999794006348,-1.406999945640564,-7.895999908447266
1747543279893617200,3.2936171875,-5.791999816894531,-1.4290000200271606,-7.7829999923706055
1747543279903213300,3.30321337890625,-5.9079999923706055,-1.4529999494552612,-7.690000057220459
1747543279912809000,3.31280908203125,-5.986999988555908,-1.4809999465942383,-7.623000144958496
1747543279922403600,3.322403564453125,-6.052000045776367,-1.5099999904632568,-7.566999912261963
1747543279931999000,3.3319990234375,-6.113999843597412,-1.5369999408721924,-7.511000156402588
1747543279951190800,3.351190673828125,-6.256999969482422,-1.6039999723434448,-7.376999855041504
1747543279960785400,3.360785400390625,-6.331999778747559,-1.649999976158142,-7.302999973297119
1747543279970380800,3.370380859375,-6.395999908447266,-1.6970000267028809,-7.236000061035156
1747543279979977200,3.379977294921875,-6.446000099182129,-1.7319999933242798,-7.184000015258789
1747543279989572600,3.389572509765625,-6.47599983215332,-1.7359999418258667,-7.15500020980835
1747543280008762600,3.4087626953125,-6.485000133514404,-1.6109999418258667,-7.177000045776367
1747543280018359000,3.418359130859375,-6.468999862670898,-1.4780000448226929,-7.21999979019165
1747543280027954400,3.427954345703125,-6.443999767303467,-1.3109999895095825,-7.27400016784668
1747543280047144400,3.44714453125,-6.373000144958496,-0.9980000257492065,-7.385000228881836
1747543280056740900,3.456740966796875,-6.304999828338623,-0.8970000147819519,-7.455999851226807
1747543280066336300,3.466336181640625,-6.2170000076293945,-0.8529999852180481,-7.534999847412109
1747543280075931000,3.475930908203125,-6.113999843597412,-0.8740000128746033,-7.616000175476074
1747543280085526300,3.4855263671875,-6.007999897003174,-0.953000009059906,-7.690999984741211
1747543280104718000,3.504718017578125,-5.804999828338623,-1.2319999933242798,-7.806000232696533
1747543280114312700,3.514312744140625,-5.7179999351501465,-1.3899999856948853,-7.843999862670898
1747543280123908000,3.523908203125,-5.645999908447266,-1.5490000247955322,-7.866000175476074
1747543280133504500,3.53350439453125,-5.581999778747559,-1.7170000076293945,-7.876999855041504
1747543280152694500,3.552694580078125,-5.48199987411499,-2.0929999351501465,-7.855999946594238
1747543280162290000,3.5622900390625,-5.438000202178955,-2.305000066757202,-7.828000068664551
1747543280171886300,3.57188623046875,-5.388000011444092,-2.5399999618530273,-7.789000034332275
1747543280181481700,3.581481689453125,-5.336999893188477,-2.799999952316284,-7.735000133514404
1747543280191076400,3.591076416015625,-5.285999774932861,-3.0899999141693115,-7.659999847412109
1747543280200671700,3.600671630859375,-5.234000205993652,-3.3959999084472656,-7.565000057220459
1747543280210268200,3.61026806640625,-5.189000129699707,-3.7060000896453857,-7.448999881744385
1747543280239053600,3.639053466796875,-5.091000080108643,-4.630000114440918,-6.986000061035156
1747543280258245400,3.658245361328125,-5.011000156402588,-5.203999996185303,-6.63100004196167
1747543280267839700,3.66783984375,-4.960000038146973,-5.480999946594238,-6.442999839782715
1747543280277435400,3.677435302734375,-4.900000095367432,-5.75600004196167,-6.245999813079834
1747543280287031600,3.687031494140625,-4.830999851226807,-6.0279998779296875,-6.039999961853027
1747543280296627200,3.696627197265625,-4.752999782562256,-6.301000118255615,-5.818999767303467
1747543280306221800,3.706221923828125,-4.668000221252441,-6.574999809265137,-5.579999923706055
1747543280315817200,3.715817138671875,-4.578999996185303,-6.8470001220703125,-5.320000171661377
1747543280325413400,3.725413330078125,-4.48799991607666,-7.113999843597412,-5.039000034332275
1747543280335009000,3.735009033203125,-4.396999835968018,-7.374000072479248,-4.738999843597412
1747543280344603600,3.744603759765625,-4.303999900817871,-7.622000217437744,-4.420000076293945
1747543280354199000,3.754198974609375,-4.214000225067139,-7.855999946594238,-4.085000038146973
1747543280363795200,3.763795166015625,-4.13100004196167,-8.071999549865723,-3.7330000400543213
1747543280373390800,3.773390869140625,-4.059999942779541,-8.267999649047852,-3.36299991607666
1747543280382985200,3.782985107421875,-4.00600004196167,-8.442000389099121,-2.9719998836517334
1747543280402177000,3.802177001953125,-3.9519999027252197,-8.717000007629395,-2.131999969482422
1747543280411772700,3.811772705078125,-3.9539999961853027,-8.812000274658203,-1.6929999589920044
1747543280430962700,3.830962646484375,-4.025000095367432,-8.906999588012695,-0.7829999923706055
1747543280440558800,3.840558837890625,-4.098999977111816,-8.902000427246094,-0.32899999618530273
1747543280450154500,3.850154541015625,-4.198999881744385,-8.861000061035156,0.11500000208616257
1747543280459749400,3.859749267578125,-4.326000213623047,-8.781999588012695,0.5659999847412109
1747543280469344800,3.8693447265625,-4.474999904632568,-8.666999816894531,1.0110000371932983
1747543280478940700,3.878940673828125,-4.640999794006348,-8.515000343322754,1.4520000219345093
1747543280488536000,3.8885361328125,-4.822999954223633,-8.32699966430664,1.8839999437332153
1747543280498131000,3.898130859375,-5.015999794006348,-8.107000350952148,2.2980000972747803
1747543280507726300,3.907726318359375,-5.216000080108643,-7.857999801635742,2.683000087738037
1747543280517322500,3.917322509765625,-5.420000076293945,-7.5920000076293945,3.0239999294281006
1747543280526918000,3.92691796875,-5.622000217437744,-7.320000171661377,3.312000036239624
1747543280536512800,3.9365126953125,-5.817999839782715,-7.053999900817871,3.5409998893737793
1747543280546108200,3.946108154296875,-6.008999824523926,-6.803999900817871,3.7079999446868896
1747543280555704600,3.95570458984375,-6.197000026702881,-6.572999954223633,3.813999891281128
1747543280565300000,3.965300048828125,-6.383999824523926,-6.361999988555908,3.864000082015991
1747543280574894600,3.97489453125,-6.576000213623047,-6.1620001792907715,3.864000082015991
1747543280584490000,3.984489990234375,-6.78000020980835,-5.965000152587891,3.822999954223633
1747543280594086100,3.994086181640625,-6.994999885559082,-5.760000228881836,3.749000072479248
1747543280613276400,4.0132763671875,-7.459000110626221,-5.302000045776367,3.5220000743865967
1747543280632468000,4.032468017578125,-7.942999839782715,-4.764999866485596,3.2190001010894775
1747543280642063600,4.042063720703125,-8.178000450134277,-4.4720001220703125,3.046999931335449
1747543280651658200,4.051658203125,-8.395999908447266,-4.176000118255615,2.867000102996826
1747543280661253600,4.061253662109375,-8.598999977111816,-3.878000020980835,2.677000045776367
1747543280670849800,4.070849853515625,-8.777000427246094,-3.5999999046325684,2.4830000400543213
1747543280680445400,4.080445556640625,-8.928000450134277,-3.3499999046325684,2.2850000858306885
1747543280690040000,4.0900400390625,-9.059000015258789,-3.125,2.0799999237060547
1747543280699635500,4.099635498046875,-9.168000221252441,-2.931999921798706,1.875
1747543280709231900,4.10923193359375,-9.26099967956543,-2.760999917984009,1.6660000085830688
1747543280718827000,4.118826904296875,-9.343000411987305,-2.5989999771118164,1.4529999494552612
1747543280728422000,4.128421875,-9.418999671936035,-2.431999921798706,1.2319999933242798
1747543280738017300,4.138017333984375,-9.491999626159668,-2.25,1.0019999742507935
1747543280757209000,4.157208984375,-9.62399959564209,-1.812999963760376,0.4970000088214874
1747543280766803700,4.1668037109375,-9.680000305175781,-1.5509999990463257,0.21899999678134918
1747543280776399000,4.176399169921875,-9.725000381469727,-1.2589999437332153,-0.0729999989271164
1747543280785995500,4.18599560546875,-9.753999710083008,-0.9419999718666077,-0.375
1747543280795590700,4.195590576171875,-9.763999938964844,-0.6050000190734863,-0.6809999942779541
1747543280805185500,4.205185546875,-9.753000259399414,-0.2549999952316284,-0.9869999885559082
1747543280824377300,4.22437744140625,-9.666999816894531,0.44999998807907104,-1.5859999656677246
1747543280843567400,4.2435673828125,-9.505999565124512,1.100000023841858,-2.1419999599456787
1747543280853162800,4.253162841796875,-9.407999992370605,1.3799999952316284,-2.3949999809265137
1747543280862759200,4.26275927734375,-9.307999610900879,1.61899995803833,-2.625
1747543280891544600,4.291544677734375,-9.050000190734863,2.065000057220459,-3.1619999408721924
1747543280901141000,4.30114111328125,-8.98799991607666,2.130000114440918,-3.2909998893737793
1747543280920331000,4.3203310546875,-8.91100025177002,2.1570000648498535,-3.4779999256134033
1747543280929926400,4.329926513671875,-8.890000343322754,2.131999969482422,-3.5460000038146973
1747543280939522600,4.3395224609375,-8.876999855041504,2.0889999866485596,-3.6050000190734863
1747543280949118200,4.3491181640625,-8.869000434875488,2.0329999923706055,-3.6549999713897705
1747543280968308200,4.36830810546875,-8.866999626159668,1.9049999713897705,-3.7290000915527344
1747543280977904600,4.377904541015625,-8.869999885559082,1.8530000448226929,-3.747999906539917
1747543280987500000,4.3875,-8.87399959564209,1.8140000104904175,-3.756999969482422
1747543280997094700,4.3970947265625,-8.876999855041504,1.777999997138977,-3.7679998874664307
1747543281016286500,4.416286376953125,-8.883999824523926,1.6690000295639038,-3.799999952316284
1747543281025881900,4.4258818359375,-8.894000053405762,1.5850000381469727,-3.812000036239624
1747543281045072000,4.44507177734375,-8.930000305175781,1.3530000448226929,-3.819000005722046
1747543281054668300,4.454668212890625,-8.95199966430664,1.2089999914169312,-3.813999891281128
1747543281064263700,4.464263671875,-8.97599983215332,1.0520000457763672,-3.805000066757202
1747543281083454000,4.483453857421875,-9.020999908447266,0.7360000014305115,-3.7730000019073486
1747543281102645500,4.5026455078125,-9.057000160217285,0.4659999907016754,-3.7290000915527344
1747543281131432000,4.531431884765625,-9.102999687194824,0.25999999046325684,-3.638000011444092
1747543281179409200,4.5794091796875,-9.164999961853027,0.39100000262260437,-3.4649999141693115
1747543281198599400,4.598599365234375,-9.197999954223633,0.4490000009536743,-3.36899995803833
1747543281227385900,4.6273857421875,-9.279000282287598,0.4020000100135803,-3.1470000743865967
1747543281236981200,4.636981201171875,-9.312999725341797,0.3449999988079071,-3.052000045776367
1747543281246577400,4.646577392578125,-9.347999572753906,0.2669999897480011,-2.947999954223633
1747543281256172800,4.6561728515625,-9.38599967956543,0.1679999977350235,-2.8359999656677246
1747543281265767700,4.665767578125,-9.42300033569336,0.04500000178813934,-2.7149999141693115
1747543281275363000,4.675363037109375,-9.458000183105469,-0.10100000351667404,-2.5880000591278076
1747543281284959200,4.684959228515625,-9.489999771118164,-0.2720000147819519,-2.4560000896453857
1747543281294555000,4.694554931640625,-9.515999794006348,-0.46399998664855957,-2.321000099182129
1747543281313745000,4.713744873046875,-9.54699993133545,-0.8920000195503235,-2.052000045776367
1747543281332936700,4.732936767578125,-9.545999526977539,-1.3519999980926514,-1.7899999618530273
1747543281342531300,4.74253125,-9.531999588012695,-1.5880000591278076,-1.6649999618530273
1747543281352126700,4.752126708984375,-9.510000228881836,-1.8240000009536743,-1.5440000295639038
1747543281361723100,4.76172314453125,-9.480999946594238,-2.058000087738037,-1.4279999732971191
1747543281371318500,4.771318603515625,-9.442999839782715,-2.2920000553131104,-1.3170000314712524
1747543281380913400,4.780913330078125,-9.39900016784668,-2.5179998874664307,-1.2120000123977661
1747543281390508800,4.7905087890625,-9.35200023651123,-2.7320001125335693,-1.1150000095367432
1747543281400105000,4.80010498046875,-9.300000190734863,-2.937000036239624,-1.0230000019073486
1747543281409700400,4.809700439453125,-9.246999740600586,-3.124000072479248,-0.9399999976158142
1747543281419295200,4.819295166015625,-9.196000099182129,-3.2929999828338623,-0.8659999966621399
1747543281428890600,4.828890625,-9.147000312805176,-3.441999912261963,-0.8029999732971191
1747543281438486800,4.83848681640625,-9.102999687194824,-3.566999912261963,-0.75
1747543281448082200,4.848082275390625,-9.067000389099121,-3.6670000553131104,-0.7089999914169312
1747543281457677000,4.857677001953125,-9.038999557495117,-3.740999937057495,-0.6809999942779541
1747543281467272400,4.8672724609375,-9.020000457763672,-3.7890000343322754,-0.6639999747276306
1747543281476868600,4.87686865234375,-9.010000228881836,-3.812999963760376,-0.6600000262260437
1747543281486464000,4.886464111328125,-9.010000228881836,-3.812000036239624,-0.6660000085830688
1747543281496059000,4.896058837890625,-9.019000053405762,-3.7880001068115234,-0.6819999814033508
1747543281505654300,4.905654296875,-9.038000106811523,-3.73799991607666,-0.7039999961853027
1747543281515250700,4.915250732421875,-9.067000389099121,-3.6600000858306885,-0.7360000014305115
1747543281524846000,4.92484619140625,-9.107000350952148,-3.552000045776367,-0.7799999713897705
1747543281534440700,4.934440673828125,-9.154000282287598,-3.4140000343322754,-0.8370000123977661
1747543281544036000,4.9440361328125,-9.208000183105469,-3.249000072479248,-0.9039999842643738
1747543281553632500,4.953632568359375,-9.265000343322754,-3.056999921798706,-0.9829999804496765
1747543281563228000,4.963227783203125,-9.324000358581543,-2.8399999141693115,-1.0720000267028809
1747543281582418000,4.98241796875,-9.437999725341797,-2.3359999656677246,-1.2769999504089355
1747543281601609700,5.001609619140625,-9.524999618530273,-1.7730000019073486,-1.5149999856948853
1747543281611204400,5.011204345703125,-9.552000045776367,-1.4839999675750732,-1.6460000276565552
1747543281630396200,5.030396240234375,-9.571000099182129,-0.9509999752044678,-1.909000039100647
1747543281639991600,5.039991455078125,-9.565999984741211,-0.7099999785423279,-2.0369999408721924
1747543281649586400,5.04958642578125,-9.553000450134277,-0.4970000088214874,-2.1570000648498535
1747543281659181800,5.059181884765625,-9.53499984741211,-0.3100000023841858,-2.2660000324249268
1747543281668778000,5.068778076171875,-9.515999794006348,-0.1509999930858612,-2.364000082015991
1747543281678373400,5.078373291015625,-9.496000289916992,-0.02199999988079071,-2.446000099182129
1747543281687968300,5.08796826171875,-9.479000091552734,0.07699999958276749,-2.510999917984009
1747543281697563600,5.097563720703125,-9.465999603271484,0.15000000596046448,-2.555999994277954
1747543281707159800,5.107159912109375,-9.458000183105469,0.19699999690055847,-2.5799999237060547
1747543281716755200,5.116755126953125,-9.456999778747559,0.2240000069141388,-2.5829999446868896
1747543281726350000,5.12635009765625,-9.461999893188477,0.23199999332427979,-2.565999984741211
1747543281735945500,5.135945556640625,-9.470999717712402,0.22599999606609344,-2.5309998989105225
1747543281745541600,5.145541748046875,-9.484000205993652,0.20900000631809235,-2.4830000400543213
1747543281755137000,5.155136962890625,-9.5,0.18700000643730164,-2.4240000247955322
1747543281764732000,5.16473193359375,-9.517000198364258,0.164000004529953,-2.3580000400543213
1747543281774327300,5.174327392578125,-9.53499984741211,0.14499999582767487,-2.2869999408721924
1747543281783923500,5.18392333984375,-9.550999641418457,0.13300000131130219,-2.2170000076293945
1747543281793518800,5.193518798828125,-9.5649995803833,0.13300000131130219,-2.1549999713897705
1747543281812709000,5.212709228515625,-9.581999778747559,0.1770000010728836,-2.0759999752044678
1747543281822305500,5.222305419921875,-9.583000183105469,0.22499999403953552,-2.068000078201294
1747543281831901000,5.23190087890625,-9.57699966430664,0.29100000858306885,-2.0859999656677246
1747543281841495600,5.24149560546875,-9.564000129699707,0.37400001287460327,-2.131999969482422
1747543281851091000,5.251091064453125,-9.541999816894531,0.4740000069141388,-2.2079999446868896
1747543281860687400,5.260687255859375,-9.51099967956543,0.5870000123977661,-2.312000036239624
1747543281870282800,5.27028271484375,-9.470999717712402,0.7099999785423279,-2.440000057220459
1747543281879877400,5.27987744140625,-9.420000076293945,0.8410000205039978,-2.5920000076293945
1747543281889472800,5.28947265625,-9.357999801635742,0.9739999771118164,-2.76200008392334
1747543281899069200,5.299069091796875,-9.28600025177002,1.1069999933242798,-2.950000047683716
1747543281908664600,5.30866455078125,-9.20199966430664,1.2350000143051147,-3.1549999713897705
1747543281918259500,5.318259521484375,-9.107000350952148,1.3550000190734863,-3.374000072479248
1747543281927854600,5.3278544921875,-9.001999855041504,1.465999960899353,-3.6019999980926514
1747543281937451000,5.337450927734375,-8.888999938964844,1.565999984741211,-3.8329999446868896
1747543281956641000,5.35664111328125,-8.645999908447266,1.7130000591278076,-4.296999931335449
1747543281966236700,5.366236572265625,-8.520999908447266,1.7519999742507935,-4.525000095367432
1747543281975832800,5.375832763671875,-8.395000457763672,1.7680000066757202,-4.749000072479248
1747543281985428500,5.385428466796875,-8.272000312805176,1.7619999647140503,-4.961999893188477
1747543281995023000,5.395023193359375,-8.156000137329102,1.7359999418258667,-5.159999847412109
1747543282004618800,5.40461865234375,-8.050999641418457,1.6929999589920044,-5.336999893188477
1747543282014214700,5.414214599609375,-7.960000038146973,1.6349999904632568,-5.488999843597412
1747543282033405000,5.433405029296875,-7.835999965667725,1.4859999418258667,-5.704999923706055
1747543282043000300,5.443000244140625,-7.808000087738037,1.399999976158142,-5.763999938964844
1747543282052596500,5.452596435546875,-7.806000232696533,1.3109999895095825,-5.788000106811523
1747543282062192000,5.462192138671875,-7.828999996185303,1.2239999771118164,-5.776000022888184
1747543282071786800,5.471786865234375,-7.875999927520752,1.1410000324249268,-5.729000091552734
1747543282081382100,5.481382080078125,-7.946000099182129,1.0609999895095825,-5.646999835968018
1747543282090978300,5.490978271484375,-8.032999992370605,0.9850000143051147,-5.535999774932861
1747543282100574000,5.500573974609375,-8.130000114440918,0.9070000052452087,-5.406000137329102
1747543282110168600,5.51016845703125,-8.225000381469727,0.8309999704360962,-5.2729997634887695
1747543282119764000,5.519763916015625,-8.312999725341797,0.7580000162124634,-5.144999980926514
1747543282129360100,5.529360107421875,-8.388999938964844,0.6970000267028809,-5.03000020980835
1747543282138955800,5.538955810546875,-8.451000213623047,0.6510000228881836,-4.929999828338623
1747543282148550400,5.54855029296875,-8.50100040435791,0.6230000257492065,-4.848999977111816
1747543282158145800,5.558145751953125,-8.53499984741211,0.6100000143051147,-4.789000034332275
1747543282167742000,5.567741943359375,-8.555999755859375,0.609000027179718,-4.750999927520752
1747543282177337600,5.577337646484375,-8.565999984741211,0.6129999756813049,-4.732999801635742
1747543282186932200,5.58693212890625,-8.569000244140625,0.6190000176429749,-4.7270002365112305
1747543282196527600,5.596527587890625,-8.567999839782715,0.6259999871253967,-4.729000091552734
1747543282215719400,5.615719482421875,-8.569999694824219,0.6269999742507935,-4.724999904632568
1747543282225314300,5.625314208984375,-8.579999923706055,0.6209999918937683,-4.708000183105469
1747543282234909700,5.63490966796875,-8.598999977111816,0.6110000014305115,-4.672999858856201
1747543282244505600,5.644505615234375,-8.630000114440918,0.597000002861023,-4.617000102996826
1747543282254101200,5.654101318359375,-8.673999786376953,0.5809999704360962,-4.5370001792907715
1747543282263696000,5.66369580078125,-8.729000091552734,0.5619999766349792,-4.432000160217285
1747543282273291500,5.67329150390625,-8.795999526977539,0.5419999957084656,-4.300000190734863
1747543282282887700,5.6828876953125,-8.873000144958496,0.5189999938011169,-4.142000198364258
1747543282292483000,5.692483154296875,-8.956999778747559,0.49300000071525574,-3.9609999656677246
1747543282302078000,5.702077880859375,-9.045999526977539,0.46299999952316284,-3.756999969482422
1747543282311673300,5.71167333984375,-9.13700008392334,0.4300000071525574,-3.5329999923706055
1747543282321269500,5.72126953125,-9.230999946594238,0.39100000262260437,-3.2850000858306885
1747543282330865000,5.730864990234375,-9.322999954223633,0.34700000286102295,-3.0209999084472656
1747543282340459800,5.740459716796875,-9.40999984741211,0.29600000381469727,-2.74399995803833
1747543282350055200,5.75005517578125,-9.491999626159668,0.23600000143051147,-2.4509999752044678
1747543282359651300,5.7596513671875,-9.5649995803833,0.16699999570846558,-2.1519999504089355
1747543282369246700,5.769246826171875,-9.628999710083008,0.08900000154972076,-1.8509999513626099
1747543282378841600,5.778841552734375,-9.682000160217285,0.004000000189989805,-1.5520000457763672
1747543282388437000,5.78843701171875,-9.723999977111816,-0.08699999749660492,-1.2619999647140503
1747543282398033200,5.798033203125,-9.755000114440918,-0.18299999833106995,-0.9879999756813049
1747543282407628500,5.807628662109375,-9.774999618530273,-0.2809999883174896,-0.7329999804496765
1747543282417223400,5.817223388671875,-9.78600025177002,-0.3779999911785126,-0.503000020980835
1747543282426818800,5.82681884765625,-9.789999961853027,-0.4690000116825104,-0.30000001192092896
1747543282436415000,5.8364150390625,-9.789999961853027,-0.5509999990463257,-0.12999999523162842
1747543282446010600,5.8460107421875,-9.78600025177002,-0.621999979019165,0.004000000189989805
1747543282455605200,5.855605224609375,-9.781999588012695,-0.6779999732971191,0.10400000214576721
1747543282465200600,5.86520068359375,-9.777999877929688,-0.7200000286102295,0.1679999977350235
1747543282474797000,5.874797119140625,-9.776000022888184,-0.746999979019165,0.1979999989271164
1747543282484392400,5.884392333984375,-9.774999618530273,-0.7599999904632568,0.1979999989271164
1747543282493987000,5.893987060546875,-9.774999618530273,-0.7609999775886536,0.17100000381469727
1747543282503582500,5.90358251953125,-9.776000022888184,-0.7519999742507935,0.12300000339746475
1747543282513179000,5.913178955078125,-9.777999877929688,-0.7350000143051147,0.0560000017285347
1747543282522774300,5.922774169921875,-9.779999732971191,-0.7110000252723694,-0.02199999988079071
1747543282532369000,5.932368896484375,-9.781999588012695,-0.6830000281333923,-0.10999999940395355
1747543282541964500,5.941964599609375,-9.781999588012695,-0.6539999842643738,-0.20200000703334808
1747543282551560700,5.951560791015625,-9.781999588012695,-0.6269999742507935,-0.2930000126361847
1747543282561156000,5.961156005859375,-9.779999732971191,-0.6029999852180481,-0.38100001215934753
1747543282570751000,5.9707509765625,-9.777999877929688,-0.5849999785423279,-0.460999995470047
1747543282580346400,5.980346435546875,-9.774999618530273,-0.5770000219345093,-0.5289999842643738
1747543282589942500,5.989942626953125,-9.770999908447266,-0.5809999704360962,-0.5860000252723694
1747543282599538000,5.999537841796875,-9.767999649047852,-0.5960000157356262,-0.628000020980835
1747543282609132800,6.0091328125,-9.763999938964844,-0.6230000257492065,-0.6549999713897705
1747543282618728200,6.018728271484375,-9.76099967956543,-0.6579999923706055,-0.6669999957084656
1747543282628324600,6.02832470703125,-9.758000373840332,-0.7009999752044678,-0.6679999828338623
1747543282637920000,6.037919921875,-9.755000114440918,-0.7480000257492065,-0.6589999794960022
1747543282647514600,6.0475146484375,-9.751999855041504,-0.7990000247955322,-0.6430000066757202
1747543282657110000,6.057110107421875,-9.74899959564209,-0.8519999980926514,-0.6230000257492065
1747543282666706400,6.06670654296875,-9.746000289916992,-0.906000018119812,-0.6010000109672546
1747543282676301800,6.0763017578125,-9.741000175476074,-0.9629999995231628,-0.5789999961853027
1747543282685896400,6.085896484375,-9.737000465393066,-1.0219999551773071,-0.5550000071525574
1747543282695491800,6.095491943359375,-9.732000350952148,-1.0770000219345093,-0.527999997138977
1747543282705088000,6.105087890625,-9.729000091552734,-1.1230000257492065,-0.5040000081062317
1747543282714683600,6.11468359375,-9.725000381469727,-1.1579999923706055,-0.49000000953674316
1747543282724278300,6.1242783203125,-9.722000122070312,-1.184000015258789,-0.4880000054836273
1747543282733873700,6.133873779296875,-9.720000267028809,-1.2000000476837158,-0.4970000088214874
1747543282743470000,6.143469970703125,-9.718000411987305,-1.2050000429153442,-0.5149999856948853
1747543282753065500,6.1530654296875,-9.717000007629395,-1.1990000009536743,-0.5429999828338623
1747543282762660000,6.16266015625,-9.717000007629395,-1.1820000410079956,-0.5789999961853027
1747543282772255700,6.172255859375,-9.717000007629395,-1.1579999923706055,-0.6240000128746033
1747543282781852000,6.181851806640625,-9.717000007629395,-1.1319999694824219,-0.675000011920929
1747543282791447600,6.191447509765625,-9.715999603271484,-1.1059999465942383,-0.7289999723434448
1747543282801042000,6.2010419921875,-9.71399974822998,-1.0820000171661377,-0.7850000262260437
1747543282810637600,6.210637451171875,-9.711999893188477,-1.059999942779541,-0.8420000076293945
1747543282820233700,6.220233642578125,-9.708999633789062,-1.0390000343322754,-0.8980000019073486
1747543282829829400,6.229829345703125,-9.706000328063965,-1.0190000534057617,-0.9549999833106995
1747543282839423700,6.239423828125,-9.70300006866455,-1.0010000467300415,-1.0069999694824219
1747543282849019400,6.249019287109375,-9.699000358581543,-0.984000027179718,-1.0549999475479126
1747543282858615800,6.25861572265625,-9.696000099182129,-0.968999981880188,-1.0950000286102295
1747543282868211200,6.268211181640625,-9.694000244140625,-0.9580000042915344,-1.125
1747543282877805600,6.2778056640625,-9.692000389099121,-0.9549999833106995,-1.1419999599456787
1747543282887401200,6.287401123046875,-9.692000389099121,-0.9610000252723694,-1.1430000066757202
1747543282896997400,6.296997314453125,-9.692000389099121,-0.9779999852180481,-1.128999948501587
1747543282906593000,6.306593017578125,-9.692000389099121,-1.0080000162124634,-1.0989999771118164
1747543282916187600,6.316187744140625,-9.692000389099121,-1.0490000247955322,-1.0570000410079956
1747543282925783000,6.325782958984375,-9.692000389099121,-1.1009999513626099,-1.0069999694824219
1747543282935379500,6.33537939453125,-9.6899995803833,-1.1619999408721924,-0.9539999961853027
1747543282944974800,6.344974853515625,-9.685999870300293,-1.2319999933242798,-0.9020000100135803
1747543282954569700,6.35456982421875,-9.680999755859375,-1.305999994277954,-0.8539999723434448
1747543282964165000,6.3641650390625,-9.673999786376953,-1.3819999694824219,-0.8130000233650208
1747543282973761300,6.37376123046875,-9.666000366210938,-1.4550000429153442,-0.7799999713897705
1747543282983356700,6.383356689453125,-9.656999588012695,-1.5240000486373901,-0.7549999952316284
1747543282992951600,6.39295166015625,-9.64900016784668,-1.5850000381469727,-0.7360000014305115
1747543283002547000,6.402546875,-9.640999794006348,-1.6369999647140503,-0.7229999899864197
1747543283021738500,6.421738525390625,-9.628999710083008,-1.7100000381469727,-0.7149999737739563
1747543283031333400,6.43133349609375,-9.625,-1.7330000400543213,-0.7200000286102295
1747543283040928800,6.4409287109375,-9.621999740600586,-1.746000051498413,-0.7269999980926514
1747543283050525000,6.45052490234375,-9.619999885559082,-1.75,-0.7390000224113464
1747543283060120600,6.46012060546875,-9.619000434875488,-1.746999979019165,-0.7570000290870667
1747543283069715200,6.469715087890625,-9.619000434875488,-1.7380000352859497,-0.7799999713897705
1747543283079310600,6.479310546875,-9.619000434875488,-1.7280000448226929,-0.8050000071525574
1747543283088906800,6.48890673828125,-9.618000030517578,-1.7200000286102295,-0.828000009059906
1747543283098502400,6.49850244140625,-9.618000030517578,-1.715999960899353,-0.8460000157356262
1747543283108097000,6.508096923828125,-9.616000175476074,-1.718999981880188,-0.8550000190734863
1747543283117692400,6.5176923828125,-9.61400032043457,-1.7300000190734863,-0.8550000190734863
1747543283127288800,6.527288818359375,-9.612000465393066,-1.7489999532699585,-0.8450000286102295
1747543283136884200,6.53688427734375,-9.607999801635742,-1.7760000228881836,-0.8270000219345093
1747543283146478800,6.546478759765625,-9.604000091552734,-1.8109999895095825,-0.8009999990463257
1747543283156074500,6.556074462890625,-9.598999977111816,-1.8519999980926514,-0.7710000276565552
1747543283165670700,6.565670654296875,-9.592000007629395,-1.8990000486373901,-0.7400000095367432
1747543283175266000,6.57526611328125,-9.583999633789062,-1.9500000476837158,-0.7070000171661377
1747543283184860700,6.584860595703125,-9.576000213623047,-2.002000093460083,-0.675000011920929
1747543283194456000,6.5944560546875,-9.567000389099121,-2.055999994277954,-0.6430000066757202
1747543283204052500,6.604052490234375,-9.557000160217285,-2.1080000400543213,-0.6129999756813049
1747543283223242500,6.623242431640625,-9.539999961853027,-2.1989998817443848,-0.5569999814033508
1747543283232838100,6.632838134765625,-9.532999992370605,-2.236999988555908,-0.5299999713897705
1747543283242434300,6.642434326171875,-9.527000427246094,-2.2679998874664307,-0.503000020980835
1747543283252030000,6.652030029296875,-9.52299976348877,-2.2909998893737793,-0.4729999899864197
1747543283261624800,6.661624755859375,-9.520000457763672,-2.308000087738037,-0.4399999976158142
1747543283271220200,6.67122021484375,-9.520000457763672,-2.316999912261963,-0.39899998903274536
1747543283290411800,6.690411865234375,-9.526000022888184,-2.309000015258789,-0.28700000047683716
1747543283300006400,6.70000634765625,-9.529000282287598,-2.302000045776367,-0.2240000069141388
1747543283309602000,6.70960205078125,-9.529000282287598,-2.308000087738037,-0.15700000524520874
1747543283319198200,6.7191982421875,-9.524999618530273,-2.3289999961853027,-0.08100000023841858
1747543283328793600,6.728793701171875,-9.517000198364258,-2.361999988555908,0.00800000037997961
1747543283338388500,6.738388427734375,-9.506999969482422,-2.4010000228881836,0.10999999940395355
1747543283347984000,6.74798388671875,-9.494000434875488,-2.443000078201294,0.21799999475479126
1747543283357580000,6.757580078125,-9.477999687194824,-2.49399995803833,0.32499998807907104
1747543283367175400,6.767175537109375,-9.456999778747559,-2.558000087738037,0.4269999861717224
1747543283376770300,6.776770263671875,-9.428999900817871,-2.640000104904175,0.5249999761581421
1747543283386365700,6.78636572265625,-9.395999908447266,-2.73799991607666,0.6209999918937683
1747543283395961900,6.7959619140625,-9.357999801635742,-2.8420000076293945,0.7160000205039978
1747543283405557500,6.8055576171875,-9.319000244140625,-2.940999984741211,0.8149999976158142
1747543283415152000,6.815152099609375,-9.281000137329102,-3.0280001163482666,0.9190000295639038
1747543283424747500,6.82474755859375,-9.246000289916992,-3.0999999046325684,1.034000039100647
1747543283434344000,6.834343994140625,-9.208999633789062,-3.1619999408721924,1.1610000133514404
1747543283443939300,6.843939208984375,-9.170000076293945,-3.2200000286102295,1.3040000200271606
1747543283453534000,6.853533935546875,-9.12600040435791,-3.2769999504089355,1.4639999866485596
1747543283463129300,6.86312939453125,-9.072999954223633,-3.3369998931884766,1.6419999599456787
1747543283472725800,6.872725830078125,-9.010000228881836,-3.4079999923706055,1.8350000381469727
1747543283482321000,6.88232080078125,-8.932000160217285,-3.49399995803833,2.0399999618530273
1747543283491915800,6.891915771484375,-8.83899974822998,-3.6010000705718994,2.249000072479248
1747543283501511400,6.901511474609375,-8.729999542236328,-3.7300000190734863,2.4539999961853027
1747543283511107600,6.911107666015625,-8.602999687194824,-3.88700008392334,2.6510000228881836
1747543283520703000,6.920702880859375,-8.46500015258789,-4.065999984741211,2.822999954223633
1747543283530297600,6.930297607421875,-8.319999694824219,-4.260000228881836,2.9630000591278076
1747543283539893200,6.939893310546875,-8.173999786376953,-4.464000225067139,3.069000005722046
1747543283549489200,6.9494892578125,-8.03600025177002,-4.663000106811523,3.134999990463257
1747543283559084800,6.959084716796875,-7.914000034332275,-4.85099983215332,3.1600000858306885
1747543283568679400,6.968679443359375,-7.813000202178955,-5.021999835968018,3.1459999084472656
1747543283578275000,6.978275146484375,-7.736000061035156,-5.171000003814697,3.0929999351501465
1747543283587871200,6.987871337890625,-7.684000015258789,-5.297999858856201,3.006999969482422
1747543283597466600,6.997466552734375,-7.6529998779296875,-5.406000137329102,2.8929998874664307
1747543283607061500,7.0070615234375,-7.636000156402588,-5.498000144958496,2.759999990463257
1747543283616657000,7.016656982421875,-7.629000186920166,-5.578999996185303,2.61299991607666
1747543283626253000,7.026253173828125,-7.625999927520752,-5.6519999504089355,2.4579999446868896
1747543283635848400,7.035848388671875,-7.623000144958496,-5.7220001220703125,2.3010001182556152
1747543283645443300,7.045443359375,-7.614999771118164,-5.791999816894531,2.1480000019073486
1747543283655038700,7.055038818359375,-7.5980000495910645,-5.864999771118164,2.00600004196167
1747543283664635000,7.064634765625,-7.567999839782715,-5.943999767303467,1.88100004196167
1747543283674230300,7.074230224609375,-7.525000095367432,-6.031000137329102,1.774999976158142
1747543283683825200,7.0838251953125,-7.4679999351501465,-6.125,1.690000057220459
1747543283693420500,7.093420654296875,-7.39900016784668,-6.22599983215332,1.628000020980835
1747543283703016700,7.1030166015625,-7.317999839782715,-6.330999851226807,1.5870000123977661
1747543283712612400,7.1126123046875,-7.228000164031982,-6.439000129699707,1.562999963760376
1747543283722207000,7.12220703125,-7.13100004196167,-6.548999786376953,1.5520000457763672
1747543283731802400,7.13180224609375,-7.031000137329102,-6.6570000648498535,1.5499999523162842
1747543283741398800,7.141398681640625,-6.927999973297119,-6.763000011444092,1.5520000457763672
1747543283750994200,7.150994140625,-6.828999996185303,-6.86299991607666,1.5570000410079956
1747543283760588800,7.1605888671875,-6.732999801635742,-6.955999851226807,1.559999942779541
1747543283770184400,7.170184326171875,-6.64300012588501,-7.041999816894531,1.559999942779541
1747543283779780600,7.179780517578125,-6.558000087738037,-7.122000217437744,1.5549999475479126
1747543283789376000,7.1893759765625,-6.480999946594238,-7.195000171661377,1.5440000295639038
1747543283798970600,7.198970703125,-6.408999919891357,-7.263000011444092,1.5269999504089355
1747543283808566300,7.208566162109375,-6.3420000076293945,-7.327000141143799,1.5019999742507935
1747543283818162700,7.21816259765625,-6.2789998054504395,-7.38700008392334,1.4709999561309814
1747543283827758000,7.227758056640625,-6.2210001945495605,-7.443999767303467,1.4329999685287476
1747543283837352400,7.2373525390625,-6.168000221252441,-7.495999813079834,1.3880000114440918
1747543283846948000,7.246947998046875,-6.122000217437744,-7.543000221252441,1.3370000123977661
1747543283856544300,7.256544189453125,-6.081999778747559,-7.585000038146973,1.2799999713897705
1747543283866140000,7.266139892578125,-6.048999786376953,-7.620999813079834,1.2200000286102295
1747543283875734500,7.275734619140625,-6.02400016784668,-7.651000022888184,1.1579999923706055
1747543283885330000,7.285329833984375,-6.004000186920166,-7.673999786376953,1.100000023841858
1747543283894926300,7.29492626953125,-5.989999771118164,-7.692999839782715,1.0470000505447388
1747543283904521700,7.304521728515625,-5.979000091552734,-7.706999778747559,1.003000020980835
1747543283914116400,7.314116455078125,-5.9720001220703125,-7.7170000076293945,0.9679999947547913
1747543283923712000,7.3237119140625,-5.968999862670898,-7.7230000495910645,0.9449999928474426
1747543283933308200,7.33330810546875,-5.9679999351501465,-7.723999977111816,0.9359999895095825
1747543283952498400,7.35249853515625,-5.982999801635742,-7.709000110626221,0.968999981880188
1747543283962093800,7.36209375,-6.004000186920166,-7.686999797821045,1.0119999647140503
1747543283971690000,7.37168994140625,-6.039000034332275,-7.651000022888184,1.0709999799728394
1747543283981285400,7.381285400390625,-6.090000152587891,-7.598999977111816,1.149999976158142
1747543283990880300,7.39088037109375,-6.156000137329102,-7.531000137329102,1.2450000047683716
1747543284000475600,7.4004755859375,-6.235000133514404,-7.446000099182129,1.3580000400543213
1747543284010072000,7.410072021484375,-6.323999881744385,-7.343999862670898,1.4900000095367432
1747543284019667500,7.41966748046875,-6.414999961853027,-7.232999801635742,1.6390000581741333
1747543284029262000,7.429261962890625,-6.500999927520752,-7.116000175476074,1.8020000457763672
1747543284038857700,7.438857666015625,-6.576000213623047,-6.999000072479248,1.9809999465942383
1747543284048454000,7.448453857421875,-6.632999897003174,-6.888000011444092,2.1710000038146973
1747543284058049300,7.45804931640625,-6.669000148773193,-6.785999774932861,2.371999979019165
1747543284067644000,7.467643798828125,-6.679999828338623,-6.698999881744385,2.5789999961853027
1747543284077239600,7.477239501953125,-6.663000106811523,-6.63100004196167,2.7890000343322754
1747543284086836000,7.4868359375,-6.619999885559082,-6.584000110626221,2.996000051498413
1747543284096431400,7.496431396484375,-6.550000190734863,-6.559000015258789,3.197999954223633
1747543284106026000,7.50602587890625,-6.455999851226807,-6.553999900817871,3.3919999599456787
1747543284115621600,7.51562158203125,-6.343999862670898,-6.565999984741211,3.578000068664551
1747543284125217800,7.5252177734375,-6.216000080108643,-6.589000225067139,3.753999948501587
1747543284134813200,7.534813232421875,-6.080999851226807,-6.61899995803833,3.9200000762939453
1747543284144408000,7.544407958984375,-5.942999839782715,-6.650000095367432,4.076000213623047
1747543284154003500,7.55400341796875,-5.809000015258789,-6.677999973297119,4.2210001945495605
1747543284163599600,7.563599609375,-5.684999942779541,-6.697999954223633,4.355000019073486
1747543284173195000,7.573195068359375,-5.578000068664551,-6.706999778747559,4.478000164031982
1747543284182790000,7.582789794921875,-5.49399995803833,-6.703000068664551,4.585999965667725
1747543284192385300,7.59238525390625,-5.436999797821045,-6.684999942779541,4.678999900817871
1747543284201981400,7.6019814453125,-5.409999847412109,-6.65500020980835,4.754000186920166
1747543284211576800,7.611576904296875,-5.4120001792907715,-6.61299991607666,4.809000015258789
1747543284221171700,7.621171630859375,-5.440000057220459,-6.564000129699707,4.84499979019165
1747543284230767400,7.630767333984375,-5.492000102996826,-6.508999824523926,4.861000061035156
1747543284240363500,7.640363525390625,-5.563000202178955,-6.449999809265137,4.859000205993652
1747543284249959000,7.649958984375,-5.64900016784668,-6.38700008392334,4.8420000076293945
1747543284259553800,7.6595537109375,-5.74399995803833,-6.322999954223633,4.814000129699707
1747543284269149200,7.669149169921875,-5.843999862670898,-6.258999824523926,4.7789998054504395
1747543284278745600,7.67874560546875,-5.943999767303467,-6.193999767303467,4.738999843597412
1747543284288341000,7.688341064453125,-6.040999889373779,-6.13100004196167,4.698999881744385
1747543284297935600,7.697935546875,-6.130000114440918,-6.070000171661377,4.6620001792907715
1747543284307531000,7.707531005859375,-6.209000110626221,-6.013000011444092,4.63100004196167
1747543284317127400,7.71712744140625,-6.275000095367432,-5.9629998207092285,4.605999946594238
1747543284326722800,7.726722900390625,-6.328999996185303,-5.919000148773193,4.589000225067139
1747543284336317400,7.7363173828125,-6.370999813079834,-5.881999969482422,4.578999996185303
1747543284345912800,7.745912841796875,-6.39900016784668,-5.853000164031982,4.577000141143799
1747543284355509200,7.75550927734375,-6.415999889373779,-5.830999851226807,4.581999778747559
1747543284365104600,7.765104736328125,-6.421000003814697,-5.815999984741211,4.5929999351501465
1747543284374699300,7.77469921875,-6.416999816894531,-5.808000087738037,4.609000205993652
1747543284384294700,7.784294677734375,-6.40500020980835,-5.806000232696533,4.627999782562256
1747543284393891000,7.79389111328125,-6.386000156402588,-5.811999797821045,4.646999835968018
1747543284403486500,7.803486572265625,-6.363999843597412,-5.821000099182129,4.664999961853027
1747543284413081000,7.8130810546875,-6.341000080108643,-5.833000183105469,4.682000160217285
1747543284422676700,7.8226767578125,-6.318999767303467,-5.84499979019165,4.696000099182129
1747543284432273200,7.832273193359375,-6.300000190734863,-5.857999801635742,4.706999778747559
1747543284441868500,7.84186865234375,-6.2829999923706055,-5.869999885559082,4.7129998207092285
1747543284451463200,7.851463134765625,-6.269000053405762,-5.883999824523926,4.715000152587891
1747543284461058600,7.86105859375,-6.255000114440918,-5.901000022888184,4.711999893188477
1747543284470655000,7.870655029296875,-6.242000102996826,-5.920000076293945,4.705999851226807
1747543284480250400,7.88025048828125,-6.22599983215332,-5.942999839782715,4.697999954223633
1747543284489845000,7.889844970703125,-6.208000183105469,-5.968999862670898,4.689000129699707
1747543284499440600,7.899440673828125,-6.185999870300293,-5.999000072479248,4.678999900817871
1747543284509036800,7.909036865234375,-6.159999847412109,-6.0329999923706055,4.669000148773193
1747543284518632200,7.918632080078125,-6.130000114440918,-6.072000026702881,4.658999919891357
1747543284528226800,7.928226806640625,-6.0970001220703125,-6.113999843597412,4.6479997634887695
1747543284537822500,7.937822509765625,-6.060999870300293,-6.159999847412109,4.633999824523926
1747543284547418600,7.947418701171875,-6.02400016784668,-6.208000183105469,4.618000030517578
1747543284557014000,7.957013916015625,-5.985000133514404,-6.257999897003174,4.60099983215332
1747543284566609000,7.96660888671875,-5.946000099182129,-6.309999942779541,4.579999923706055
1747543284576204300,7.976204345703125,-5.9079999923706055,-6.361999988555908,4.557000160217285
1747543284585800400,7.985800537109375,-5.872000217437744,-6.414999961853027,4.53000020980835
1747543284595396000,7.99539599609375,-5.836999893188477,-6.4679999351501465,4.5
1747543284604990700,8.00499072265625,-5.806000232696533,-6.519000053405762,4.466000080108643
1747543284614586400,8.01458642578125,-5.7779998779296875,-6.570000171661377,4.427999973297119
1747543284624182300,8.024182373046875,-5.755000114440918,-6.618000030517578,4.385000228881836
1747543284633778000,8.03377783203125,-5.736999988555908,-6.664999961853027,4.339000225067139
1747543284643372800,8.043372802734375,-5.7220001220703125,-6.709000110626221,4.289000034332275
1747543284652968200,8.05296826171875,-5.710999965667725,-6.751999855041504,4.236999988555908
1747543284662564400,8.062564453125,-5.701000213623047,-6.794000148773193,4.183000087738037
1747543284672160000,8.072159912109376,-5.691999912261963,-6.835999965667725,4.126999855041504
1747543284681754600,8.081754638671875,-5.682000160217285,-6.877999782562256,4.070000171661377
1747543284691350000,8.09135009765625,-5.670000076293945,-6.921000003814697,4.013000011444092
1747543284700946400,8.100946533203125,-5.656000137329102,-6.965000152587891,3.9570000171661377
1747543284710542000,8.1105419921875,-5.638999938964844,-7.010000228881836,3.9010000228881836
1747543284720136400,8.120136474609374,-5.619999885559082,-7.053999900817871,3.8489999771118164
1747543284729731800,8.12973193359375,-5.60099983215332,-7.0960001945495605,3.7980000972747803
1747543284739328300,8.139328369140625,-5.581999778747559,-7.136000156402588,3.750999927520752
1747543284748924000,8.148923828125,-5.563000202178955,-7.172999858856201,3.7079999446868896
1747543284758518300,8.158518310546874,-5.546000003814697,-7.208000183105469,3.6659998893737793
1747543284768114000,8.168114013671875,-5.5289998054504395,-7.242000102996826,3.625
1747543284777710000,8.1777099609375,-5.513000011444092,-7.2729997634887695,3.5859999656677246
1747543284787305700,8.1873056640625,-5.499000072479248,-7.302999973297119,3.5480000972747803
1747543284796900400,8.196900390625,-5.485000133514404,-7.330999851226807,3.509999990463257
1747543284806496000,8.20649609375,-5.4730000495910645,-7.357999801635742,3.4719998836517334
1747543284816092200,8.216092041015624,-5.182000160217285,-7.940999984741211,2.497999906539917
1747543284825687600,8.2256875,0.5260000228881836,-7.104000091552734,-6.738999843597412
1747543284835282400,8.235282470703124,0.6010000109672546,-7.004000186920166,-6.836999893188477
1747543284844877800,8.2448779296875,0.6019999980926514,-6.96999979019165,-6.870999813079834
1747543284854474000,8.254473876953124,0.6039999723434448,-6.941999912261963,-6.89900016784668
1747543284864069400,8.2640693359375,0.6079999804496765,-6.922999858856201,-6.918000221252441
1747543284873664300,8.273664306640624,0.6150000095367432,-6.913000106811523,-6.927000045776367
1747543284883260000,8.283260009765625,0.621999979019165,-6.910999774932861,-6.928999900817871
1747543284912046000,8.312046142578126,0.6330000162124634,-6.928999900817871,-6.909999847412109
1747543284921641700,8.321641845703125,0.6320000290870667,-6.934999942779541,-6.9029998779296875
1747543284931238000,8.33123779296875,0.6290000081062317,-6.940000057220459,-6.900000095367432
1747543284940833300,8.340833251953125,0.6259999871253967,-6.940000057220459,-6.89900016784668
1747543284950338300,8.35033837890625,0.6259999871253967,-6.936999797821045,-6.9019999504089355
1747543284960023600,8.3600234375,0.6290000081062317,-6.932000160217285,-6.9079999923706055
1747543284969620000,8.369619873046876,0.6370000243186951,-6.926000118255615,-6.9120001792907715
1747543284979215400,8.37921533203125,0.6520000100135803,-6.922999858856201,-6.914000034332275
1747543284988810000,8.38881005859375,0.671999990940094,-6.923999786376953,-6.910999774932861
1747543284998405400,8.3984052734375,0.6990000009536743,-6.929999828338623,-6.9019999504089355
1747543285008001800,8.408001708984376,0.7329999804496765,-6.939000129699707,-6.889999866485596
1747543285017507600,8.417507568359374,0.7710000276565552,-6.949999809265137,-6.875
1747543285027191800,8.42719189453125,0.8140000104904175,-6.960999965667725,-6.859000205993652
1747543285036787200,8.436787109375,0.8569999933242798,-6.96999979019165,-6.843999862670898
1747543285046383600,8.446383544921876,0.8989999890327454,-6.9770002365112305,-6.830999851226807
1747543285055979300,8.455979248046875,0.9390000104904175,-6.982999801635742,-6.820000171661377
1747543285065574000,8.465573974609375,0.9739999771118164,-6.986999988555908,-6.810999870300293
1747543285075169300,8.475169189453124,1.003999948501587,-6.988999843597412,-6.803999900817871
1747543285084765700,8.484765625,1.027999997138977,-6.992000102996826,-6.797999858856201
1747543285094361000,8.494361083984375,1.0449999570846558,-6.994999885559082,-6.791999816894531
1747543285103955700,8.503955810546875,1.055999994277954,-7.002999782562256,-6.7829999923706055
1747543285113551000,8.513551025390624,1.059000015258789,-7.015999794006348,-6.769000053405762
1747543285123147500,8.5231474609375,1.0549999475479126,-7.0370001792907715,-6.748000144958496
1747543285132743000,8.532742919921875,1.0420000553131104,-7.066999912261963,-6.7179999351501465
1747543285142337800,8.542337890625,1.0240000486373901,-7.105999946594238,-6.678999900817871
1747543285151933200,8.55193310546875,1.0019999742507935,-7.15500020980835,-6.63100004196167
1747543285161529300,8.561529296875,0.9779999852180481,-7.210999965667725,-6.572000026702881
1747543285171041300,8.571041259765625,0.9520000219345093,-7.276000022888184,-6.505000114440918
1747543285180719600,8.5807197265625,0.9259999990463257,-7.3460001945495605,-6.428999900817871
1747543285190315000,8.59031494140625,0.9010000228881836,-7.418000221252441,-6.349999904632568
1747543285199911400,8.599911376953125,0.8759999871253967,-7.492000102996826,-6.264999866485596
1747543285209506800,8.6095068359375,0.8529999852180481,-7.565999984741211,-6.179999828338623
1747543285219101700,8.619101806640625,0.8320000171661377,-7.63700008392334,-6.093999862670898
1747543285228697000,8.628697021484374,0.8140000104904175,-7.704999923706055,-6.010000228881836
1747543285238293200,8.638293212890625,0.800000011920929,-7.769000053405762,-5.928999900817871
1747543285247888600,8.647888671875,0.7900000214576721,-7.828000068664551,-5.853000164031982
1747543285257483500,8.6574833984375,0.7839999794960022,-7.88100004196167,-5.7829999923706055
1747543285267079000,8.667078857421876,0.7820000052452087,-7.927000045776367,-5.71999979019165
1747543285276675300,8.67667529296875,0.7860000133514404,-7.966000080108643,-5.664999961853027
1747543285286270700,8.686270751953124,0.7950000166893005,-7.998000144958496,-5.618000030517578
1747543285295865300,8.695865234375,0.8100000023841858,-8.02299976348877,-5.579999923706055
1747543285305461000,8.7054609375,0.8299999833106995,-8.041999816894531,-5.548999786376953
1747543285315057400,8.715057373046875,0.8539999723434448,-8.057000160217285,-5.52400016784668
1747543285324652800,8.72465283203125,0.8799999952316284,-8.067000389099121,-5.504000186920166
1747543285334247400,8.734247314453125,0.906000018119812,-8.076000213623047,-5.48799991607666
1747543285343843000,8.743843017578126,0.9300000071525574,-8.081999778747559,-5.473999977111816
1747543285353439200,8.753439208984375,0.9520000219345093,-8.088000297546387,-5.461999893188477
1747543285363035000,8.763034912109376,0.9710000157356262,-8.093999862670898,-5.449999809265137
1747543285372629500,8.77262939453125,0.9850000143051147,-8.098999977111816,-5.440000057220459
1747543285382225000,8.782224853515626,0.9940000176429749,-8.104000091552734,-5.431000232696533
1747543285391821300,8.7918212890625,0.9980000257492065,-8.109999656677246,-5.421000003814697
1747543285401417000,8.8014169921875,0.996999979019165,-8.116000175476074,-5.4120001792907715
1747543285411011300,8.81101123046875,0.9909999966621399,-8.123000144958496,-5.4029998779296875
1747543285420606700,8.820606689453125,0.9789999723434448,-8.130999565124512,-5.39300012588501
1747543285430203100,8.830203125,0.9629999995231628,-8.140000343322754,-5.382999897003174
1747543285439798800,8.839798828125,0.9419999718666077,-8.149999618530273,-5.370999813079834
1747543285449393200,8.84939306640625,0.9179999828338623,-8.161999702453613,-5.35699987411499
1747543285458988800,8.85898876953125,0.8920000195503235,-8.175999641418457,-5.339000225067139
1747543285468585200,8.868585205078125,0.8659999966621399,-8.192000389099121,-5.318999767303467
1747543285478180600,8.8781806640625,0.8399999737739563,-8.208999633789062,-5.296999931335449
1747543285487775500,8.887775390625,0.8149999976158142,-8.22599983215332,-5.275000095367432
1747543285497371000,8.897370849609375,0.7919999957084656,-8.241999626159668,-5.254000186920166
1747543285506967000,8.906967041015625,0.7720000147819519,-8.255000114440918,-5.236000061035156
1747543285516562700,8.916562744140625,0.7549999952316284,-8.265000343322754,-5.2220001220703125
1747543285526157300,8.9261572265625,0.7419999837875366,-8.270999908447266,-5.215000152587891
1747543285535753000,8.9357529296875,0.7329999804496765,-8.272000312805176,-5.214000225067139
1747543285545349000,8.94534912109375,0.7269999980926514,-8.269000053405762,-5.2210001945495605
1747543285554944800,8.95494482421875,0.7250000238418579,-8.26099967956543,-5.232999801635742
1747543285564539100,8.9645390625,0.7229999899864197,-8.25,-5.250999927520752
1747543285574134800,8.974134765625,0.7200000286102295,-8.237000465393066,-5.271999835968018
1747543285583731200,8.983731201171874,0.7170000076293945,-8.222000122070312,-5.295000076293945
1747543285593326600,8.99332666015625,0.7139999866485596,-8.206999778747559,-5.318999767303467
1747543285602921200,9.002921142578124,0.7129999995231628,-8.192000389099121,-5.3429999351501465
1747543285612516900,9.012516845703125,0.7149999737739563,-8.175999641418457,-5.366000175476074
1747543285622113000,9.022113037109374,0.7200000286102295,-8.161999702453613,-5.388000011444092
1747543285631708400,9.03170849609375,0.7289999723434448,-8.14799976348877,-5.4079999923706055
1747543285641303000,9.041302978515626,0.7419999837875366,-8.133999824523926,-5.426000118255615
1747543285650898700,9.050898681640625,0.7559999823570251,-8.121000289916992,-5.442999839782715
1747543285660494800,9.060494873046874,0.7710000276565552,-8.109999656677246,-5.458000183105469
1747543285670090500,9.070090576171875,0.7879999876022339,-8.100000381469727,-5.46999979019165
1747543285679685000,9.07968505859375,0.8050000071525574,-8.093000411987305,-5.478000164031982
1747543285689280800,9.08928076171875,0.8240000009536743,-8.086999893188477,-5.484000205993652
1747543285698877000,9.098876953125,0.843999981880188,-8.083999633789062,-5.486000061035156
1747543285708472600,9.10847265625,0.8629999756813049,-8.081000328063965,-5.486999988555908
1747543285718067200,9.118067138671876,0.8790000081062317,-8.07800006866455,-5.48799991607666
1747543285727662600,9.12766259765625,0.8930000066757202,-8.074999809265137,-5.492000102996826
1747543285737259000,9.137259033203126,0.902999997138977,-8.069000244140625,-5.498000144958496
1747543285746854400,9.1468544921875,0.9070000052452087,-8.062999725341797,-5.506999969482422
1747543285756449000,9.156448974609376,0.9039999842643738,-8.055000305175781,-5.51800012588501
1747543285766044400,9.16604443359375,0.8939999938011169,-8.048999786376953,-5.53000020980835
1747543285775640800,9.175640869140626,0.878000020980835,-8.043999671936035,-5.538000106811523
1747543285785236200,9.185236328125,0.8600000143051147,-8.045999526977539,-5.539000034332275
1747543285794831000,9.1948310546875,0.8410000205039978,-8.055999755859375,-5.5269999504089355
1747543285804426500,9.204426513671875,0.8240000009536743,-8.07699966430664,-5.499000072479248
1747543285814022700,9.214022705078126,0.8090000152587891,-8.105999946594238,-5.458000183105469
1747543285823618300,9.223618408203125,0.7879999876022339,-8.13599967956543,-5.415999889373779
1747543285833213000,9.233212890625,0.7540000081062317,-8.161999702453613,-5.382999897003174
1747543285842808300,9.242808349609374,0.7080000042915344,-8.180999755859375,-5.360000133514404
1747543285852404700,9.25240478515625,0.6579999923706055,-8.197999954223633,-5.340000152587891
1747543285862000000,9.262000244140625,0.6159999966621399,-8.220000267028809,-5.311999797821045
1747543285871594800,9.2715947265625,0.5879999995231628,-8.246999740600586,-5.271999835968018
1747543285881190400,9.2811904296875,0.5730000138282776,-8.281000137329102,-5.21999979019165
1747543285890786600,9.29078662109375,0.5730000138282776,-8.317000389099121,-5.164000034332275
1747543285900382200,9.30038232421875,0.5870000123977661,-8.35099983215332,-5.105999946594238
1747543285909977000,9.30997705078125,0.6150000095367432,-8.380999565124512,-5.052999973297119
1747543285919572500,9.319572509765624,0.6520000100135803,-8.402999877929688,-5.013000011444092
1747543285929168600,9.329168701171875,0.6940000057220459,-8.413000106811523,-4.989999771118164
1747543285948359000,9.34835888671875,0.7889999747276306,-8.390999794006348,-5.013000011444092
1747543285957954300,9.357954345703124,0.8389999866485596,-8.359000205993652,-5.057000160217285
1747543285967550700,9.36755078125,0.8889999985694885,-8.319000244140625,-5.113999843597412
1747543285977146000,9.37714599609375,0.9390000104904175,-8.274999618530273,-5.176000118255615
1747543285986740700,9.38674072265625,0.9850000143051147,-8.230999946594238,-5.23799991607666
1747543285996336400,9.39633642578125,1.0240000486373901,-8.1899995803833,-5.294000148773193
1747543286005932500,9.4059326171875,1.0520000457763672,-8.154999732971191,-5.3420000076293945
1747543286015528200,9.415528076171874,1.065000057220459,-8.126999855041504,-5.382999897003174
1747543286025122800,9.425122802734375,1.065999984741211,-8.104000091552734,-5.416999816894531
1747543286034718500,9.434718505859376,1.059000015258789,-8.083999633789062,-5.447999954223633
1747543286044314600,9.444314697265625,1.0470000505447388,-8.067000389099121,-5.47599983215332
1747543286053910000,9.453909912109374,1.031999945640564,-8.050000190734863,-5.502999782562256
1747543286063504600,9.463504638671875,1.0140000581741333,-8.034000396728516,-5.53000020980835
1747543286073100300,9.473100341796876,0.9959999918937683,-8.017999649047852,-5.557000160217285
1747543286082696400,9.482696533203125,0.9760000109672546,-8.003000259399414,-5.581999778747559
1747543286092291800,9.492291748046876,0.9570000171661377,-7.989999771118164,-5.604000091552734
1747543286101886700,9.50188671875,0.9390000104904175,-7.980000019073486,-5.620999813079834
1747543286111482400,9.511482421875,0.921999990940094,-7.974999904632568,-5.63100004196167
1747543286121078500,9.52107861328125,0.9049999713897705,-7.973999977111816,-5.635000228881836
1747543286130674000,9.530673828125,0.8880000114440918,-7.978000164031982,-5.63100004196167
1747543286140268800,9.540268798828125,0.8709999918937683,-7.986000061035156,-5.623000144958496
1747543286149864200,9.5498642578125,0.8519999980926514,-7.997000217437744,-5.611000061035156
1747543286159460600,9.559460693359375,0.8330000042915344,-8.008000373840332,-5.5980000495910645
1747543286169056000,9.569055908203126,0.8130000233650208,-8.019000053405762,-5.585000038146973
1747543286178650600,9.578650634765625,0.7919999957084656,-8.029000282287598,-5.573999881744385
1747543286188246000,9.58824609375,0.7710000276565552,-8.038000106811523,-5.564000129699707
1747543286197842400,9.597842529296875,0.75,-8.045000076293945,-5.556000232696533
1747543286207438000,9.60743798828125,0.7310000061988831,-8.052000045776367,-5.548999786376953
1747543286217032400,9.617032470703125,0.7129999995231628,-8.057000160217285,-5.543000221252441
1747543286226628000,9.626628173828125,0.6980000138282776,-8.062999725341797,-5.5370001792907715
1747543286236224500,9.636224609375,0.6859999895095825,-8.067999839782715,-5.531000137329102
1747543286245820000,9.64581982421875,0.6769999861717224,-8.074000358581543,-5.5229997634887695
1747543286255414500,9.65541455078125,0.6710000038146973,-8.079999923706055,-5.514999866485596
1747543286265010200,9.66501025390625,0.6669999957084656,-8.086999893188477,-5.50600004196167
1747543286274606300,9.6746064453125,0.6660000085830688,-8.093000411987305,-5.498000144958496
1747543286284201700,9.68420166015625,0.6679999828338623,-8.097999572753906,-5.489999771118164
1747543286293796600,9.693796630859374,0.6729999780654907,-8.10099983215332,-5.484000205993652
1747543286303392300,9.703392333984375,0.6800000071525574,-8.102999687194824,-5.480000019073486
1747543286312988400,9.712988525390625,0.6890000104904175,-8.102999687194824,-5.479000091552734
1747543286322583800,9.722583740234375,0.6970000267028809,-8.10099983215332,-5.480999946594238
1747543286332178700,9.7321787109375,0.7059999704360962,-8.095999717712402,-5.486999988555908
1747543286341774000,9.741774169921875,0.7129999995231628,-8.08899974822998,-5.495999813079834
1747543286351370200,9.751370361328124,0.7160000205039978,-8.079999923706055,-5.508999824523926
1747543286360965600,9.760965576171875,0.7139999866485596,-8.069999694824219,-5.525000095367432
1747543286370560500,9.770560546875,0.7089999914169312,-8.057000160217285,-5.544000148773193
1747543286380156000,9.780156005859375,0.6990000009536743,-8.043000221252441,-5.565000057220459
1747543286389752300,9.78975244140625,0.6880000233650208,-8.027000427246094,-5.589000225067139
1747543286399347500,9.799347412109375,0.6769999861717224,-8.010000228881836,-5.616000175476074
1747543286408942300,9.8089423828125,0.6660000085830688,-7.988999843597412,-5.646999835968018
1747543286418538000,9.8185380859375,0.656000018119812,-7.965000152587891,-5.682000160217285
1747543286428134100,9.828134033203124,0.6499999761581421,-7.936999797821045,-5.7210001945495605
1747543286437729500,9.8377294921875,0.6460000276565552,-7.9070000648498535,-5.763000011444092
1747543286447324400,9.847324462890626,0.6430000066757202,-7.875999927520752,-5.806000232696533
1747543286456919800,9.856919921875,0.6399999856948853,-7.8460001945495605,-5.8470001220703125
1747543286466516000,9.866515869140626,0.6340000033378601,-7.818999767303467,-5.883999824523926
1747543286476111600,9.876111572265625,0.6259999871253967,-7.795000076293945,-5.915999889373779
1747543286485706200,9.885706298828126,0.6159999966621399,-7.776000022888184,-5.941999912261963
1747543286495302000,9.895302001953125,0.6029999852180481,-7.761000156402588,-5.9629998207092285
1747543286504897800,9.904897705078126,0.5889999866485596,-7.75,-5.979000091552734
1747543286514493400,9.914493408203125,0.574999988079071,-7.741000175476074,-5.991000175476074
1747543286524088300,9.92408837890625,0.5630000233650208,-7.735000133514404,-6.000999927520752
1747543286533683700,9.93368359375,0.5550000071525574,-7.729000091552734,-6.008999824523926
1747543286543279900,9.94327978515625,0.550000011920929,-7.723999977111816,-6.015999794006348
1747543286552875500,9.95287548828125,0.5490000247955322,-7.71999979019165,-6.021999835968018
1747543286562470100,9.96247021484375,0.550000011920929,-7.715000152587891,-6.0279998779296875
1747543286572065800,9.972065673828125,0.5519999861717224,-7.710999965667725,-6.0329999923706055
1747543286581662000,9.981661865234376,0.5550000071525574,-7.708000183105469,-6.0370001792907715
1747543286591257300,9.99125732421875,0.5590000152587891,-7.704999923706055,-6.039000034332275
1747543286600852000,10.00085205078125,0.5649999976158142,-7.704999923706055,-6.039000034332275
1747543286610447600,10.010447509765624,0.5740000009536743,-7.706999778747559,-6.035999774932861
1747543286620044000,10.0200439453125,0.5879999995231628,-7.710999965667725,-6.0289998054504395
1747543286629639400,10.029639404296875,0.6069999933242798,-7.716000080108643,-6.020999908447266
1747543286639234000,10.039234130859375,0.6309999823570251,-7.7220001220703125,-6.011000156402588
1747543286648829700,10.04882958984375,0.6600000262260437,-7.728000164031982,-5.999000072479248
1747543286658425900,10.05842578125,0.6930000185966492,-7.735000133514404,-5.986999988555908
1747543286668021200,10.068021240234375,0.7279999852180481,-7.742000102996826,-5.973999977111816
1747543286677616000,10.0776162109375,0.7620000243186951,-7.590000152587891,-6.1620001792907715
1747543286687211800,10.087211669921874,0.7979999780654907,-7.579999923706055,-6.169000148773193
1747543286696807700,10.0968076171875,0.8349999785423279,-7.5879998207092285,-6.15500020980835
1747543286706403300,10.1064033203125,0.871999979019165,-7.59499979019165,-6.139999866485596
1747543286715998200,10.115998291015625,0.9049999713897705,-7.603000164031982,-6.126999855041504
1747543286725593600,10.125593505859374,0.9369999766349792,-7.609000205993652,-6.11299991607666
1747543286735189800,10.135189697265625,0.9649999737739563,-7.616000175476074,-6.099999904632568
1747543286744785400,10.144785400390624,0.9900000095367432,-7.623000144958496,-6.0879998207092285
1747543286754380000,10.154380126953125,1.0119999647140503,-7.630000114440918,-6.076000213623047
1747543286763975400,10.163975341796874,1.031999945640564,-7.636000156402588,-6.065000057220459
1747543286773571800,10.17357177734375,1.0490000247955322,-7.640999794006348,-6.056000232696533
1747543286783167500,10.18316748046875,1.065000057220459,-7.64300012588501,-6.051000118255615
1747543286792762000,10.19276220703125,1.0789999961853027,-7.642000198364258,-6.048999786376953
1747543286802357500,10.202357421875,1.093000054359436,-7.636000156402588,-6.053999900817871
1747543286811954000,10.211953857421875,1.1069999933242798,-7.625999927520752,-6.064000129699707
1747543286821549300,10.22154931640625,1.121000051498413,-7.611999988555908,-6.078999996185303
1747543286831144000,10.23114404296875,1.1339999437332153,-7.593999862670898,-6.098999977111816
1747543286840739600,10.240739501953126,1.1480000019073486,-7.572999954223633,-6.122000217437744
1747543286850335700,10.250335693359375,1.1610000133514404,-7.552000045776367,-6.146999835968018
1747543286859931100,10.25993115234375,1.1749999523162842,-7.5279998779296875,-6.172999858856201
1747543286869526000,10.269526123046875,1.1890000104904175,-7.504000186920166,-6.198999881744385
1747543286879121700,10.27912158203125,1.2020000219345093,-7.480999946594238,-6.223999977111816
1747543286888717800,10.2887177734375,1.2139999866485596,-7.459000110626221,-6.249000072479248
1747543286898313200,10.298313232421876,1.2259999513626099,-7.436999797821045,-6.271999835968018
1747543286907908000,10.307908203125,1.2369999885559082,-7.415999889373779,-6.295000076293945
1747543286917503500,10.31750341796875,1.2480000257492065,-7.396999835968018,-6.315999984741211
1747543286927099600,10.327099609375,1.2599999904632568,-7.376999855041504,-6.335999965667725
1747543286936695300,10.3366953125,1.2740000486373901,-7.357999801635742,-6.355999946594238
1747543286955885300,10.35588525390625,1.3029999732971191,-7.321000099182129,-6.392000198364258
1747543286965482000,10.36548193359375,1.319000005722046,-7.302999973297119,-6.408999919891357
1747543286975077000,10.3750771484375,1.3359999656677246,-7.285999774932861,-6.425000190734863
1747543286984671700,10.384671630859375,1.3519999980926514,-7.270999908447266,-6.439000129699707
1747543286994267400,10.394267333984375,1.3669999837875366,-7.256999969482422,-6.451000213623047
1747543287003863800,10.40386376953125,1.378999948501587,-7.244999885559082,-6.461999893188477
1747543287013459200,10.413459228515626,1.3860000371932983,-7.235000133514404,-6.4730000495910645
1747543287023053800,10.4230537109375,1.3890000581741333,-7.224999904632568,-6.48199987411499
1747543287032649200,10.432649169921875,1.3869999647140503,-7.2179999351501465,-6.491000175476074
1747543287042245600,10.44224560546875,1.3830000162124634,-7.211999893188477,-6.498000144958496
1747543287051841000,10.451841064453125,1.375,-7.211999893188477,-6.500999927520752
1747543287061436000,10.461435791015624,1.3669999837875366,-7.2170000076293945,-6.497000217437744
1747543287071031300,10.47103125,1.3569999933242798,-7.230000019073486,-6.484000205993652
1747543287080627700,10.480627685546875,1.3489999771118164,-7.251999855041504,-6.460999965667725
1747543287090223000,10.49022314453125,1.340999960899353,-7.284999847412109,-6.425000190734863
1747543287099817700,10.499817626953124,1.3359999656677246,-7.328999996185303,-6.375999927520752
1747543287109413400,10.509413330078125,1.3320000171661377,-7.382999897003174,-6.315000057220459
1747543287119009500,10.519009521484374,1.3229999542236328,-7.441999912261963,-6.247000217437744
1747543287128605000,10.52860498046875,1.3020000457763672,-7.501999855041504,-6.178999900817871
1747543287138199800,10.53819970703125,1.2719999551773071,-7.560999870300293,-6.11299991607666
1747543287147795500,10.54779541015625,1.2380000352859497,-7.616000175476074,-6.051000118255615
1747543287157391600,10.5573916015625,1.2089999914169312,-7.666999816894531,-5.992000102996826
1747543287166987000,10.566987060546875,1.1920000314712524,-7.715000152587891,-5.934000015258789
1747543287176582000,10.576581787109374,1.184999942779541,-7.760000228881836,-5.876999855041504
1747543287186177300,10.58617724609375,1.180999994277954,-7.798999786376953,-5.824999809265137
1747543287195773400,10.5957734375,1.1729999780654907,-7.833000183105469,-5.7820000648498535
1747543287205369000,10.605369140625,1.1610000133514404,-7.860000133514404,-5.748000144958496
1747543287214963700,10.614963623046876,1.1440000534057617,-7.879000186920166,-5.724999904632568
1747543287224559000,10.62455908203125,1.125,-7.888000011444092,-5.716000080108643
1747543287234155500,10.634155517578124,1.1050000190734863,-7.886000156402588,-5.7220001220703125
1747543287243751000,10.6437509765625,1.0889999866485596,-7.873000144958496,-5.743000030517578
1747543287253345800,10.653345703125,1.0779999494552612,-7.8470001220703125,-5.781000137329102
1747543287262941200,10.662941162109375,1.0750000476837158,-7.808000087738037,-5.834000110626221
1747543287272537300,10.672537353515626,1.0789999961853027,-7.756999969482422,-5.901000022888184
1747543287282133000,10.682133056640625,1.090999960899353,-7.695000171661377,-5.979000091552734
1747543287291727600,10.6917275390625,1.1130000352859497,-7.623000144958496,-6.066999912261963
1747543287301323000,10.701322998046875,1.1469999551773071,-7.539999961853027,-6.163000106811523
1747543287310919200,10.710919189453126,1.190999984741211,-7.452000141143799,-6.26200008392334
1747543287320514800,10.720514892578125,1.246000051498413,-7.360000133514404,-6.359000205993652
1747543287330109400,10.730109375,1.309000015258789,-7.264999866485596,-6.453999996185303
1747543287339705000,10.739705078125,1.3769999742507935,-7.171999931335449,-6.544000148773193
1747543287349301200,10.74930126953125,1.4479999542236328,-7.083000183105469,-6.625
1747543287358897000,10.75889697265625,1.5199999809265137,-7,-6.697000026702881
1747543287368491500,10.768491455078125,1.590000033378601,-6.925000190734863,-6.757999897003174
1747543287378087000,10.7780869140625,1.6549999713897705,-6.860000133514404,-6.808000087738037
1747543287387683300,10.787683349609376,1.7130000591278076,-6.808000087738037,-6.8460001945495605
1747543287397279000,10.797279052734375,1.7619999647140503,-6.76800012588501,-6.873000144958496
1747543287406873300,10.806873291015625,1.7990000247955322,-6.743000030517578,-6.888999938964844
1747543287416469000,10.816468994140624,1.8250000476837158,-6.730999946594238,-6.89300012588501
1747543287426065400,10.8260654296875,1.8359999656677246,-6.735000133514404,-6.88700008392334
1747543287435660800,10.835660888671875,1.8320000171661377,-6.751999855041504,-6.870999813079834
1747543287445255400,10.84525537109375,1.812000036239624,-6.7820000648498535,-6.8460001945495605
1747543287454851000,10.85485107421875,1.7760000228881836,-6.822999954223633,-6.815000057220459
1747543287464447200,10.864447265625,1.7280000448226929,-6.873000144958496,-6.7769999504089355
1747543287474043000,10.87404296875,1.6679999828338623,-6.929999828338623,-6.734000205993652
1747543287483637500,10.883637451171875,1.600000023841858,-6.992000102996826,-6.686999797821045
1747543287493233200,10.893233154296874,1.527999997138977,-7.057000160217285,-6.633999824523926
1747543287502829300,10.902829345703125,1.4520000219345093,-7.126999855041504,-6.577000141143799
1747543287512424700,10.9124248046875,1.378000020980835,-7.198999881744385,-6.513999938964844
1747543287522019600,10.92201953125,1.3049999475479126,-7.275000095367432,-6.443999767303467
1747543287531615000,10.931614990234374,1.2380000352859497,-7.354000091552734,-6.368000030517578
1747543287541211100,10.941211181640625,1.1740000247955322,-7.436999797821045,-6.2829999923706055
1747543287550806800,10.950806884765624,1.1180000305175781,-7.520999908447266,-6.191999912261963
1747543287560401400,10.9604013671875,1.0720000267028809,-7.605999946594238,-6.09499979019165
1747543287569997000,10.9699970703125,1.034000039100647,-7.692999839782715,-5.992000102996826
1747543287579593200,10.97959326171875,1.0089999437332153,-7.7789998054504395,-5.885000228881836
1747543287589101800,10.989101806640624,0.9950000047683716,-7.861000061035156,-5.776000022888184
1747543287598783500,10.998783447265625,0.9940000176429749,-7.941999912261963,-5.665999889373779
1747543287608379000,11.00837890625,1.0069999694824219,-8.017000198364258,-5.556000232696533
1747543287617975300,11.017975341796875,1.031999945640564,-8.086999893188477,-5.447999954223633
1747543287627570700,11.02757080078125,1.065999984741211,-8.152999877929688,-5.3429999351501465
1747543287637165300,11.037165283203125,1.1059999465942383,-8.213000297546387,-5.242000102996826
1747543287646760700,11.0467607421875,1.1490000486373901,-8.269000053405762,-5.144000053405762
1747543287656357400,11.056357421875,1.194000005722046,-8.319000244140625,-5.052000045776367
1747543287665952800,11.065952880859374,1.2410000562667847,-8.364999771118164,-4.965000152587891
1747543287675547400,11.07554736328125,1.2879999876022339,-8.404999732971191,-4.882999897003174
1747543287694739200,11.0947392578125,1.38100004196167,-8.473999977111816,-4.736999988555908
1747543287704334600,11.10433447265625,1.4279999732971191,-8.503000259399414,-4.671000003814697
1747543287713929500,11.113929443359375,1.475000023841858,-8.529000282287598,-4.609000205993652
1747543287723524900,11.12352490234375,1.5230000019073486,-8.552000045776367,-4.548999786376953
1747543287733121000,11.13312109375,1.5709999799728394,-8.574000358581543,-4.492000102996826
1747543287742716700,11.142716552734376,1.61899995803833,-8.593000411987305,-4.439000129699707
1747543287752311600,11.1523115234375,1.6670000553131104,-8.609999656677246,-4.388000011444092
1747543287761906700,11.16190673828125,1.7130000591278076,-8.625,-4.340000152587891
1747543287771503000,11.171503173828125,1.75600004196167,-8.637999534606934,-4.295000076293945
1747543287781098800,11.1810986328125,1.7979999780654907,-8.651000022888184,-4.251999855041504
1747543287790693400,11.190693359375,1.8359999656677246,-8.663000106811523,-4.211999893188477
1747543287800288800,11.200288818359375,1.871999979019165,-8.67300033569336,-4.173999786376953
1747543287809885200,11.20988525390625,1.906000018119812,-8.682999610900879,-4.139999866485596
1747543287819480800,11.219480712890626,1.937000036239624,-8.6899995803833,-4.109000205993652
1747543287829075500,11.229075439453124,1.9670000076293945,-8.696999549865723,-4.080999851226807
1747543287838670800,11.2386708984375,1.9930000305175781,-8.701000213623047,-4.058000087738037
1747543287848267300,11.248267333984375,2.0169999599456787,-8.704999923706055,-4.038000106811523
1747543287857862700,11.257862548828125,2.0369999408721924,-8.708000183105469,-4.021999835968018
1747543287867457300,11.267457275390624,2.0510001182556152,-8.711999893188477,-4.006999969482422
1747543287876974000,11.27697412109375,2.059000015258789,-8.715999603271484,-3.993000030517578
1747543287886649000,11.286649169921875,2.061000108718872,-8.722000122070312,-3.9800000190734863
1747543287896244500,11.296244384765625,2.053999900817871,-8.729000091552734,-3.9670000076293945
1747543287905839400,11.30583935546875,2.0369999408721924,-8.73799991607666,-3.9560000896453857
1747543287915434800,11.315434814453125,2.01200008392334,-8.746999740600586,-3.9489998817443848
1747543287925031200,11.32503125,1.9780000448226929,-8.755999565124512,-3.947000026702881
1747543287934626600,11.33462646484375,1.937999963760376,-8.76200008392334,-3.9519999027252197
1747543287953816800,11.35381689453125,1.8459999561309814,-8.765999794006348,-3.986999988555908
1747543287963413000,11.3634130859375,1.7949999570846558,-8.763999938964844,-4.015999794006348
1747543287973008600,11.373008544921875,1.7410000562667847,-8.758000373840332,-4.052000045776367
1747543287982603300,11.382603271484374,1.684999942779541,-8.75,-4.093999862670898
1747543287992199000,11.392198974609375,1.625,-8.73799991607666,-4.142000198364258
1747543288001795000,11.401795166015624,1.562999963760376,-8.723999977111816,-4.196000099182129
1747543288011390700,11.411390625,1.4950000047683716,-8.706999778747559,-4.25600004196167
1747543288020985300,11.4209853515625,1.4249999523162842,-8.6850004196167,-4.323999881744385
1747543288030581000,11.4305810546875,1.3519999980926514,-8.657999992370605,-4.400000095367432
1747543288040177200,11.44017724609375,1.274999976158142,-8.626999855041504,-4.485000133514404
1747543288049772800,11.449772705078125,1.1920000314712524,-8.588000297546387,-4.580999851226807
1747543288059367200,11.4593671875,1.100000023841858,-8.541999816894531,-4.688000202178955
1747543288068962800,11.468962890625,1.003000020980835,-8.491000175476074,-4.802000045776367
1747543288078559200,11.478559326171874,0.906000018119812,-8.437000274658203,-4.914999961853027
1747543288088154600,11.488154541015625,0.8190000057220459,-8.383000373840332,-5.020999908447266
1747543288097749200,11.497749267578126,0.7480000257492065,-8.333000183105469,-5.114999771118164
1747543288107344600,11.5073447265625,0.6959999799728394,-8.28600025177002,-5.197999954223633
1747543288116941000,11.516941162109376,0.6629999876022339,-8.241999626159668,-5.271999835968018
1747543288126536700,11.52653662109375,0.6430000066757202,-8.197999954223633,-5.3420000076293945
1747543288136131300,11.53613134765625,0.6340000033378601,-8.149999618530273,-5.415999889373779
1747543288145726700,11.545726806640625,0.6330000162124634,-8.093000411987305,-5.5
1747543288155323100,11.5553232421875,0.6359999775886536,-8.02299976348877,-5.6020002365112305
1747543288164918500,11.56491845703125,0.640999972820282,-7.934999942779541,-5.724999904632568
1747543288174513400,11.574513427734376,0.652999997138977,-7.833000183105469,-5.86299991607666
1747543288184091100,11.584091064453125,0.6759999990463257,-7.7230000495910645,-6.005000114440918
1747543288193705000,11.593705078125,0.7120000123977661,-7.613999843597412,-6.138000011444092
1747543288203237400,11.6032373046875,0.7559999823570251,-7.514999866485596,-6.254000186920166
1747543288212895200,11.612895263671875,0.8040000200271606,-7.429999828338623,-6.348999977111816
1747543288232087300,11.63208740234375,0.8970000147819519,-7.313000202178955,-6.4710001945495605
1747543288241682700,11.6416826171875,0.9459999799728394,-7.276000022888184,-6.50600004196167
1747543288251277300,11.65127734375,1,-7.243000030517578,-6.533999919891357
1747543288260872700,11.660872802734374,1.0570000410079956,-7.209000110626221,-6.563000202178955
1747543288270469000,11.67046923828125,1.11899995803833,-7.169000148773193,-6.5960001945495605
1747543288280064500,11.680064453125,1.187000036239624,-7.118000030517578,-6.638999938964844
1747543288289659100,11.6896591796875,1.2589999437332153,-7.057000160217285,-6.690999984741211
1747543288299254800,11.6992548828125,1.3309999704360962,-6.986000061035156,-6.750999927520752
1747543288308851000,11.708850830078125,1.4010000228881836,-6.9070000648498535,-6.817999839782715
1747543288318446600,11.718446533203124,1.4670000076293945,-6.822999954223633,-6.888000011444092
1747543288328041200,11.728041259765625,1.5269999504089355,-6.738999843597412,-6.958000183105469
1747543288337636900,11.737636962890624,1.5820000171661377,-6.6570000648498535,-7.02400016784668
1747543288347233000,11.74723291015625,1.6330000162124634,-6.579999923706055,-7.084000110626221
1747543288356828400,11.756828369140624,1.6799999475479126,-6.508999824523926,-7.138999938964844
1747543288366423300,11.76642333984375,1.7239999771118164,-6.441999912261963,-7.189000129699707
1747543288376019000,11.77601904296875,1.7619999647140503,-6.379000186920166,-7.236000061035156
1747543288385615000,11.785614990234375,1.7940000295639038,-6.318999767303467,-7.281000137329102
1747543288395132000,11.7951318359375,1.8220000267028809,-6.260000228881836,-7.324999809265137
1747543288404805400,11.804805419921875,1.8450000286102295,-6.199999809265137,-7.36899995803833
1747543288414400800,11.81440087890625,1.8650000095367432,-6.138999938964844,-7.414999961853027
1747543288423997200,11.8239970703125,1.8819999694824219,-6.077000141143799,-7.461999893188477
1747543288433592600,11.833592529296874,1.8980000019073486,-6.014999866485596,-7.507999897003174
1747543288443187200,11.843187255859375,1.9129999876022339,-5.953000068664551,-7.553999900817871
1747543288452782800,11.852782958984376,1.9249999523162842,-5.892000198364258,-7.5980000495910645
1747543288462379300,11.862379150390625,1.9359999895095825,-5.834000110626221,-7.639999866485596
1747543288471974700,11.871974609375,1.944000005722046,-5.783999919891357,-7.676000118255615
1747543288481496800,11.881496826171874,1.9509999752044678,-5.744999885559082,-7.703999996185303
1747543288491165000,11.8911650390625,1.9579999446868896,-5.7179999351501465,-7.7220001220703125
1747543288500761000,11.900760986328125,1.9620000123977661,-5.708000183105469,-7.728000164031982
1747543288510356500,11.9103564453125,1.9630000591278076,-5.715000152587891,-7.7230000495910645
1747543288519951400,11.919951416015625,1.9579999446868896,-5.736999988555908,-7.708000183105469
1747543288529547000,11.929547119140626,1.9470000267028809,-5.771999835968018,-7.684000015258789
1747543288539143000,11.939142822265625,1.9290000200271606,-5.818999767303467,-7.6529998779296875
1747543288548738600,11.948738525390626,1.906000018119812,-5.875,-7.616000175476074
1747543288558333400,11.95833349609375,1.878999948501587,-5.938000202178955,-7.573999881744385
1747543288567928800,11.9679287109375,1.8489999771118164,-6.005000114440918,-7.5279998779296875
1747543288577525000,11.97752490234375,1.819000005722046,-6.076000213623047,-7.479000091552734
1747543288596715300,11.99671533203125,1.7640000581741333,-6.223999977111816,-7.36899995803833
1747543288606310700,12.006310546875,1.7419999837875366,-6.300000190734863,-7.309999942779541
1747543288615907300,12.0159072265625,1.7230000495910645,-6.375999927520752,-7.248000144958496
1747543288625502700,12.025502685546876,1.7079999446868896,-6.453000068664551,-7.183000087738037
1747543288635097300,12.035097412109375,1.694000005722046,-6.531000137329102,-7.114999771118164
1747543288644692700,12.044692626953125,1.6799999475479126,-6.611000061035156,-7.045000076293945
1747543288654289200,12.0542890625,1.6649999618530273,-6.691999912261963,-6.9710001945495605
1747543288663808800,12.063808837890624,1.6490000486373901,-6.775000095367432,-6.894999980926514
1747543288673479200,12.073479248046874,1.6299999952316284,-6.860000133514404,-6.814000129699707
1747543288683074600,12.083074462890625,1.6069999933242798,-6.947999954223633,-6.730000019073486
1747543288692671000,12.0926708984375,1.5800000429153442,-7.039000034332275,-6.642000198364258
1747543288702266600,12.1022666015625,1.5479999780654907,-7.132999897003174,-6.548999786376953
1747543288711861200,12.111861328125,1.5119999647140503,-7.230000019073486,-6.448999881744385
1747543288721456600,12.12145654296875,1.4739999771118164,-7.330999851226807,-6.343999862670898
1747543288731053000,12.131052978515624,1.4329999685287476,-7.435999870300293,-6.229000091552734
1747543288740648400,12.1406484375,1.3890000581741333,-7.543000221252441,-6.110000133514404
1747543288750243000,12.1502431640625,1.3450000286102295,-7.650000095367432,-5.985000133514404
1747543288759838700,12.159838623046875,1.2979999780654907,-7.760000228881836,-5.8520002365112305
1747543288769435100,12.16943505859375,1.2519999742507935,-7.86899995803833,-5.715000152587891
1747543288779030500,12.179030517578125,1.2070000171661377,-7.9770002365112305,-5.572999954223633
1747543288788625400,12.18862548828125,1.1649999618530273,-8.083000183105469,-5.427999973297119
1747543288798220500,12.198220458984375,1.1269999742507935,-8.185999870300293,-5.28000020980835
1747543288807817000,12.20781689453125,1.093999981880188,-8.28499984741211,-5.129000186920166
1747543288817412400,12.217412353515625,1.0670000314712524,-8.380999565124512,-4.978000164031982
1747543288827007200,12.22700732421875,1.0470000505447388,-8.470999717712402,-4.826000213623047
1747543288836602600,12.2366025390625,1.0369999408721924,-8.557000160217285,-4.676000118255615
1747543288846199000,12.246198974609374,1.0379999876022339,-8.63599967956543,-4.5269999504089355
1747543288855794400,12.25579443359375,1.0509999990463257,-8.708999633789062,-4.382999897003174
1747543288865389300,12.265389404296876,1.0770000219345093,-8.774999618530273,-4.242000102996826
1747543288874984700,12.274984619140625,1.1119999885559082,-8.835000038146973,-4.10699987411499
1747543288884581000,12.2845810546875,1.1540000438690186,-8.887999534606934,-3.9779999256134033
1747543288894176500,12.294176513671875,1.2029999494552612,-8.9350004196167,-3.8559999465942383
1747543288903771100,12.303771240234376,1.2569999694824219,-8.97700023651123,-3.740999937057495
1747543288913366800,12.31336669921875,1.312999963760376,-9.012999534606934,-3.632999897003174
1747543288922963200,12.322963134765626,1.371999979019165,-9.043999671936035,-3.5320000648498535
1747543288932558600,12.33255859375,1.4299999475479126,-9.071000099182129,-3.440000057220459
1747543288942153200,12.3421533203125,1.4869999885559082,-9.093000411987305,-3.3559999465942383
1747543288951748900,12.351748779296875,1.5399999618530273,-9.112000465393066,-3.2799999713897705
1747543288961345000,12.361344970703126,1.590999960899353,-9.128000259399414,-3.2100000381469727
1747543288970940400,12.3709404296875,1.6369999647140503,-9.142000198364258,-3.1470000743865967
1747543288980535300,12.380535400390626,1.6770000457763672,-9.154000282287598,-3.0910000801086426
1747543288990131000,12.390130859375,1.7100000381469727,-9.163999557495117,-3.0409998893737793
1747543288999727000,12.39972705078125,1.7389999628067017,-9.17300033569336,-2.996999979019165
1747543289009322500,12.409322509765625,1.7640000581741333,-9.180999755859375,-2.9579999446868896
1747543289018850300,12.418850341796874,1.784000039100647,-9.187999725341797,-2.9240000247955322
1747543289028512800,12.4285126953125,1.8020000457763672,-9.194000244140625,-2.8940000534057617
1747543289038045700,12.438045654296875,1.815000057220459,-9.199999809265137,-2.867000102996826
1747543289047704600,12.44770458984375,1.8270000219345093,-9.204999923706055,-2.8429999351501465
1747543289057299200,12.45729931640625,1.8380000591278076,-9.210000038146973,-2.821000099182129
1747543289066894800,12.466894775390625,1.850000023841858,-9.213000297546387,-2.802000045776367
1747543289076491000,12.476490966796876,1.8650000095367432,-9.215999603271484,-2.7839999198913574
1747543289086086400,12.48608642578125,1.8839999437332153,-9.215999603271484,-2.7709999084472656
1747543289095681300,12.495681396484375,1.906000018119812,-9.213000297546387,-2.7660000324249268
1747543289105276700,12.505276611328124,1.9270000457763672,-9.206999778747559,-2.7720000743865967
1747543289114873000,12.514873046875,1.9450000524520874,-9.197999954223633,-2.7880001068115234
1747543289124468700,12.52446875,1.9579999446868896,-9.185999870300293,-2.815999984741211
1747543289134063000,12.53406298828125,1.965000033378601,-9.173999786376953,-2.8529999256134033
1747543289143575600,12.543575439453125,1.9639999866485596,-9.15999984741211,-2.8959999084472656
1747543289153255200,12.553255126953125,1.9539999961853027,-9.147000312805176,-2.944999933242798
1747543289162771200,12.562771240234374,1.9329999685287476,-9.133999824523926,-2.999000072479248
1747543289172445200,12.572445068359375,1.9010000228881836,-9.121000289916992,-3.058000087738037
1747543289181966600,12.581966552734375,1.8589999675750732,-9.107999801635742,-3.121000051498413
1747543289191637000,12.591636962890625,1.8079999685287476,-9.095000267028809,-3.188999891281128
1747543289201232600,12.601232666015624,1.746000051498413,-9.081000328063965,-3.263000011444092
1747543289210827300,12.6108271484375,1.6779999732971191,-9.064000129699707,-3.3429999351501465
1747543289220422700,12.620422607421874,1.6050000190734863,-9.043000221252441,-3.434999942779541
1747543289230019000,12.63001904296875,1.5269999504089355,-9.013999938964844,-3.5450000762939453
1747543289239614500,12.639614501953124,1.4429999589920044,-8.973999977111816,-3.678999900817871
1747543289249209300,12.649209228515625,1.3509999513626099,-8.918999671936035,-3.8459999561309814
1747543289258804700,12.6588046875,1.253999948501587,-8.845999717712402,-4.040999889373779
1747543289268401200,12.668401123046875,1.1640000343322754,-8.758000373840332,-4.255000114440918
1747543289277996800,12.677996826171874,1.0889999866485596,-8.654000282287598,-4.480000019073486
1747543289287591200,12.687591064453125,1.034999966621399,-8.538999557495117,-4.708000183105469
1747543289297186800,12.697186767578126,1.0010000467300415,-8.414999961853027,-4.934000015258789
1747543289306783200,12.706783203125,0.984000027179718,-8.284000396728516,-5.1539998054504395
1747543289316378600,12.716378662109374,0.9819999933242798,-8.145999908447266,-5.36899995803833
1747543289325887500,12.725887451171875,0.9919999837875366,-8.00100040435791,-5.580999851226807
1747543289335569000,12.73556884765625,1.0140000581741333,-7.843999862670898,-5.796000003814697
1747543289345165000,12.7451650390625,1.0470000505447388,-7.677000045776367,-6.011000156402588
1747543289354760700,12.7547607421875,1.090000033378601,-7.497000217437744,-6.2270002365112305
1747543289364355300,12.764355224609375,1.1410000324249268,-7.303999900817871,-6.441999912261963
1747543289373951000,12.773950927734376,1.2009999752044678,-7.1020002365112305,-6.6529998779296875
1747543289383474200,12.78347412109375,1.2699999809265137,-6.894999980926514,-6.855000019073486
1747543289393142500,12.793142578125,1.347000002861023,-6.684999942779541,-7.046999931335449
1747543289402737400,12.8027373046875,1.430999994277954,-6.4770002365112305,-7.2210001945495605
1747543289412333000,12.8123330078125,1.5219999551773071,-6.2769999504089355,-7.377999782562256
1747543289421929200,12.82192919921875,1.6180000305175781,-6.085999965667725,-7.517000198364258
1747543289431524600,12.831524658203126,1.715000033378601,-5.908999919891357,-7.635000228881836
1747543289441119500,12.841119384765625,1.8140000104904175,-5.741000175476074,-7.739999771118164
1747543289450715000,12.85071484375,1.9079999923706055,-5.5879998207092285,-7.828999996185303
1747543289460311300,12.860311279296875,1.99399995803833,-5.448999881744385,-7.90500020980835
1747543289469906700,12.86990673828125,2.072999954223633,-5.318999767303467,-7.9730000495910645
1747543289479501300,12.879501220703125,2.1389999389648438,-5.199999809265137,-8.034000396728516
1747543289489097000,12.889096923828125,2.191999912261963,-5.089000225067139,-8.09000015258789
1747543289498693400,12.898693359375,2.2300000190734863,-4.986000061035156,-8.144000053405762
