time,seconds_elapsed,z,y,x
1747319558845935400,0.110935302734375,9.755537986755371,0.0029910283628851175,-0.02632104977965355
1747319558864200200,0.1292001953125,9.755537986755371,-0.01136590726673603,0.0023928226437419653
1747319558882467000,0.147467041015625,9.760323524475098,0.0077766734175384045,-0.0023928226437419653
1747319558900731600,0.165731689453125,9.76989459991455,0.01734796352684498,-0.007178467698395252
1747319558918998000,0.183998046875,9.765109062194824,0.022133609279990196,-0.02153540402650833
1747319558937262800,0.202262939453125,9.765109062194824,0.026919255033135414,-0.031106693670153618
1747319558955529700,0.22052978515625,9.76989459991455,0.026919255033135414,-0.040677983313798904
1747319558973793800,0.238793701171875,9.765109062194824,0.01734796352684498,-0.04546362906694412
1747319558992061200,0.257061279296875,9.755537986755371,0.022133609279990196,-0.035892341285943985
1747319559010325800,0.27532568359375,9.760323524475098,0.012562318705022335,-0.016749758273363113
1747319559028592600,0.293592529296875,9.765109062194824,0.0077766734175384045,-0.01196411345154047
1747319559046857200,0.311857177734375,9.779465675354004,0.0029910283628851175,-0.0023928226437419653
1747319559065124000,0.3301240234375,9.76989459991455,0.012562318705022335,-0.0023928226437419653
1747319559083389000,0.348388916015625,9.755537986755371,0.0077766734175384045,-0.016749758273363113
1747319559101655600,0.366655517578125,9.760323524475098,0.0077766734175384045,-0.02153540402650833
1747319559119920000,0.384920166015625,9.759725570678711,0.0029910283628851175,-0.031106693670153618
1747319559138187000,0.40318701171875,9.760323524475098,0.022133609279990196,-0.035892341285943985
1747319559156451300,0.421451416015625,9.76989459991455,0.026919255033135414,-0.031106693670153618
1747319559174718000,0.439718017578125,9.76989459991455,0.01734796352684498,-0.040677983313798904
1747319559192982800,0.457982666015625,9.760323524475098,0.01734796352684498,-0.02632104977965355
1747319559211249700,0.476249755859375,9.764511108398438,0.0029910283628851175,-0.031106693670153618
1747319559229514500,0.494514404296875,9.769296646118164,-0.001794616924598813,-0.02153540402650833
1747319559247781000,0.512781005859375,9.760323524475098,0.012562318705022335,-0.01196411345154047
1747319559266046000,0.5310458984375,9.760323524475098,0.0077766734175384045,-0.01196411345154047
1747319559284312600,0.5493125,9.774680137634277,-0.006580262444913387,-0.016749758273363113
1747319559302577400,0.567577392578125,9.760323524475098,0.0077766734175384045,-0.02153540402650833
1747319559320844300,0.58584423828125,9.760323524475098,0.01734796352684498,-0.02153540402650833
1747319559339108600,0.604108642578125,9.760323524475098,0.01734796352684498,-0.02632104977965355
1747319559357375200,0.622375244140625,9.760323524475098,0.01734796352684498,-0.040677983313798904
1747319559375640000,0.64064013671875,9.765109062194824,0.01734796352684498,-0.035892341285943985
1747319559393907200,0.6589072265625,9.779465675354004,0.012562318705022335,-0.031106693670153618
1747319559412171300,0.677171142578125,9.760323524475098,0.012562318705022335,-0.02153540402650833
1747319559430438100,0.695438232421875,9.76989459991455,0.0077766734175384045,-0.01196411345154047
1747319559448703000,0.713702880859375,9.774680137634277,-0.001794616924598813,-0.02632104977965355
1747319559466969900,0.731969970703125,9.76989459991455,0.0077766734175384045,-0.02153540402650833
1747319559485234400,0.750234375,9.750752449035645,0.0077766734175384045,-0.016749758273363113
1747319559503501300,0.768501220703125,9.765109062194824,-0.001794616924598813,-0.02153540402650833
1747319559521766000,0.786765869140625,9.76989459991455,0.026919255033135414,-0.02632104977965355
1747319559540032800,0.80503271484375,9.760323524475098,0.01734796352684498,-0.02153540402650833
1747319559558297000,0.823297119140625,9.765109062194824,0.012562318705022335,-0.031106693670153618
1747319559576564200,0.841564208984375,9.76989459991455,0.012562318705022335,-0.035892341285943985
1747319559594828500,0.85982861328125,9.750752449035645,0.022133609279990196,-0.035892341285943985
1747319559613095000,0.878094970703125,9.760323524475098,0.022133609279990196,-0.031106693670153618
1747319559631357200,0.896357177734375,9.774680137634277,0.0077766734175384045,-0.02632104977965355
1747319559649630000,0.9146298828125,9.760323524475098,0.0029910283628851175,-0.016749758273363113
1747319559667891500,0.932891357421875,9.774680137634277,0.0029910283628851175,-0.02153540402650833
1747319559686158300,0.951158447265625,9.760323524475098,0.01734796352684498,-0.01196411345154047
1747319559704423000,0.9694228515625,9.765109062194824,0.022133609279990196,-0.02153540402650833
1747319559722689800,0.987689697265625,9.760323524475098,0.01734796352684498,-0.02632104977965355
1747319559740954400,1.005954345703125,9.765109062194824,0.0029910283628851175,-0.02632104977965355
1747319559759220700,1.024220703125,9.774680137634277,0.012562318705022335,-0.02153540402650833
1747319559777485800,1.04248583984375,9.760323524475098,0.0077766734175384045,-0.02632104977965355
1747319559795752400,1.06075244140625,9.765109062194824,0.012562318705022335,-0.031106693670153618
1747319559814017000,1.07901708984375,9.755537986755371,0.0077766734175384045,-0.02632104977965355
1747319559832284200,1.0972841796875,9.755537986755371,-0.001794616924598813,-0.031106693670153618
1747319559850548500,1.115548583984375,9.760323524475098,0.0029910283628851175,-0.02632104977965355
1747319559868815600,1.133815673828125,9.765109062194824,0.012562318705022335,-0.031106693670153618
1747319559887080000,1.152079833984375,9.765109062194824,0.012562318705022335,-0.016749758273363113
1747319559905346800,1.170346923828125,9.765109062194824,0.012562318705022335,-0.02153540402650833
1747319559923611400,1.188611328125,9.760323524475098,0.022133609279990196,-0.01196411345154047
1747319559941878300,1.206878173828125,9.760323524475098,0.012562318705022335,-0.016749758273363113
1747319559960142800,1.225142822265625,9.765109062194824,0.012562318705022335,-0.02153540402650833
1747319559978409700,1.24340966796875,9.765109062194824,0.01734796352684498,-0.031106693670153618
1747319559996674000,1.261674072265625,9.760323524475098,0.012562318705022335,-0.031106693670153618
1747319560014941000,1.27994091796875,9.755537986755371,0.0077766734175384045,-0.02632104977965355
1747319560033205800,1.298205810546875,9.760323524475098,-0.001794616924598813,-0.031106693670153618
1747319560051472600,1.31647265625,9.765109062194824,0.0029910283628851175,-0.01196411345154047
1747319560069737500,1.334737548828125,9.750752449035645,0.0029910283628851175,-0.007178467698395252
1747319560088003800,1.35300390625,9.760323524475098,0.012562318705022335,-0.007178467698395252
1747319560106268700,1.3712685546875,9.765109062194824,0.01734796352684498,-0.02153540402650833
1747319560124535600,1.38953564453125,9.760323524475098,0.026919255033135414,-0.035892341285943985
1747319560142800100,1.407800048828125,9.760323524475098,0.012562318705022335,-0.04546362906694412
1747319560161067000,1.42606689453125,9.765109062194824,0.022133609279990196,-0.05503492057323456
1747319560179331000,1.4443310546875,9.765109062194824,0.0029910283628851175,-0.064606212079525
1747319560197598000,1.462597900390625,9.755537986755371,-0.001794616924598813,-0.05503492057323456
1747319560215862800,1.48086279296875,9.769296646118164,-0.049651071429252625,-0.16031911969184875
1747319560234129700,1.499129638671875,9.764511108398438,-0.0729810893535614,-0.12681959569454193
1747319560252393700,1.517393798828125,9.802796363830566,-0.01615155301988125,-0.01196411345154047
1747319560270661000,1.5356611328125,9.778867721557617,-0.030508488416671753,-0.05503492057323456
1747319560288925700,1.55392578125,9.698708534240723,0.13160525262355804,0.08374879509210587
1747319560307192300,1.5721923828125,9.756733894348145,0.14057832956314087,0.2225325107574463
1747319560325457200,1.59045703125,9.722038269042969,0.05563312768936157,-0.06939185410737991
1747319560343724000,1.60872412109375,9.774680137634277,0.035892341285943985,-0.064606212079525
1747319560361988400,1.62698828125,9.736394882202148,0.012562318705022335,-0.08374879509210587
1747319560380255500,1.64525537109375,9.760323524475098,0.0077766734175384045,-0.05024927482008934
1747319560398519600,1.66351953125,9.736394882202148,0.022133609279990196,-0.007178467698395252
1747319560416786700,1.68178662109375,9.765109062194824,0.03170489892363548,0.01196411345154047
1747319560435051300,1.70005126953125,9.7938232421875,0.035892341285943985,0.02632104977965355
1747319560453318000,1.71831787109375,9.736394882202148,-0.001794616924598813,-0.0023928226437419653
1747319560471582000,1.73658203125,9.836296081542969,-0.04486542567610741,-0.07956135272979736
1747319560489850000,1.75485009765625,9.723235130310059,-0.4247260093688965,-0.6484549641609192
1747319560508114400,1.773114501953125,9.838688850402832,-1.0666006803512573,-1.3196417093276978
1747319560526381000,1.791381103515625,9.722038269042969,-1.470389485359192,-1.4105689525604248
1747319560544645400,1.809645263671875,9.723235130310059,-0.8045865893363953,-0.04666004329919815
1747319560562912500,1.82791259765625,9.769296646118164,-0.4576273262500763,0.4462614357471466
1747319560581177000,1.846177001953125,9.794421195983887,-0.13938191533088684,0.6287141442298889
1747319560599443700,1.864443603515625,9.804591178894043,-0.01615155301988125,0.5712863802909851
1747319560617708500,1.88270849609375,9.69930648803711,-0.048454657196998596,0.5904290080070496
1747319560635970600,1.900970458984375,9.708279609680176,-0.1339980661869049,0.5617151260375977
1747319560654239500,1.919239501953125,9.732208251953125,-0.22432711720466614,0.6143572330474854
1747319560672506400,1.93750634765625,9.802796363830566,-0.45284169912338257,0.4749752879142761
1747319560690771200,1.955771240234375,9.836296081542969,-0.4342973232269287,0.5419743061065674
1747319560709037800,1.974037841796875,9.774680137634277,-0.381655216217041,0.5324030518531799
1747319560727302700,1.992302734375,9.692726135253906,-0.3194418251514435,0.24586252868175507
1747319560745569500,2.010569580078125,9.8267240524292,-0.16809579730033875,0.05922235921025276
1747319560763834000,2.028834228515625,9.698708534240723,0.1740778535604477,-0.09810572862625122
1747319560782101000,2.04710107421875,9.70229721069336,-0.11066804826259613,-0.12681959569454193
1747319560800365800,2.06536572265625,9.768698692321777,-0.4055834412574768,0.3074777126312256
1747319560818632400,2.083632568359375,10.161121368408203,-0.3930211067199707,0.6035895347595215
1747319560836896500,2.101896484375,9.375079154968262,0.062213387340307236,0.4145565330982208
1747319560855163400,2.120163330078125,9.955936431884766,-0.18783657252788544,0.26919254660606384
1747319560873428500,2.138428466796875,9.927821159362793,-0.0975075215101242,0.37507495284080505
1747319560891695000,2.156695068359375,9.953543663024902,0.4821537733078003,0.24646073579788208
1747319560909959700,2.174959716796875,9.601201057434082,0.6879364848136902,0.21415762603282928
1747319560928226600,2.1932265625,10.094121932983398,0.20518454909324646,-0.4905286431312561
1747319560946491000,2.211490966796875,10.52782154083252,-0.5940182209014893,0.5306084156036377
1747319560964757800,2.2297578125,10.804790496826172,-0.5623133182525635,0.486939400434494
1747319560983022300,2.248022216796875,10.234700202941895,-0.013160524889826775,0.828514814376831
1747319561001289200,2.266289306640625,10.125826835632324,0.025722842663526535,1.0151549577713013
1747319561019553800,2.2845537109375,9.002396583557129,0.5916253924369812,1.3106685876846313
1747319561037820200,2.302820068359375,8.947361946105957,1.1808580160140991,1.435693621635437
1747319561056085500,2.32108544921875,8.913264274597168,0.7345965504646301,1.82273268699646
1747319561074351900,2.339351806640625,8.292924880981445,2.627917528152466,0.7746763229370117
1747319561092617000,2.357616943359375,9.42473030090332,2.6225335597991943,0.9343972206115723
1747319561110883600,2.375883544921875,10.672587394714355,1.690529227256775,1.3130614757537842
1747319561129148200,2.394148193359375,9.879964828491211,0.9667003750801086,0.5198407173156738
1747319561147414800,2.412414794921875,9.421140670776367,0.5515456199645996,0.8644071817398071
1747319561165679600,2.4306796875,10.501500129699707,1.4919248819351196,1.9112670421600342
1747319561183946500,2.448946533203125,11.095519065856934,2.0165512561798096,1.9154545068740845
1747319561202211000,2.467211181640625,10.773683547973633,1.2675977945327759,2.268994092941284
1747319561220477400,2.4854775390625,9.110671997070312,0.06400800496339798,1.5966109037399292
1747319561238742000,2.503741943359375,8.599804878234863,4.722235679626465,3.6221351623535156
1747319561257009400,2.522009521484375,7.082156658172607,6.148955821990967,1.7431713342666626
1747319561275274000,2.54027392578125,5.54596471786499,3.9152560234069824,3.6329028606414795
1747319561293540000,2.5585400390625,5.3216376304626465,2.0889341831207275,6.423532485961914
1747319561311805200,2.57680517578125,10.77966594696045,2.15653133392334,3.2171499729156494
1747319561330072000,2.595072021484375,9.868000984191895,2.98085880279541,0.17347964644432068
1747319561348336600,2.613336669921875,8.481958389282227,1.673181176185608,3.503690481185913
1747319561366603500,2.631603515625,7.622934818267822,1.9298114776611328,5.093721389770508
1747319561384867800,2.649867919921875,9.580862045288086,2.4287149906158447,4.463810443878174
1747319561403134700,2.668134765625,9.593423843383789,2.204986095428467,4.118646144866943
1747319561421399300,2.6863994140625,9.3457670211792,2.6291139125823975,3.603590965270996
1747319561439666200,2.704666259765625,9.361918449401855,2.3575284481048584,3.077169895172119
1747319561457930800,2.7229306640625,8.824131965637207,2.2893331050872803,3.723830223083496
1747319561476185300,2.741185302734375,8.218149185180664,2.1924238204956055,3.9732820987701416
1747319561494462000,2.7594619140625,8.50289535522461,2.3096721172332764,3.1890344619750977
1747319561512728800,2.777728759765625,8.760123252868652,2.493321180343628,2.772084951400757
1747319561530993400,2.795993408203125,8.879166603088379,2.925823926925659,3.7770705223083496
1747319561549260300,2.81426025390625,7.34895658493042,2.121835470199585,5.84566593170166
1747319561567524900,2.83252490234375,8.989236831665039,2.5633113384246826,2.489732027053833
1747319561585791700,2.850791748046875,9.490532875061035,2.129014015197754,3.219542980194092
1747319561604056300,2.869056396484375,9.340383529663086,2.1684954166412354,4.281956195831299
1747319561622323200,2.8873232421875,8.930013656616211,2.0129621028900146,2.7140591144561768
1747319561640587800,2.905587890625,8.200801849365234,1.7641085386276245,1.643869161605835
1747319561658854700,2.923854736328125,7.715058326721191,1.9184455871582031,1.9130617380142212
1747319561677118700,2.94211865234375,8.542376518249512,2.2755744457244873,1.9214365482330322
1747319561695386000,2.96038623046875,8.665607452392578,2.56510591506958,2.8396823406219482
1747319561713650200,2.978650146484375,8.974879264831543,2.392822742462158,2.7810580730438232
1747319561731905300,2.9969052734375,8.694320678710938,2.6458635330200195,2.7008986473083496
1747319561750182100,3.01518212890625,8.718847274780273,2.7834508419036865,2.9593234062194824
1747319561768448800,3.03344873046875,9.066405296325684,2.7768707275390625,2.6285157203674316
1747319561786713300,3.05171337890625,9.32183837890625,3.2177481651306152,2.709871530532837
1747319561804980200,3.069980224609375,9.21715259552002,3.3750762939453125,2.6051857471466064
1747319561823244800,3.088244873046875,9.031110763549805,3.4133615493774414,2.53399920463562
1747319561841511400,3.106511474609375,9.166305541992188,3.745365619659424,2.840280532836914
1747319561859776300,3.1247763671875,9.227920532226562,3.721437454223633,2.572284460067749
1747319561878042600,3.143042724609375,9.159127235412598,3.6406795978546143,1.8741782903671265
1747319561896307700,3.1613076171875,8.897710800170898,3.789632797241211,2.286342144012451
1747319561914574300,3.17957421875,8.684151649475098,3.8901314735412598,2.5016961097717285
1747319561932838700,3.197838623046875,8.764909744262695,3.8901314735412598,2.4394826889038086
1747319561951105500,3.21610546875,8.650053977966309,3.862015724182129,2.35872483253479
1747319561969370400,3.234370361328125,8.511868476867676,3.9290146827697754,2.186441659927368
1747319561987637200,3.25263720703125,8.578866958618164,3.90987229347229,2.4257240295410156
1747319562005901600,3.270901611328125,9.110671997070312,3.9978084564208984,3.022135019302368
1747319562024168700,3.289168701171875,9.028717994689941,3.7842490673065186,3.022135019302368
1747319562042422500,3.307422607421875,8.70807933807373,3.6197423934936523,2.888735055923462
1747319562060700000,3.325699951171875,8.198408126831055,3.0801608562469482,2.449054002761841
1747319562078964200,3.343964111328125,7.901100158691406,2.8965117931365967,2.200798511505127
1747319562097231400,3.3622314453125,8.671588897705078,3.116053342819214,2.510669231414795
1747319562115495700,3.38049560546875,9.033503532409668,3.1238300800323486,2.1655044555664062
1747319562133762300,3.39876220703125,9.272188186645508,3.0795626640319824,2.2031915187835693
1747319562152027400,3.41702734375,9.081958770751953,3.095116138458252,2.5525436401367188
1747319562170294000,3.4352939453125,8.637491226196289,3.049652576446533,2.4580271244049072
1747319562188558800,3.453558837890625,8.447860717773438,3.250051259994507,2.5160529613494873
1747319562206825500,3.471825439453125,8.596813201904297,3.4444682598114014,2.620738983154297
1747319562225090000,3.490090087890625,8.863015174865723,3.2721848487854004,2.510071039199829
1747319562243357000,3.50835693359375,8.619544982910156,3.339184045791626,2.266601324081421
1747319562261621000,3.52662109375,8.11824893951416,3.379862070083618,2.35872483253479
1747319562279887600,3.5448876953125,8.3300142288208,3.4737801551818848,2.750549554824829
1747319562298151700,3.563151611328125,7.747361660003662,2.826521635055542,3.70767879486084
1747319562316420400,3.58142041015625,8.170292854309082,2.819343328475952,3.0131618976593018
1747319562334679000,3.599678955078125,8.397610664367676,1.654038667678833,2.2169501781463623
1747319562352945400,3.6179453125,7.356733322143555,1.4171491861343384,2.582453727722168
1747319562371214800,3.63621484375,6.925426959991455,1.1718848943710327,2.3300111293792725
1747319562389480700,3.654480712890625,6.8410797119140625,0.5880361795425415,1.9896320104599
1747319562407746300,3.672746337890625,6.751947402954102,0.23629122972488403,1.1377872228622437
1747319562426014500,3.691014404296875,6.434898376464844,-0.1381855010986328,-0.8422735929489136
1747319562444273200,3.709273193359375,7.802396297454834,0.5479564070701599,-2.929413080215454
1747319562462540000,3.7275400390625,8.489136695861816,1.3381860256195068,-2.575873613357544
1747319562480809500,3.7458095703125,10.1814603805542,1.4685949087142944,0.003589233849197626
1747319562499075800,3.764075927734375,11.484352111816406,2.341377019882202,0.2841476798057556
1747319562517339600,3.782339599609375,12.197413444519043,3.2404799461364746,-0.37148571014404297
1747319562535608300,3.8006083984375,12.29133129119873,3.2823543548583984,-1.1084750890731812
1747319562553867000,3.818866943359375,11.92762279510498,3.193819999694824,-1.2317054271697998
1747319562572133000,3.837133056640625,12.245867729187012,3.4683964252471924,-0.357128769159317
1747319562590404600,3.855404541015625,12.513864517211914,2.6973092555999756,-0.9038887619972229
1747319562608669000,3.8736689453125,12.257832527160645,2.4323041439056396,-1.5302101373672485
1747319562626936000,3.89193603515625,11.478968620300293,1.3860424757003784,-1.989033818244934
1747319562645201700,3.91020166015625,11.158928871154785,1.225723385810852,-1.9405791759490967
1747319562663464000,3.9284638671875,11.236695289611816,0.6610172390937805,-0.4163511395454407
1747319562681724400,3.946724365234375,10.305887222290039,0.1950150430202484,0.29790642857551575
1747319562709129200,3.974129150390625,7.685746192932129,-0.6664010882377625,0.09690931439399719
1747319562727394800,3.992394775390625,6.734001159667969,-1.0372886657714844,-0.07896314561367035
1747319562745664000,4.0106640625,8.043473243713379,-0.9672985672950745,0.44446679949760437
1747319562763923200,4.028923095703125,8.647063255310059,-1.0648061037063599,1.337587833404541
1747319562782188300,4.047188232421875,7.830512046813965,-1.1276177167892456,1.2197413444519043
1747319562800457500,4.06545751953125,7.989634990692139,-0.6580262184143066,1.272383451461792
1747319562818720800,4.083720703125,10.221540451049805,-0.24227328598499298,-2.146361827850342
1747319562836992000,4.101991943359375,15.284154891967773,-0.4570291340351105,-2.7320053577423096
1747319562855255800,4.120255859375,14.91984748840332,0.3008974492549896,-0.9649057388305664
1747319562873516800,4.138516845703125,10.805388450622559,-0.4570291340351105,2.3808584213256836
1747319562910040600,4.17504052734375,5.983851432800293,-0.9750752449035645,3.366701364517212
1747319562928318200,4.193318115234375,7.89631462097168,-0.914058268070221,0.6460621356964111
1747319562946585600,4.211585693359375,10.123434066772461,-0.849452018737793,-0.3966103494167328
1747319562964868600,4.22986865234375,10.381858825683594,-1.2538390159606934,0.4342973232269287
1747319562983111200,4.248111083984375,6.767500877380371,-2.3431715965270996,1.8418751955032349
1747319563001380900,4.266380859375,5.325226783752441,-2.806182861328125,2.41375994682312
1747319563019645700,4.284645751953125,4.895715236663818,-3.5509488582611084,0.06520441919565201
1747319563037912600,4.30291259765625,6.275177478790283,-3.910470485687256,-3.3098719120025635
1747319563056180000,4.321179931640625,6.952346324920654,-3.9906299114227295,-5.306084156036377
1747319563074439400,4.339439453125,9.717252731323242,-3.737588882446289,-5.340181827545166
1747319563092704500,4.35770458984375,11.805588722229004,-3.6945180892944336,-2.8486554622650146
1747319563110975500,4.3759755859375,12.440882682800293,-4.524229526519775,-3.0664021968841553
1747319563129240300,4.394240234375,9.401400566101074,-4.604987144470215,-4.302893161773682
1747319563147506400,4.41250634765625,7.995616912841797,-5.212165832519531,-6.1950178146362305
1747319563165773800,4.43077392578125,7.384250640869141,-4.8436713218688965,-6.838686943054199
1747319563184033500,4.449033447265625,7.583453178405762,-5.38624382019043,-6.533602237701416
1747319563202299400,4.46729931640625,7.965108394622803,-5.810371398925781,-5.818148136138916
1747319563220569300,4.4855693359375,8.24566650390625,-5.450251579284668,-5.119443893432617
1747319563238834200,4.503834228515625,8.14217758178711,-5.259424209594727,-4.774877548217773
1747319563257102000,4.52210205078125,7.735995769500732,-5.200799942016602,-4.960321426391602
1747319563275362300,4.5403623046875,7.52004337310791,-6.1465630531311035,-7.658827304840088
1747319563293631500,4.558631591796875,4.050450325012207,-6.16271448135376,-7.11565637588501
1747319563311893500,4.5768935546875,5.733202934265137,-5.248656272888184,-5.927021503448486
1747319563330163200,4.5951630859375,7.320242881774902,-5.061418056488037,-5.389832973480225
1747319563348429300,4.61342919921875,7.463213920593262,-5.027918815612793,-3.6394832134246826
1747319563366699500,4.631699462890625,6.640082836151123,-5.295316696166992,-4.13060998916626
1747319563384960800,4.649960693359375,6.234499454498291,-4.8329033851623535,-4.750949382781982
1747319563403221500,4.668221435546875,6.706483840942383,-4.7401814460754395,-5.038686275482178
1747319563421492500,4.686492431640625,8.304290771484375,-4.866403102874756,-5.539982795715332
1747319563439756300,4.70475634765625,8.68774127960205,-4.991427898406982,-4.598406791687012
1747319563458020000,4.72302001953125,7.730013370513916,-5.31984281539917,-5.266602516174316
1747319563476290000,4.7412900390625,6.988836765289307,-5.026124000549316,-4.370490550994873
1747319563494543400,4.75954345703125,7.36032247543335,-4.552345275878906,-3.5958142280578613
1747319563512815400,4.7778154296875,5.7272210121154785,-4.164707660675049,-4.308875560760498
1747319563531083500,4.79608349609375,6.985845565795898,-5.516652584075928,-6.63769006729126
1747319563549350700,4.8143505859375,5.936593055725098,-4.48414945602417,-4.1042890548706055
1747319563567618000,4.8326181640625,6.276971817016602,-4.875376224517822,-4.856233596801758
1747319563585884200,4.85088427734375,6.819544315338135,-5.742176055908203,-4.117449760437012
1747319563604142800,4.869142822265625,6.840481758117676,-4.630710124969482,-3.235694408416748
1747319563622411000,4.887410888671875,6.013163089752197,-4.36091947555542,-4.24785852432251
1747319563640681200,4.90568115234375,5.368896007537842,-6.006583213806152,-5.334199905395508
1747319563658944500,4.923944580078125,5.260620594024658,-7.013961315155029,-6.732206344604492
1747319563677213000,4.942212890625,5.069194793701172,-6.841678142547607,-5.473581790924072
1747319563695477200,4.960477294921875,5.821737289428711,-7.226324558258057,-7.321439266204834
1747319563713738200,4.97873828125,4.920839786529541,-6.08614444732666,-6.796812534332275
1747319563732006400,4.99700634765625,5.556134223937988,-5.765506267547607,-5.291129112243652
1747319563750281000,5.015281005859375,5.963512420654297,-5.814558982849121,-4.636692047119141
1747319563768532200,5.0335322265625,5.674578666687012,-6.39302396774292,-4.709074974060059
1747319563786807000,5.05180712890625,5.266602516174316,-6.39601469039917,-5.439484119415283
1747319563805071400,5.0700712890625,5.548955917358398,-6.605985164642334,-4.790431022644043
1747319563823332000,5.08833203125,4.965106964111328,-7.09711217880249,-4.593621253967285
1747319563841602800,5.106602783203125,3.4965121746063232,-6.9236321449279785,-4.231108665466309
1747319563859867400,5.124867431640625,3.733999729156494,-6.640082836151123,-5.078167915344238
1747319563878134000,5.143134033203125,4.094119548797607,-7.250850677490234,-7.23170804977417
1747319563896401000,5.16140087890625,3.7016966342926025,-8.95513916015625,-8.525029182434082
1747319563914660600,5.17966064453125,4.23948335647583,-6.93320369720459,-6.686742782592773
1747319563932926500,5.197926513671875,5.764309883117676,-4.905884742736816,-3.7022948265075684
1747319563951196400,5.216196533203125,7.733603000640869,-5.429314613342285,-5.472385406494141
1747319563969460000,5.2344599609375,6.952944278717041,-5.8343000411987305,-5.873183250427246
1747319563987725800,5.252725830078125,5.78644323348999,-6.430710792541504,-3.8626139163970947
1747319564005996000,5.27099609375,6.03529691696167,-7.031309127807617,-4.567300319671631
1747319564024254500,5.28925439453125,5.283352375030518,-6.390631198883057,-4.564309120178223
1747319564042520600,5.3075205078125,4.111467361450195,-6.599404811859131,-5.107480049133301
1747319564060791000,5.325791015625,4.214358806610107,-7.4225358963012695,-6.495915412902832
1747319564079055600,5.3440556640625,4.538586139678955,-7.5708909034729,-6.43968391418457
1747319564097322000,5.362322021484375,4.304687976837158,-6.990033149719238,-5.4143595695495605
1747319564115589000,5.380589111328125,4.267001152038574,-6.324230194091797,-4.447659015655518
1747319564133848800,5.398848876953125,5.3748779296875,-6.192026615142822,-4.478167533874512
1747319564152115000,5.417114990234375,10.73539924621582,-5.352744102478027,-4.2831525802612305
1747319564170384400,5.43538427734375,8.472386360168457,-4.60139799118042,-5.415555953979492
1747319564188649500,5.4536494140625,3.7471601963043213,-5.30129861831665,-5.884549140930176
1747319564206917600,5.471917724609375,0.16271193325519562,-8.334799766540527,-8.3629150390625
1747319564225182200,5.49018212890625,7.9860453605651855,-6.4354963302612305,-11.682358741760254
1747319564243442200,5.508442138671875,9.957133293151855,-5.2492547035217285,-4.381856441497803
1747319564261708800,5.526708740234375,10.816156387329102,-4.391427993774414,-0.3361915946006775
1747319564279976700,5.544976806640625,-0.5784648656845093,-4.923232555389404,6.378666877746582
1747319564298246100,5.56324609375,2.33180570602417,-5.873781204223633,-5.829514026641846
1747319564316511200,5.58151123046875,7.207181930541992,-6.628716945648193,-5.946762561798096
1747319564334771500,5.599771484375,10.000204086303711,-4.142574310302734,-4.284946918487549
1747319564353034200,5.6180341796875,6.752545356750488,-4.150949001312256,-4.679164886474609
1747319564371307500,5.6363076171875,5.447858810424805,-5.574678421020508,-5.003990173339844
1747319564389571800,5.65457177734375,4.205984115600586,-5.202594757080078,-3.9768712520599365
1747319564407839200,5.672839111328125,4.780859470367432,-5.000999450683594,-3.355933666229248
1747319564426105600,5.691105712890625,6.007779598236084,-5.5722856521606445,-4.464408874511719
1747319564444365800,5.70936572265625,9.103493690490723,-6.819544315338135,-9.064610481262207
1747319564462631000,5.727630859375,3.460021495819092,-7.158727169036865,-8.74636459350586
1747319564480901600,5.745901611328125,6.156134605407715,-7.013363361358643,-5.715256690979004
1747319564499166500,5.76416650390625,6.538387775421143,-5.723631858825684,-7.746763229370117
1747319564517433300,5.782433349609375,5.578267574310303,-5.330012321472168,-8.35154914855957
1747319564535700700,5.80070068359375,6.187241077423096,-5.968297958374023,-6.383452415466309
1747319564553959400,5.81895947265625,7.157530784606934,-5.91505765914917,-4.1042890548706055
1747319564572225300,5.837225341796875,8.070990562438965,-5.065007209777832,-4.999204635620117
1747319564590495700,5.855495849609375,7.966903209686279,-5.340181827545166,-5.994020938873291
1747319564608748800,5.873748779296875,6.993622303009033,-5.535795211791992,-7.216753005981445
1747319564627021600,5.892021484375,6.5491557121276855,-5.424529075622559,-7.703094482421875
1747319564645292500,5.91029248046875,6.437291145324707,-6.013163089752197,-7.536793231964111
1747319564663554000,5.928553955078125,7.3304123878479,-5.969494342803955,-7.47637414932251
1747319564681823500,5.946823486328125,6.147161483764648,-5.033302307128906,-8.715856552124023
1747319564700088600,5.965088623046875,6.372684955596924,-4.329812526702881,-5.539384365081787
1747319564718355500,5.98335546875,5.162514686584473,-3.4917263984680176,-2.245065927505493
1747319564736622600,6.00162255859375,4.449453830718994,-2.0919251441955566,-3.1172497272491455
1747319564754886400,6.019886474609375,5.768496990203857,-2.6985056400299072,-7.248457908630371
1747319564773146400,6.038146484375,4.506881237030029,-0.9690931439399719,-8.510671615600586
1747319564791419400,6.05641943359375,7.105486869812012,0.27337998151779175,-7.959724426269531
1747319564809683200,6.07468310546875,7.141977310180664,-0.2027917206287384,-9.734601020812988
1747319564827949000,6.092948974609375,7.272984504699707,-0.07477571070194244,-9.189635276794434
1747319564846216200,6.11121630859375,5.761318683624268,1.0456634759902954,-4.612165451049805
1747319564864476000,6.129475830078125,7.216753005981445,2.4299113750457764,-7.129415035247803
1747319564882742000,6.147741943359375,5.697310924530029,3.0681967735290527,-8.641080856323242
1747319564901013200,6.16601318359375,5.770890235900879,2.8013970851898193,-9.33021354675293
1747319564919276800,6.18427685546875,6.184250354766846,2.8666014671325684,-8.250452041625977
1747319564937544200,6.202544189453125,4.786243438720703,2.7876384258270264,-7.859824180603027
1747319564955810300,6.220810302734375,4.528416633605957,2.737389087677002,-5.908477306365967
1747319564974069800,6.23906982421875,9.597013473510742,2.617149829864502,-8.181658744812012
1747319564992336000,6.2573359375,6.620342254638672,3.2751760482788086,-2.6213371753692627
1747319565010606600,6.275606689453125,6.26440954208374,3.4205398559570312,-0.21954147517681122
1747319565028871000,6.293870849609375,7.042675018310547,1.85383939743042,-1.3812568187713623
1747319565047137800,6.3121376953125,5.773880958557129,0.9134600162506104,-3.1920254230499268
1747319565065404400,6.330404296875,5.43709135055542,0.46839502453804016,-3.555734395980835
1747319565083664100,6.3486640625,9.064610481262207,1.8472590446472168,-4.144967079162598
1747319565101927200,6.36692724609375,11.211570739746094,4.402793884277344,-3.1657042503356934
1747319565120201700,6.38520166015625,9.479764938354492,3.9499518871307373,-3.6837503910064697
1747319565138464800,6.40346484375,8.653044700622559,2.5148565769195557,-3.7363924980163574
1747319565156731000,6.42173095703125,8.489136695861816,3.754936933517456,-4.408775806427002
1747319565174998500,6.43999853515625,7.76470947265625,4.622933387756348,-5.1906304359436035
1747319565193258000,6.458258056640625,4.400400638580322,4.765904426574707,-6.880561351776123
1747319565211528700,6.47652880859375,2.764308452606201,3.937987804412842,-6.75374174118042
1747319565229781200,6.49478125,4.747958183288574,3.8530426025390625,-5.830710411071777
1747319565248061200,6.513061279296875,8.380263328552246,4.30169677734375,-4.967499732971191
1747319565266326800,6.531326904296875,9.76989459991455,3.867997884750366,-4.119842529296875
1747319565284586500,6.54958642578125,9.333803176879883,-0.11066804826259613,-4.201198577880859
1747319565302852600,6.5678525390625,7.8424763679504395,-1.0061819553375244,-3.3619158267974854
1747319565321124000,6.5861240234375,6.217151641845703,-0.2231307178735733,-1.8221344947814941
1747319565339386400,6.604386474609375,6.658029079437256,-3.3996028900146484,-3.7740795612335205
1747319565357654300,6.622654296875,4.570889472961426,-2.0159530639648438,-2.5764718055725098
1747319565375921200,6.640921142578125,4.1144585609436035,1.633699655532837,-3.6849467754364014
1747319565394178000,6.659177978515625,2.2606191635131836,-1.4315061569213867,-5.1152567863464355
1747319565412448800,6.67744873046875,-1.9812572002410889,-7.740781307220459,-9.251849174499512
1747319565430713600,6.695713623046875,8.498109817504883,-15.330814361572266,-12.255439758300781
1747319565448981500,6.7139814453125,12.05204963684082,-13.405190467834473,-12.55274772644043
1747319565467250200,6.732250244140625,11.72842025756836,-7.537391185760498,-13.76770305633545
1747319565485514000,6.750513916015625,7.346563816070557,-2.8875386714935303,-9.724431037902832
1747319565503780000,6.768780029296875,4.636094093322754,-5.752345561981201,-6.632904529571533
1747319565522046000,6.7870458984375,2.2301106452941895,-7.23589563369751,-4.205385684967041
1747319565540311800,6.805311767578125,3.7010984420776367,-3.3469607830047607,-2.5573291778564453
1747319565558577200,6.8235771484375,6.971488952636719,-3.972085475921631,-5.349154949188232
1747319565576842800,6.8418427734375,6.46241569519043,-3.946960926055908,-8.270193099975586
1747319565595108600,6.860108642578125,3.7633118629455566,-3.1555347442626953,-8.459226608276367
1747319565613374500,6.87837451171875,6.200999736785889,-5.208576679229736,-5.951548099517822
1747319565631639600,6.8966396484375,7.179664134979248,-1.6319050788879395,-7.723433494567871
1747319565649903600,6.914903564453125,7.3022966384887695,-2.2259232997894287,-7.322635650634766
1747319565668171300,6.933171142578125,5.315057277679443,-3.280559778213501,-6.296114444732666
1747319565686437000,6.95143701171875,2.6219353675842285,-3.3960134983062744,-6.453442573547363
1747319565704702500,6.969702392578125,3.8739798069000244,-3.573082447052002,-7.465606689453125
1747319565722968300,6.98796826171875,4.8233323097229,-3.1591241359710693,-6.543771743774414
1747319565741234200,7.006234130859375,5.296513080596924,-3.7698919773101807,-7.153343200683594
1747319565759499800,7.024499755859375,5.209773063659668,-3.641875982284546,-7.793423175811768
1747319565777765400,7.042765380859375,4.524229526519775,-3.776472330093384,-8.696115493774414
1747319565796031000,7.061031005859375,3.9768712520599365,-3.1615169048309326,-9.004789352416992
1747319565814296800,7.079296875,3.8709888458251953,-2.7565317153930664,-8.014161109924316
1747319565832562400,7.0975625,3.995415687561035,-2.4915266036987305,-8.353941917419434
1747319565850828000,7.115828125,4.865206718444824,-2.524427890777588,-9.795019149780273
1747319565869093400,7.13409326171875,4.402793884277344,-3.10109806060791,-8.637491226196289
1747319565887359700,7.15235986328125,4.501497745513916,-3.1441688537597656,-7.3848490715026855
1747319565905625300,7.170625244140625,4.5445685386657715,-3.2578279972076416,-7.050451755523682
1747319565923890700,7.188890625,4.237090587615967,-3.218944549560547,-7.9250288009643555
1747319565942156800,7.20715673828125,4.508676052093506,-2.94975209236145,-8.446065902709961
1747319565960422400,7.22542236328125,4.820341110229492,-3.5359935760498047,-8.897112846374512
1747319565978688300,7.243688232421875,4.332205295562744,-3.5808591842651367,-9.398408889770508
1747319565996953300,7.261953369140625,4.048057556152344,-3.171088218688965,-9.143573760986328
1747319566015219500,7.280219482421875,4.165306091308594,-2.5256242752075195,-9.028717994689941
1747319566033484800,7.29848486328125,3.6939198970794678,-2.437688112258911,-8.730812072753906
1747319566051751000,7.3167509765625,4.143770694732666,-2.3018953800201416,-8.568697929382324
1747319566070016000,7.33501611328125,4.3549370765686035,-2.0985054969787598,-8.406583786010742
1747319566088282000,7.3532822265625,4.84187650680542,-1.1940184831619263,-9.759725570678711
1747319566106547700,7.371547607421875,3.1316065788269043,-2.373081922531128,-8.298907279968262
1747319566124813600,7.3898134765625,4.217947959899902,-2.073979139328003,-7.707880020141602
1747319566143079000,7.408078857421875,4.463810443878174,-2.578864574432373,-7.8526458740234375
1747319566161344800,7.4263447265625,4.028914928436279,-2.510669231414795,-8.315656661987305
1747319566179610400,7.4446103515625,3.9972102642059326,-1.9543378353118896,-8.486743927001953
1747319566197876500,7.46287646484375,4.091726779937744,-2.2636101245880127,-8.391629219055176
1747319566216141600,7.4811416015625,4.099503517150879,-2.6057839393615723,-8.411369323730469
1747319566234407700,7.49940771484375,4.2723846435546875,-2.3497519493103027,-8.35872745513916
1747319566252673300,7.51767333984375,4.068994998931885,-1.9214365482330322,-8.371888160705566
1747319566270939100,7.535939208984375,3.937987804412842,-1.0516455173492432,-8.667402267456055
1747319566289204500,7.55420458984375,3.0681967735290527,-1.532004714012146,-8.412566184997559
1747319566307470000,7.572469970703125,3.226123094558716,-2.957528829574585,-7.76889705657959
1747319566325736200,7.590736083984375,4.148556232452393,-3.494119167327881,-8.417351722717285
1747319566344001800,7.609001708984375,4.032504558563232,-3.3990044593811035,-9.244669914245605
1747319566362267100,7.62726708984375,3.7609190940856934,-3.074777126312256,-9.482755661010742
1747319566380533000,7.645532958984375,3.5222349166870117,-3.239881753921509,-9.315258979797363
1747319566398798600,7.663798583984375,4.101297855377197,-2.734398126602173,-9.358329772949219
1747319566417064700,7.682064697265625,3.239283561706543,-2.5591237545013428,-8.930612564086914
1747319566435328500,7.70032861328125,3.583850145339966,-2.5465614795684814,-8.57767105102539
1747319566453597000,7.718596923828125,4.18863582611084,-2.782254457473755,-8.85643482208252
1747319566471861200,7.736861328125,3.8315072059631348,-2.6045875549316406,-8.755337715148926
1747319566490127400,7.75512744140625,3.2129626274108887,-2.259422779083252,-8.538188934326172
1747319566508392200,7.77339208984375,3.1992039680480957,-2.0650060176849365,-8.4562349319458
1747319566526658300,7.791658203125,3.428316593170166,-2.0895323753356934,-8.542975425720215
1747319566544924200,7.809924072265625,3.865604877471924,-2.4053850173950195,-8.883952140808105
1747319566563190300,7.828190185546875,4.154538154602051,-2.8103702068328857,-8.947361946105957
1747319566581455000,7.846455078125,3.3583266735076904,-2.706880569458008,-8.787641525268555
1747319566599721200,7.86472119140625,3.50129771232605,-2.7361927032470703,-8.821739196777344
1747319566617986800,7.88298681640625,3.73459792137146,-2.713460922241211,-9.017950057983398
1747319566636253000,7.9012529296875,3.5497524738311768,-2.6697919368743896,-8.773882865905762
1747319566654510800,7.9195107421875,3.178266763687134,-2.6297121047973633,-8.356932640075684
1747319566672784100,7.9377841796875,3.3577284812927246,-2.4508485794067383,-9.44746208190918
1747319566691049700,7.9560498046875,3.331407308578491,-2.2271196842193604,-8.944969177246094
1747319566709315000,7.974315185546875,4.067200183868408,-2.306680917739868,-8.578269004821777
1747319566727569000,7.99256884765625,4.1419758796691895,-2.8863422870635986,-8.359326362609863
1747319566745846500,8.010846435546876,3.4396824836730957,-2.688336133956909,-8.70209789276123
1747319566773246500,8.03824658203125,3.387040376663208,-2.4981069564819336,-9.1986083984375
1747319566791511000,8.056510986328124,3.472583770751953,-2.717050075531006,-8.879166603088379
1747319566809778000,8.07477783203125,2.9868409633636475,-3.1034910678863525,-7.850253105163574
1747319566828042200,8.093042236328126,3.166900873184204,-3.3613176345825195,-7.994420528411865
1747319566846309000,8.11130908203125,3.208176851272583,-3.053241729736328,-9.189635276794434
1747319566864573700,8.12957373046875,3.180659532546997,-2.3647069931030273,-9.748359680175781
1747319566882840300,8.14784033203125,2.6141586303710938,-2.4424736499786377,-8.991629600524902
1747319566901105000,8.16610498046875,2.4335005283355713,-2.8354947566986084,-8.126026153564453
1747319566919371800,8.184371826171875,3.0215368270874023,-3.555734395980835,-8.587242126464844
1747319566937636400,8.20263623046875,3.2829527854919434,-3.404986619949341,-9.08973503112793
1747319566955903200,8.2209033203125,3.1178479194641113,-3.2709884643554688,-8.673383712768555
1747319566974164700,8.239164794921875,2.754138946533203,-3.4642090797424316,-8.792427062988281
1747319566992437500,8.2574375,3.0311081409454346,-3.3607194423675537,-8.773882865905762
1747319567010699300,8.27569921875,2.884547710418701,-3.1417760848999023,-8.62014389038086
1747319567028966000,8.2939658203125,3.0035905838012695,-3.1040892601013184,-8.691927909851074
1747319567047230500,8.31223046875,2.9940192699432373,-3.1657042503356934,-8.663214683532715
1747319567065497000,8.3304970703125,2.702693223953247,-3.1645078659057617,-8.743971824645996
1747319567083762000,8.348761962890626,2.706880569458008,-3.1788649559020996,-8.854042053222656
1747319567102028500,8.367028564453125,2.9413771629333496,-3.2416765689849854,-8.49571704864502
1747319567120293000,8.385293212890625,3.218944549560547,-3.257229804992676,-8.329415321350098
1747319567138560000,8.40356005859375,3.4157543182373047,-2.892324447631836,-8.35274600982666
1747319567156824300,8.42182421875,4.048057556152344,-3.204587697982788,-8.924032211303711
1747319567175091200,8.44009130859375,3.0041887760162354,-3.0185458660125732,-8.749356269836426
1747319567193344800,8.4583447265625,3.2715866565704346,-2.9389843940734863,-8.726025581359863
1747319567211622700,8.47662255859375,3.0376882553100586,-3.1232316493988037,-8.428717613220215
1747319567229886000,8.494885986328125,3.047259569168091,-3.0664021968841553,-8.58185863494873
1747319567248154000,8.513154052734375,3.257229804992676,-3.10528564453125,-8.472386360168457
1747319567266418400,8.53141845703125,3.479762315750122,-3.415156126022339,-8.707481384277344
1747319567284685600,8.549685546875,3.545564889907837,-3.477369546890259,-8.976076126098633
1747319567302949600,8.56794970703125,3.1274192333221436,-3.0239295959472656,-8.926424980163574
1747319567321216800,8.586216796875,2.974876642227173,-3.208775281906128,-8.739784240722656
1747319567339480800,8.604480712890625,3.5808591842651367,-3.5198421478271484,-8.334799766540527
1747319567357748000,8.622748046875,3.4606196880340576,-3.4438700675964355,-8.669196128845215
1747319567376012500,8.641012451171875,2.9563324451446533,-3.084946632385254,-8.658429145812988
1747319567394279400,8.659279541015625,2.98085880279541,-2.80977201461792,-8.791828155517578
1747319567412543700,8.677543701171874,3.122633457183838,-3.1381869316101074,-8.83071231842041
1747319567430810600,8.695810546875,3.0077781677246094,-3.218346357345581,-8.787641525268555
1747319567449075000,8.714074951171876,3.019144058227539,-2.8049862384796143,-8.720044136047363
1747319567467342300,8.73234228515625,3.2159535884857178,-2.606382131576538,-8.672785758972168
1747319567485606400,8.7506064453125,2.978466033935547,-2.372483730316162,-8.61894702911377
1747319567503873500,8.76887353515625,3.125624656677246,-2.472982168197632,-8.777471542358398
1747319567522138000,8.78713818359375,2.950948476791382,-2.994617462158203,-8.954540252685547
1747319567540405200,8.8054052734375,3.0801608562469482,-3.1615169048309326,-8.687142372131348
1747319567558669600,8.823669677734374,3.4229328632354736,-3.3672995567321777,-8.688339233398438
1747319567576936200,8.841936279296876,3.5377883911132812,-3.2207393646240234,-8.755337715148926
1747319567595201000,8.860200927734375,3.0442686080932617,-3.5844483375549316,-8.907880783081055
1747319567640865000,8.905864990234376,3.0143582820892334,-3.1896326541900635,-8.194819450378418
1747319567659131000,8.924130859375,3.025724172592163,-3.2614171504974365,-9.132207870483398
1747319567677396000,8.94239599609375,3.259622573852539,-3.200998544692993,-9.314062118530273
1747319567695662000,8.960662109375,3.1076784133911133,-2.9102704524993896,-9.366106033325195
1747319567713927700,8.978927734375,2.557927370071411,-3.311666488647461,-9.221938133239746
1747319567732189400,8.997189453125,4.116851329803467,-2.5154547691345215,-7.564908981323242
1747319567750458600,9.015458740234376,3.173480987548828,-1.6701902151107788,-7.9489569664001465
1747319567768718800,9.03371875,2.555534601211548,-2.389233350753784,-7.795815944671631
1747319567796124200,9.061124267578125,3.799204111099243,-3.321835994720459,-9.071788787841797
1747319567814388700,9.079388671875,3.077768087387085,-3.888935089111328,-10.256834030151367
1747319567832656000,9.09765576171875,3.809971809387207,-2.6147570610046387,-9.668798446655273
1747319567850920400,9.11592041015625,4.178466320037842,-3.0526435375213623,-8.766105651855469
1747319567869187000,9.13418701171875,3.204587697982788,-3.257229804992676,-8.252845764160156
1747319567887451600,9.15245166015625,2.9048867225646973,-2.210369825363159,-7.776673793792725
1747319567905718500,9.170718505859375,2.5776681900024414,-1.3489537239074707,-8.27258586883545
1747319567923983000,9.188983154296874,3.059821844100952,-1.6845471858978271,-9.45045280456543
1747319567942249700,9.207249755859374,4.880760192871094,-2.7188446521759033,-9.040083885192871
1747319567960514300,9.225514404296876,4.256233215332031,-2.5639095306396484,-8.94257640838623
1747319567978781200,9.24378125,3.184846878051758,-2.221137523651123,-8.380263328552246
1747319567997045500,9.26204541015625,3.9391841888427734,-2.30069899559021,-8.295916557312012
1747319568015312400,9.2803125,3.7986059188842773,-2.4670002460479736,-8.692526817321777
1747319568033577200,9.2985771484375,3.733999729156494,-2.1672990322113037,-8.429315567016602
1747319568051843800,9.31684375,3.8530426025390625,-2.0297117233276367,-8.649456024169922
1747319568070108400,9.3351083984375,4.06540584564209,-2.3162522315979004,-9.209376335144043
1747319568088375300,9.353375244140626,4.098905086517334,-2.373081922531128,-9.080761909484863
1747319568106639400,9.371639404296875,3.407379388809204,-2.194218397140503,-9.145966529846191
1747319568124906500,9.389906494140625,3.4642090797424316,-2.4227328300476074,-8.888139724731445
1747319568143171000,9.408171142578125,3.6119658946990967,-2.779263496398926,-8.511270523071289
1747319568161437700,9.426437744140625,3.9571304321289062,-2.633301258087158,-8.0955171585083
1747319568179702300,9.444702392578124,4.281357765197754,-2.554338216781616,-8.498109817504883
1747319568197969200,9.46296923828125,4.064209461212158,-2.3395824432373047,-7.774878978729248
1747319568216233700,9.481233642578125,3.6747772693634033,-2.6039891242980957,-8.443673133850098
1747319568234500600,9.49950048828125,3.473181962966919,-2.3371894359588623,-9.246464729309082
1747319568252765200,9.51776513671875,2.87198543548584,-2.3958137035369873,-8.973084449768066
1747319568271019500,9.53601953125,3.5605201721191406,-2.2755744457244873,-8.883354187011719
1747319568289296400,9.55429638671875,4.214358806610107,-2.459223508834839,-8.612366676330566
1747319568307557000,9.57255712890625,3.5605201721191406,-2.2331018447875977,-8.974281311035156
1747319568325827800,9.590827880859376,3.47019100189209,-2.15653133392334,-8.830113410949707
1747319568344094200,9.60909423828125,3.6161532402038574,-2.5232315063476562,-9.103493690490723
1747319568362359000,9.627359130859375,3.469592809677124,-2.18045973777771,-9.169894218444824
1747319568380625700,9.645625732421875,3.9008991718292236,-1.949552297592163,-8.816354751586914
1747319568398890500,9.663890380859375,4.339384078979492,-2.606980323791504,-8.096115112304688
1747319568417156900,9.682156982421875,4.095315933227539,-2.2259232997894287,-8.793622970581055
1747319568435410200,9.70041015625,3.5754752159118652,-2.1996021270751953,-8.768498420715332
1747319568453688600,9.7186884765625,3.300898790359497,-2.7493531703948975,-8.758927345275879
1747319568471953200,9.736953125,3.2967114448547363,-2.706880569458008,-8.658429145812988
1747319568490219800,9.7552197265625,3.7010984420776367,-2.3234307765960693,-8.012965202331543
1747319568508484400,9.773484375,2.5178475379943848,-2.6937201023101807,-9.049057006835938
1747319568526751000,9.7917509765625,2.00518536567688,-1.8221344947814941,-9.247661590576172
1747319568545015800,9.810015869140624,3.7746777534484863,-2.9078776836395264,-8.081160545349121
1747319568563282700,9.82828271484375,4.380061626434326,-2.7020950317382812,-8.737391471862793
1747319568581547300,9.84654736328125,3.5946178436279297,-2.8462624549865723,-9.573084831237793
1747319568599814100,9.864814208984376,3.685544967651367,-2.7224340438842773,-7.8795647621154785
1747319568618078200,9.883078125,3.102294445037842,-2.311466693878174,-8.748159408569336
1747319568636345000,9.901344970703125,3.6909289360046387,-2.0859432220458984,-8.557929992675781
1747319568654610000,9.91960986328125,3.6526436805725098,-2.3186452388763428,-8.233104705810547
1747319568672876500,9.93787646484375,3.5706896781921387,-2.5178475379943848,-8.213961601257324
1747319568691141000,9.95614111328125,3.704089403152466,-2.475374937057495,-8.319246292114258
1747319568709407500,9.974407470703126,3.704089403152466,-3.046063184738159,-9.45882797241211
1747319568727672600,9.992672607421875,4.061816215515137,-1.7653049230575562,-9.515059471130371
1747319568745939200,10.010939208984375,4.826323509216309,-2.015354871749878,-8.871390342712402
1747319568764203800,10.029203857421875,3.597010612487793,-1.9764715433120728,-8.160721778869629
1747319568782470700,10.047470703125,3.951746702194214,-2.8187451362609863,-8.162516593933105
1747319568800735200,10.0657353515625,3.7363924980163574,-2.290529489517212,-9.036494255065918
1747319568819001900,10.084001953125,4.0456647872924805,-3.346362352371216,-7.823931694030762
1747319568837266400,10.102266357421875,4.010969161987305,-1.1288141012191772,-10.030712127685547
1747319568855533600,10.120533447265625,4.170690059661865,-1.1670992374420166,-8.944969177246094
1747319568873797600,10.138797607421875,3.772883176803589,-2.3186452388763428,-7.798209190368652
1747319568892064800,10.157064697265625,3.5084762573242188,-2.479562520980835,-8.26660442352295
1747319568910329300,10.175329345703124,4.01037073135376,-2.3437697887420654,-8.315058708190918
1747319568928596000,10.193595947265624,4.42612361907959,-2.1230318546295166,-8.497511863708496
1747319568946860500,10.211860595703126,4.209573268890381,-2.6536402702331543,-8.431110382080078
1747319568965127400,10.23012744140625,3.634697675704956,-2.5800609588623047,-9.299705505371094
1747319568983391700,10.248391845703125,3.6993038654327393,-2.1954147815704346,-8.935996055603027
1747319569001658600,10.26665869140625,3.944568157196045,-1.9160526990890503,-8.496315002441406
1747319569019923500,10.28492333984375,3.9589250087738037,-2.011167526245117,-8.486743927001953
1747319569038189800,10.30318994140625,3.924229145050049,-2.3437697887420654,-8.429914474487305
1747319569056454700,10.32145458984375,4.051646709442139,-2.458625316619873,-8.793622970581055
1747319569074721500,10.339721435546876,4.219144344329834,-2.245664119720459,-8.937192916870117
1747319569092984600,10.357984619140625,4.2006001472473145,-2.283350944519043,-8.564510345458984
1747319569111254000,10.37625390625,3.995415687561035,-2.3443679809570312,-8.597412109375
1747319569129517300,10.394517333984375,3.8291144371032715,-1.384247899055481,-9.66221809387207
1747319569147784000,10.412783935546875,4.0319061279296875,-1.2281162738800049,-9.021539688110352
1747319569166048300,10.43104833984375,4.171886444091797,-2.9904301166534424,-7.565506935119629
1747319569184315100,10.449315185546874,3.635295867919922,-2.888735055923462,-8.578269004821777
1747319569202579700,10.467579833984376,4.214358806610107,-2.26959228515625,-8.956335067749023
1747319569220846600,10.4858466796875,3.6400814056396484,-1.211964726448059,-9.3457670211792
1747319569239111200,10.504111083984375,3.5222349166870117,-1.9896320104599,-7.581658363342285
1747319569257378000,10.5223779296875,3.671786308288574,-2.252244234085083,-8.371888160705566
1747319569275642400,10.540642333984374,4.046861171722412,-2.6009981632232666,-8.674580574035645
1747319569293909500,10.558909423828124,3.731606960296631,-2.438286304473877,-9.008378982543945
1747319569312173600,10.577173583984376,3.4642090797424316,-2.465205430984497,-8.902496337890625
1747319569330440700,10.595440673828126,3.7088751792907715,-2.152942180633545,-8.811569213867188
1747319569348705000,10.613705078125,3.6460635662078857,-2.3569302558898926,-8.916853904724121
1747319569366972000,10.631971923828125,3.4301111698150635,-2.531606435775757,-9.012566566467285
1747319569385236200,10.650236328125,3.497708559036255,-2.4083759784698486,-8.94556713104248
1747319569403503400,10.66850341796875,3.6089746952056885,-2.0859432220458984,-8.868997573852539
1747319569421767700,10.686767578125,3.366701364517212,-1.8376877307891846,-8.819944381713867
1747319569440034600,10.70503466796875,3.2338998317718506,-1.6091731786727905,-8.891130447387695
1747319569458299000,10.723298828125,3.3272199630737305,-2.122433662414551,-8.911469459533691
1747319569476566000,10.74156591796875,3.435495138168335,-2.3324038982391357,-9.083752632141113
1747319569494830300,10.759830322265625,3.555734395980835,-2.1475582122802734,-9.05982494354248
1747319569513097500,10.778097412109375,3.214757204055786,-1.7700905799865723,-8.556734085083008
1747319569531361500,10.796361572265624,3.171088218688965,-1.8035900592803955,-8.7236328125
1747319569549628700,10.814628662109374,3.2691938877105713,-2.345564365386963,-8.743971824645996
1747319569567893000,10.83289306640625,3.8225340843200684,-2.2342982292175293,-9.203991889953613
1747319569586159900,10.851159912109376,3.7094733715057373,-1.8867406845092773,-9.112466812133789
1747319569604424000,10.869423828125,3.2859437465667725,-1.770688772201538,-8.81515884399414
1747319569622691300,10.88769140625,3.47019100189209,-2.15653133392334,-8.830113410949707
1747319569640955600,10.90595556640625,3.6323046684265137,-2.237887382507324,-8.94556713104248
1747319569659222500,10.924222412109375,3.384049415588379,-2.1415762901306152,-8.98803997039795
1747319569677487400,10.9424873046875,3.3750762939453125,-2.0751755237579346,-8.892327308654785
1747319569695754000,10.96075390625,3.4085757732391357,-2.1134605407714844,-8.86361312866211
1747319569714018600,10.9790185546875,3.3990044593811035,-2.0895323753356934,-8.911469459533691
1747319569732285400,10.997285400390625,3.4139597415924072,-1.975873351097107,-8.868398666381836
1747319569750549800,11.0155498046875,3.3571300506591797,-1.8945173025131226,-8.800801277160645
1747319569768816600,11.033816650390625,3.3714871406555176,-1.8664016723632812,-8.738588333129883
1747319569787081200,11.052081298828124,3.61017107963562,-1.8580267429351807,-8.758329391479492
1747319569805347800,11.070347900390624,3.73459792137146,-1.7730815410614014,-8.787042617797852
1747319569823612400,11.0886123046875,3.596412420272827,-1.7150555849075317,-8.758329391479492
1747319569841879300,11.10687939453125,3.524627685546875,-1.705484390258789,-8.858229637145996
1747319569860143600,11.1251435546875,3.4917263984680176,-1.5912270545959473,-8.901300430297852
1747319569878410500,11.143410400390625,3.463012456893921,-1.6528422832489014,-8.767302513122559
1747319569896675000,11.161675048828124,3.4719855785369873,-1.7383856773376465,-8.882157325744629
1747319569914942000,11.17994189453125,3.3714871406555176,-1.7096717357635498,-8.901300430297852
1747319569933206300,11.198206298828126,3.424727439880371,-1.913659930229187,-8.466404914855957
1747319569951473200,11.21647314453125,3.5886356830596924,-2.213959217071533,-9.050851821899414
1747319569969737500,11.234737548828125,3.6113674640655518,-2.2809581756591797,-9.567103385925293
1747319569988004400,11.25300439453125,3.373879909515381,-2.0470597743988037,-9.432506561279297
1747319570006269200,11.271269287109375,3.040081262588501,-2.0452651977539062,-9.192625999450684
1747319570024535800,11.289535888671875,2.964108943939209,-2.0781664848327637,-9.077771186828613
1747319570042800000,11.307800048828126,3.0592236518859863,-2.1164517402648926,-9.130413055419922
1747319570061067000,11.32606689453125,2.9970104694366455,-2.035693883895874,-9.30748176574707
1747319570079331800,11.344331787109375,2.7870402336120605,-1.9680966138839722,-9.378668785095215
1747319570097599500,11.362599609375,2.6727828979492188,-1.8729819059371948,-9.512067794799805
1747319570115861800,11.38086181640625,2.659024238586426,-1.6444673538208008,-9.477970123291016
1747319570134127400,11.39912744140625,2.6213371753692627,-1.6869399547576904,-9.239286422729492
1747319570152396800,11.417396728515625,2.6123640537261963,-1.5774682760238647,-9.219545364379883
1747319570170658600,11.435658447265626,2.6608188152313232,-1.5397813320159912,-9.014361381530762
1747319570188928000,11.453927978515624,2.861815929412842,-1.3555340766906738,-9.162715911865234
1747319570207191800,11.47219189453125,2.9898319244384766,-1.1617153882980347,-9.674181938171387
1747319570225456600,11.49045654296875,2.775076150894165,-0.9996016621589661,-10.066006660461426
1747319570243723500,11.5087236328125,2.431705951690674,-1.0211371183395386,-9.716055870056152
1747319570261988400,11.52698828125,2.2408783435821533,-1.2813565731048584,-9.30449104309082
1747319570280255000,11.5452548828125,2.2265214920043945,-1.7132610082626343,-8.61176872253418
1747319570298519600,11.56351953125,2.4598217010498047,-1.800000786781311,-8.846863746643066
1747319570316786400,11.581786376953126,2.693121910095215,-1.677966833114624,-9.186644554138184
1747319570335051000,11.600051025390625,2.4873390197753906,-1.5343974828720093,-9.573084831237793
1747319570353317600,11.618317626953125,2.335394859313965,-1.4057832956314087,-9.625128746032715
1747319570371582000,11.63658203125,2.4885356426239014,-1.28255295753479,-9.443872451782227
1747319570389851400,11.654851318359375,2.4323041439056396,-1.4297115802764893,-9.023334503173828
1747319570408113200,11.673113037109376,2.2121646404266357,-1.6139588356018066,-8.831310272216797
1747319570426369800,11.691369873046876,2.2504496574401855,-1.5708880424499512,-8.95095157623291
1747319570444644600,11.70964453125,2.3401806354522705,-1.6289139986038208,-9.152546882629395
1747319570462911000,11.727910888671875,2.3539392948150635,-1.6713865995407104,-9.376873970031738
1747319570481176000,11.746176025390625,2.492722988128662,-1.648654818534851,-9.305686950683594
1747319570499442400,11.7644423828125,2.7080769538879395,-1.6307085752487183,-9.119645118713379
1747319570517707300,11.782707275390624,2.789433002471924,-1.5595221519470215,-9.138788223266602
1747319570535974000,11.800973876953124,2.789433002471924,-1.441077470779419,-9.196215629577637
1747319570554238500,11.819238525390626,2.7517459392547607,-1.4219348430633545,-9.181859016418457
1747319570572505000,11.837505126953126,2.5986053943634033,-1.430309772491455,-9.157332420349121
1747319570590770000,11.85577001953125,2.7427730560302734,-1.4452649354934692,-8.918647766113281
1747319570609036300,11.874036376953125,3.1244282722473145,-1.4662020206451416,-8.81396198272705
1747319570627301000,11.892301025390625,3.5060834884643555,-1.5720844268798828,-8.93958568572998
1747319570645567700,11.910567626953124,3.524627685546875,-1.5912270545959473,-9.06401252746582
1747319570663832600,11.92883251953125,3.204587697982788,-1.5140584707260132,-9.120243072509766
1747319570682099200,11.94709912109375,3.032304525375366,-1.6175481081008911,-9.125029563903809
1747319570700364000,11.965364013671875,3.466601848602295,-1.5248262882232666,-9.355338096618652
1747319570718630700,11.983630615234375,3.7537405490875244,-1.4835500717163086,-9.293723106384277
1747319570736895200,12.001895263671875,3.604189157485962,-1.6917256116867065,-9.494720458984375
1747319570755162000,12.020162109375,3.2691938877105713,-1.8993029594421387,-9.470193862915039
1747319570773426400,12.038426513671874,3.046063184738159,-1.812563180923462,-9.182456970214844
1747319570791693300,12.056693359375,2.994617462158203,-1.6462619304656982,-8.971888542175293
1747319570809957600,12.07495751953125,3.0855448246002197,-1.5607185363769531,-8.93838882446289
1747319570828224500,12.093224609375,3.104687452316284,-1.6085749864578247,-8.995817184448242
1747319570846488800,12.11148876953125,3.0993034839630127,-1.7365909814834595,-9.068199157714844
1747319570864755700,12.129755615234375,3.036491870880127,-1.7886348962783813,-9.125029563903809
1747319570883020500,12.1480205078125,2.908475875854492,-1.7024933099746704,-9.067601203918457
1747319570901287200,12.166287109375,2.837887763977051,-1.5690934658050537,-8.766105651855469
1747319570919551700,12.1845517578125,3.2608189582824707,-1.8041882514953613,-9.063413619995117
1747319570937818400,12.202818359375,3.6610186100006104,-1.8771693706512451,-9.366106033325195
1747319570956083000,12.2210830078125,3.623929977416992,-1.6821542978286743,-9.375079154968262
1747319570974349800,12.239349853515625,3.3379876613616943,-1.6145570278167725,-9.149555206298828
1747319570992614100,12.2576142578125,3.180659532546997,-1.6420745849609375,-9.025128364562988
1747319571010880800,12.275880859375,3.257229804992676,-1.6564314365386963,-8.915059089660645
1747319571029145300,12.294145263671876,3.3439695835113525,-1.633101463317871,-8.714659690856934
1747319571047412200,12.312412109375,3.238685369491577,-1.6612170934677124,-8.761918067932129
1747319571065676800,12.3306767578125,2.8803603649139404,-1.5649060010910034,-8.971888542175293
1747319571083943700,12.348943603515625,2.4747767448425293,-1.4536397457122803,-9.123832702636719
1747319571102208000,12.3672080078125,2.316850423812866,-1.4530415534973145,-9.137591361999512
1747319571120475000,12.385474853515625,2.3784656524658203,-1.4386845827102661,-9.343374252319336
1747319571138739500,12.403739501953124,2.4257240295410156,-1.415354609489441,-9.56351375579834
1747319571157006000,12.422006103515624,2.3306093215942383,-1.296311616897583,-9.754341125488281
1747319571175267800,12.440267822265625,2.2025933265686035,-1.043868899345398,-9.815957069396973
1747319571193540400,12.458540283203124,2.1846470832824707,-0.8015955686569214,-9.738788604736328
1747319571211798800,12.476798828125,2.251646041870117,-0.768694281578064,-9.576674461364746
1747319571230071800,12.49507177734375,2.1846470832824707,-0.8919246196746826,-9.538389205932617
1747319571248333000,12.5133330078125,2.097907304763794,-1.057627558708191,-9.619745254516602
1747319571266600200,12.53160009765625,2.111665964126587,-1.1240284442901611,-9.605388641357422
1747319571284864500,12.549864501953126,1.8681962490081787,-1.4267204999923706,-9.284749984741211
1747319571303131400,12.56813134765625,1.8915263414382935,-1.4368900060653687,-9.519247055053711
1747319571321396000,12.58639599609375,1.9298114776611328,-1.4889339208602905,-9.314062118530273
1747319571339662600,12.60466259765625,1.9728822708129883,-1.3752747774124146,-9.390034675598145
1747319571357927000,12.622927001953125,1.8867406845092773,-1.6408780813217163,-9.184849739074707
1747319571376193800,12.64119384765625,1.9812572002410889,-1.5798611640930176,-9.596415519714355
1747319571394458000,12.6594580078125,1.8574285507202148,-1.5930216312408447,-9.385248184204102
1747319571412725200,12.677725341796876,1.8574285507202148,-1.6217355728149414,-9.418747901916504
1747319571430989600,12.695989501953125,1.8957136869430542,-1.7072789669036865,-9.357132911682129
1747319571449256700,12.714256591796875,2.0195422172546387,-1.7030915021896362,-9.395418167114258
1747319571467520500,12.7325205078125,2.091326951980591,-1.5990036725997925,-9.54377269744873
1747319571485788000,12.750787841796875,2.072782516479492,-1.399801254272461,-9.562915802001953
1747319571504040000,12.7690400390625,2.025524377822876,-1.3280165195465088,-9.54796028137207
1747319571522319000,12.787319091796874,2.001596212387085,-1.332802176475525,-9.591031074523926
1747319571540583200,12.805583251953125,1.9782661199569702,-1.2376874685287476,-9.524032592773438
1747319571558850000,12.82385009765625,1.9878374338150024,-1.1569297313690186,-9.46181869506836
1747319571577114400,12.8421142578125,1.9884356260299683,-1.1330015659332275,-9.380462646484375
1747319571595381500,12.860381591796875,2.1122641563415527,-1.2239288091659546,-9.399605751037598
1747319571613645800,12.878645751953124,2.2121646404266357,-1.2717852592468262,-9.361918449401855
1747319571631912700,12.89691259765625,2.231307029724121,-1.3052847385406494,-9.33320426940918
1747319571650164200,12.915164306640625,2.2785654067993164,-1.3196417093276978,-9.347561836242676
1747319571668445400,12.933445556640624,2.2743778228759766,-1.2867404222488403,-9.352347373962402
1747319571686708500,12.95170849609375,2.293520450592041,-1.210768222808838,-9.352347373962402
1747319571704975000,12.96997509765625,2.365903377532959,-1.1443674564361572,-9.328418731689453
1747319571723239400,12.988239501953124,2.427518606185913,-1.1682956218719482,-9.271589279174805
1747319571741506600,13.006506591796875,2.441875457763672,-1.2113664150238037,-9.266803741455078
1747319571759771100,13.024771240234376,2.4939193725585938,-1.2352946996688843,-9.305088996887207
1747319571778037800,13.043037841796876,2.6039891242980957,-1.231107234954834,-9.309874534606934
1747319571796302600,13.061302490234375,2.661417007446289,-1.23589289188385,-9.315258979797363
1747319571814569200,13.0795693359375,2.709273338317871,-1.2454642057418823,-9.257830619812012
1747319571832833800,13.097833740234375,2.8139593601226807,-1.3268201351165771,-9.248259544372559
1747319571851100200,13.11610009765625,2.9521448612213135,-1.3752747774124146,-9.258428573608398
1747319571869365000,13.134364990234374,3.056830883026123,-1.41834557056427,-9.244071960449219
1747319571887631600,13.152631591796874,2.999403238296509,-1.456032633781433,-9.272786140441895
1747319571905896200,13.170896240234375,2.8462624549865723,-1.46500563621521,-9.363713264465332
1747319571924162800,13.189162841796875,2.751147747039795,-1.4267204999923706,-9.377471923828125
1747319571942427400,13.207427490234375,2.6602206230163574,-1.435693621635437,-9.324830055236816
1747319571960694300,13.2256943359375,2.5603201389312744,-1.425524115562439,-9.276973724365234
1747319571978958600,13.24395849609375,2.555534601211548,-1.3920245170593262,-9.281759262084961
1747319571997225500,13.2622255859375,2.6560330390930176,-1.350150227546692,-9.233902931213379
1747319572015490300,13.280490234375,2.7278177738189697,-1.4213366508483887,-9.248259544372559
1747319572033756700,13.298756591796876,2.7798616886138916,-1.4500504732131958,-9.311071395874023
1747319572052021200,13.317021240234375,2.789433002471924,-1.4171491861343384,-9.343972206115723
1747319572070288100,13.3352880859375,2.7463622093200684,-1.3980066776275635,-9.4061861038208
1747319572088552400,13.353552490234375,2.651247501373291,-1.3214362859725952,-9.439684867858887
1747319572106819000,13.371819091796874,2.5082762241363525,-1.2592228651046753,-9.419944763183594
1747319572125084000,13.390083984375,2.417349100112915,-1.28255295753479,-9.391230583190918
1747319572143350500,13.4083505859375,2.3461625576019287,-1.272383451461792,-9.361918449401855
1747319572161615000,13.426614990234375,2.3365912437438965,-1.2628121376037598,-9.328418731689453
1747319572179881700,13.4448818359375,2.4508485794067383,-1.28255295753479,-9.295517921447754
1747319572198134300,13.46313427734375,2.551347255706787,-1.2831511497497559,-9.21416187286377
1747319572216413400,13.481413330078125,2.6470601558685303,-1.316650629043579,-9.166903495788574
1747319572234665700,13.499665771484375,2.737389087677002,-1.350150227546692,-9.205188751220703
1747319572252944400,13.5179443359375,2.799602508544922,-1.3268201351165771,-9.214759826660156
1747319572271209000,13.536208984375,2.861815929412842,-1.3178470134735107,-9.277571678161621
1747319572289472300,13.55447216796875,2.9377880096435547,-1.2993026971817017,-9.272786140441895
1747319572307743200,13.5727431640625,2.9623143672943115,-1.2945170402526855,-9.229715347290039
1747319572326007000,13.591007080078125,2.9048867225646973,-1.327418327331543,-9.229715347290039
1747319572344271600,13.609271728515624,2.847458839416504,-1.308275818824768,-9.257830619812012
1747319572362538000,13.6275380859375,2.794816732406616,-1.2556337118148804,-9.243474006652832
1747319572380802800,13.645802734375,2.7427730560302734,-1.2604193687438965,-9.243474006652832
1747319572399061800,13.664061767578126,2.68953275680542,-1.293320655822754,-9.262616157531738
1747319572417334000,13.682333984375,2.6183462142944336,-1.2831511497497559,-9.291330337524414
1747319572435600600,13.7006005859375,2.5944180488586426,-1.292722463607788,-9.333803176879883
1747319572453865200,13.718865234375,2.6039891242980957,-1.2783654928207397,-9.31466007232666
1747319572472131800,13.7371318359375,2.5848467350006104,-1.292722463607788,-9.319445610046387
1747319572490396400,13.755396484375,2.6177480220794678,-1.3214362859725952,-9.329615592956543
1747319572508650200,13.773650146484375,2.5800609588623047,-1.3022937774658203,-9.333803176879883
1747319572526927600,13.791927734375,2.4699912071228027,-1.2681959867477417,-9.348159790039062
1747319572545194000,13.810194091796875,2.479562520980835,-1.2921242713928223,-9.33858871459961
1747319572563458800,13.828458740234375,2.703291416168213,-1.3980066776275635,-9.33440113067627
1747319572581725400,13.846725341796875,2.932404041290283,-1.4464613199234009,-9.325428009033203
1747319572599990300,13.864990234375,2.7804598808288574,-1.317248821258545,-9.22433090209961
1747319572618257000,13.8832568359375,2.627917528152466,-1.2831511497497559,-9.305686950683594
1747319572636521500,13.901521484375,2.6368906497955322,-1.3262219429016113,-9.367900848388672
1747319572654787800,13.919787841796875,2.6470601558685303,-1.3070793151855469,-9.300901412963867
1747319572673052700,13.938052734375,2.5704896450042725,-1.2831511497497559,-9.257232666015625
1747319572691319000,13.956319091796875,2.503490686416626,-1.306481122970581,-9.348159790039062
1747319572709583600,13.97458349609375,2.5609183311462402,-1.287936806678772,-9.362516403198242
1747319572727850500,13.9928505859375,2.5848467350006104,-1.2783654928207397,-9.333803176879883
1747319572746115000,14.011114990234375,2.62313175201416,-1.2598211765289307,-9.286544799804688
1747319572764381400,14.02938134765625,2.5232315063476562,-1.1976077556610107,-9.30030345916748
1747319572782646500,14.047646484375,2.217548370361328,-1.0869396924972534,-9.366703987121582
1747319572800913000,14.065912841796875,2.1744775772094727,-1.100698471069336,-9.390034675598145
1747319572819177700,14.084177734375,2.617149829864502,-1.3310075998306274,-9.496515274047852
1747319572837444600,14.102444580078124,3.070589542388916,-1.4991034269332886,-9.292527198791504
1747319572855709000,14.120708984375,3.061018466949463,-1.5607185363769531,-9.206384658813477
1747319572873975800,14.138975830078126,2.846860647201538,-1.4033905267715454,-9.253643035888672
1747319572892240100,14.157240234375,2.7810580730438232,-1.2221341133117676,-9.262616157531738
1747319572910507000,14.175507080078125,2.833101987838745,-1.2891331911087036,-9.176474571228027
1747319572928771300,14.193771240234375,2.785245656967163,-1.3980066776275635,-9.129216194152832
1747319572947038000,14.212037841796874,2.541775941848755,-1.3639088869094849,-9.223732948303223
1747319572965302800,14.230302734375,2.5561327934265137,-1.3070793151855469,-9.329017639160156
1747319572983569400,14.2485693359375,2.675175666809082,-1.3070793151855469,-9.377471923828125
1747319573001830100,14.266830078125,2.551347255706787,-1.2448660135269165,-9.295517921447754
1747319573020104200,14.285104248046874,2.294118642807007,-1.1676974296569824,-9.314062118530273
1747319573038365200,14.303365234375,2.479562520980835,-1.220937728881836,-9.434301376342773
1747319573056632000,14.321632080078125,2.909074068069458,-1.327418327331543,-9.411569595336914
1747319573074896400,14.339896484375,2.999403238296509,-1.4231312274932861,-9.272786140441895
1747319573093163000,14.3581630859375,2.8564319610595703,-1.4315061569213867,-9.268000602722168
1747319573111427600,14.376427490234375,2.770888566970825,-1.2885349988937378,-9.372686386108398
1747319573129694200,14.394694091796875,2.8241288661956787,-1.2323036193847656,-9.238688468933105
1747319573147958800,14.412958740234375,2.7188446521759033,-1.2598211765289307,-9.080761909484863
1747319573166225400,14.431225341796875,2.480160713195801,-1.28255295753479,-9.147162437438965
1747319573184490000,14.449489990234374,2.4604198932647705,-1.3160524368286133,-9.33858871459961
1747319573202756600,14.467756591796874,2.5603201389312744,-1.3782658576965332,-9.396016120910645
1747319573221021400,14.486021484375,2.6177480220794678,-1.430309772491455,-9.324830055236816
1747319573239288000,14.5042880859375,2.56510591506958,-1.3830515146255493,-9.329017639160156
1747319573257552400,14.522552490234375,2.365305185317993,-1.2346965074539185,-9.33320426940918
1747319573275819300,14.5408193359375,2.4131617546081543,-1.2251251935958862,-9.385847091674805
1747319573294084600,14.559084716796875,2.8564319610595703,-1.3698909282684326,-9.415757179260254
1747319573312349400,14.577349365234374,3.071187973022461,-1.461416482925415,-9.292527198791504
1747319573330612500,14.595612548828125,2.899502754211426,-1.4033905267715454,-9.239286422729492
1747319573348884200,14.61388427734375,2.794816732406616,-1.3028919696807861,-9.324830055236816
1747319573367145000,14.63214501953125,2.895315408706665,-1.222732424736023,-9.219545364379883
1747319573385414400,14.650414306640625,2.867199659347534,-1.2699905633926392,-9.114859580993652
1747319573403677400,14.668677490234375,2.6524438858032227,-1.2550355195999146,-9.123832702636719
1747319573421944300,14.6869443359375,2.5184457302093506,-1.2305090427398682,-9.276374816894531
1747319573440208600,14.705208740234376,2.536990165710449,-1.2783654928207397,-9.376873970031738
1747319573458475300,14.723475341796876,2.541177749633789,-1.3495519161224365,-9.352945327758789
1747319573476739800,14.74173974609375,2.5459632873535156,-1.368694543838501,-9.319445610046387
1747319573495006700,14.7600068359375,2.536990165710449,-1.2969099283218384,-9.343374252319336
1747319573513271300,14.778271240234375,2.5082762241363525,-1.220937728881836,-9.32423210144043
1747319573531537700,14.79653759765625,2.6560330390930176,-1.3022937774658203,-9.358329772949219
1747319573549802200,14.81480224609375,2.8277182579040527,-1.4033905267715454,-9.363115310668945
1747319573568069000,14.833069091796874,2.775674343109131,-1.3603196144104004,-9.272188186645508
1747319573586333200,14.851333251953125,2.7421748638153076,-1.3411771059036255,-9.276973724365234
1747319573604600600,14.8696005859375,2.909074068069458,-1.4033905267715454,-9.2919282913208
1747319573622854400,14.8878544921875,2.9282166957855225,-1.3704891204833984,-9.196215629577637
1747319573641131500,14.906131591796875,2.6662025451660156,-1.2646067142486572,-9.162117958068848
1747319573659395600,14.9243955078125,2.575275421142578,-1.2592228651046753,-9.295517921447754
1747319573677662700,14.942662841796874,2.651247501373291,-1.3310075998306274,-9.353543281555176
1747319573695927000,14.960927001953126,2.579462766647339,-1.3495519161224365,-9.305686950683594
1747319573714194000,14.97919384765625,2.513062000274658,-1.3160524368286133,-9.309874534606934
1747319573732458200,14.997458251953125,2.403590440750122,-1.215553879737854,-9.371489524841309
1747319573750725400,15.015725341796875,2.2989044189453125,-1.153340458869934,-9.352347373962402
1747319573768989400,15.033989501953124,2.4747767448425293,-1.2681959867477417,-9.400801658630371
1747319573787256600,15.052256591796874,2.751147747039795,-1.3692927360534668,-9.382257461547852
1747319573805520600,15.070520751953126,2.8181469440460205,-1.384247899055481,-9.291330337524414
1747319573823787500,15.08878759765625,2.861217737197876,-1.412961721420288,-9.272786140441895
1747319573842051600,15.107051513671875,3.0520453453063965,-1.4231312274932861,-9.296713829040527
1747319573860319000,15.125319091796875,2.919243574142456,-1.246660590171814,-9.143573760986328
1747319573878583300,15.143583251953125,2.662015199661255,-1.2023934125900269,-9.138189315795898
1747319573896850000,15.161849853515625,2.6560330390930176,-1.3310075998306274,-9.281759262084961
1747319573915114800,15.18011474609375,2.612962245941162,-1.368694543838501,-9.329615592956543
1747319573933381000,15.198381103515626,2.517249345779419,-1.3728820085525513,-9.333803176879883
1747319573951648000,15.21664794921875,2.4987051486968994,-1.3399807214736938,-9.319445610046387
1747319573969912600,15.23491259765625,2.551347255706787,-1.2975081205368042,-9.362516403198242
1747319573988177200,15.25317724609375,2.3611178398132324,-1.1820544004440308,-9.285347938537598
1747319574006433300,15.271433349609374,2.2749760150909424,-1.196411371231079,-9.347561836242676
1747319574024708000,15.2897080078125,2.6799614429473877,-1.3214362859725952,-9.44447135925293
1747319574042974700,15.307974609375,3.0424740314483643,-1.41834557056427,-9.34457015991211
1747319574061239800,15.32623974609375,2.9425735473632812,-1.4464613199234009,-9.268000602722168
1747319574079506000,15.344505859375,2.775674343109131,-1.3316057920455933,-9.33440113067627
1747319574097770800,15.362770751953125,2.74755859375,-1.1982059478759766,-9.257830619812012
1747319574116037000,15.381037109375,2.709871530532837,-1.2317054271697998,-9.128618240356445
1747319574134301700,15.3993017578125,2.651845693588257,-1.316650629043579,-9.147761344909668
1747319574152568600,15.417568603515624,2.565704107284546,-1.34476637840271,-9.290732383728027
1747319574170833000,15.4358330078125,2.541775941848755,-1.306481122970581,-9.357730865478516
1747319574189099800,15.454099853515626,2.5603201389312744,-1.3543375730514526,-9.348159790039062
1747319574207364000,15.472364013671875,2.651247501373291,-1.368694543838501,-9.281759262084961
1747319574225630700,15.490630615234375,2.7421748638153076,-1.3597214221954346,-9.305686950683594
1747319574243895300,15.508895263671874,2.785245656967163,-1.3028919696807861,-9.32004451751709
1747319574262162200,15.527162109375,2.7188446521759033,-1.2550355195999146,-9.315258979797363
1747319574280426800,15.5454267578125,2.761317253112793,-1.2885349988937378,-9.353543281555176
1747319574298693400,15.563693359375,2.8755745887756348,-1.3698909282684326,-9.301499366760254
1747319574316958200,15.581958251953125,3.0000014305114746,-1.4273186922073364,-9.248857498168945
1747319574335224800,15.600224853515625,2.8283164501190186,-1.3363914489746094,-9.19561767578125
1747319574353489000,15.618489013671875,2.5567309856414795,-1.2400803565979004,-9.195018768310547
1747319574371755800,15.636755859375,2.503490686416626,-1.2687941789627075,-9.32423210144043
1747319574390020400,15.655020263671876,2.551347255706787,-1.292722463607788,-9.319445610046387
1747319574408285000,15.673284912109375,2.4323041439056396,-1.2969099283218384,-9.32423210144043
1747319574426553300,15.69155322265625,2.403590440750122,-1.2915260791778564,-9.333803176879883
1747319574444818000,15.70981787109375,2.527418851852417,-1.287936806678772,-9.400801658630371
1747319574463082800,15.728082763671875,2.4849462509155273,-1.1922239065170288,-9.329017639160156
1747319574481349400,15.746349365234375,2.2085752487182617,-1.1102696657180786,-9.299705505371094
1747319574499614000,15.764614013671874,2.4221346378326416,-1.201795220375061,-9.44327449798584
1747319574517880600,15.782880615234374,2.89890456199646,-1.4177473783493042,-9.464211463928223
1747319574536145000,15.801144775390625,3.1375887393951416,-1.5230315923690796,-9.215956687927246
1747319574554411800,15.819411865234375,3.0520453453063965,-1.4895321130752563,-9.235098838806152
1747319574572676000,15.837676025390625,2.8809585571289062,-1.2658032178878784,-9.248259544372559
1747319574590943000,15.85594287109375,2.819343328475952,-1.1467602252960205,-9.205188751220703
1747319574609207300,15.874207275390624,2.7523441314697266,-1.2693923711776733,-9.133403778076172
1747319574627477000,15.89247705078125,2.5944180488586426,-1.368694543838501,-9.166903495788574
1747319574645738800,15.91073876953125,2.4508485794067383,-1.3872389793395996,-9.348159790039062
1747319574663992300,15.928992431640625,2.5178475379943848,-1.3256237506866455,-9.396016120910645
1747319574682269700,15.947269775390625,2.589632272720337,-1.292722463607788,-9.352945327758789
1747319574700524300,15.965524169921874,2.536990165710449,-1.292722463607788,-9.30030345916748
1747319574718801000,15.98380078125,2.2749760150909424,-1.1724830865859985,-9.280562400817871
1747319574737067500,16.002067626953124,2.3324038982391357,-1.134796142578125,-9.409774780273438
1747319574755332000,16.02033203125,2.775076150894165,-1.29810631275177,-9.482755661010742
1747319574773598700,16.0385986328125,3.1519455909729004,-1.4997016191482544,-9.287740707397461
1747319574791863300,16.05686328125,3.0753753185272217,-1.5655041933059692,-9.278169631958008
1747319574810130000,16.0751298828125,2.8761727809906006,-1.3130614757537842,-9.32004451751709
1747319574828394800,16.093394775390625,2.724228620529175,-1.1174482107162476,-9.181260108947754
1747319574846648300,16.1116484375,2.662015199661255,-1.211964726448059,-9.090332984924316
1747319574864927000,16.129927001953124,2.5609183311462402,-1.3591232299804688,-9.19561767578125
1747319574883192000,16.148192138671874,2.4364917278289795,-1.363310694694519,-9.31466007232666
1747319574901457000,16.166456787109375,2.4125633239746094,-1.3250255584716797,-9.415159225463867
1747319574919723300,16.18472314453125,2.479562520980835,-1.3208380937576294,-9.391230583190918
1747319574937988400,16.20298828125,2.4843480587005615,-1.28255295753479,-9.31466007232666
1747319574956254700,16.221254638671876,2.4987051486968994,-1.2729816436767578,-9.295517921447754
1747319574974519300,16.239519287109374,2.6470601558685303,-1.2693923711776733,-9.333803176879883
1747319574992786000,16.257785888671876,2.985046148300171,-1.389631748199463,-9.368498802185059
1747319575011050500,16.276050537109374,3.228515863418579,-1.4428720474243164,-9.287740707397461
1747319575029317400,16.2943173828125,3.009572744369507,-1.3752747774124146,-9.282357215881348
1747319575047581700,16.312581787109377,2.7810580730438232,-1.2269197702407837,-9.315258979797363
1747319575065848300,16.330848388671875,2.6668007373809814,-1.1886346340179443,-9.238089561462402
1747319575084112600,16.349112548828124,2.528017044067383,-1.2496516704559326,-9.161520004272461
1747319575102379500,16.367379638671874,2.39401912689209,-1.3250255584716797,-9.252447128295898
1747319575120643800,16.385643798828124,2.3270199298858643,-1.3244273662567139,-9.357132911682129
1747319575138911000,16.403910888671874,2.4029922485351562,-1.2921242713928223,-9.372088432312012
1747319575157175300,16.42217529296875,2.4939193725585938,-1.306481122970581,-9.33858871459961
1747319575175442000,16.44044189453125,2.551347255706787,-1.306481122970581,-9.31466007232666
1747319575193706200,16.458706298828126,2.3994028568267822,-1.158724308013916,-9.275776863098145
1747319575211973000,16.47697314453125,2.3946173191070557,-1.1300104856491089,-9.376275062561035
1747319575230237200,16.4952373046875,2.846860647201538,-1.3507484197616577,-9.463613510131836
1747319575248504000,16.513504150390624,3.2757742404937744,-1.5810575485229492,-9.30748176574707
1747319575266768600,16.5317685546875,3.2380871772766113,-1.5619150400161743,-9.249456405639648
1747319575285035300,16.55003515625,2.8283164501190186,-1.3130614757537842,-9.286544799804688
1747319575303300000,16.568300048828124,2.733201742172241,-1.160519003868103,-9.262616157531738
1747319575321566700,16.586566650390626,2.723630428314209,-1.2502498626708984,-9.133403778076172
1747319575339831000,16.6048310546875,2.5944180488586426,-1.3543375730514526,-9.138189315795898
1747319575358098000,16.623097900390626,2.365305185317993,-1.3674981594085693,-9.252447128295898
1747319575376362200,16.6413623046875,2.3700907230377197,-1.2819547653198242,-9.395418167114258
1747319575394628900,16.65962890625,2.5561327934265137,-1.2640085220336914,-9.415159225463867
1747319575412893400,16.6778935546875,2.527418851852417,-1.2831511497497559,-9.309874534606934
1747319575431160000,16.69616015625,2.2749760150909424,-1.2197413444519043,-9.266205787658691
1747319575449426000,16.714426025390626,2.33180570602417,-1.1635099649429321,-9.414560317993164
1747319575467690000,16.73268994140625,2.789433002471924,-1.2652050256729126,-9.501898765563965
1747319575485954800,16.750954833984373,3.1477582454681396,-1.461416482925415,-9.316454887390137
1747319575504223200,16.76922314453125,2.999403238296509,-1.5415760278701782,-9.239884376525879
1747319575522487000,16.787487060546876,2.7804598808288574,-1.3316057920455933,-9.33440113067627
1747319575540753700,16.805753662109375,2.6811578273773193,-1.093519926071167,-9.218947410583496
1747319575559018200,16.824018310546876,2.6428725719451904,-1.1838489770889282,-9.08554744720459
1747319575577284600,16.84228466796875,2.651247501373291,-1.4117653369903564,-9.1716890335083
1747319575595549200,16.860549072265623,2.555534601211548,-1.3968101739883423,-9.30030345916748
1747319575613816000,16.878816162109374,2.527418851852417,-1.3160524368286133,-9.367302894592285
1747319575632080100,16.897080078125,2.5704896450042725,-1.311864972114563,-9.386445045471191
1747319575650347000,16.915346923828125,2.6464617252349854,-1.368694543838501,-9.31047248840332
1747319575668611600,16.933611572265626,2.7804598808288574,-1.3884353637695312,-9.276973724365234
1747319575686878000,16.9518779296875,2.871387243270874,-1.332203984260559,-9.276973724365234
1747319575705142000,16.97014208984375,2.7188446521759033,-1.241276741027832,-9.324830055236816
1747319575723409400,16.988409423828124,2.528017044067383,-1.1736794710159302,-9.32423210144043
1747319575741670700,17.006670654296876,2.6560330390930176,-1.3070793151855469,-9.387042999267578
1747319575759940600,17.024940673828127,2.9419753551483154,-1.4841482639312744,-9.311071395874023
1747319575778204700,17.04320458984375,2.794816732406616,-1.4075778722763062,-9.19561767578125
1747319575796471600,17.061471435546874,2.5088746547698975,-1.225723385810852,-9.242876052856445
1747319575814736100,17.079736083984375,2.4849462509155273,-1.2113664150238037,-9.348159790039062
1747319575833002800,17.098002685546874,2.5944180488586426,-1.2783654928207397,-9.305088996887207
1747319575851267000,17.11626708984375,2.527418851852417,-1.3112667798995972,-9.252447128295898
1747319575869534000,17.134533935546877,2.417349100112915,-1.3728820085525513,-9.295517921447754
1747319575887798300,17.15279833984375,2.5698914527893066,-1.368694543838501,-9.415159225463867
1747319575906065200,17.171065185546876,2.475374937057495,-1.2161520719528198,-9.362516403198242
1747319575924329200,17.1893291015625,2.194218397140503,-1.153340458869934,-9.299705505371094
1747319575942596400,17.207596435546876,2.5459632873535156,-1.3160524368286133,-9.443872451782227
1747319575960860400,17.2258603515625,3.0993034839630127,-1.5278172492980957,-9.32602596282959
1747319575979127300,17.244127197265627,3.2997024059295654,-1.6145570278167725,-9.230911254882812
1747319575997391600,17.2623916015625,3.0239295959472656,-1.3704891204833984,-9.229715347290039
1747319576015658800,17.28065869140625,2.796013355255127,-1.1132607460021973,-9.257830619812012
1747319576033923000,17.298923095703124,2.7912275791168213,-1.155733346939087,-9.190832138061523
1747319576052190000,17.31718994140625,2.7140591144561768,-1.2789636850357056,-9.119047164916992
1747319576070454300,17.335454345703123,2.465803623199463,-1.3250255584716797,-9.204590797424316
1747319576088721000,17.353720947265625,2.3599212169647217,-1.339382529258728,-9.386445045471191
1747319576106985000,17.37198486328125,2.5082762241363525,-1.2873386144638062,-9.458230018615723
1747319576125251800,17.390251953125,2.451446771621704,-1.225723385810852,-9.343374252319336
1747319576143516700,17.4085166015625,2.1649062633514404,-1.186241865158081,-9.285347938537598
1747319576161783000,17.426782958984376,2.2887349128723145,-1.2340983152389526,-9.42891788482666
1747319576180048000,17.4450478515625,2.799004316329956,-1.3124631643295288,-9.477970123291016
1747319576198314500,17.463314453125,3.1142587661743164,-1.4757733345031738,-9.292527198791504
1747319576216578800,17.481578857421876,2.9659037590026855,-1.5272190570831299,-9.239286422729492
1747319576234845700,17.499845703125,2.775674343109131,-1.3076776266098022,-9.339186668395996
1747319576253110000,17.518110107421876,2.719442844390869,-1.1030912399291992,-9.209376335144043
1747319576271377000,17.536376953125,2.7284159660339355,-1.2598211765289307,-9.128618240356445
1747319576289641200,17.55464111328125,2.675175666809082,-1.430907964706421,-9.186046600341797
1747319576307907800,17.572907958984374,2.56510591506958,-1.4063814878463745,-9.31047248840332
1747319576326172400,17.59117236328125,2.551347255706787,-1.3160524368286133,-9.381659507751465
1747319576344438800,17.609438720703125,2.5848467350006104,-1.311864972114563,-9.352945327758789
1747319576362703400,17.627703369140626,2.6464617252349854,-1.3639088869094849,-9.276973724365234
1747319576380970000,17.645969970703124,2.7182464599609375,-1.3549357652664185,-9.276973724365234
1747319576399234600,17.664234619140625,2.809173822402954,-1.2939188480377197,-9.300901412963867
1747319576417501400,17.68250146484375,2.7517459392547607,-1.2460623979568481,-9.339186668395996
1747319576435765500,17.700765625,2.561516523361206,-1.2023934125900269,-9.357730865478516
1747319576454032400,17.719032470703127,2.5088746547698975,-1.2400803565979004,-9.348159790039062
1747319576472296700,17.737296630859376,2.641676187515259,-1.3549357652664185,-9.31047248840332
1747319576490561500,17.7555615234375,2.7565317153930664,-1.4267204999923706,-9.272188186645508
1747319576508829400,17.773829345703124,2.699103832244873,-1.3549357652664185,-9.267401695251465
1747319576527094300,17.79209423828125,2.6183462142944336,-1.23589289188385,-9.257232666015625
1747319576545359400,17.810359375,2.561516523361206,-1.2263215780258179,-9.262018203735352
1747319576563626000,17.8286259765625,2.6087749004364014,-1.2735798358917236,-9.276374816894531
1747319576581890300,17.846890380859374,2.613560438156128,-1.3070793151855469,-9.276374816894531
1747319576600156700,17.86515673828125,2.62313175201416,-1.3453645706176758,-9.315258979797363
1747319576618421200,17.883421142578126,2.6560330390930176,-1.3453645706176758,-9.396614074707031
1747319576636688100,17.901688232421876,2.541775941848755,-1.2305090427398682,-9.367302894592285
1747319576654952700,17.91995263671875,2.4466612339019775,-1.2065808773040771,-9.333803176879883
1747319576673219000,17.938218994140627,2.599203586578369,-1.3070793151855469,-9.357730865478516
1747319576691483600,17.956483642578124,2.8085756301879883,-1.4171491861343384,-9.358329772949219
1747319576709750000,17.97475,2.8043880462646484,-1.4123635292053223,-9.267401695251465
1747319576728014600,17.9930146484375,2.68953275680542,-1.3549357652664185,-9.300901412963867
1747319576746281500,18.011281494140626,2.6709883213043213,-1.2741780281066895,-9.305686950683594
1747319576764546000,18.029546142578123,2.661417007446289,-1.2550355195999146,-9.22433090209961
1747319576782812200,18.047812255859377,2.5848467350006104,-1.3070793151855469,-9.223732948303223
1747319576801077000,18.066076904296875,2.536990165710449,-1.34476637840271,-9.31466007232666
1747319576819330800,18.084330810546874,2.536990165710449,-1.3304094076156616,-9.367302894592285
1747319576837608400,18.1026083984375,2.6225335597991943,-1.3453645706176758,-9.339186668395996
1747319576855874300,18.120874267578124,2.6703901290893555,-1.378864049911499,-9.31047248840332
1747319576874139100,18.13913916015625,2.7278177738189697,-1.374078392982483,-9.305686950683594
1747319576892405500,18.157405517578123,2.785245656967163,-1.3268201351165771,-9.305686950683594
1747319576910670300,18.17567041015625,2.775674343109131,-1.2885349988937378,-9.305686950683594
1747319576928936700,18.193936767578126,2.7523441314697266,-1.2652050256729126,-9.286544799804688
1747319576947201500,18.212201416015624,2.6566312313079834,-1.2646067142486572,-9.272188186645508
1747319576965467600,18.230467529296874,2.5609183311462402,-1.287936806678772,-9.2859468460083
1747319576983732700,18.248732666015623,2.551347255706787,-1.3256237506866455,-9.30030345916748
1747319577001998800,18.266998779296873,2.5226333141326904,-1.3399807214736938,-9.32423210144043
1747319577020263700,18.285263671875,2.5704896450042725,-1.3399807214736938,-9.32423210144043
1747319577038530000,18.303530029296876,2.6560330390930176,-1.3453645706176758,-9.339186668395996
1747319577056795000,18.321794921875,2.713460922241211,-1.3645070791244507,-9.324830055236816
1747319577075061500,18.3400615234375,2.7182464599609375,-1.3597214221954346,-9.300901412963867
1747319577093326000,18.358326171875,2.699702262878418,-1.3124631643295288,-9.276973724365234
1747319577111592700,18.3765927734375,2.699702262878418,-1.2837493419647217,-9.272188186645508
1747319577129857000,18.39485693359375,2.709273338317871,-1.29810631275177,-9.276973724365234
1747319577148124000,18.4131240234375,2.6662025451660156,-1.3022937774658203,-9.272188186645508
1747319577166388000,18.431387939453124,2.6183462142944336,-1.311864972114563,-9.2859468460083
1747319577184654800,18.44965478515625,2.62313175201416,-1.292722463607788,-9.309874534606934
1747319577202919400,18.46791943359375,2.589632272720337,-1.311864972114563,-9.309874534606934
1747319577221186000,18.48618603515625,2.6327030658721924,-1.3262219429016113,-9.329615592956543
1747319577239450400,18.504450439453127,2.661417007446289,-1.3262219429016113,-9.31047248840332
1747319577257717200,18.52271728515625,2.651845693588257,-1.3214362859725952,-9.329615592956543
1747319577275981600,18.540981689453126,2.6709883213043213,-1.316650629043579,-9.305686950683594
1747319577294248200,18.559248291015624,2.637488842010498,-1.3214362859725952,-9.300901412963867
1747319577312512500,18.577512451171874,2.6470601558685303,-1.316650629043579,-9.305686950683594
1747319577330779100,18.595779052734375,2.627917528152466,-1.3357932567596436,-9.31047248840332
1747319577349044000,18.6140439453125,2.62313175201416,-1.3357932567596436,-9.324830055236816
1747319577367310000,18.63231005859375,2.6422743797302246,-1.3310075998306274,-9.315258979797363
1747319577385575000,18.650574951171876,2.613560438156128,-1.3357932567596436,-9.315258979797363
1747319577403841500,18.668841552734374,2.62313175201416,-1.3405789136886597,-9.32004451751709
1747319577422106000,18.687106201171876,2.651247501373291,-1.3310075998306274,-9.315258979797363
1747319577440372700,18.705372802734374,2.6470601558685303,-1.3310075998306274,-9.31047248840332
1747319577458637000,18.723636962890627,2.637488842010498,-1.3357932567596436,-9.315258979797363
1747319577476903700,18.741903564453125,2.6566312313079834,-1.3262219429016113,-9.32004451751709
1747319577495168000,18.76016796875,2.651845693588257,-1.3262219429016113,-9.305686950683594
1747319577513435000,18.778434814453124,2.637488842010498,-1.316650629043579,-9.291330337524414
1747319577531699200,18.79669921875,2.6709883213043213,-1.3022937774658203,-9.267401695251465
1747319577549965800,18.8149658203125,2.6566312313079834,-1.3070793151855469,-9.291330337524414
1747319577568227300,18.833227294921876,2.6662025451660156,-1.311864972114563,-9.29611587524414
1747319577586500000,18.8515,2.6566312313079834,-1.3214362859725952,-9.300901412963867
1747319577604758000,18.869758056640624,2.6662025451660156,-1.3022937774658203,-9.29611587524414
1747319577623031300,18.88803125,2.6662025451660156,-1.316650629043579,-9.305686950683594
1747319577641292300,18.906292236328124,2.66560435295105,-1.3214362859725952,-9.324830055236816
1747319577659559200,18.92455908203125,2.6566312313079834,-1.3070793151855469,-9.305686950683594
1747319577677823500,18.942823486328123,2.627917528152466,-1.3070793151855469,-9.305088996887207
1747319577696090400,18.96109033203125,2.613560438156128,-1.3214362859725952,-9.31466007232666
1747319577714355000,18.97935498046875,2.6183462142944336,-1.3214362859725952,-9.319445610046387
1747319577732621300,18.997621337890624,2.6039891242980957,-1.3070793151855469,-9.31466007232666
1747319577750885600,19.0158857421875,2.6087749004364014,-1.3405789136886597,-9.329017639160156
1747319577769152500,19.034152587890624,2.6039891242980957,-1.34476637840271,-9.32423210144043
1747319577787416800,19.052416748046873,2.6087749004364014,-1.34476637840271,-9.315258979797363
1747319577805683700,19.07068359375,2.6183462142944336,-1.3357932567596436,-9.315258979797363
1747319577823947800,19.08894775390625,2.62313175201416,-1.3405789136886597,-9.315258979797363
1747319577842215000,19.10721484375,2.6422743797302246,-1.3262219429016113,-9.31047248840332
1747319577860469800,19.1254697265625,2.6470601558685303,-1.316650629043579,-9.31047248840332
1747319577878745900,19.143745849609374,2.637488842010498,-1.316650629043579,-9.300901412963867
1747319577897010000,19.162010009765623,2.661417007446289,-1.3214362859725952,-9.305686950683594
1747319577915276800,19.18027685546875,2.6662025451660156,-1.3214362859725952,-9.31047248840332
1747319577933540900,19.198540771484375,2.637488842010498,-1.311864972114563,-9.300901412963867
1747319577951807700,19.216807861328125,2.6422743797302246,-1.3070793151855469,-9.291330337524414
1747319577970072300,19.235072265625,2.6470601558685303,-1.316650629043579,-9.291330337524414
1747319577988339000,19.2533388671875,2.651845693588257,-1.316650629043579,-9.300901412963867
1747319578006603300,19.271603271484373,2.637488842010498,-1.3262219429016113,-9.315258979797363
1747319578024870000,19.289869873046875,2.6422743797302246,-1.3022937774658203,-9.29611587524414
1747319578043122000,19.308121826171874,2.6422743797302246,-1.3022937774658203,-9.315258979797363
1747319578061402400,19.32640234375,2.6327030658721924,-1.3262219429016113,-9.300901412963867
1747319578079665400,19.34466552734375,2.637488842010498,-1.3262219429016113,-9.31047248840332
1747319578097932500,19.3629326171875,2.6470601558685303,-1.3214362859725952,-9.29611587524414
1747319578116196400,19.3811962890625,2.6470601558685303,-1.3214362859725952,-9.300901412963867
1747319578134463500,19.39946337890625,2.651845693588257,-1.3357932567596436,-9.31047248840332
1747319578152728000,19.41772802734375,2.637488842010498,-1.3262219429016113,-9.300901412963867
1747319578170994400,19.435994384765625,2.651845693588257,-1.3070793151855469,-9.300901412963867
1747319578189258800,19.4542587890625,2.6470601558685303,-1.3262219429016113,-9.31047248840332
1747319578207525000,19.472525146484376,2.6470601558685303,-1.3214362859725952,-9.291330337524414
1747319578225790000,19.4907900390625,2.6566312313079834,-1.316650629043579,-9.31047248840332
1747319578244056600,19.509056640625,2.651845693588257,-1.311864972114563,-9.305686950683594
1747319578262321000,19.52732080078125,2.62313175201416,-1.3070793151855469,-9.290732383728027
1747319578280587500,19.54558740234375,2.6422743797302246,-1.3022937774658203,-9.291330337524414
1747319578298852400,19.563852294921876,2.661417007446289,-1.316650629043579,-9.29611587524414
1747319578317119000,19.582118896484374,2.6608188152313232,-1.3357932567596436,-9.324830055236816
1747319578335383300,19.60038330078125,2.627917528152466,-1.2975081205368042,-9.305088996887207
1747319578353649700,19.618649658203125,2.627917528152466,-1.3070793151855469,-9.309874534606934
1747319578371914200,19.636914306640627,2.6566312313079834,-1.3070793151855469,-9.305686950683594
1747319578390181000,19.65518115234375,2.613560438156128,-1.2975081205368042,-9.30030345916748
1747319578408445200,19.673445068359374,2.637488842010498,-1.3070793151855469,-9.305686950683594
1747319578426712000,19.691712158203124,2.6183462142944336,-1.311864972114563,-9.305088996887207
1747319578444976600,19.7099765625,2.6327030658721924,-1.3070793151855469,-9.309874534606934
1747319578463243000,19.728242919921875,2.637488842010498,-1.316650629043579,-9.291330337524414
1747319578481507300,19.74650732421875,2.637488842010498,-1.3310075998306274,-9.315258979797363
1747319578499774500,19.7647744140625,2.6470601558685303,-1.3310075998306274,-9.32004451751709
1747319578518038800,19.783038818359376,2.62313175201416,-1.3357932567596436,-9.32004451751709
1747319578536305200,19.80130517578125,2.6422743797302246,-1.3405789136886597,-9.305686950683594
1747319578554569700,19.81956982421875,2.6470601558685303,-1.3405789136886597,-9.305686950683594
1747319578572836400,19.83783642578125,2.6327030658721924,-1.3262219429016113,-9.300901412963867
1747319578591100700,19.8561005859375,2.637488842010498,-1.311864972114563,-9.31047248840332
1747319578609354200,19.874354248046874,2.661417007446289,-1.3070793151855469,-9.324830055236816
1747319578627634400,19.892634521484375,2.637488842010498,-1.3070793151855469,-9.281759262084961
1747319578645897200,19.910897216796876,2.6422743797302246,-1.311864972114563,-9.291330337524414
1747319578664163800,19.929163818359374,2.651845693588257,-1.3022937774658203,-9.31047248840332
1747319578682429700,19.9474296875,2.6566312313079834,-1.3070793151855469,-9.32004451751709
1747319578700694000,19.965694091796873,2.613560438156128,-1.3070793151855469,-9.295517921447754
1747319578718960400,19.98396044921875,2.6799614429473877,-1.3214362859725952,-9.32004451751709
1747319578737225000,20.002224853515624,2.6183462142944336,-1.3262219429016113,-9.32423210144043
1747319578755491600,20.02049169921875,2.5704896450042725,-1.3022937774658203,-9.31466007232666
1747319578773756200,20.038756103515624,2.6273193359375,-1.3591232299804688,-9.32004451751709
1747319578792022500,20.0570224609375,2.7182464599609375,-1.4165509939193726,-9.29611587524414
1747319578810287000,20.075287109375,2.746960401535034,-1.3645070791244507,-9.281759262084961
1747319578828553500,20.093553466796877,2.770888566970825,-1.2837493419647217,-9.29611587524414
1747319578846818000,20.111818115234374,2.6949164867401123,-1.2598211765289307,-9.272188186645508
1747319578865084700,20.130084716796876,2.6327030658721924,-1.2693923711776733,-9.266803741455078
1747319578883349200,20.148349365234374,2.627917528152466,-1.3070793151855469,-9.295517921447754
1747319578901615400,20.166615478515624,2.5944180488586426,-1.3399807214736938,-9.33858871459961
1747319578919880200,20.184880126953125,2.503490686416626,-1.2921242713928223,-9.319445610046387
1747319578938140400,20.203140380859374,2.4323041439056396,-1.2681959867477417,-9.33858871459961
1747319578956411100,20.2214111328125,2.3988046646118164,-1.2394821643829346,-9.328418731689453
1747319578974677800,20.239677734375,2.441875457763672,-1.2681959867477417,-9.372088432312012
1747319578992942300,20.2579423828125,2.7038896083831787,-1.4213366508483887,-9.34875774383545
1747319579011208700,20.276208740234374,2.789433002471924,-1.459621787071228,-9.324830055236816
1747319579029473300,20.294473388671875,2.7086751461029053,-1.3310075998306274,-9.291330337524414
1747319579047739600,20.31273974609375,2.6566312313079834,-1.2550355195999146,-9.33858871459961
1747319579066004500,20.33100439453125,2.68534517288208,-1.3262219429016113,-9.291330337524414
1747319579084270800,20.349270751953124,2.613560438156128,-1.3878371715545654,-9.22433090209961
1747319579102535400,20.367535400390626,2.6183462142944336,-1.3495519161224365,-9.262616157531738
1747319579120802000,20.385802001953124,2.6422743797302246,-1.316650629043579,-9.343972206115723
1747319579139067000,20.40406689453125,2.5704896450042725,-1.287936806678772,-9.333803176879883
1747319579157333000,20.4223330078125,2.5561327934265137,-1.292722463607788,-9.30030345916748
1747319579175597800,20.440597900390625,2.637488842010498,-1.3070793151855469,-9.32004451751709
1747319579193864200,20.4588642578125,2.6949164867401123,-1.2789636850357056,-9.305686950683594
1747319579212128800,20.477128662109376,2.6566312313079834,-1.2693923711776733,-9.33858871459961
1747319579230395400,20.4953955078125,2.6039891242980957,-1.2640085220336914,-9.319445610046387
1747319579248660000,20.513659912109375,2.5088746547698975,-1.2687941789627075,-9.319445610046387
1747319579266926300,20.53192626953125,2.536990165710449,-1.306481122970581,-9.309874534606934
1747319579294323200,20.5593232421875,2.575275421142578,-1.3639088869094849,-9.2859468460083
1747319579312589300,20.57758935546875,2.627917528152466,-1.3543375730514526,-9.281759262084961
1747319579330854700,20.595854736328125,2.599203586578369,-1.3022937774658203,-9.333803176879883
1747319579349120500,20.61412060546875,2.5088746547698975,-1.220937728881836,-9.31466007232666
1747319579367385300,20.63238525390625,2.5704896450042725,-1.2831511497497559,-9.333803176879883
1747319579385651200,20.650651123046874,2.8037898540496826,-1.4554343223571777,-9.33440113067627
1747319579403920000,20.668919921875,2.9563324451446533,-1.5128620862960815,-9.320642471313477
1747319579422182700,20.6871826171875,2.7661030292510986,-1.3268201351165771,-9.29611587524414
1747319579440435200,20.705435302734376,2.5944180488586426,-1.2215359210968018,-9.343374252319336
1747319579458713300,20.72371337890625,2.6183462142944336,-1.2831511497497559,-9.295517921447754
1747319579476982500,20.741982421875,2.5609183311462402,-1.3351950645446777,-9.195018768310547
1747319579495244300,20.760244384765624,2.489732027053833,-1.3351950645446777,-9.238089561462402
1747319579513509400,20.77850927734375,2.5226333141326904,-1.3256237506866455,-9.343374252319336
1747319579531775200,20.796775146484375,2.599203586578369,-1.287936806678772,-9.343374252319336
1747319579550040300,20.815040283203125,2.5178475379943848,-1.2873386144638062,-9.372088432312012
1747319579568307000,20.833306884765626,2.3611178398132324,-1.196411371231079,-9.30449104309082
1747319579586571300,20.8515712890625,2.589632272720337,-1.287936806678772,-9.362516403198242
1747319579604837400,20.86983740234375,2.9186453819274902,-1.451246976852417,-9.34457015991211
1747319579623102700,20.888102783203124,2.8043880462646484,-1.3746765851974487,-9.267401695251465
1747319579641368600,20.90636865234375,2.6087749004364014,-1.23589289188385,-9.33858871459961
1747319579659633400,20.92463330078125,2.5944180488586426,-1.23589289188385,-9.372088432312012
1747319579677899300,20.942899169921876,2.5561327934265137,-1.3160524368286133,-9.238089561462402
1747319579696164900,20.961164794921874,2.4747767448425293,-1.3728820085525513,-9.209376335144043
1747319579714430700,20.9794306640625,2.527418851852417,-1.3543375730514526,-9.295517921447754
1747319579732695800,20.99769580078125,2.6709883213043213,-1.3262219429016113,-9.329615592956543
1747319579750961700,21.015961669921875,2.699103832244873,-1.3597214221954346,-9.315258979797363
1747319579769227000,21.03422705078125,2.5465614795684814,-1.2735798358917236,-9.305088996887207
1747319579787492900,21.052492919921875,2.4185454845428467,-1.1778669357299805,-9.309276580810547
1747319579805757700,21.0707578125,2.7086751461029053,-1.317248821258545,-9.396614074707031
1747319579824023600,21.0890234375,2.985046148300171,-1.4895321130752563,-9.349356651306152
1747319579842289200,21.1072890625,2.7804598808288574,-1.378864049911499,-9.29611587524414
1747319579860555000,21.125554931640625,2.537588357925415,-1.220937728881836,-9.352945327758789
1747319579878819800,21.14381982421875,2.5423741340637207,-1.225723385810852,-9.33858871459961
1747319579897085700,21.162085693359376,2.5184457302093506,-1.3208380937576294,-9.21416187286377
1747319579915351000,21.18035107421875,2.39401912689209,-1.357926845550537,-9.21416187286377
1747319579933617000,21.198616943359376,2.465803623199463,-1.3160524368286133,-9.30030345916748
1747319579951881700,21.2168818359375,2.6470601558685303,-1.316650629043579,-9.343972206115723
1747319579970147600,21.235147705078123,2.723032236099243,-1.3597214221954346,-9.324830055236816
1747319579988413200,21.2534130859375,2.6805596351623535,-1.3310075998306274,-9.29611587524414
1747319580006679000,21.271678955078126,2.4849462509155273,-1.1736794710159302,-9.333803176879883
1747319580024943900,21.28994384765625,2.537588357925415,-1.1928220987319946,-9.381659507751465
1747319580043209700,21.308209716796874,2.8516464233398438,-1.4225330352783203,-9.396614074707031
1747319580061475300,21.326475341796876,2.9036903381347656,-1.5080764293670654,-9.311071395874023
1747319580079741200,21.3447412109375,2.6087749004364014,-1.3405789136886597,-9.30030345916748
1747319580098006000,21.363006103515627,2.5471596717834473,-1.1976077556610107,-9.309874534606934
1747319580116271600,21.381271728515625,2.6141586303710938,-1.2687941789627075,-9.238089561462402
1747319580134537200,21.399537109375,2.5232315063476562,-1.3304094076156616,-9.171091079711914
1747319580152803300,21.41780322265625,2.4939193725585938,-1.3872389793395996,-9.276374816894531
1747319580171068000,21.43606787109375,2.5800609588623047,-1.3495519161224365,-9.376873970031738
1747319580189333500,21.45433349609375,2.6177480220794678,-1.3591232299804688,-9.386445045471191
1747319580207599000,21.47259912109375,2.612962245941162,-1.3830515146255493,-9.33440113067627
1747319580225865200,21.490865234375,2.713460922241211,-1.3549357652664185,-9.291330337524414
1747319580244130000,21.509130126953124,2.837887763977051,-1.3316057920455933,-9.315258979797363
1747319580262391800,21.527391845703125,2.8426733016967773,-1.3178470134735107,-9.300901412963867
1747319580280665600,21.54566552734375,2.799602508544922,-1.3028919696807861,-9.267401695251465
1747319580298927000,21.563927001953125,2.675773859024048,-1.2646067142486572,-9.253045082092285
1747319580317192000,21.58219189453125,2.551945447921753,-1.2305090427398682,-9.262018203735352
1747319580335457800,21.600457763671876,2.480160713195801,-1.2586246728897095,-9.281160354614258
1747319580353723400,21.618723388671874,2.4508485794067383,-1.3441680669784546,-9.31466007232666
1747319580371989200,21.6369892578125,2.465205430984497,-1.3489537239074707,-9.362516403198242
1747319580390254000,21.655254150390626,2.5082762241363525,-1.34476637840271,-9.362516403198242
1747319580408519700,21.673519775390623,2.6039891242980957,-1.3357932567596436,-9.367302894592285
1747319580426785300,21.691785400390625,2.5704896450042725,-1.3304094076156616,-9.333803176879883
1747319580445051400,21.710051513671875,2.575275421142578,-1.2975081205368042,-9.295517921447754
1747319580463316000,21.72831591796875,2.7565317153930664,-1.3555340766906738,-9.324830055236816
1747319580481569500,21.746569580078123,2.861815929412842,-1.3938192129135132,-9.268000602722168
1747319580499847400,21.764847412109376,2.7900311946868896,-1.322034478187561,-9.238688468933105
1747319580518095600,21.783095703125,2.6949164867401123,-1.2789636850357056,-9.272188186645508
1747319580536378400,21.80137841796875,2.651845693588257,-1.2741780281066895,-9.266803741455078
1747319580554643700,21.819643798828125,2.6039891242980957,-1.3070793151855469,-9.262018203735352
1747319580572909600,21.83790966796875,2.6039891242980957,-1.3214362859725952,-9.30030345916748
1747319580591174700,21.856174560546876,2.62313175201416,-1.316650629043579,-9.333803176879883
1747319580609439700,21.874439697265625,2.5704896450042725,-1.287936806678772,-9.33858871459961
1747319580627705600,21.89270556640625,2.565704107284546,-1.2975081205368042,-9.32423210144043
1747319580645971500,21.910971435546877,2.475374937057495,-1.2634103298187256,-9.329017639160156
1747319580664236800,21.92923681640625,2.4083759784698486,-1.2394821643829346,-9.34277629852295
1747319580682502100,21.947502197265624,2.5082762241363525,-1.301695466041565,-9.362516403198242
1747319580700767500,21.965767578125,2.641676187515259,-1.3926228284835815,-9.358329772949219
1747319580719033600,21.98403369140625,2.641676187515259,-1.4117653369903564,-9.33440113067627
1747319580737299000,22.002298828125,2.613560438156128,-1.368694543838501,-9.333803176879883
1747319580755564000,22.02056396484375,2.675773859024048,-1.3357932567596436,-9.300901412963867
1747319580773830000,22.038829833984376,2.709273338317871,-1.3262219429016113,-9.248259544372559
1747319580792095200,22.05709521484375,2.7379872798919678,-1.3453645706176758,-9.229117393493652
1747319580810361300,22.075361328125,2.746960401535034,-1.3316057920455933,-9.257830619812012
1747319580828626400,22.09362646484375,2.746960401535034,-1.317248821258545,-9.29611587524414
1747319580846891800,22.111891845703123,2.7182464599609375,-1.322034478187561,-9.315258979797363
1747319580865157400,22.130157470703125,2.6847469806671143,-1.3357932567596436,-9.300901412963867
1747319580883423200,22.14842333984375,2.6470601558685303,-1.287936806678772,-9.276973724365234
1747319580901688300,22.166688232421876,2.6422743797302246,-1.2831511497497559,-9.30030345916748
1747319580919954000,22.184953857421874,2.6566312313079834,-1.3070793151855469,-9.33440113067627
1747319580938219300,22.20321923828125,2.565704107284546,-1.2975081205368042,-9.329017639160156
1747319580956485400,22.2214853515625,2.489732027053833,-1.301695466041565,-9.30030345916748
1747319580974750200,22.239750244140627,2.527418851852417,-1.3304094076156616,-9.32423210144043
1747319580993016000,22.25801611328125,2.565704107284546,-1.3351950645446777,-9.319445610046387
1747319581011281400,22.276281494140626,2.5848467350006104,-1.3495519161224365,-9.319445610046387
1747319581029547500,22.294547607421876,2.62313175201416,-1.3591232299804688,-9.324830055236816
1747319581047812000,22.31281201171875,2.699103832244873,-1.350150227546692,-9.324830055236816
1747319581066078000,22.331077880859375,2.699702262878418,-1.3405789136886597,-9.305686950683594
1747319581084343300,22.34934326171875,2.6901309490203857,-1.3453645706176758,-9.300901412963867
1747319581102609200,22.367609130859375,2.7140591144561768,-1.317248821258545,-9.286544799804688
1747319581120874200,22.385874267578124,2.651845693588257,-1.311864972114563,-9.267401695251465
1747319581139140000,22.40414013671875,2.62313175201416,-1.316650629043579,-9.305088996887207
1747319581157405400,22.422405517578124,2.6087749004364014,-1.3262219429016113,-9.309874534606934
1747319581175671300,22.44067138671875,2.589632272720337,-1.3304094076156616,-9.319445610046387
1747319581193936100,22.45893603515625,2.5704896450042725,-1.3351950645446777,-9.32423210144043
1747319581212201700,22.47720166015625,2.599203586578369,-1.3495519161224365,-9.33858871459961
1747319581230454500,22.49545458984375,2.637488842010498,-1.3262219429016113,-9.31047248840332
1747319581248734700,22.513734619140624,2.6183462142944336,-1.311864972114563,-9.30030345916748
1747319581266998000,22.531998046875,2.637488842010498,-1.316650629043579,-9.309874534606934
1747319581285264000,22.550263916015624,2.6183462142944336,-1.3070793151855469,-9.305088996887207
1747319581303528000,22.56852783203125,2.589632272720337,-1.3070793151855469,-9.30030345916748
1747319581321796900,22.586796875,2.6183462142944336,-1.311864972114563,-9.309874534606934
1747319581340060200,22.60506005859375,2.613560438156128,-1.3405789136886597,-9.329017639160156
1747319581358325800,22.62332568359375,2.637488842010498,-1.3262219429016113,-9.29611587524414
1747319581376591400,22.64159130859375,2.6327030658721924,-1.3405789136886597,-9.305686950683594
1747319581394857200,22.659857177734374,2.6422743797302246,-1.3549357652664185,-9.329615592956543
1747319581413121800,22.678121826171875,2.6327030658721924,-1.3405789136886597,-9.300901412963867
1747319581431388000,22.696387939453125,2.651845693588257,-1.3262219429016113,-9.300901412963867
1747319581449653200,22.7146533203125,2.651845693588257,-1.3310075998306274,-9.29611587524414
1747319581467918800,22.7329189453125,2.627917528152466,-1.3214362859725952,-9.309874534606934
1747319581486184000,22.751183837890625,2.6422743797302246,-1.3214362859725952,-9.31047248840332
1747319581504449800,22.76944970703125,2.62313175201416,-1.3310075998306274,-9.31466007232666
1747319581522703000,22.787703125,2.6183462142944336,-1.3214362859725952,-9.295517921447754
1747319581540981200,22.805981201171875,2.613560438156128,-1.292722463607788,-9.276374816894531
1747319581559238400,22.82423828125,2.651845693588257,-1.3070793151855469,-9.286544799804688
1747319581577512000,22.842511962890626,2.661417007446289,-1.3310075998306274,-9.329615592956543
1747319581595765000,22.860764892578125,2.6327030658721924,-1.3262219429016113,-9.309874534606934
1747319581614043000,22.87904296875,2.613560438156128,-1.311864972114563,-9.30030345916748
1747319581632307700,22.8973076171875,2.661417007446289,-1.3214362859725952,-9.32004451751709
1747319581650573600,22.915573486328125,2.6327030658721924,-1.3310075998306274,-9.30030345916748
1747319581668838700,22.933838623046874,2.613560438156128,-1.3262219429016113,-9.30030345916748
1747319581687105000,22.95210498046875,2.627917528152466,-1.3310075998306274,-9.31047248840332
1747319581705369600,22.97036962890625,2.613560438156128,-1.3310075998306274,-9.305088996887207
1747319581723635700,22.9886357421875,2.62313175201416,-1.3262219429016113,-9.30030345916748
1747319581741900800,23.00690087890625,2.637488842010498,-1.3262219429016113,-9.305686950683594
1747319581760166700,23.025166748046875,2.637488842010498,-1.3310075998306274,-9.315258979797363
1747319581778431500,23.043431396484376,2.613560438156128,-1.3405789136886597,-9.305088996887207
1747319581796686000,23.06168603515625,2.637488842010498,-1.3453645706176758,-9.329615592956543
1747319581814962700,23.079962646484375,2.637488842010498,-1.3214362859725952,-9.300901412963867
1747319581833229000,23.09822900390625,2.637488842010498,-1.3262219429016113,-9.305686950683594
1747319581851493600,23.11649365234375,2.6327030658721924,-1.3214362859725952,-9.309874534606934
1747319581869759700,23.134759765625,2.6422743797302246,-1.311864972114563,-9.300901412963867
1747319581888025000,23.153025146484374,2.627917528152466,-1.3070793151855469,-9.30030345916748
1747319581906290700,23.171290771484376,2.62313175201416,-1.3022937774658203,-9.30030345916748
1747319581924555800,23.1895556640625,2.627917528152466,-1.3070793151855469,-9.309874534606934
1747319581942821400,23.2078212890625,2.6422743797302246,-1.3070793151855469,-9.30030345916748
1747319581961087000,23.2260869140625,2.6087749004364014,-1.3022937774658203,-9.30030345916748
1747319581979352600,23.2443525390625,2.637488842010498,-1.3022937774658203,-9.305088996887207
1747319581997617700,23.26261767578125,2.6183462142944336,-1.3070793151855469,-9.30030345916748
1747319582015883500,23.280883544921874,2.6327030658721924,-1.316650629043579,-9.295517921447754
1747319582034149000,23.299149169921876,2.6470601558685303,-1.311864972114563,-9.305686950683594
1747319582052414700,23.317414794921874,2.6183462142944336,-1.3262219429016113,-9.31466007232666
1747319582070679600,23.335679443359375,2.637488842010498,-1.3262219429016113,-9.315258979797363
1747319582088945400,23.3539453125,2.627917528152466,-1.3214362859725952,-9.309874534606934
