time,seconds_elapsed,z,y,x
1749987789725802800,0.048802734375,10.170000076293945,1.0530000925064087,-0.3130500018596649
1749987789735831600,0.05883154296875,10.110000610351562,1.0219500064849854,-0.21000000834465027
1749987789745845800,0.068845703125,10.086000442504883,0.9720000624656677,-0.021000001579523087
1749987789755859500,0.078859375,10.216050148010254,0.9379500150680542,0.15000000596046448
1749987789765873200,0.088873046875,10.321050643920898,0.9360000491142273,0.2939999997615814
1749987789775887000,0.09888720703125,10.306950569152832,0.8809500336647034,0.37995001673698425
1749987789785900800,0.10890087890625,10.122000694274902,0.8110500574111938,0.37095001339912415
1749987789795914800,0.118914794921875,9.892050743103027,0.7609500288963318,0.39195001125335693
1749987789805928400,0.128928466796875,9.991050720214844,0.7680000066757202,0.37800002098083496
1749987789815942100,0.138942138671875,10.201050758361816,0.8230500221252441,0.3439500033855438
1749987789825956000,0.1489560546875,10.47195053100586,0.8610000610351562,0.2650500237941742
1749987789835969800,0.1589697265625,10.47195053100586,1.0909500122070312,0.019050000235438347
1749987789845983500,0.1689833984375,10.270950317382812,1.3810501098632812,-0.10500000417232513
1749987789855997400,0.17899755859375,10.246950149536133,1.371000051498413,-0.031050002202391624
1749987789866011100,0.18901123046875,10.041000366210938,1.3450500965118408,0.10500000417232513
1749987789876025000,0.199025146484375,9.955050468444824,1.3350000381469727,0.013950000517070293
1749987789886038800,0.209038818359375,9.95895004272461,1.4140501022338867,0.0019500000635161996
1749987789896052700,0.219052734375,9.877950668334961,1.519950032234192,0.031050002202391624
1749987789906066400,0.22906640625,9.92805004119873,1.599000096321106,0.12405000627040863
1749987789916080400,0.239080322265625,9.95205020904541,1.6009501218795776,0.11700000613927841
1749987789926094000,0.249093994140625,9.853950500488281,1.6300500631332397,0.07905000448226929
1749987789936108000,0.25910791015625,9.784950256347656,1.672950029373169,0.14295001327991486
1749987789946121700,0.269121826171875,9.72195053100586,1.7020500898361206,0.2460000067949295
1749987789956135400,0.279135498046875,9.718050003051758,1.6900501251220703,0.3439500033855438
1749987789966149400,0.2891494140625,9.849000930786133,1.5799500942230225,0.4519500136375427
1749987789976163000,0.2991630859375,9.88800048828125,1.4119501113891602,0.5879999995231628
1749987789986177000,0.309177001953125,9.777000427246094,1.294950008392334,0.7249500155448914
1749987789996190700,0.319190673828125,9.588000297546387,1.3069500923156738,0.8089500665664673
1749987790006204700,0.32920458984375,9.354000091552734,1.4359500408172607,0.9120000600814819
1749987790016218400,0.33921826171875,8.937000274658203,1.6180500984191895,1.1299500465393066
1749987790026232000,0.349232177734375,8.518050193786621,1.7040001153945923,1.1869500875473022
1749987790036246000,0.35924609375,8.370000839233398,1.696950078010559,1.2439500093460083
1749987790046259700,0.369259765625,8.563950538635254,1.582050085067749,1.0980000495910645
1749987790056273700,0.379273681640625,9.045000076293945,1.3930500745773315,0.7870500087738037
1749987790066287400,0.389287353515625,9.745950698852539,1.1389501094818115,0.43995001912117004
1749987790076301300,0.39930126953125,10.636950492858887,0.8640000224113464,0.1960500031709671
1749987790086315000,0.40931494140625,11.5420503616333,0.6000000238418579,0.10005000233650208
1749987790096329000,0.419328857421875,12.01395034790039,0.32805001735687256,0.1770000010728836
1749987790106342700,0.4293427734375,12.184050559997559,0.07095000147819519,0.2959500253200531
1749987790116356600,0.439356689453125,11.80095100402832,0.019050000235438347,0.6319500207901001
1749987790126370000,0.4493701171875,10.996050834655762,0.0499500036239624,0.9859500527381897
1749987790136384000,0.459384033203125,10.13700008392334,0.04005000367760658,1.1130000352859497
1749987790146398000,0.46939794921875,9.346050262451172,0.1360500007867813,1.2919501066207886
1749987790156411600,0.47941162109375,8.749950408935547,0.4159500300884247,1.4929500818252563
1749987790166425600,0.489425537109375,8.487000465393066,0.7110000252723694,1.4700000286102295
1749987790176439300,0.499439208984375,8.109000205993652,0.6319500207901001,0.5620500445365906
1749987790186453000,0.509452880859375,8.203949928283691,0.8809500336647034,0.7510500550270081
1749987790196467000,0.519467041015625,8.269050598144531,1.2090001106262207,1.1340000629425049
1749987790206481000,0.52948095703125,8.130000114440918,1.2400500774383545,1.276050090789795
1749987790216494300,0.539494384765625,8.140049934387207,1.2130500078201294,1.5079500675201416
1749987790226508300,0.54950830078125,8.11305046081543,1.0770000219345093,1.0669500827789307
1749987790236522000,0.55952197265625,8.176050186157227,1.0360500812530518,1.221000075340271
1749987790246536000,0.569535888671875,8.491950035095215,1.048050045967102,1.1650500297546387
1749987790256550000,0.5795498046875,9.118950843811035,1.048050045967102,1.0530000925064087
1749987790266563600,0.5895634765625,9.873000144958496,0.9739500284194946,0.5790000557899475
1749987790276577300,0.599577392578125,10.314000129699707,0.8779500126838684,-0.32805001735687256
1749987790286591200,0.60959130859375,11.203950881958008,1.7400001287460327,-0.7270500063896179
1749987790296605200,0.619605224609375,11.215950965881348,1.5049500465393066,-0.25995001196861267
1749987790306619000,0.629618896484375,9.817950248718262,1.1700000762939453,0.3730500042438507
1749987790316632600,0.639632568359375,9.358050346374512,0.9979500770568848,0.7249500155448914
1749987790326646300,0.649646240234375,8.491950035095215,0.6270000338554382,0.7660500407218933
1749987790336660200,0.65966015625,8.110950469970703,0.687000036239624,0.7080000042915344
1749987790346674200,0.669674072265625,8.410050392150879,0.7560000419616699,0.9520500302314758
1749987790356688000,0.67968798828125,8.893950462341309,0.9049500226974487,0.9720000624656677
1749987790366701800,0.689701904296875,8.281050682067871,1.3669500350952148,-0.21000000834465027
1749987790376715500,0.699715576171875,7.194000244140625,1.8190500736236572,-1.4359500408172607
1749987790386729500,0.7097294921875,7.951050281524658,2.53695011138916,-2.2260000705718994
1749987790396743200,0.7197431640625,11.56095027923584,3.44700026512146,-4.39995002746582
1749987790406757000,0.729757080078125,13.242000579833984,4.885950088500977,-6.490050315856934
1749987790416770800,0.739770751953125,11.665950775146484,5.8030500411987305,-6.193050384521484
1749987790426784500,0.749784423828125,9.11400032043457,5.181000232696533,-3.9690001010894775
1749987790436798500,0.759798583984375,7.54395055770874,3.547950267791748,-2.551950216293335
1749987790446812200,0.769812255859375,7.204050540924072,2.3340001106262207,-2.389050006866455
1749987790456826000,0.779826171875,7.189050197601318,1.9240500926971436,-1.7899501323699951
1749987790466839800,0.78983984375,8.034000396728516,1.9699500799179077,-0.7660500407218933
1749987790476853800,0.799853759765625,9.042000770568848,2.0370001792907715,-1.4980500936508179
1749987790486867500,0.809867431640625,9.415950775146484,2.299950122833252,-2.1760501861572266
1749987790496881400,0.81988134765625,9.799050331115723,2.281050205230713,-1.88100004196167
1749987790506895400,0.829895263671875,10.183950424194336,2.0350501537323,-1.3860000371932983
1749987790516908800,0.83990869140625,10.018950462341309,1.4959501028060913,-0.9430500268936157
1749987790526922800,0.8499228515625,9.612000465393066,1.1179500818252563,-0.3829500079154968
1749987790536936700,0.859936767578125,10.182000160217285,1.4839500188827515,-0.009000000543892384
1749987790546950400,0.869950439453125,10.749000549316406,1.4820001125335693,0.6820500493049622
1749987790556964400,0.87996435546875,11.097000122070312,1.3830000162124634,0.6270000338554382
1749987790566978000,0.88997802734375,10.771050453186035,1.5610500574111938,0.45000001788139343
1749987790576992000,0.899991943359375,10.098000526428223,1.672950029373169,0.9570000171661377
1749987790587005700,0.910005615234375,9.342000007629395,1.503000020980835,1.7260501384735107
1749987790597019600,0.92001953125,9.211950302124023,1.5840001106262207,1.1010000705718994
1749987790607033300,0.930033447265625,9.62700080871582,2.0899500846862793,0.8610000610351562
1749987790617047300,0.94004736328125,9.520950317382812,2.977950096130371,0.9240000247955322
1749987790627061200,0.950061279296875,9.232050895690918,3.7680001258850098,0.9000000357627869
1749987790637075000,0.960074951171875,9.069000244140625,4.093950271606445,1.0270500183105469
1749987790647088600,0.970088623046875,9.361050605773926,4.266000270843506,0.7990500330924988
1749987790657102600,0.9801025390625,9.081000328063965,4.03095006942749,1.194000005722046
1749987790667116300,0.9901162109375,8.716950416564941,3.4710001945495605,1.3669500350952148
1749987790677130200,1.000130126953125,8.592000007629395,3.178950071334839,0.9739500284194946
1749987790687144200,1.010144287109375,8.655000686645508,3.2530500888824463,0.20805001258850098
1749987790697158000,1.020157958984375,7.656000137329102,3.2920501232147217,-1.0720500946044922
1749987790707171800,1.030171875,5.920050144195557,3.5380501747131348,-2.371950149536133
1749987790717185500,1.040185546875,6.528000354766846,3.4140002727508545,-2.559000015258789
1749987790727199500,1.050199462890625,7.426050186157227,2.568000078201294,0.15495000779628754
1749987790737213200,1.060213134765625,8.539950370788574,2.880000114440918,1.0530000925064087
1749987790747227000,1.070226806640625,9.877950668334961,3.121950149536133,0.6670500040054321
1749987790757240800,1.08024072265625,9.873000144958496,2.032050132751465,-0.28200000524520874
1749987790767254500,1.090254638671875,9.892050743103027,1.64205002784729,0.37995001673698425
1749987790777268500,1.1002685546875,9.634050369262695,1.752000093460083,1.2660000324249268
1749987790787282200,1.1102822265625,9.375,2.2170000076293945,1.714050054550171
1749987790797296000,1.120296142578125,9.88800048828125,2.6929500102996826,2.5009500980377197
1749987790807309600,1.1303095703125,10.431000709533691,3.2340002059936523,2.9659502506256104
1749987790817323800,1.14032373046875,11.214000701904297,2.6670000553131104,2.728950023651123
1749987790827337500,1.15033740234375,11.278950691223145,1.6950000524520874,2.616000175476074
1749987790837351200,1.16035107421875,10.624950408935547,1.1920500993728638,2.2759501934051514
1749987790847365000,1.170365234375,9.967050552368164,1.2439500093460083,1.3230000734329224
1749987790857378800,1.18037890625,8.797950744628906,1.5889500379562378,0.4740000367164612
1749987790867392800,1.190392822265625,7.723050594329834,1.4530500173568726,0.05700000375509262
1749987790877406500,1.200406494140625,7.7470502853393555,1.0630500316619873,0.30105000734329224
1749987790887420400,1.21042041015625,7.696950435638428,1.1340000629425049,0.7200000286102295
1749987790897434000,1.22043408203125,8.56605052947998,1.6630500555038452,0.9760500192642212
1749987790907447800,1.23044775390625,10.054950714111328,1.714050054550171,1.8360000848770142
1749987790917461800,1.240461669921875,10.363950729370117,1.6470000743865967,2.461050033569336
1749987790927475500,1.250475341796875,9.957000732421875,1.7500500679016113,2.200050115585327
1749987790937489400,1.260489501953125,9.588000297546387,1.5700501203536987,1.7860500812530518
1749987790947503000,1.270503173828125,9.552000045776367,1.2780001163482666,1.4700000286102295
1749987790957516800,1.280516845703125,10.479000091552734,0.8899500370025635,1.081950068473816
1749987790967530800,1.29053076171875,11.439000129699707,0.7780500650405884,1.051050066947937
1749987790977544700,1.300544677734375,11.803050994873047,1.1490000486373901,0.6169500350952148
1749987790987558400,1.310558349609375,11.206950187683105,1.5010501146316528,0.544950008392334
1749987790997572000,1.320572021484375,10.479000091552734,1.6470000743865967,0.43800002336502075
1749987791007585800,1.330585693359375,9.883050918579102,1.977000117301941,0.33000001311302185
1749987791017599700,1.340599853515625,9.367950439453125,2.2069501876831055,0.9019500613212585
1749987791027613400,1.350613525390625,9.15000057220459,1.852950096130371,1.5370501279830933
1749987791037627400,1.36062744140625,9.402000427246094,1.9459501504898071,1.8960001468658447
1749987791047641000,1.37064111328125,9.600000381469727,1.977000117301941,2.202000141143799
1749987791057655000,1.380655029296875,9.873000144958496,1.6440000534057617,2.284050226211548
1749987791067669000,1.3906689453125,10.129050254821777,1.4980500936508179,2.0350501537323
1749987791077682700,1.4006826171875,10.093050003051758,1.0459500551223755,1.7089500427246094
1749987791087696400,1.4106962890625,10.294950485229492,0.7129500508308411,1.4980500936508179
1749987791097710300,1.42071044921875,10.795050621032715,0.8590500354766846,1.3789501190185547
1749987791107724300,1.430724365234375,11.008050918579102,0.9739500284194946,1.807050108909607
1749987791117738000,1.440738037109375,11.02500057220459,1.204050064086914,2.11395001411438
1749987791127751700,1.450751708984375,10.912050247192383,1.0740000009536743,2.6260502338409424
1749987791137765600,1.460765625,10.872000694274902,0.46605002880096436,3.2410502433776855
1749987791147779300,1.470779296875,11.032050132751465,0.6289500594139099,3.205050230026245
1749987791157793300,1.480793212890625,10.993950843811035,0.9600000381469727,3.1309502124786377
1749987791167807000,1.490806884765625,10.623000144958496,0.9120000600814819,3.186000108718872
1749987791177821000,1.500821044921875,10.077000617980957,0.9280500411987305,3.1020002365112305
1749987791187834600,1.510834716796875,9.813000679016113,0.8470500111579895,3.016050100326538
1749987791197848300,1.520848388671875,10.053000450134277,0.7350000143051147,2.9110500812530518
1749987791207862300,1.5308623046875,10.369050025939941,0.4330500066280365,2.9640002250671387
1749987791217876000,1.5408759765625,10.591050148010254,0.6000000238418579,2.76705002784729
1749987791227890000,1.550889892578125,10.480950355529785,0.7510500550270081,2.719050168991089
1749987791237904000,1.56090380859375,10.383000373840332,0.7510500550270081,2.6569502353668213
1749987791247917600,1.57091748046875,10.22295093536377,0.7459500432014465,2.620950222015381
1749987791257931300,1.58093115234375,9.933000564575195,0.9049500226974487,2.551950216293335
1749987791267945000,1.590945068359375,9.612000465393066,0.9520500302314758,2.461050033569336
1749987791277959000,1.600958984375,9.2989501953125,1.0170000791549683,2.3050501346588135
1749987791287972600,1.61097265625,9.082950592041016,0.9310500621795654,2.31000018119812
1749987791297986600,1.620986572265625,9.214950561523438,0.742050051689148,2.2930500507354736
1749987791308000500,1.63100048828125,9.366000175476074,0.8809500336647034,2.197050094604492
1749987791318014200,1.64101416015625,9.528000831604004,0.8970000147819519,2.3170502185821533
1749987791328028000,1.65102783203125,9.43005084991455,0.8730000257492065,2.4820501804351807
1749987791338041600,1.66104150390625,9.313050270080566,1.0410000085830688,2.620950222015381
1749987791348055800,1.671055908203125,9.154950141906738,1.0770000219345093,2.76705002784729
1749987791358069200,1.6810693359375,9.121050834655762,1.1440500020980835,2.8249502182006836
1749987791368083200,1.691083251953125,9.046950340270996,1.3230000734329224,2.8060500621795654
1749987791378097000,1.701096923828125,8.892000198364258,1.3260000944137573,2.760000228881836
1749987791388110800,1.71111083984375,8.949000358581543,1.3470001220703125,2.680950164794922
1749987791398124500,1.72112451171875,8.941950798034668,1.64205002784729,2.539950132369995
1749987791408138500,1.731138427734375,8.884050369262695,1.8570001125335693,2.431950092315674
1749987791418152200,1.741152099609375,8.740950584411621,2.013000011444092,2.190000057220459
1749987791428166100,1.751166259765625,8.418000221252441,2.130000114440918,1.8259501457214355
1749987791438179800,1.761179931640625,8.173049926757812,2.1640501022338867,1.5130500793457031
1749987791448193800,1.77119384765625,8.11305046081543,2.1469500064849854,1.4070000648498535
1749987791458207500,1.78120751953125,7.788000583648682,2.382000207901001,1.048050045967102
1749987791468221400,1.791221435546875,7.165050506591797,2.4220499992370605,0.6769500374794006
1749987791478235100,1.801235107421875,6.6220502853393555,2.230950117111206,0.48795002698898315
1749987791488249000,1.8112490234375,6.598050117492676,2.287950038909912,0.1960500031709671
1749987791498262800,1.8212626953125,7.065000534057617,2.451000213623047,-0.9139500260353088
1749987791508276700,1.83127685546875,7.303950309753418,2.4150002002716064,-1.1920500993728638
1749987791518290400,1.84129052734375,7.285050392150879,2.451000213623047,-1.0000500679016113
1749987791528304400,1.851304443359375,6.837000370025635,2.5450501441955566,-0.6720000505447388
1749987791538318000,1.861318115234375,6.664950370788574,3.114000082015991,-0.33900001645088196
1749987791548331800,1.871331787109375,7.189050197601318,3.1020002365112305,0.6960000395774841
1749987791558345700,1.881345703125,8.716950416564941,3.031050205230713,1.6920000314712524
1749987791568359400,1.891359375,9.777000427246094,2.800950050354004,1.951050043106079
1749987791578373400,1.901373291015625,10.386000633239746,2.197050094604492,1.2439500093460083
1749987791588387000,1.911386962890625,10.753950119018555,1.6080000400543213,0.16500000655651093
1749987791598401000,1.921401123046875,11.530050277709961,1.4790000915527344,-0.45705002546310425
1749987791608414700,1.931414794921875,11.950950622558594,1.3000500202178955,-0.7699500322341919
1749987791618428700,1.9414287109375,11.81505012512207,0.8779500126838684,-0.7780500650405884
1749987791628442400,1.9514423828125,11.712000846862793,0.6360000371932983,-0.6529500484466553
1749987791638456000,1.9614560546875,12.28695011138916,0.531000018119812,-0.5329500436782837
1749987791648469800,1.9714697265625,12.6739501953125,0.3540000021457672,-0.598050057888031
1749987791658483700,1.981483642578125,11.974950790405273,0.5790000557899475,-1.0699501037597656
1749987791668497400,1.991497314453125,10.98900032043457,0.742050051689148,-1.0600500106811523
1749987791678511400,2.001511474609375,10.642050743103027,1.0939500331878662,-0.7630500197410583
1749987791688525300,2.011525390625,10.354050636291504,1.2109500169754028,-0.3559500277042389
1749987791698539000,2.0215390625,10.182000160217285,1.1059499979019165,0.10005000233650208
1749987791708553000,2.031552978515625,10.21095085144043,0.9600000381469727,0.4740000367164612
1749987791718566700,2.041566650390625,11.14905071258545,0.8209500312805176,0.6480000019073486
1749987791728580400,2.051580322265625,11.791050910949707,0.6340500116348267,0.547950029373169
1749987791738594300,2.06159423828125,10.984050750732422,0.16200000047683716,0.07905000448226929
1749987791748608000,2.07160791015625,10.420950889587402,0.4830000102519989,-1.1869500875473022
1749987791758622000,2.0816220703125,10.273050308227539,1.9459501504898071,-2.3650500774383545
1749987791768635600,2.0916357421875,8.805000305175781,1.7880001068115234,-2.367000102996826
1749987791778649600,2.101649658203125,8.905950546264648,1.5370501279830933,-1.7040001153945923
1749987791788663300,2.111663330078125,8.998950004577637,0.8370000123977661,-1.1560500860214233
1749987791798677200,2.12167724609375,10.13895034790039,1.4310001134872437,-0.8490000367164612
1749987791808691200,2.131691162109375,10.789950370788574,2.2240500450134277,-0.8179500102996826
1749987791818704600,2.14170458984375,10.680000305175781,1.9240500926971436,-0.531000018119812
1749987791828718800,2.15171875,10.510050773620605,1.76895010471344,-0.4900500178337097
1749987791838732500,2.161732666015625,10.44105052947998,0.7369500398635864,-0.3079500198364258
1749987791848746200,2.171746337890625,10.54800033569336,-0.021000001579523087,0.1770000010728836
1749987791858760200,2.18176025390625,11.06100082397461,0.019050000235438347,0.3679500222206116
1749987791868774000,2.19177392578125,10.788000106811523,0.5239500403404236,0.28905001282691956
1749987791878787800,2.201787841796875,9.769950866699219,1.1820000410079956,-0.1579500138759613
1749987791888801500,2.211801513671875,10.468950271606445,1.0339500904083252,-0.2440500110387802
1749987791898815500,2.2218154296875,10.945950508117676,0.41805002093315125,-0.32505002617836
1749987791908829400,2.231829345703125,10.687050819396973,-0.34905001521110535,-0.10005000233650208
1749987791918843000,2.2418427734375,9.979050636291504,-0.7849500179290771,0.20100000500679016
1749987791928856800,2.25185693359375,9.945000648498535,-0.8610000610351562,0.5910000205039978
1749987791938870500,2.26187060546875,9.86400032043457,-0.4159500300884247,0.6769500374794006
1749987791948884500,2.271884521484375,9.568950653076172,0.4330500066280365,0.5119500160217285
1749987791958898200,2.281898193359375,9.229050636291504,1.180050015449524,0.4810500144958496
1749987791968912100,2.291912109375,9.223950386047363,1.5010501146316528,0.742050051689148
1749987791978925800,2.30192578125,9.255000114440918,1.5100500583648682,1.158000111579895
1749987791988939800,2.311939697265625,8.80305004119873,1.5700501203536987,1.4220000505447388
1749987791998953500,2.321953369140625,9.343950271606445,1.5840001106262207,1.711050033569336
1749987792008967200,2.33196728515625,9.504000663757324,1.4070000648498535,1.852950096130371
1749987792018981000,2.341981201171875,9.19800090789795,1.333050012588501,1.7400001287460327
1749987792028994800,2.351994873046875,9.09000015258789,1.4500501155853271,1.429050087928772
1749987792039008800,2.3620087890625,9.223950386047363,1.5289500951766968,0.9880500435829163
1749987792049022500,2.3720224609375,9.414000511169434,1.429050087928772,0.612000048160553
1749987792059036400,2.382036376953125,9.535950660705566,1.2370500564575195,0.3660000264644623
1749987792069050000,2.392050048828125,9.531000137329102,1.1320500373840332,0.22905001044273376
1749987792079063800,2.402063720703125,9.442049980163574,1.102950096130371,0.15000000596046448
1749987792089077500,2.412077392578125,9.349050521850586,1.1890500783920288,0.16695000231266022
1749987792099091500,2.422091552734375,9.294000625610352,1.2829500436782837,0.25095000863075256
1749987792109105400,2.43210546875,9.244050025939941,1.3950001001358032,0.32505002617836
1749987792119119000,2.442119140625,9.117000579833984,1.5010501146316528,0.4039500057697296
1749987792129132800,2.4521328125,9.028050422668457,1.603950023651123,0.4830000102519989
1749987792139146800,2.462146728515625,8.659049987792969,1.7740501165390015,0.39000001549720764
1749987792149160400,2.472160400390625,9.223950386047363,1.8019500970840454,0.4710000157356262
1749987792159174100,2.482174072265625,9.31095027923584,1.7400001287460327,0.51705002784729
1749987792169188000,2.49218798828125,9.054000854492188,1.7230501174926758,0.6049500107765198
1749987792179201800,2.502201904296875,8.974950790405273,1.8360000848770142,0.7440000176429749
1749987792189215700,2.5122158203125,9.010950088500977,1.8769501447677612,0.7510500550270081
1749987792199229400,2.5222294921875,8.983050346374512,1.9530000686645508,0.6049500107765198
1749987792209243400,2.532243408203125,8.704950332641602,1.8190500736236572,0.8590500354766846
1749987792219257000,2.542257080078125,8.068050384521484,1.714050054550171,1.1320500373840332
1749987792229271000,2.55227099609375,9.38700008392334,1.8499500751495361,0.7320000529289246
1749987792239284700,2.56228466796875,9.022950172424316,2.118000030517578,0.7870500087738037
1749987792249298400,2.57229833984375,8.676000595092773,2.1880500316619873,0.8280000686645508
1749987792259312400,2.5823125,8.77695083618164,2.1690001487731934,0.8779500126838684
1749987792269326000,2.592326171875,9.02595043182373,2.142000198364258,0.9499500393867493
1749987792279340000,2.602340087890625,9.121050834655762,2.152050018310547,1.024049997329712
1749987792289353700,2.612353759765625,9.121050834655762,2.2069501876831055,1.1509500741958618
1749987792299367700,2.62236767578125,9.121050834655762,2.2210500240325928,1.2060000896453857
1749987792309381400,2.63238134765625,9.289050102233887,2.2170000076293945,1.0170000791549683
1749987792319395300,2.642395263671875,9.447000503540039,2.2549500465393066,0.700950026512146
1749987792329409300,2.6524091796875,9.588000297546387,2.101950168609619,0.6480000019073486
1749987792339422700,2.662422607421875,9.672000885009766,1.7020500898361206,0.8659500479698181
1749987792349436700,2.672436767578125,9.499950408935547,1.9240500926971436,0.39900001883506775
1749987792359450400,2.682450439453125,9.402000427246094,2.152050018310547,0.39195001125335693
1749987792369464300,2.69246435546875,9.600000381469727,2.48895001411438,0.021000001579523087
1749987792379478000,2.70247802734375,9.643050193786621,2.6070001125335693,0.08100000023841858
1749987792389492000,2.712491943359375,9.720000267028809,2.4660000801086426,0.23895001411437988
1749987792399505400,2.72250537109375,9.670050621032715,2.329050064086914,0.39000001549720764
1749987792409519600,2.73251953125,9.624000549316406,2.319000005722046,0.4620000123977661
1749987792419533300,2.742533203125,9.69795036315918,2.4340500831604004,0.42600002884864807
1749987792429547000,2.752547119140625,9.909000396728516,2.5920000076293945,0.42600002884864807
1749987792439560700,2.762560791015625,9.946950912475586,2.638050079345703,0.4930500090122223
1749987792449574700,2.77257470703125,9.871050834655762,2.551950216293335,0.5910000205039978
1749987792459588600,2.782588623046875,9.823050498962402,2.4750001430511475,0.7129500508308411
1749987792469602300,2.792602294921875,9.643050193786621,2.4630000591278076,0.6700500249862671
1749987792479616000,2.802615966796875,9.46095085144043,2.430000066757202,0.5190000534057617
1749987792489630000,2.8126298828125,9.41100025177002,2.4180002212524414,0.37095001339912415
1749987792499643600,2.8226435546875,9.799050331115723,2.2669501304626465,0.6439500451087952
1749987792509657600,2.83265771484375,9.96405029296875,2.0250000953674316,0.8880000710487366
1749987792519671300,2.84267138671875,9.375,1.981950044631958,0.9880500435829163
1749987792529685200,2.852685302734375,9.06195068359375,2.454000234603882,0.45000001788139343
1749987792539699000,2.862698974609375,8.662050247192383,3.031050205230713,0.5410500168800354
1749987792549713000,2.872712890625,8.779050827026367,3.394050121307373,0.5070000290870667
1749987792559726300,2.882726318359375,9.337050437927246,3.6670501232147217,0.5209500193595886
1749987792569740500,2.892740478515625,10.684950828552246,3.8010001182556152,0.5410500168800354
1749987792579754200,2.902754150390625,11.856000900268555,3.7270500659942627,0.739050030708313
1749987792589768000,2.912767822265625,11.583000183105469,3.4110002517700195,0.9640500545501709
1749987792599781600,2.92278173828125,10.600950241088867,2.9130001068115234,1.1220000982284546
1749987792609795600,2.932795654296875,9.610050201416016,2.359950065612793,1.4140501022338867
1749987792619809500,2.9428095703125,9.133049964904785,2.0749499797821045,1.4479501247406006
1749987792629823200,2.9528232421875,9.760950088500977,1.981950044631958,1.4959501028060913
1749987792639837000,2.9628369140625,10.096050262451172,2.3149502277374268,1.3980001211166382
1749987792649851000,2.972850830078125,10.009950637817383,3.1690502166748047,0.9859500527381897
1749987792659864600,2.982864501953125,9.433050155639648,3.8419501781463623,0.7560000419616699
1749987792669878500,2.99287841796875,9.030000686645508,3.514050245285034,1.1730000972747803
1749987792679892200,3.002892333984375,9.11400032043457,3.2410502433776855,1.2490500211715698
1749987792689906200,3.01290625,9.4350004196167,3.265050172805786,1.4170501232147217
1749987792699920000,3.022919921875,9.90000057220459,3.4999501705169678,1.7470500469207764
1749987792709933800,3.032933837890625,9.538050651550293,3.576000213623047,2.133000135421753
1749987792719947500,3.042947509765625,8.58495044708252,3.3390002250671387,2.0350501537323
1749987792729961200,3.052961181640625,8.329050064086914,2.937000036239624,1.7209501266479492
1749987792739975200,3.06297509765625,8.734050750732422,2.3430001735687256,1.7929500341415405
1749987792749988900,3.07298876953125,9.093000411987305,2.1060001850128174,1.7860500812530518
1749987792760002600,3.08300244140625,9.499950408935547,2.3080501556396484,1.659000039100647
1749987792770016500,3.0930166015625,9.946950912475586,2.4820501804351807,1.8240001201629639
1749987792780030500,3.103030517578125,9.919050216674805,2.5660500526428223,2.239950180053711
1749987792790044200,3.113044189453125,9.640950202941895,2.4660000801086426,2.737950086593628
1749987792800058000,3.12305810546875,9.567000389099121,2.3770501613616943,2.8819501399993896
1749987792810071600,3.133071533203125,9.607050895690918,2.6140501499176025,2.5920000076293945
1749987792820085800,3.143085693359375,9.43005084991455,2.9440500736236572,2.260050058364868
1749987792830099500,3.153099365234375,9.403950691223145,2.8030500411987305,1.6200001239776611
1749987792840113200,3.163113037109375,9.481050491333008,2.5249500274658203,1.1149500608444214
1749987792850126800,3.173126953125,9.052050590515137,2.3359501361846924,0.5770500302314758
1749987792860140800,3.183140869140625,8.86305046081543,2.182950019836426,-0.33900001645088196
1749987792870154800,3.19315478515625,9.11205005645752,2.4079501628875732,-0.7080000042915344
1749987792880168400,3.20316845703125,9.559950828552246,2.3839499950408936,0.46905001997947693
1749987792890182100,3.21318212890625,9.873000144958496,2.149049997329712,1.2559500932693481
1749987792900195800,3.22319580078125,10.089000701904297,2.092050075531006,1.651050090789795
1749987792910209800,3.233209716796875,10.27500057220459,2.2069501876831055,1.5289500951766968
1749987792920223700,3.2432236328125,10.165050506591797,2.3149502277374268,1.0459500551223755
1749987792930237400,3.253237548828125,9.82800006866455,2.470050096511841,0.41100001335144043
1749987792940251400,3.26325146484375,9.502050399780273,2.2860000133514404,0.3949500322341919
1749987792950265000,3.27326513671875,9.303000450134277,2.5920000076293945,0.6820500493049622
1749987792960279000,3.283279052734375,9.034950256347656,2.6830501556396484,1.2130500078201294
1749987792970292500,3.29329248046875,8.809950828552246,2.5570502281188965,1.6609500646591187
1749987792980306400,3.303306396484375,8.740950584411621,2.5129501819610596,1.6900501251220703
1749987792990320000,3.313320068359375,8.722050666809082,2.4660000801086426,1.615950107574463
1749987793000334000,3.323333984375,8.599050521850586,2.530050039291382,1.3860000371932983
1749987793010347800,3.33334765625,8.575950622558594,2.5849502086639404,1.0740000009536743
1749987793020361700,3.34336181640625,9.006000518798828,2.7940502166748047,0.9570000171661377
1749987793030375400,3.35337548828125,8.599050521850586,3.1050002574920654,0.7060500383377075
1749987793040389000,3.36338916015625,8.722050666809082,3.0550501346588135,1.2250500917434692
1749987793050403000,3.373403076171875,9.093000411987305,2.8560001850128174,1.8330000638961792
1749987793060416800,3.383416748046875,9.5910005569458,2.619000196456909,2.2860000133514404
1749987793070430700,3.3934306640625,9.805950164794922,2.389050006866455,2.3389501571655273
1749987793080444400,3.4034443359375,9.502050399780273,2.379000186920166,1.90500009059906
1749987793090458400,3.413458251953125,9.255000114440918,2.2519500255584717,1.5610500574111938
1749987793100472300,3.423472412109375,9.315000534057617,2.1469500064849854,1.2540000677108765
1749987793110486000,3.433486083984375,9.366000175476074,2.461050033569336,0.8470500111579895
1749987793120499700,3.443499755859375,9.628950119018555,2.2980000972747803,0.856950044631958
1749987793130514000,3.453513916015625,9.859050750732422,2.053950071334839,0.9810000658035278
1749987793140527400,3.46352734375,9.777000427246094,2.389050006866455,0.8779500126838684
1749987793150541300,3.473541259765625,9.414000511169434,2.4820501804351807,0.8350500464439392
1749987793160555300,3.48355517578125,9.208050727844238,2.4030001163482666,0.9450000524520874
1749987793170569000,3.49356884765625,9.303000450134277,2.454000234603882,1.0120500326156616
1749987793180583000,3.5035830078125,9.222000122070312,2.5759501457214355,1.1340000629425049
1749987793190596600,3.5135966796875,8.944050788879395,2.67900013923645,1.1340000629425049
1749987793200610600,3.523610595703125,8.656949996948242,2.7910501956939697,1.0980000495910645
1749987793210624000,3.5336240234375,8.470050811767578,2.848950147628784,0.9640500545501709
1749987793220638000,3.543637939453125,8.371950149536133,2.77905011177063,0.9330000281333923
1749987793230652000,3.55365185546875,8.185050010681152,2.887050151824951,0.8280000686645508
1749987793240665600,3.56366552734375,8.164050102233887,3.1960501670837402,0.8250000476837158
1749987793250679600,3.573679443359375,8.110950469970703,3.0979502201080322,1.1320500373840332
1749987793260693200,3.583693359375,8.506050109863281,2.9010000228881836,1.599000096321106
1749987793270707200,3.593707275390625,8.998950004577637,2.6430001258850098,1.810050129890442
1749987793280720600,3.603720703125,9.004050254821777,2.8510501384735107,1.6110000610351562
1749987793290734600,3.613734619140625,9.02595043182373,2.748000144958496,1.5720000267028809
1749987793300748300,3.623748291015625,9.09000015258789,2.896050214767456,1.4959501028060913
1749987793310762200,3.63376220703125,8.947050094604492,3.643050193786621,0.8209500312805176
1749987793320776000,3.64377587890625,8.523000717163086,3.7009501457214355,0.9160500168800354
1749987793330790000,3.653789794921875,8.010000228881836,3.4110002517700195,1.3789501190185547
1749987793340803600,3.663803466796875,8.239950180053711,3.1620001792907715,1.276050090789795
1749987793350817300,3.6738173828125,8.425050735473633,2.6070001125335693,1.5510001182556152
1749987793360831000,3.6838310546875,9.00195026397705,2.616000175476074,1.3470001220703125
1749987793370845000,3.693844970703125,9.397050857543945,2.4820501804351807,1.672950029373169
1749987793380859000,3.70385888671875,9.291000366210938,2.638050079345703,1.8190500736236572
1749987793390872600,3.71387255859375,9.07395076751709,2.8510501384735107,1.8960001468658447
1749987793400886300,3.72388623046875,8.855999946594238,2.947050094604492,1.7740501165390015
1749987793410900200,3.733900146484375,8.788949966430664,3.0139501094818115,1.6060501337051392
1749987793420914200,3.7439140625,8.881950378417969,3.0829501152038574,1.4740500450134277
1749987793430927600,3.753927734375,9.11205005645752,3.0139501094818115,1.434000015258789
1749987793440941800,3.76394189453125,9.38700008392334,2.889000177383423,1.7040001153945923
1749987793450955300,3.773955322265625,9.445050239562988,2.7769501209259033,2.1349501609802246
1749987793460969200,3.78396923828125,9.41100025177002,2.737950086593628,1.8840000629425049
1749987793470983000,3.79398291015625,8.893950462341309,3.046950101852417,1.2439500093460083
1749987793480996900,3.803996826171875,8.87505054473877,3.4780502319335938,0.6240000128746033
1749987793491010600,3.814010498046875,8.983050346374512,2.9640002250671387,0.6910500526428223
1749987793501024500,3.8240244140625,9.042000770568848,2.0680501461029053,1.0360500812530518
1749987793511038200,3.8340380859375,8.88705062866211,0.8419500589370728,1.9720500707626343
1749987793521052000,3.844052001953125,9.718050003051758,1.7950501441955566,1.2420001029968262
1749987793531065900,3.85406591796875,10.086000442504883,2.680950164794922,0.8809500336647034
1749987793541079600,3.86407958984375,10.564950942993164,2.688000202178955,0.7699500322341919
1749987793551093500,3.874093505859375,11.25195026397705,1.7470500469207764,-0.0690000057220459
1749987793561107200,3.884107177734375,10.72800064086914,1.683000087738037,0.32805001735687256
1749987793571121200,3.89412109375,10.69005012512207,1.7020500898361206,0.8689500689506531
1749987793581134800,3.904134765625,11.27400016784668,0.8610000610351562,1.065000057220459
1749987793591148500,3.9141484375,11.892000198364258,0.025950001552700996,1.7160000801086426
1749987793601162500,3.92416259765625,11.700000762939453,0.2460000067949295,2.2330501079559326
1749987793611176400,3.934176513671875,10.783050537109375,1.1490000486373901,2.180999994277954
1749987793621190100,3.944190185546875,10.125000953674316,1.4029500484466553,1.828950047492981
1749987793631203800,3.954203857421875,9.981000900268555,1.8960001468658447,1.065000057220459
1749987793641217800,3.9642177734375,9.289050102233887,2.9160001277923584,-0.33900001645088196
1749987793651231500,3.9742314453125,7.615050315856934,3.0139501094818115,-1.5750000476837158
1749987793661245200,3.9842451171875,5.81505012512207,2.3310000896453857,-1.2520500421524048
1749987793671259100,3.994259033203125,4.909950256347656,1.3669500350952148,-1.125
1749987793681272800,4.00427294921875,4.939050197601318,0.984000027179718,-0.7729500532150269
1749987793691286800,4.014286865234375,5.061000347137451,1.1680500507354736,-0.1579500138759613
1749987793701300500,4.024300537109375,5.590050220489502,0.8179500102996826,0.11700000613927841
1749987793711314400,4.034314453125,6.775050163269043,0.26805001497268677,0.6150000095367432
1749987793721328000,4.044328125,7.7659502029418945,-0.21300001442432404,0.51705002784729
1749987793731341800,4.054341796875,7.503000259399414,-0.7489500641822815,0.2939999997615814
1749987793741354800,4.064354736328125,6.8710503578186035,-1.3620001077651978,-0.028050001710653305
1749987793751368400,4.074368408203125,6.916050434112549,-2.848950147628784,-1.1770501136779785
1749987793761382400,4.08438232421875,6.39900016784668,-2.77905011177063,-0.09300000220537186
1749987793771397000,4.094397216796875,5.736000061035156,-2.1090002059936523,0.700950026512146
1749987793781411000,4.1044111328125,5.559000492095947,-0.7579500079154968,1.7880001068115234
1749987793791425000,4.114425048828125,6.658050537109375,-0.43995001912117004,4.117949962615967
1749987793801438700,4.124438720703125,6.748950481414795,0.04500000178813934,4.752000331878662
1749987793811452400,4.134452392578125,5.563950061798096,-1.4239500761032104,4.852950096130371
1749987793821466400,4.14446630859375,4.278000354766846,-1.603950023651123,2.8150501251220703
1749987793831480000,4.15447998046875,3.370950222015381,-1.582050085067749,2.788950204849243
1749987793841494000,4.164493896484375,3.3610501289367676,-1.7089500427246094,3.778050184249878
1749987793851507700,4.1745078125,3.238950252532959,-2.8129501342773438,4.741950035095215
1749987793861521700,4.184521728515625,3.198000192642212,-4.73805046081543,5.623050212860107
1749987793871535400,4.194535400390625,3.687000274658203,-6.145050525665283,5.443950176239014
1749987793881549000,4.204549072265625,4.70205020904541,-6.6220502853393555,4.680000305175781
1749987793891563000,4.21456298828125,5.463000297546387,-6.478050231933594,3.6670501232147217
1749987793901576700,4.22457666015625,5.061000347137451,-6.813000202178955,4.7659502029418945
1749987793911590700,4.234590576171875,4.900050163269043,-6.5209503173828125,7.849950313568115
1749987793921604400,4.244604248046875,5.212050437927246,-6.847050189971924,9.660000801086426
1749987793931618300,4.254618408203125,5.314950466156006,-6.217050075531006,11.929950714111328
1749987793941632000,4.264632080078125,5.248050212860107,-5.121000289916992,12.519001007080078
1749987793951645700,4.274645751953125,4.486050128936768,-5.401050090789795,10.029000282287598
1749987793961659400,4.284659423828125,3.358950138092041,-5.394000053405762,8.26395034790039
1749987793971673300,4.29467333984375,3.0859501361846924,-4.3090500831604,7.302000522613525
1749987793981687000,4.30468701171875,3.0979502201080322,-2.596950054168701,5.896050453186035
1749987793991701000,4.314700927734375,2.0899500846862793,-1.9480501413345337,5.9730000495910645
1749987794001714700,4.324714599609375,1.2540000677108765,-3.2320501804351807,6.6190505027771
1749987794011728600,4.334728759765625,0.687000036239624,-5.355000019073486,8.381999969482422
1749987794021742300,4.344742431640625,1.651050090789795,-6.877950191497803,9.640950202941895
1749987794031756300,4.35475634765625,8.722050666809082,-7.050000190734863,9.478050231933594
1749987794041770000,4.36477001953125,7.173000335693359,-7.576950550079346,10.656000137329102
1749987794051783700,4.37478369140625,4.60605001449585,-7.963050365447998,12.289051055908203
1749987794061797400,4.38479736328125,3.7320001125335693,-8.611050605773926,12.325050354003906
1749987794071811300,4.394811279296875,1.4620500802993774,-9.981000900268555,12.841950416564941
1749987794081825300,4.4048251953125,1.078950047492981,-10.062000274658203,13.708950996398926
1749987794091839000,4.4148388671875,2.7430500984191895,-8.767050743103027,13.519950866699219
1749987794101853000,4.42485302734375,2.5609500408172607,-8.698050498962402,13.503000259399414
1749987794111866400,4.434866455078125,2.260050058364868,-9.447000503540039,14.074950218200684
1749987794121880300,4.44488037109375,2.839050054550171,-8.638050079345703,14.118000984191895
1749987794131894000,4.45489404296875,3.0949501991271973,-7.026000499725342,14.080050468444824
1749987794141908000,4.464907958984375,2.92995023727417,-7.684950351715088,15.169051170349121
1749987794151921700,4.474921630859375,4.180050373077393,-8.587950706481934,15.780000686645508
1749987794161935600,4.484935546875,6.859050273895264,-7.6080002784729,15.504000663757324
1749987794171949300,4.49494921875,7.762050151824951,-7.647000312805176,16.61505126953125
1749987794181963300,4.50496337890625,6.526050090789795,-9.169050216674805,18.47100067138672
1749987794191977000,4.51497705078125,6.684000492095947,-8.28795051574707,19.207950592041016
1749987794201990700,4.52499072265625,13.069050788879395,-4.9960503578186035,17.23995018005371
1749987794212004600,4.535004638671875,16.00200080871582,-0.8020500540733337,11.781000137329102
1749987794222018300,4.545018310546875,7.374000549316406,-1.5940500497817993,12.394050598144531
1749987794232032300,4.5550322265625,5.194950103759766,-5.620950222015381,15.520950317382812
1749987794242046000,4.5650458984375,4.819050312042236,-7.630050182342529,15.72195053100586
1749987794252060000,4.575059814453125,1.1320500373840332,-6.96405029296875,13.648950576782227
1749987794262073600,4.585073486328125,0.4330500066280365,-4.703999996185303,10.362000465393066
1749987794272087300,4.59508740234375,0.3750000298023224,-4.515000343322754,7.383000373840332
1749987794282101200,4.605101318359375,0.22200001776218414,-7.0000505447387695,6.78000020980835
1749987794292115200,4.615115234375,1.5750000476837158,-9.12405014038086,6.202950477600098
1749987794302129000,4.62512890625,3.703050136566162,-9.969000816345215,5.860950469970703
1749987794312142800,4.635142822265625,4.594050407409668,-9.7339506149292,6.1020002365112305
1749987794322156500,4.645156494140625,4.342950344085693,-8.989950180053711,6.1210503578186035
1749987794332170500,4.65517041015625,3.6100502014160156,-8.248050689697266,5.776950359344482
1749987794342184200,4.66518408203125,2.737950086593628,-7.7500505447387695,5.623050212860107
1749987794352198100,4.6751982421875,1.5100500583648682,-7.438050270080566,5.563950061798096
1749987794362211800,4.6852119140625,1.7710500955581665,-6.973950386047363,5.640000343322754
1749987794372225500,4.6952255859375,2.92995023727417,-6.784950256347656,6.523950099945068
1749987794382239500,4.705239501953125,3.576000213623047,-6.478050231933594,7.261050224304199
1749987794392253200,4.715253173828125,4.03095006942749,-6.19605016708374,8.527950286865234
1749987794402267100,4.72526708984375,4.017000198364258,-5.511000156402588,9.514050483703613
1749987794412280800,4.73528076171875,4.246950149536133,-5.109000205993652,10.44105052947998
1749987794422294800,4.745294677734375,4.359000205993652,-4.711050033569336,11.365050315856934
1749987794432308500,4.75530859375,5.350950241088867,-4.1610002517700195,11.793000221252441
1749987794442322400,4.765322509765625,5.7960004806518555,-3.138000249862671,13.065000534057617
1749987794452336400,4.77533642578125,4.836000442504883,-2.4220499992370605,12.873000144958496
1749987794462349800,4.785349853515625,4.335000038146973,-2.848950147628784,11.371950149536133
1749987794472363800,4.79536376953125,4.564949989318848,-3.0330002307891846,10.620000839233398
1749987794482377700,4.805377685546875,4.908000469207764,-3.1740002632141113,9.153000831604004
1749987794492391400,4.815391357421875,6.033000469207764,-3.907050132751465,6.708000183105469
1749987794502405400,4.8254052734375,5.6860504150390625,-4.984050273895264,5.269050121307373
1749987794512419000,4.835419189453125,5.664000034332275,-4.314000129699707,4.311000347137451
1749987794522433000,4.84543310546875,6.307950496673584,-4.2900004386901855,1.5370501279830933
1749987794532446700,4.85544677734375,3.4830002784729004,-6.514050483703613,-4.029000282287598
1749987794542460700,4.865460693359375,1.4479501247406006,-8.170949935913086,-5.149050235748291
1749987794552474400,4.875474365234375,2.5350000858306885,-9.808950424194336,-2.760000228881836
1749987794562488000,4.885488037109375,2.0029501914978027,-9.358050346374512,1.2300000190734863
1749987794572502000,4.895501953125,0.49995002150535583,-7.033950328826904,3.5929501056671143
1749987794582516000,4.905515869140625,-1.6609500646591187,-5.329050064086914,5.800950050354004
1749987794592529700,4.91552978515625,2.703000068664551,-5.91795015335083,8.949000358581543
1749987794602543600,4.925543701171875,-3.5839502811431885,-3.0810000896453857,7.582050323486328
1749987794612557300,4.935557373046875,-0.9739500284194946,-4.012050151824951,7.546050548553467
1749987794622571300,4.9455712890625,-1.1370000839233398,-8.185050010681152,10.888050079345703
1749987794632585000,4.9555849609375,-0.7579500079154968,-7.711050510406494,10.13895034790039
1749987794642599000,4.965598876953125,3.7270500659942627,-4.125,9.564000129699707
1749987794652612600,4.975612548828125,4.515000343322754,-4.833000183105469,13.078950881958008
1749987794662626300,4.985626220703125,3.763050079345703,-5.868000507354736,13.122000694274902
1749987794672640000,4.995639892578125,1.7830500602722168,-5.070000171661377,14.808000564575195
1749987794682654000,5.005654052734375,0.7680000066757202,-3.733950138092041,13.660950660705566
1749987794692667600,5.015667724609375,-0.12600000202655792,-1.696950078010559,12.787050247192383
1749987794702681600,5.025681640625,0.9049500226974487,-1.1320500373840332,10.596000671386719
1749987794712695300,5.0356953125,1.1560500860214233,-2.4180002212524414,9.184050559997559
1749987794722709200,5.045709228515625,1.443000078201294,-3.4110002517700195,9.451950073242188
1749987794732723000,5.055722900390625,1.1770501136779785,-3.44700026512146,8.434050559997559
1749987794742737000,5.06573681640625,1.01895010471344,-3.327000141143799,7.483950138092041
1749987794752750600,5.07575048828125,0.8250000476837158,-1.852950096130371,7.314000129699707
1749987794762764500,5.0857646484375,-0.15000000596046448,-2.3910000324249268,7.14900016784668
1749987794772778200,5.0957783203125,-0.6169500350952148,-2.571000099182129,6.11400032043457
1749987794782792000,5.1057919921875,-0.0070500001311302185,-2.479950189590454,5.269050121307373
1749987794792806000,5.115805908203125,0.7300500273704529,-2.152050018310547,4.599000453948975
1749987794802819600,5.125819580078125,0.28200000524520874,-2.1090002059936523,5.209050178527832
1749987794812833500,5.13583349609375,-0.5910000205039978,-2.638050079345703,6.579000473022461
1749987794822847200,5.14584716796875,-0.3540000021457672,-2.7769501209259033,8.191950798034668
1749987794832861200,5.155861083984375,-0.6600000262260437,-2.491950035095215,8.097000122070312
1749987794842875000,5.165875,0.2989500164985657,-2.470050096511841,7.393050193786621
1749987794852888800,5.175888916015625,1.5289500951766968,-3.0430500507354736,6.900000095367432
1749987794862902500,5.185902587890625,1.7280000448226929,-3.775050163269043,6.835050106048584
1749987794872916200,5.195916259765625,1.1130000352859497,-4.371000289916992,6.535950183868408
1749987794882930200,5.20593017578125,-2.230950117111206,-4.534049987792969,6.612000465393066
1749987794892944100,5.215944091796875,-6.567000389099121,-3.9880502223968506,7.279950141906738
1749987794912971800,5.2359716796875,-5.041950225830078,-3.1410000324249268,7.402050495147705
1749987794922985500,5.2459853515625,-3.61995005607605,-3.888000249862671,8.379000663757324
1749987794943013400,5.266013427734375,-3.95205020904541,-5.058000087738037,9.853950500488281
1749987794953027000,5.276027099609375,-4.402050018310547,-4.393050193786621,9.921000480651855
1749987794963041000,5.286041015625,-4.951050281524658,-3.0400500297546387,9.919050216674805
1749987794973054700,5.2960546875,-5.379000186920166,-1.8480000495910645,9.259950637817383
1749987794983068400,5.306068359375,-4.954950332641602,-0.9520500302314758,8.52495002746582
1749987794993082400,5.316082275390625,-3.724950075149536,-0.4020000100135803,8.500950813293457
1749987795003096300,5.326096435546875,-2.688000202178955,-0.21705001592636108,8.35004997253418
1749987795013110000,5.336110107421875,-2.302950143814087,-0.7540500164031982,7.635000228881836
1749987795023123700,5.346123779296875,-2.698050022125244,-1.5840001106262207,6.889950275421143
1749987795033137700,5.3561376953125,-2.8510501384735107,-2.4460501670837402,6.385050296783447
1749987795043151400,5.3661513671875,-2.499000072479248,-2.8440001010894775,6.343950271606445
1749987795053165300,5.376165283203125,-1.5750000476837158,-2.8129501342773438,5.845950126647949
1749987795063179000,5.386178955078125,-0.7699500322341919,-2.518050193786621,5.821950435638428
1749987795073193000,5.39619287109375,-0.1360500007867813,-2.829000234603882,5.652000427246094
1749987795083207000,5.40620703125,0.6079500317573547,-3.325050115585327,4.801950454711914
1749987795093220600,5.416220703125,0.9280500411987305,-3.703050136566162,3.8400001525878906
1749987795103234600,5.426234619140625,0.9760500192642212,-3.7680001258850098,3.4260001182556152
1749987795113248300,5.436248291015625,-0.0880500078201294,-3.5050501823425293,2.9640002250671387
1749987795123262200,5.44626220703125,-1.081950068473816,-2.9419500827789307,2.4559500217437744
1749987795133276000,5.45627587890625,-2.1040501594543457,-2.703000068664551,2.2860000133514404
1749987795143289900,5.466289794921875,-3.283950090408325,-3.0400500297546387,3.2100000381469727
1749987795153303600,5.476303466796875,-4.354950428009033,-3.793950080871582,5.185050010681152
1749987795163317200,5.486317138671875,-4.594050407409668,-5.9350504875183105,8.017950057983398
1749987795173331200,5.496331298828125,-3.595950126647949,-6.784950256347656,8.28600025177002
1749987795183345000,5.506344970703125,-2.67900013923645,-6.9310503005981445,8.116050720214844
1749987795193358800,5.51635888671875,-2.1730501651763916,-7.311000347137451,7.387950420379639
1749987795203372500,5.52637255859375,-1.5649501085281372,-9.982950210571289,7.386000156402588
1749987795213386500,5.536386474609375,-1.6680001020431519,-12.445050239562988,7.417050361633301
1749987795223400400,5.546400390625,-0.5239500403404236,-13.711050987243652,7.443000316619873
1749987795233414100,5.5564140625,2.1160500049591064,-15.67905044555664,6.12600040435791
1749987795243428000,5.566427978515625,4.359000205993652,-15.370050430297852,4.1770501136779785
1749987795253441800,5.57644189453125,4.948050022125244,-14.250000953674316,0.8160000443458557
1749987795263455700,5.586455810546875,-5.025000095367432,-14.32905101776123,-4.753950119018555
1749987795273469400,5.596469482421875,-0.9880500435829163,-13.194000244140625,-1.64205002784729
1749987795283483400,5.6064833984375,6.22005033493042,-13.122000694274902,2.77905011177063
1749987795303511000,5.626510986328125,0.675000011920929,-15.097050666809082,2.6070001125335693
1749987795313524500,5.6365244140625,-0.9160500168800354,-15.283950805664062,3.283950090408325
1749987795323538400,5.646538330078125,2.2260000705718994,-14.293050765991211,4.2970499992370605
1749987795333552600,5.656552734375,0.7800000309944153,-12.70305061340332,4.945950031280518
1749987795343566000,5.666566162109375,-2.959050178527832,-11.203950881958008,5.449050426483154
1749987795353580000,5.676580078125,-3.3010501861572266,-10.600950241088867,5.7019500732421875
1749987795363593700,5.68659375,-1.6540501117706299,-11.221050262451172,5.836950302124023
1749987795373607700,5.696607666015625,-0.5879999995231628,-11.821950912475586,5.38200044631958
1749987795383621600,5.70662158203125,-0.2530499994754791,-12.118950843811035,4.857000350952148
1749987795393635300,5.71663525390625,-0.12600000202655792,-11.733000755310059,4.426050186157227
1749987795403649300,5.726649169921875,0.38700002431869507,-10.081050872802734,3.8400001525878906
1749987795413663000,5.7366630859375,-0.04005000367760658,-8.80305004119873,3.5929501056671143
1749987795423677000,5.746677001953125,-1.1749500036239624,-7.9770002365112305,3.6820502281188965
1749987795433690600,5.756690673828125,-1.714050054550171,-7.0410003662109375,3.4729502201080322
1749987795443704600,5.76670458984375,-1.1130000352859497,-6.226950168609619,3.1309502124786377
1749987795453718300,5.77671826171875,-0.3679500222206116,-5.679000377655029,2.8650002479553223
1749987795463732200,5.786732177734375,0.1360500007867813,-5.506050109863281,2.6040000915527344
1749987795473746200,5.79674609375,0.3439500033855438,-5.64300012588501,2.2789502143859863
1749987795483759600,5.806759521484375,0.28005000948905945,-6.090000152587891,2.1040501594543457
1749987795493773800,5.81677392578125,0.20100000500679016,-6.627000331878662,1.9270501136779785
1749987795503787500,5.82678759765625,-0.05505000427365303,-7.2870001792907715,1.88100004196167
1749987795513801500,5.836801513671875,-0.6990000605583191,-7.8670501708984375,2.212050199508667
1749987795523815400,5.8468154296875,-1.6660500764846802,-8.83905029296875,2.7310500144958496
1749987795533828900,5.856828857421875,-1.812000036239624,-10.153050422668457,3.3730502128601074
1749987795543842800,5.8668427734375,-0.9139500260353088,-11.191950798034668,3.8590502738952637
1749987795553856500,5.8768564453125,-0.19305001199245453,-12.129000663757324,4.434000015258789
1749987795563870500,5.886870361328125,0.14805001020431519,-13.13895034790039,5.062950134277344
1749987795573884400,5.896884521484375,0.32505002617836,-10.309050559997559,4.978950023651123
1749987795583898000,5.906898193359375,-0.32805001735687256,-6.421050071716309,4.833000183105469
1749987795593912000,5.916912109375,-0.7320000529289246,-6.0420002937316895,4.873950004577637
1749987795603925800,5.92692578125,-1.29705011844635,-6.5809502601623535,4.788000106811523
1749987795613939700,5.936939697265625,-2.623950242996216,-6.676950454711914,4.855050086975098
1749987795623953400,5.946953369140625,-3.3420002460479736,-6.859050273895264,4.744950294494629
1749987795633967400,5.95696728515625,-2.530050039291382,-7.194000244140625,4.228050231933594
1749987795643981300,5.966981201171875,-1.582050085067749,-7.431000232696533,3.5119502544403076
1749987795653995000,5.9769951171875,-0.9720000624656677,-7.723050594329834,2.5350000858306885
1749987795664009000,5.987009033203125,-0.6700500249862671,-7.833000183105469,1.5130500793457031
1749987795674022700,5.997022705078125,-0.6580500602722168,-7.515000343322754,0.8809500336647034
1749987795684036600,6.00703662109375,-0.8209500312805176,-6.9210004806518555,0.31800001859664917
1749987795694050300,6.01705029296875,-1.0000500679016113,-6.327000141143799,0.35100001096725464
1749987795704064300,6.027064208984375,-1.371000051498413,-5.323950290679932,1.1650500297546387
1749987795714078000,6.037077880859375,-2.269050121307373,-4.9870500564575195,1.8480000495910645
1749987795724092000,6.047091796875,-3.6910502910614014,-4.582050323486328,2.2139999866485596
1749987795734105600,6.057105712890625,-5.053950309753418,-4.273050308227539,3.007050037384033
1749987795744119300,6.067119384765625,-5.164050102233887,-4.546050071716309,3.496950149536133
1749987795754133500,6.077133544921875,-3.616950273513794,-4.771050453186035,3.106950044631958
1749987795764147200,6.087147216796875,-2.5450501441955566,-5.049000263214111,2.8410000801086426
1749987795774161000,6.097160888671875,-2.260050058364868,-5.884050369262695,2.8219501972198486
1749987795784174800,6.1071748046875,-2.7360000610351562,-7.63200044631958,2.8249502182006836
1749987795794188800,6.117188720703125,-3.627000093460083,-9.583050727844238,2.5470001697540283
1749987795804202500,6.127202392578125,-3.9160501956939697,-11.571000099182129,2.3749501705169678
1749987795814216400,6.137216552734375,-3.028050184249878,-12.427950859069824,1.968000054359436
1749987795824230100,6.147230224609375,-1.8960001468658447,-11.917950630187988,1.426050066947937
1749987795834244000,6.157244140625,-0.8419500589370728,-10.735050201416016,0.5239500403404236
1749987795844257800,6.1672578125,-0.06705000251531601,-10.824000358581543,0.14805001020431519
1749987795854271700,6.177271728515625,0.4020000100135803,-12.507000923156738,-0.09300000220537186
1749987795864285400,6.187285400390625,1.2250500917434692,-15.169051170349121,-0.5650500059127808
1749987795874299400,6.19729931640625,2.8939502239227295,-18.277050018310547,-1.0049999952316284
1749987795884313300,6.207313232421875,2.4340500831604004,-20.06505012512207,-1.3980001211166382
1749987795894327000,6.2173271484375,1.180050015449524,-21.33405113220215,-1.5610500574111938
1749987795904341000,6.227341064453125,-0.1189500093460083,-21.31005096435547,-0.6649500131607056
1749987795914355000,6.23735498046875,-1.5220500230789185,-18.97800064086914,1.4119501113891602
1749987795924368600,6.24736865234375,-2.9440500736236572,-16.13895034790039,2.7049500942230225
1749987795934382600,6.257382568359375,-3.4399502277374268,-12.604950904846191,2.4679501056671143
1749987795944396300,6.267396240234375,-2.817000150680542,-9.934950828552246,1.3830000162124634
1749987795954410200,6.27741015625,-2.242950201034546,-8.746050834655762,0.28905001282691956
1749987795964424000,6.287423828125,-2.370000123977661,-8.452950477600098,-0.23895001411437988
1749987795974438000,6.29743798828125,-2.6640000343322754,-8.389050483703613,-0.4710000157356262
1749987795984451800,6.307451904296875,-2.9419500827789307,-8.28795051574707,-0.5860500335693359
1749987795994465500,6.317465576171875,-2.9130001068115234,-7.90500020980835,-0.44505003094673157
1749987796004479500,6.3274794921875,-2.977950096130371,-7.548000335693359,-0.4140000343322754
1749987796014493200,6.3374931640625,-3.2989501953125,-7.539000511169434,-0.24105000495910645
1749987796024507100,6.347507080078125,-3.283950090408325,-7.716000556945801,0.27195000648498535
1749987796034521000,6.35752099609375,-2.608950138092041,-7.752000331878662,1.0720500946044922
1749987796044534800,6.36753466796875,-1.3000500202178955,-7.696950435638428,1.9410001039505005
1749987796054548500,6.377548583984375,0.13395000994205475,-7.216050148010254,2.479950189590454
1749987796064562700,6.387562744140625,0.5790000557899475,-6.901950359344482,2.4340500831604004
1749987796074576400,6.397576416015625,-0.010950000956654549,-6.969000339508057,1.90500009059906
1749987796084590000,6.407590087890625,-0.19305001199245453,-5.974950313568115,1.467000126838684
1749987796094603800,6.417603759765625,0.09795000404119492,-5.130000114440918,1.1680500507354736
1749987796104618000,6.427617919921875,0.612000048160553,-4.965000152587891,0.7579500079154968
1749987796114631400,6.43763134765625,0.9049500226974487,-5.772000312805176,0.4900500178337097
1749987796124645600,6.447645751953125,0.8230500221252441,-7.189050197601318,0.8929500579833984
1749987796134659300,6.457659423828125,0.39195001125335693,-8.236050605773926,1.3450500965118408
1749987796144673000,6.467673095703125,-0.028050001710653305,-9.27495002746582,2.299950122833252
1749987796154687000,6.47768701171875,-0.6510000228881836,-9.90195083618164,3.7609500885009766
1749987796164700700,6.48770068359375,-2.9830501079559326,-10.906950950622559,4.948050022125244
1749987796174715000,6.49771484375,-9.234000205993652,-10.773000717163086,4.69005012512207
1749987796184728300,6.507728271484375,-12.753000259399414,-10.359000205993652,2.0869500637054443
1749987796194742300,6.5177421875,-8.997000694274902,-13.074000358581543,-1.4070000648498535
1749987796204756000,6.527755859375,-4.093950271606445,-13.717950820922852,-2.67900013923645
1749987796214770000,6.53777001953125,0.7129500508308411,-13.120050430297852,-2.8530001640319824
1749987796224784000,6.547783935546875,4.267950057983398,-13.045950889587402,-2.4250500202178955
1749987796234797600,6.557797607421875,6.76800012588501,-14.767050743103027,-1.9120501279830933
1749987796244811500,6.5678115234375,7.741950511932373,-15.931050300598145,-1.204050064086914
1749987796254825200,6.5778251953125,6.787050247192383,-15.480000495910645,-0.4210500121116638
1749987796264839200,6.587839111328125,5.695050239562988,-14.092050552368164,-0.06405000388622284
1749987796274853000,6.59785302734375,5.362950325012207,-13.357050895690918,-0.1290000081062317
1749987796284866800,6.60786669921875,4.588950157165527,-13.632000923156738,-0.4540500342845917
1749987796294880800,6.617880859375,3.1240501403808594,-13.744950294494629,-0.7800000309944153
1749987796304894500,6.62789453125,1.711050033569336,-14.917950630187988,-2.0749499797821045
1749987796314908200,6.637908203125,1.3830000162124634,-14.32395076751709,-2.6260502338409424
1749987796324922000,6.647922119140625,-2.892000198364258,-11.668950080871582,-2.940000057220459
1749987796334936000,6.65793603515625,-8.3860502243042,-11.194950103759766,-4.378050327301025
1749987796344949800,6.66794970703125,-9.145050048828125,-11.713950157165527,-5.260050296783447
1749987796354963700,6.677963623046875,-4.9170002937316895,-11.860050201416016,-5.233050346374512
1749987796364977400,6.687977294921875,-0.6169500350952148,-11.214000701904297,-4.32105016708374
1749987796374991400,6.697991455078125,1.467000126838684,-10.620000839233398,-2.7169501781463623
1749987796385005000,6.708005126953125,1.8049501180648804,-9.466050148010254,-1.3690500259399414
1749987796395019000,6.71801904296875,1.081950068473816,-9.222000122070312,0.07095000147819519
1749987796405033000,6.728032958984375,-0.4039500057697296,-8.57805061340332,1.9290001392364502
1749987796415046700,6.738046630859375,-2.1040501594543457,-8.511000633239746,3.8329501152038574
1749987796425060600,6.748060546875,-2.4850502014160156,-8.580000877380371,5.263950347900391
1749987796435074300,6.75807421875,-2.680950164794922,-7.872000217437744,7.114950180053711
1749987796445088300,6.768088134765625,-2.9040000438690186,-8.188050270080566,7.144050121307373
1749987796455102200,6.778102294921875,-2.977950096130371,-7.465050220489502,6.076050281524658
1749987796465115600,6.78811572265625,-2.86995005607605,-5.7019500732421875,4.429050445556641
1749987796475129600,6.798129638671875,-3.3199501037597656,-4.786050319671631,2.680950164794922
1749987796485143600,6.8081435546875,-3.2320501804351807,-4.623000144958496,0.6670500040054321
1749987796495157200,6.8181572265625,-2.1469500064849854,-4.393050193786621,-0.8110500574111938
1749987796505171200,6.828171142578125,-1.120050072669983,-3.9790501594543457,-1.3519500494003296
1749987796515185000,6.838184814453125,0.2939999997615814,-3.4810502529144287,-1.3789501190185547
1749987796525198800,6.84819873046875,1.968000054359436,-2.521050214767456,-1.0219500064849854
1749987796535212800,6.858212890625,3.409050226211548,-2.133000135421753,-1.3189500570297241
1749987796545226500,6.8682265625,2.7310500144958496,-2.782050132751465,-2.0820000171661377
1749987796555240400,6.878240478515625,2.91795015335083,-3.4930500984191895,-3.0259501934051514
1749987796565254400,6.88825439453125,3.8010001182556152,-4.426050186157227,-3.828000068664551
1749987796575268000,6.89826806640625,4.735050201416016,-5.764950275421143,-4.441050052642822
1749987796585281800,6.90828173828125,5.299950122833252,-8.133000373840332,-5.317050457000732
1749987796595295700,6.918295654296875,5.194950103759766,-11.391000747680664,-6.648000240325928
1749987796605309700,6.928309814453125,4.788000106811523,-14.380950927734375,-7.70205020904541
1749987796615323400,6.938323486328125,4.4670000076293945,-16.203001022338867,-7.963050365447998
1749987796625337300,6.94833740234375,4.659000396728516,-16.87095069885254,-7.852050304412842
1749987796635351000,6.95835107421875,3.8590502738952637,-16.135950088500977,-6.313050270080566
1749987796645365000,6.968364990234375,-0.8689500689506531,-14.041050910949707,-2.908050060272217
1749987796655378700,6.978378662109375,-7.386000156402588,-12.427950859069824,1.7449500560760498
1749987796665392600,6.988392578125,-12.169050216674805,-14.878951072692871,5.341050148010254
1749987796675406600,6.998406494140625,-12.327000617980957,-15.330000877380371,8.82194995880127
1749987796685420300,7.008420166015625,-7.8070502281188965,-12.531000137329102,10.45995044708252
1749987796695434200,7.018434326171875,-0.16200000047683716,-9.502050399780273,9.385050773620605
1749987796705448000,7.028447998046875,3.4780502319335938,-10.651050567626953,9.979050636291504
1749987796715462000,7.0384619140625,5.893950462341309,-9.672000885009766,10.783050537109375
1749987796725475800,7.048475830078125,5.299950122833252,-8.173049926757812,10.897950172424316
1749987796735489500,7.058489501953125,4.129050254821777,-6.390000343322754,10.242000579833984
1749987796745503500,7.06850341796875,3.9930002689361572,-5.050950050354004,7.885950565338135
1749987796755517200,7.07851708984375,3.2530500888824463,-3.766050100326538,3.8710501194000244
1749987796765531100,7.08853125,0.05895000323653221,-3.586050271987915,0.700950026512146
1749987796775544800,7.098544921875,-7.338000297546387,-5.413050174713135,-2.1280500888824463
1749987796785558500,7.10855859375,-9.753000259399414,-7.963050365447998,-5.488950252532959
1749987796805586200,7.128586181640625,2.287950038909912,-18.835050582885742,-11.002950668334961
1749987796815600000,7.13860009765625,2.9610002040863037,-18.41805076599121,-8.881950378417969
1749987796825613800,7.14861376953125,4.1010003089904785,-17.434051513671875,-5.044050216674805
1749987796835628000,7.1586279296875,3.634050130844116,-17.85795021057129,-1.7040001153945923
1749987796845641700,7.168641845703125,1.9339500665664673,-18.397050857543945,0.5910000205039978
1749987796855655400,7.178655517578125,2.8030500411987305,-18.50400161743164,2.242950201034546
1749987796865669400,7.18866943359375,4.01894998550415,-16.21500015258789,2.788950204849243
1749987796875683000,7.19868310546875,3.5620501041412354,-13.85205078125,3.4810502529144287
1749987796885697000,7.208697021484375,-0.8809500336647034,-14.218950271606445,5.233050346374512
1749987796895711000,7.2187109375,-3.6409502029418945,-14.721000671386719,5.350950241088867
1749987796905724700,7.228724609375,-0.46605002880096436,-13.456950187683105,2.9800500869750977
1749987796915738600,7.238738525390625,2.4439501762390137,-12.307950973510742,0.7320000529289246
1749987796925752300,7.24875244140625,2.9419500827789307,-11.980051040649414,-0.43800002336502075
1749987796935766300,7.258766357421875,2.9040000438690186,-11.985000610351562,-0.7560000419616699
1749987796945780200,7.2687802734375,2.4850502014160156,-11.892000198364258,-1.0600500106811523
1749987796955794000,7.2787939453125,1.8649500608444214,-11.283000946044922,-1.5169501304626465
1749987796965807900,7.288807861328125,1.2420001029968262,-10.13895034790039,-1.8570001125335693
1749987796975821600,7.298821533203125,0.05205000191926956,-9.118950843811035,-1.7449500560760498
1749987796985835300,7.308835205078125,-1.9870500564575195,-8.674050331115723,-0.7699500322341919
1749987796995849200,7.31884912109375,-3.3109500408172607,-8.527950286865234,0.8160000443458557
1749987797005863200,7.32886328125,-2.9350502490997314,-8.319000244140625,2.190000057220459
1749987797015876900,7.338876953125,-1.0120500326156616,-7.572000503540039,3.7579500675201416
1749987797025890800,7.348890869140625,-1.158000111579895,-7.362000465393066,4.144050121307373
1749987797035904500,7.358904541015625,-3.864000082015991,-7.015050411224365,4.219950199127197
1749987797045918500,7.36891845703125,-6.634050369262695,-6.610050201416016,4.375950336456299
1749987797055932400,7.378932373046875,-6.837000370025635,-6.238950252532959,4.102950096130371
1749987797065946000,7.388946044921875,-5.145000457763672,-5.413050174713135,3.1909501552581787
1749987797075960000,7.3989599609375,-3.7009501457214355,-4.584000110626221,1.765950083732605
1749987797085973800,7.408973876953125,-2.092050075531006,-4.537050247192383,0.8590500354766846
1749987797095987700,7.41898779296875,-0.5879999995231628,-4.774050235748291,0.361050009727478
1749987797106001400,7.42900146484375,-0.2580000162124634,-4.572000026702881,-0.24795001745224
1749987797116015400,7.439015380859375,-0.4020000100135803,-4.057950019836426,-0.9690000414848328
1749987797126029300,7.449029296875,0.0019500000635161996,-4.1610002517700195,-1.5250500440597534
1749987797136042800,7.459042724609375,0.6510000228881836,-4.981950283050537,-1.683000087738037
1749987797146057000,7.469056884765625,1.2679500579833984,-6.447000503540039,-1.543950080871582
1749987797156070700,7.479070556640625,2.013000011444092,-8.449049949645996,-1.390950083732605
1749987797166084600,7.489084716796875,3.0330002307891846,-11.106000900268555,-1.5630000829696655
1749987797176098300,7.499098388671875,2.9950501918792725,-15.315000534057617,-1.6990500688552856
1749987797186112000,7.509112060546875,3.3420002460479736,-17.130001068115234,-1.7280000448226929
1749987797196126000,7.5191259765625,3.933000087738037,-16.431001663208008,-1.5919500589370728
1749987797206140000,7.529139892578125,4.41195011138916,-15.77505111694336,-2.080049991607666
1749987797216153600,7.539153564453125,4.315950393676758,-14.571001052856445,-1.951050043106079
1749987797226167600,7.54916748046875,3.409050226211548,-13.576951026916504,-0.8640000224113464
1749987797236181200,7.55918115234375,2.6860501766204834,-12.96405029296875,0.28395000100135803
1749987797246195200,7.5691953125,0.6460500359535217,-13.132050514221191,1.3380000591278076
1749987797256209200,7.579209228515625,-1.6849501132965088,-13.563000679016113,2.350950002670288
1749987797266222800,7.589222900390625,-2.1660001277923584,-13.443000793457031,3.069000244140625
1749987797276237000,7.599237060546875,-1.8190500736236572,-12.118950843811035,3.2530500888824463
1749987797286250500,7.60925048828125,-2.647050142288208,-10.285050392150879,3.049950122833252
1749987797296264400,7.619264404296875,-3.406050205230713,-8.769000053405762,2.6620500087738037
1749987797306278400,7.6292783203125,-1.290000081062317,-10.32300090789795,4.594050407409668
1749987797316292000,7.6392919921875,-0.019050000235438347,-11.271000862121582,5.2069501876831055
1749987797326306000,7.64930615234375,0.1360500007867813,-11.575050354003906,4.465050220489502
1749987797336319700,7.65931982421875,0.2580000162124634,-11.191950798034668,4.279950141906738
1749987797346333700,7.669333740234375,0.6000000238418579,-10.363950729370117,4.675050258636475
1749987797356347400,7.679347412109375,1.443000078201294,-9.471000671386719,5.214000225067139
1749987797366361300,7.689361328125,1.7809500694274902,-8.419950485229492,5.281050205230713
1749987797376375300,7.699375244140625,2.2549500465393066,-6.505050182342529,4.965000152587891
1749987797386389000,7.709388916015625,2.7720000743865967,-4.591950416564941,4.4239501953125
1749987797396403000,7.71940283203125,2.4630000591278076,-3.166950225830078,3.658050060272217
1749987797406416600,7.729416748046875,1.1989500522613525,-1.9000500440597534,2.1040501594543457
1749987797416430600,7.7394306640625,-1.102950096130371,-0.700950026512146,-0.46905001997947693
1749987797426444500,7.749444580078125,-2.8440001010894775,-0.3349500298500061,-2.2380001544952393
1749987797436458200,7.759458251953125,-2.797950029373169,-1.2090001106262207,-1.264050006866455
1749987797446472200,7.76947216796875,-2.4030001163482666,-2.6760001182556152,1.1370000839233398
1749987797456486000,7.77948583984375,-3.318000078201294,-4.033950328826904,3.367950201034546
1749987797466499800,7.789499755859375,-9.672000885009766,-6.715050220489502,7.180050373077393
1749987797476513500,7.799513427734375,-11.161050796508789,-12.178950309753418,7.089000225067139
1749987797486527500,7.809527587890625,-5.893950462341309,-13.80405044555664,0.9400500655174255
1749987797496541200,7.819541259765625,-0.4039500057697296,-12.43695068359375,-2.578050136566162
1749987797506555000,7.829554931640625,-0.853950023651123,-13.21095085144043,-3.507000207901001
1749987797516569000,7.839569091796875,5.53695011138916,-15.532950401306152,-3.3390002250671387
1749987797526582800,7.849582763671875,8.278950691223145,-17.29305076599121,-2.140050172805786
1749987797536596700,7.8595966796875,8.290950775146484,-18.41295051574707,-1.651050090789795
1749987797546610200,7.869610107421875,6.784950256347656,-21.28605079650879,-1.6110000610351562
1749987797556624100,7.8796240234375,1.8240001201629639,-21.018001556396484,-0.9979500770568848
1749987797566638000,7.88963818359375,-1.8190500736236572,-17.31195068359375,-0.2749500274658203
1749987797576651800,7.89965185546875,-1.711050033569336,-14.214000701904297,2.110949993133545
1749987797586665700,7.909665771484375,-2.032050132751465,-13.984050750732422,4.776000022888184
1749987797596679400,7.919679443359375,-3.2320501804351807,-15.081000328063965,6.073950290679932
1749987797606693400,7.929693359375,-2.329050064086914,-15.169051170349121,6.712950229644775
1749987797616707000,7.93970703125,-0.5670000314712524,-14.094000816345215,6.733950138092041
1749987797626721000,7.949720947265625,-0.30105000734329224,-13.086000442504883,6.586050510406494
1749987797636735000,7.95973486328125,-0.9000000357627869,-12.12405014038086,6.595950126647949
1749987797646748700,7.969748779296875,-1.6180500984191895,-10.930950164794922,6.979050159454346
1749987797656762600,7.9797626953125,-2.230950117111206,-9.403950691223145,6.816000461578369
1749987797666776300,7.9897763671875,-2.257050037384033,-7.864050388336182,6.349050521850586
1749987797676790300,7.999790283203125,-2.1040501594543457,-6.715050220489502,5.082000255584717
1749987797686804000,8.009803955078125,-1.6950000524520874,-5.607000350952148,3.277050256729126
1749987797696818000,8.01981787109375,-1.2829500436782837,-4.611000061035156,1.3429501056671143
1749987797706832000,8.029831787109375,-0.47805002331733704,-3.6220502853393555,-0.23400001227855682
1749987797716845600,8.039845458984376,0.35895001888275146,-2.6520001888275146,-1.276050090789795
1749987797726859500,8.049859619140625,0.7560000419616699,-1.4820001125335693,-2.0440499782562256
1749987797736873200,8.059873291015625,1.0069500207901,-0.39000001549720764,-2.640000104904175
1749987797746887200,8.06988720703125,1.4910000562667847,0.17400000989437103,-2.959050178527832
1749987797756900900,8.07990087890625,2.0059502124786377,0.07095000147819519,-2.820000171661377
1749987797766914800,8.089914794921874,2.3869500160217285,-0.45900002121925354,-2.7430500984191895
1749987797776928500,8.099928466796875,2.722050189971924,-1.4310001134872437,-2.3910000324249268
1749987797786942200,8.109942138671874,3.0109500885009766,-2.770050048828125,-1.615950107574463
1749987797796956200,8.1199560546875,3.189000129699707,-4.3090500831604,-0.7180500626564026
1749987797806969900,8.129969970703126,3.268050193786621,-6.117000102996826,-0.1290000081062317
1749987797816983800,8.13998388671875,2.937000036239624,-8.494050025939941,-0.5650500059127808
1749987797826997800,8.149997802734376,2.1040501594543457,-12.526050567626953,-2.8320000171661377
1749987797837011500,8.160011474609375,1.6710001230239868,-16.134000778198242,-4.656000137329102
1749987797847025400,8.170025390625,1.599000096321106,-17.994001388549805,-5.491950035095215
1749987797857039400,8.180039306640625,1.2540000677108765,-17.89095115661621,-5.901000499725342
1749987797867053300,8.19005322265625,0.9739500284194946,-16.420949935913086,-5.3959503173828125
1749987797877067000,8.20006689453125,0.48795002698898315,-14.274001121520996,-3.6940500736236572
1749987797887080700,8.210080810546875,-2.8219501972198486,-13.705950736999512,-0.5879999995231628
1749987797897094700,8.2200947265625,-10.114950180053711,-14.86500072479248,5.254950046539307
1749987797907108400,8.2301083984375,-10.120050430297852,-15.265050888061523,10.171950340270996
1749987797917122300,8.240122314453124,-6.198000431060791,-14.623050689697266,12.004050254821777
1749987797927136000,8.250135986328125,-2.7499501705169678,-12.91395092010498,12.040050506591797
1749987797937150000,8.26014990234375,1.2400500774383545,-11.082000732421875,10.467000961303711
1749987797947163600,8.27016357421875,2.820000171661377,-9.27495002746582,9.19800090789795
1749987797957177600,8.280177490234376,2.389050006866455,-7.776000499725342,8.89905071258545
1749987797967191600,8.290191650390625,1.4479501247406006,-7.240050315856934,8.52495002746582
1749987797977205200,8.300205322265626,0.21300001442432404,-6.78000020980835,7.065000534057617
1749987797987219000,8.310218994140625,-1.2660000324249268,-7.477050304412842,6.124050140380859
1749987797997233000,8.32023291015625,-3.9280502796173096,-8.638050079345703,7.125000476837158
1749987798007246800,8.330246826171875,-9.385050773620605,-10.066950798034668,6.694050312042236
1749987798017260500,8.340260498046876,-6.061950206756592,-10.885950088500977,-0.49695003032684326
1749987798027274500,8.3502744140625,-2.596950054168701,-10.132050514221191,-5.080050468444824
1749987798037288200,8.3602880859375,-7.27500057220459,-13.285050392150879,-8.748000144958496
1749987798047302000,8.370302001953124,-4.311000347137451,-18.387001037597656,-9.568950653076172
1749987798057315800,8.38031591796875,5.875050067901611,-18.21900177001953,-4.567950248718262
1749987798067329500,8.39032958984375,13.462050437927246,-20.736000061035156,-1.3620001077651978
1749987798077343500,8.400343505859375,9.98805046081543,-22.165050506591797,1.7020500898361206
1749987798087357200,8.410357177734374,-2.158950090408325,-17.97300148010254,7.07895040512085
1749987798097371100,8.42037109375,-5.578050136566162,-10.903050422668457,8.926950454711914
1749987798107385000,8.430385009765626,-2.0269501209259033,-7.453050136566162,5.880000114440918
1749987798117398800,8.440398681640625,0.10200000554323196,-11.926950454711914,3.318000078201294
1749987798127412700,8.450412841796876,1.599000096321106,-12.805950164794922,0.3540000021457672
1749987798137426400,8.460426513671875,1.6680001020431519,-12.169050216674805,-1.2280501127243042
1749987798147440400,8.4704404296875,0.9550500512123108,-11.740950584411621,-1.8619500398635864
1749987798157454000,8.4804541015625,0.15300001204013824,-11.55405044555664,-1.5460500717163086
1749987798167467800,8.4904677734375,-0.4900500178337097,-11.53695011138916,-0.8490000367164612
1749987798177481700,8.500481689453125,-0.4230000078678131,-11.773950576782227,0.28395000100135803
1749987798187495400,8.510495361328125,-0.5790000557899475,-11.662050247192383,1.6080000400543213
1749987798197509400,8.52050927734375,-1.125,-11.221050262451172,2.7120001316070557
1749987798207523000,8.530523193359375,-0.8329500555992126,-10.23705005645752,3.235950231552124
1749987798217537000,8.540537109375,0.8730000257492065,-8.926950454711914,3.1309502124786377
1749987798227550700,8.55055078125,2.0940001010894775,-7.795050144195557,2.9250001907348633
1749987798237564700,8.560564697265624,2.2330501079559326,-6.889950275421143,2.968050241470337
1749987798247578600,8.57057861328125,1.4910000562667847,-6.378000259399414,3.4260001182556152
1749987798257592300,8.58059228515625,-0.3040500283241272,-6.615000247955322,4.468950271606445
1749987798267606300,8.590606201171875,-1.9120501279830933,-6.517050266265869,5.608950138092041
1749987798277620000,8.600619873046876,-2.6359500885009766,-5.877000331878662,6.367950439453125
1749987798287634000,8.610634033203125,-1.6800000667572021,-4.659000396728516,6.2820000648498535
1749987798297647600,8.620647705078126,0.10500000417232513,-3.2509500980377197,5.181000232696533
1749987798307661600,8.63066162109375,0.9790500402450562,-2.0370001792907715,3.2340002059936523
1749987798317675300,8.64067529296875,0.6910500526428223,-1.2490500211715698,0.9570000171661377
1749987798327689200,8.650689208984375,1.0549499988555908,-0.7780500650405884,-1.0270500183105469
1749987798337703200,8.660703125,1.8049501180648804,-0.7510500550270081,-2.2860000133514404
1749987798347716900,8.670716796875,1.7929500341415405,-0.9910500645637512,-2.6620500087738037
1749987798357730800,8.680730712890625,1.467000126838684,-1.6080000400543213,-2.3170502185821533
1749987798367744500,8.69074462890625,1.2400500774383545,-2.680950164794922,-1.2679500579833984
1749987798377758200,8.70075830078125,1.735050082206726,-3.8710501194000244,-0.48600003123283386
1749987798387772200,8.710772216796874,2.329050064086914,-5.464950084686279,-0.10005000233650208
1749987798397785900,8.720785888671875,2.6620500087738037,-7.668000221252441,-0.40905001759529114
1749987798407799800,8.7307998046875,2.7150001525878906,-10.438050270080566,-1.5390000343322754
1749987798417813500,8.7408134765625,2.9850001335144043,-13.897951126098633,-3.5410501956939697
1749987798427827500,8.750827392578126,3.507000207901001,-16.909950256347656,-5.719050407409668
1749987798437841000,8.7608408203125,4.696950435638428,-18.424951553344727,-7.98900032043457
1749987798447854800,8.770854736328126,5.692950248718262,-16.83795166015625,-8.749950408935547
1749987798457868500,8.78086865234375,4.69005012512207,-13.491000175476074,-7.588950157165527
1749987798467882500,8.790882568359375,0.9379500150680542,-10.618050575256348,-4.588950157165527
1749987798477896200,8.800896240234374,-6.211950302124023,-10.711050033569336,-0.4710000157356262
1749987798487910100,8.81091015625,-15.504000663757324,-12.330000877380371,6.86400032043457
1749987798497924000,8.820924072265624,-13.55505084991455,-13.375950813293457,12.44205093383789
1749987798507937800,8.830937744140625,-7.579950332641602,-12.804000854492188,13.383000373840332
1749987798517951700,8.84095166015625,-2.7169501781463623,-10.87605094909668,12.598051071166992
1749987798527965400,8.85096533203125,0.5430000424385071,-8.200050354003906,11.121000289916992
1749987798537979400,8.8609794921875,2.209050178527832,-5.94195032119751,8.604000091552734
1749987798547993000,8.8709931640625,2.389050006866455,-4.572000026702881,5.499000072479248
1749987798558006800,8.8810068359375,-0.27000001072883606,-4.908000469207764,5.242950439453125
1749987798568020700,8.891020751953125,-14.425050735473633,-5.911050319671631,8.723999977111816
1749987798578034700,8.90103466796875,-11.752950668334961,-7.201050281524658,2.180999994277954
1749987798588048400,8.91104833984375,0.39000001549720764,-7.489050388336182,-2.2759501934051514
1749987798598062300,8.921062255859376,-2.809950113296509,-10.881000518798828,-5.394000053405762
1749987798608076000,8.931075927734375,-3.0019500255584717,-17.611051559448242,-9.375
1749987798618090000,8.941090087890625,7.057950496673584,-17.27400016784668,-9.483000755310059
1749987798628103700,8.951103759765624,14.230950355529785,-18.231000900268555,-8.334000587463379
1749987798638117600,8.96111767578125,14.719050407409668,-19.042951583862305,-6.98805046081543
1749987798648131300,8.97113134765625,10.684950828552246,-18.97395133972168,-4.039050102233887
1749987798658145000,8.98114501953125,4.9870500564575195,-18.12405014038086,0.0019500000635161996
1749987798668159200,8.9911591796875,-4.371000289916992,-16.621950149536133,6.073950290679932
1749987798678172700,9.001172607421875,-2.4850502014160156,-15.018000602722168,11.55405044555664
1749987798688186600,9.0111865234375,-0.598050057888031,-15.064050674438477,15.358050346374512
1749987798698200300,9.021200439453125,-2.7340500354766846,-13.747050285339355,13.101000785827637
1749987798708214300,9.03121435546875,0.33000001311302185,-9.373050689697266,6.1020002365112305
1749987798718228200,9.041228271484375,2.311950206756592,-8.911050796508789,2.688000202178955
1749987798728242000,9.051241943359376,2.959050178527832,-10.644000053405762,1.6920000314712524
1749987798738255600,9.061255615234375,4.06695032119751,-11.197050094604492,1.1370000839233398
1749987798748269600,9.07126953125,4.582050323486328,-11.07300090789795,0.8160000443458557
1749987798758283500,9.081283447265625,4.82895040512085,-10.666050910949707,0.5329500436782837
1749987798768297200,9.091297119140625,4.708950042724609,-9.813000679016113,0.12195000797510147
1749987798778311000,9.101310791015624,4.012050151824951,-8.923050880432129,-0.41805002093315125
1749987798788324900,9.111324951171875,2.5420501232147217,-7.945950508117676,-1.024049997329712
1749987798798338600,9.121338623046874,0.12405000627040863,-6.885000228881836,-1.5250500440597534
1749987798808352500,9.1313525390625,-2.070000171661377,-6.11400032043457,-0.7990500330924988
1749987798818366200,9.1413662109375,-3.7270500659942627,-6.189000129699707,1.3140000104904175
1749987798828380200,9.151380126953125,-5.737950325012207,-6.526050090789795,3.517050266265869
1749987798838393900,9.161393798828126,-7.591950416564941,-6.4930500984191895,5.053950309753418
1749987798848407800,9.17140771484375,-6.936000347137451,-6.349050521850586,5.571000099182129
1749987798858421500,9.18142138671875,-4.560000419616699,-6.651000499725342,5.227950096130371
1749987798868435500,9.191435546875,-3.835050106048584,-7.375950336456299,4.351950168609619
1749987798878449000,9.201448974609375,-4.074000358581543,-8.170949935913086,3.100050210952759
1749987798888462800,9.211462890625,-3.4140002727508545,-9.610050201416016,2.1349501609802246
1749987798898476500,9.2214765625,-1.8190500736236572,-11.674050331115723,1.7280000448226929
1749987798908490500,9.231490478515624,-0.3060000240802765,-12.718050956726074,1.519950032234192
1749987798918504400,9.24150439453125,1.2880500555038452,-12.313050270080566,0.9880500435829163
1749987798928518100,9.25151806640625,3.4260001182556152,-12.181050300598145,0.8370000123977661
1749987798938532000,9.261531982421875,5.314950466156006,-13.00200080871582,1.0600500106811523
1749987798948545800,9.2715458984375,6.124050140380859,-14.833950996398926,1.4959501028060913
1749987798958559700,9.281559814453125,6.511950492858887,-16.720951080322266,1.90500009059906
1749987798968573400,9.291573486328126,6.766050338745117,-18.37005043029785,2.4679501056671143
1749987798978587100,9.301587158203125,6.825000286102295,-20.029050827026367,2.6430001258850098
1749987798988601000,9.31160107421875,6.433050155639648,-22.06005096435547,2.473050117492676
1749987798998614800,9.32161474609375,5.761950492858887,-24.100051879882812,1.5220500230789185
1749987799008628700,9.331628662109376,4.180050373077393,-24.958951950073242,0.27000001072883606
1749987799018642400,9.341642333984375,0.4069500267505646,-23.086950302124023,-0.5260500311851501
1749987799028656400,9.351656494140625,-5.3959503173828125,-19.942951202392578,0.15495000779628754
1749987799038670300,9.36167041015625,-7.350000381469727,-17.203950881958008,1.8979500532150269
1749987799048684000,9.37168408203125,-4.462050437927246,-15.363000869750977,2.7910501956939697
1749987799058697700,9.38169775390625,-1.290000081062317,-14.355000495910645,2.800950050354004
1749987799068711400,9.39171142578125,1.1389501094818115,-13.55505084991455,2.1880500316619873
1749987799078725400,9.401725341796874,2.041949987411499,-13.302000999450684,1.4530500173568726
1749987799088739300,9.4117392578125,2.0850000381469727,-13.134000778198242,0.8590500354766846
1749987799098753000,9.4217529296875,1.7760001420974731,-12.44895076751709,-0.10200000554323196
1749987799108767000,9.43176708984375,1.3380000591278076,-11.59695053100586,-1.4359500408172607
1749987799118780700,9.44178076171875,1.1560500860214233,-10.551000595092773,-2.6040000915527344
1749987799128794600,9.451794677734375,1.4050500392913818,-9.32295036315918,-3.579000234603882
1749987799138808300,9.461808349609376,1.8000000715255737,-8.367000579833984,-4.378050327301025
1749987799148822300,9.471822265625,2.190000057220459,-7.563000202178955,-5.008050441741943
1749987799158835700,9.481835693359375,2.69100022315979,-7.185000419616699,-5.38200044631958
1749987799168849700,9.491849609375,3.3610501289367676,-6.760950088500977,-5.383950233459473
1749987799178863600,9.501863525390625,3.766050100326538,-6.066000461578369,-4.9270501136779785
1749987799188877300,9.511877197265624,3.6409502029418945,-5.2860002517700195,-4.381050109863281
1749987799198891300,9.521891357421875,3.469050168991089,-4.429050445556641,-4.027050018310547
1749987799208905000,9.531905029296874,3.3199501037597656,-3.718050241470337,-3.6750001907348633
1749987799218918700,9.541918701171875,3.0859501361846924,-3.2700002193450928,-3.375000238418579
1749987799228932600,9.5519326171875,2.6740500926971436,-3.2149500846862793,-3.058950185775757
1749987799238946300,9.5619462890625,2.473050117492676,-3.639000177383423,-2.908050060272217
1749987799248960500,9.57196044921875,2.427000045776367,-4.338000297546387,-3.069000244140625
1749987799258974000,9.581973876953125,2.5849502086639404,-5.104050159454346,-3.5310001373291016
1749987799268988000,9.59198779296875,3.2340002059936523,-6.093000411987305,-3.90405011177063
1749987799279001600,9.602001708984375,4.048050403594971,-7.588950157165527,-4.491000175476074
1749987799289015600,9.612015625,4.134000301361084,-9.220050811767578,-5.200050354003906
1749987799299029200,9.622029296875,3.9190502166748047,-10.531950950622559,-5.734050273895264
1749987799309043200,9.632043212890625,3.9190502166748047,-11.491950988769531,-6.327000141143799
1749987799319057000,9.642056884765625,2.431950092315674,-13.207950592041016,-7.182000160217285
1749987799329070600,9.652070556640625,-33.922950744628906,-15.19800090789795,9.148050308227539
1749987799339084500,9.66208447265625,-36.612003326416016,-16.0260009765625,14.367000579833984
1749987799349098200,9.67209814453125,-19.70400047302246,-12.220050811767578,9.780000686645508
1749987799359112200,9.6821123046875,-8.88705062866211,-4.933950424194336,3.475950241088867
1749987799369126000,9.6921259765625,-3.415950059890747,-7.965000152587891,4.71405029296875
1749987799379139800,9.702139892578124,3.484950065612793,-9.234000205993652,4.381050109863281
1749987799389153500,9.712153564453125,8.868000030517578,-9.808950424194336,4.429050445556641
1749987799399167200,9.722167236328126,8.689949989318848,-8.880000114440918,3.5839502811431885
1749987799409181000,9.732180908203125,6.246000289916992,-7.855050563812256,1.6320000886917114
1749987799419195000,9.74219482421875,6.4609503746032715,-8.254950523376465,0.0019500000635161996
1749987799429208600,9.75220849609375,8.749950408935547,-10.879050254821777,-1.2799500226974487
1749987799439222500,9.762222412109375,7.563000202178955,-14.233050346374512,-2.1780002117156982
1749987799449236200,9.772236328125,5.407950401306152,-16.66604995727539,-2.2210500240325928
1749987799459250200,9.782250244140625,4.000050067901611,-19.768051147460938,-1.8190500736236572
1749987799469264100,9.79226416015625,-20.24505043029785,-26.314050674438477,4.723050117492676
1749987799479277600,9.802277587890625,-22.716001510620117,-22.720050811767578,13.464000701904297
1749987799489291500,9.81229150390625,-6.7819504737854,-11.959050178527832,8.154000282287598
1749987799499305200,9.82230517578125,1.078950047492981,-7.005000114440918,3.4039502143859863
1749987799509319200,9.832319091796874,6.571950435638428,-5.0970001220703125,-0.8520000576972961
1749987799519332900,9.842332763671875,8.640000343322754,-5.6670002937316895,-3.280050039291382
1749987799529346800,9.852346923828126,8.470050811767578,-7.062000274658203,-4.564949989318848
1749987799539360500,9.862360595703125,7.258950233459473,-8.413050651550293,-4.872000217437744
1749987799549374200,9.872374267578126,6.2220001220703125,-9.232050895690918,-4.141050338745117
1749987799559388000,9.882387939453125,5.290950298309326,-9.454050064086914,-3.3439502716064453
1749987799569401900,9.89240185546875,4.2970499992370605,-9.38700008392334,-2.91795015335083
1749987799579415800,9.902415771484375,3.2440502643585205,-9.166950225830078,-2.6640000343322754
1749987799589429500,9.912429443359375,2.341050148010254,-8.773950576782227,-2.3530499935150146
1749987799599443500,9.922443359375,1.6609500646591187,-8.698050498962402,-1.812000036239624
1749987799609457200,9.93245703125,1.0960500240325928,-8.962950706481934,-1.3470001220703125
1749987799619470800,9.942470947265624,0.6049500107765198,-9.250950813293457,-1.2300000190734863
1749987799629484500,9.952484619140625,0.5689499974250793,-9.504000663757324,-1.2250500917434692
1749987799639498500,9.96249853515625,0.9790500402450562,-9.42300033569336,-1.3759500980377197
1749987799649512200,9.97251220703125,1.3980001211166382,-9.349050521850586,-1.5289500951766968
1749987799659526100,9.982526123046876,1.8619500398635864,-9.334050178527832,-1.5610500574111938
1749987799669539800,9.992539794921875,2.180999994277954,-9.247950553894043,-1.7070001363754272
1749987799679553800,10.0025537109375,2.2290000915527344,-9.406050682067871,-1.891050100326538
1749987799689567200,10.012567138671875,1.7640000581741333,-9.277050018310547,-1.683000087738037
1749987799699581200,10.022581298828126,0.6460500359535217,-8.800950050354004,-1.218000054359436
1749987799709595000,10.032594970703125,-1.696950078010559,-8.487000465393066,-0.3160500228404999
1749987799719608800,10.04260888671875,-3.778050184249878,-8.464950561523438,0.9450000524520874
1749987799729622500,10.05262255859375,-4.920000076293945,-8.713950157165527,2.401050090789795
1749987799739636500,10.062636474609375,-4.639050006866455,-9.153000831604004,3.5329501628875732
1749987799749650400,10.072650390625,-2.748000144958496,-9.559950828552246,4.01894998550415
1749987799759663900,10.082663818359375,0.031050002202391624,-9.61500072479248,3.8179502487182617
1749987799769677800,10.092677734375,2.431950092315674,-9.62700080871582,3.078000068664551
1749987799779691500,10.10269140625,4.390050411224365,-9.877950668334961,2.431950092315674
1749987799789705500,10.11270556640625,5.533050060272217,-10.158000946044922,2.1780002117156982
1749987799799719200,10.12271923828125,5.722050189971924,-10.17495059967041,2.0149500370025635
1749987799809732900,10.13273291015625,5.479950428009033,-9.736950874328613,1.6800000667572021
1749987799819746800,10.142746826171875,4.752000331878662,-8.983050346374512,0.9430500268936157
1749987799829760500,10.152760498046876,2.9160001277923584,-8.985000610351562,0.25995001196861267
1749987799839774500,10.1627744140625,1.204050064086914,-9.016050338745117,-0.6820500493049622
1749987799849788200,10.1727880859375,-0.226950004696846,-8.983050346374512,-1.7880001068115234
1749987799859802000,10.182802001953124,-0.8400000333786011,-8.869950294494629,-2.6040000915527344
1749987799869815800,10.19281591796875,-0.48600003123283386,-8.893950462341309,-2.899050235748291
1749987799879829500,10.20282958984375,0.5119500160217285,-8.824950218200684,-2.3940000534057617
1749987799889843500,10.212843505859375,1.599000096321106,-9.09000015258789,-1.276050090789795
1749987799899857200,10.222857177734374,2.2380001544952393,-9.658050537109375,0.010950000956654549
1749987799909871000,10.23287109375,2.1540000438690186,-10.438050270080566,1.3860000371932983
1749987799919884800,10.242884765625,1.5529500246047974,-10.951050758361816,2.5660500526428223
1749987799929898500,10.2528984375,0.4830000102519989,-11.065950393676758,3.44700026512146
1749987799939912400,10.262912353515626,-0.909000039100647,-10.986000061035156,3.873000144958496
1749987799949926100,10.272926025390625,-2.02305006980896,-10.543950080871582,3.507000207901001
1749987799959940000,10.282940185546876,-2.4970500469207764,-10.159950256347656,2.461050033569336
1749987799969953800,10.292953857421875,-2.073000192642212,-10.21095085144043,1.2300000190734863
1749987799979967500,10.302967529296875,-0.44700002670288086,-10.414050102233887,0.15300001204013824
1749987799989981200,10.312981201171874,1.3260000944137573,-10.419000625610352,-0.8400000333786011
1749987799999995100,10.3229951171875,2.170950174331665,-10.159950256347656,-1.4140501022338867
1749987800010008800,10.3330087890625,2.431950092315674,-10.486050605773926,-0.9550500512123108
1749987800020022800,10.343022705078125,2.130000114440918,-11.595000267028809,0.5689499974250793
1749987800030036500,10.353036376953124,1.9440001249313354,-12.373050689697266,2.092050075531006
1749987800040050200,10.36305029296875,2.788950204849243,-12.337050437927246,2.868000030517578
1749987800050064100,10.373064208984376,3.0550501346588135,-12.42300033569336,3.223950147628784
1749987800060077800,10.383077880859375,1.180050015449524,-13.627050399780273,3.9499502182006836
1749987800070091800,10.393091796875,-1.1869500875473022,-14.377050399780273,4.72605037689209
1749987800080105500,10.40310546875,-2.1379501819610596,-13.54800033569336,4.795050144195557
1749987800090119200,10.413119140625,-2.329050064086914,-12.1360502243042,4.03095006942749
1749987800100132900,10.4231328125,-2.748000144958496,-11.295000076293945,3.1500000953674316
1749987800110146800,10.433146728515625,-2.5849502086639404,-11.322000503540039,2.952000141143799
1749987800120160500,10.443160400390624,-1.4959501028060913,-11.604000091552734,3.2890501022338867
1749987800130174500,10.453174560546875,-0.2370000183582306,-11.620950698852539,3.52905011177063
1749987800140188200,10.463188232421874,0.3949500322341919,-11.868000984191895,3.3919501304626465
1749987800150202000,10.4732021484375,0.8710500597953796,-11.451000213623047,2.0659501552581787
1749987800160215800,10.4832158203125,1.6680001020431519,-11.365050315856934,1.0120500326156616
1749987800170229500,10.4932294921875,2.362950086593628,-11.83905029296875,0.13095000386238098
1749987800180243500,10.503243408203126,2.5279500484466553,-12.229050636291504,-0.6319500207901001
1749987800190257200,10.513257080078125,2.0749499797821045,-12.520950317382812,-0.8160000443458557
1749987800200271000,10.52327099609375,1.3350000381469727,-12.817950248718262,-0.5089499950408936
1749987800210284800,10.533284912109375,0.9330000281333923,-12.98805046081543,-0.14100000262260437
1749987800220298500,10.543298583984376,0.5239500403404236,-12.835050582885742,0.21705001592636108
1749987800230312400,10.5533125,0.5190000534057617,-12.274950981140137,0.31095001101493835
1749987800240326400,10.563326416015625,0.9379500150680542,-11.829000473022461,0.2580000162124634
1749987800250340000,10.573340087890625,1.9030500650405884,-11.793000221252441,0.2580000162124634
1749987800260353800,10.583353759765625,2.8510501384735107,-12.15000057220459,0.4420500099658966
1749987800270367500,10.593367431640624,3.246000051498413,-12.370050430297852,0.8089500665664673
1749987800280381400,10.60338134765625,2.9200501441955566,-12.583050727844238,1.0909500122070312
1749987800290395100,10.61339501953125,2.3550000190734863,-12.598051071166992,1.765950083732605
1749987800300408800,10.623408935546875,1.810050129890442,-12.070950508117676,2.4150002002716064
1749987800310422500,10.633422607421876,1.5840001106262207,-11.55405044555664,2.476950168609619
1749987800320436500,10.6434365234375,1.7569501399993896,-10.831050872802734,2.1540000438690186
1749987800330450400,10.653450439453126,1.9440001249313354,-10.165050506591797,1.4380500316619873
1749987800340464000,10.663464111328125,1.711050033569336,-9.612000465393066,0.8610000610351562
1749987800350477800,10.673477783203126,1.5150001049041748,-9.166950225830078,0.7180500626564026
1749987800360491500,10.683491455078125,1.3830000162124634,-9.034950256347656,0.7030500173568726
1749987800370505500,10.69350537109375,1.290000081062317,-8.83395004272461,0.5119500160217285
1749987800380519200,10.703519287109375,1.2280501127243042,-8.422050476074219,0.16500000655651093
1749987800390533000,10.713533203125,1.3669500350952148,-7.948050498962402,-0.3730500042438507
1749987800400546600,10.723546630859374,1.9240500926971436,-7.419000148773193,-1.0000500679016113
1749987800410560500,10.733560546875,2.476950168609619,-7.132050514221191,-1.4980500936508179
1749987800420574200,10.74357421875,2.6070001125335693,-6.694050312042236,-1.8049501180648804
1749987800430588000,10.753587890625,2.4870002269744873,-6.124050140380859,-2.061000108718872
1749987800440601900,10.763601806640626,2.1760501861572266,-5.784000396728516,-2.499000072479248
1749987800450615600,10.773615478515625,1.738050103187561,-5.692950248718262,-3.2410502433776855
1749987800460629200,10.783629150390626,1.2799500226974487,-5.533050060272217,-3.8010001182556152
1749987800470643200,10.793643310546875,0.5020500421524048,-5.464950084686279,-4.240050315856934
1749987800480657000,10.803656982421876,-0.6409500241279602,-5.5759501457214355,-4.302000045776367
1749987800490670800,10.8136708984375,-1.9650001525878906,-5.889000415802002,-3.507000207901001
1749987800500684300,10.823684326171875,-3.0859501361846924,-6.100050449371338,-2.281050205230713
1749987800510698200,10.8336982421875,-3.9379501342773438,-6.636000156402588,-0.6889500617980957
1749987800520712000,10.8437119140625,-4.455000400543213,-7.43595027923584,1.2780001163482666
1749987800530726000,10.853725830078124,-4.182000160217285,-8.227950096130371,3.2629501819610596
1749987800540739600,10.863739501953125,-3.3390002250671387,-9.042000770568848,4.720950126647949
1749987800550753300,10.873753173828124,-2.640000104904175,-9.730050086975098,5.7460503578186035
1749987800560767000,10.88376708984375,-1.6300500631332397,-10.23705005645752,6.319950103759766
1749987800570781000,10.893781005859376,-0.8730000257492065,-10.383000373840332,6.6220502853393555
1749987800580794600,10.903794677734375,-0.9499500393867493,-10.13895034790039,7.474050521850586
1749987800590808300,10.913808349609376,-1.2400500774383545,-9.211950302124023,7.896000385284424
1749987800600822300,10.923822265625,-1.2400500774383545,-7.984050273895264,7.762050151824951
1749987800610836000,10.9338359375,-0.8470500111579895,-7.231950283050537,6.6220502853393555
1749987800620849700,10.943849609375,-0.43800002336502075,-6.925950527191162,4.630050182342529
1749987800630863600,10.953863525390625,-0.32295000553131104,-6.496950149536133,2.770050048828125
1749987800640877300,10.963877197265624,-0.9930000305175781,-6.073950290679932,1.6900501251220703
1749987800650891000,10.97389111328125,-1.9000500440597534,-5.683050155639648,0.9520500302314758
1749987800660905000,10.983905029296874,-2.839050054550171,-5.334000110626221,0.2939999997615814
1749987800670918700,10.993918701171875,-3.4620001316070557,-5.1060004234313965,-0.2530499994754791
1749987800680932400,11.003932373046876,-3.378000259399414,-4.860000133514404,-0.6030000448226929
1749987800690946300,11.0139462890625,-2.5609500408172607,-4.525050163269043,-1.1989500522613525
1749987800700960000,11.0239599609375,-1.5750000476837158,-4.234950065612793,-1.821000099182129
1749987800710973700,11.0339736328125,-0.8899500370025635,-4.1509504318237305,-2.4079501628875732
1749987800720987400,11.0439873046875,-0.7200000286102295,-4.06695032119751,-2.82705020904541
1749987800731001300,11.05400146484375,-0.547950029373169,-3.982950210571289,-2.82705020904541
1749987800741015000,11.06401513671875,-0.4810500144958496,-4.057950019836426,-2.590050220489502
1749987800751028700,11.07402880859375,-0.5500500202178955,-4.393050193786621,-2.25
1749987800761042700,11.084042724609375,-1.3639500141143799,-5.050950050354004,-1.8190500736236572
1749987800771056400,11.094056396484374,-2.533050060272217,-6.088050365447998,-1.2540000677108765
1749987800781070300,11.1040703125,-2.4030001163482666,-8.595000267028809,-0.4350000321865082
1749987800791084000,11.114083984375,0.9360000491142273,-12.688950538635254,0.9049500226974487
1749987800801097700,11.12409765625,5.443950176239014,-15.223950386047363,2.559000015258789
1749987800811111400,11.134111328125,6.592950344085693,-18.966001510620117,3.9190502166748047
1749987800821125000,11.144125,6.342000484466553,-23.03205108642578,4.375950336456299
1749987800831139000,11.15413916015625,5.305050373077393,-26.074951171875,4.603950023651123
1749987800841152800,11.16415283203125,4.113000392913818,-26.38800048828125,6.708000183105469
1749987800851166500,11.17416650390625,-1.4359500408172607,-23.238000869750977,11.085000991821289
1749987800861180400,11.184180419921875,-8.916000366210938,-17.917951583862305,15.511950492858887
1749987800871193900,11.19419384765625,-3.438000202178955,-12.784950256347656,11.659050941467285
1749987800881207800,11.204207763671874,3.658050060272217,-11.08905029296875,5.058000087738037
1749987800891221500,11.214221435546875,5.319000244140625,-12.030000686645508,1.651050090789795
1749987800901235200,11.224235107421874,3.748950242996216,-14.131950378417969,1.0429500341415405
1749987800911249200,11.234249267578125,3.277050256729126,-14.515951156616211,-0.7369500398635864
1749987800921262800,11.244262939453124,2.9830501079559326,-14.166000366210938,-2.6670000553131104
1749987800931276500,11.254276611328125,2.800950050354004,-13.773000717163086,-3.9760501384735107
1749987800941290500,11.26429052734375,2.722050189971924,-12.745950698852539,-4.612950325012207
1749987800951304000,11.274303955078125,2.5249500274658203,-11.379000663757324,-4.552950382232666
1749987800961318000,11.28431787109375,1.371000051498413,-10.363950729370117,-4.085999965667725
1749987800971331300,11.294331298828125,-1.0699501037597656,-10.13700008392334,-3.118950128555298
1749987800981345500,11.304345458984375,-4.170000076293945,-10.918950080871582,-1.0170000791549683
1749987800991359000,11.31435888671875,-6.925950527191162,-11.154000282287598,1.4220000505447388
1749987801001373000,11.324373046875,-8.428950309753418,-10.833000183105469,3.058950185775757
1749987801011386400,11.334386474609374,-7.885950565338135,-10.564950942993164,3.7110002040863037
1749987801021400300,11.344400390625,-5.841000080108643,-10.534050941467285,3.9430501461029053
1749987801031414000,11.3544140625,-3.9790501594543457,-10.375950813293457,4.165050029754639
1749987801041428000,11.364427978515625,-3.3420002460479736,-9.46095085144043,4.483950138092041
1749987801051441400,11.37444140625,-4.03095006942749,-8.140049934387207,5.347950458526611
1749987801061455400,11.384455322265625,-5.260050296783447,-6.8680500984191895,6.865950107574463
1749987801071469000,11.394468994140626,-6.1210503578186035,-6.1210503578186035,8.628000259399414
1749987801081483000,11.40448291015625,-5.869950294494629,-5.9730000495910645,9.763050079345703
1749987801091496400,11.414496337890625,-4.837950229644775,-5.716950416564941,9.258000373840332
1749987801101510400,11.424510498046875,-4.740000247955322,-5.608950138092041,8.041950225830078
1749987801111524000,11.434524169921875,-3.6670501232147217,-5.025000095367432,4.708950042724609
1749987801121537800,11.444537841796874,-1.081950068473816,-4.230000019073486,1.1059499979019165
1749987801131551700,11.4545517578125,1.3620001077651978,-3.7699501514434814,-0.43995001912117004
1749987801141565400,11.4645654296875,2.281050205230713,-3.327000141143799,-1.4359500408172607
1749987801151579100,11.4745791015625,2.530050039291382,-2.9320502281188965,-2.4460501670837402
1749987801161593000,11.484593017578124,3.7219502925872803,-2.530050039291382,-3.4710001945495605
1749987801171606800,11.494606689453125,5.140050411224365,-2.6640000343322754,-3.4930500984191895
1749987801181620700,11.504620849609376,5.011050224304199,-3.126000165939331,-2.8369500637054443
1749987801191634200,11.51463427734375,4.05495023727417,-3.7680001258850098,-1.8600001335144043
1749987801201648000,11.524648193359376,3.454050064086914,-4.707000255584717,-0.8280000686645508
1749987801211661800,11.534661865234375,3.138000249862671,-6.552000522613525,0.3679500222206116
1749987801221675500,11.544675537109375,3.1050002574920654,-8.81505012512207,1.3120501041412354
1749987801231689500,11.554689453125,3.3630001544952393,-11.08905029296875,1.8360000848770142
1749987801241703200,11.564703125,3.52905011177063,-13.165050506591797,1.5220500230789185
1749987801251717000,11.574717041015624,3.469050168991089,-15.277050971984863,0.559950053691864
1749987801261730600,11.58473046875,3.627000093460083,-16.498050689697266,0.019050000235438347
1749987801271744500,11.59474462890625,3.268050193786621,-15.823050498962402,0.45000001788139343
1749987801281758200,11.60475830078125,1.9290001392364502,-13.836000442504883,1.7040001153945923
1749987801291772000,11.61477197265625,0.025950001552700996,-12.823050498962402,2.0869500637054443
1749987801301785600,11.62478564453125,-0.9480000734329224,-12.68595027923584,1.3090500831604004
1749987801311799600,11.634799560546876,-1.3069500923156738,-13.170001029968262,0.8040000200271606
1749987801321813000,11.64481298828125,-1.3639500141143799,-13.26300048828125,0.7990500330924988
1749987801331827000,11.654826904296876,-1.426050066947937,-12.538050651550293,1.4580000638961792
1749987801341840600,11.664840576171875,-1.636950135231018,-11.050950050354004,2.190000057220459
1749987801351854300,11.674854248046875,-2.1060001850128174,-9.07395076751709,2.2240500450134277
1749987801361868300,11.684868408203124,-2.2360501289367676,-6.877950191497803,2.7120001316070557
1749987801371882000,11.694882080078125,-2.4060001373291016,-5.314950466156006,3.3109500408172607
1749987801381895400,11.7048955078125,-2.9040000438690186,-5.023050308227539,4.129050254821777
1749987801391909400,11.714909423828125,-3.96405029296875,-5.00100040435791,5.032050132751465
1749987801401923000,11.724923095703126,-5.479950428009033,-4.797000408172607,5.707050323486328
1749987801411937000,11.73493701171875,-5.698050498962402,-5.230950355529785,6.708000183105469
1749987801421950500,11.744950439453126,-4.744950294494629,-6.9310503005981445,7.836000442504883
1749987801431964400,11.75496435546875,-4.228050231933594,-8.530050277709961,8.377050399780273
1749987801441978000,11.76497802734375,-4.381050109863281,-8.868000030517578,8.080050468444824
1749987801451991800,11.77499169921875,-5.725950241088867,-8.094000816345215,6.448950290679932
1749987801462005500,11.785005615234375,-7.432950496673584,-7.492950439453125,4.953000068664551
1749987801472019500,11.79501953125,-6.901950359344482,-7.156050205230713,2.829000234603882
1749987801482033200,11.805033203125,-4.699050426483154,-7.797000408172607,0.30105000734329224
1749987801492046800,11.815046875,-0.04500000178813934,-10.611000061035156,-0.5550000071525574
1749987801502060500,11.825060546875,-4.965000152587891,-15.045001029968262,-1.5750000476837158
1749987801512074200,11.83507421875,-4.603950023651123,-18.787050247192383,-2.0560500621795654
1749987801522088000,11.845087890625,8.659049987792969,-16.645950317382812,-1.0290000438690186
1749987801532102000,11.855101806640626,12.718050956726074,-17.190000534057617,-2.02305006980896
1749987801542115300,11.865115234375,13.147950172424316,-20.860050201416016,-2.680950164794922
1749987801552129300,11.87512939453125,10.468950271606445,-20.542051315307617,-2.3479502201080322
1749987801562143000,11.88514306640625,2.7460501194000244,-16.145999908447266,0.6630000472068787
1749987801572156700,11.89515673828125,-7.07205057144165,-12.331950187683105,5.058000087738037
1749987801582170600,11.905170654296874,-9.010950088500977,-10.765950202941895,6.13800048828125
1749987801592184300,11.915184326171875,-4.153050422668457,-12.883050918579102,6.508950233459473
1749987801602198000,11.925197998046874,-1.2679500579833984,-15.42495059967041,6.247950077056885
1749987801612211700,11.935211669921875,-2.539950132369995,-16.70400047302246,6.672000408172607
1749987801622225700,11.9452255859375,-6.5400004386901855,-16.21500015258789,8.5420503616333
1749987801632239000,11.955239013671875,-9.459000587463379,-14.358000755310059,9.579000473022461
1749987801642253000,11.965253173828126,-11.146950721740723,-12.2989501953125,8.722050666809082
1749987801652266800,11.975266845703125,-9.208050727844238,-10.387950897216797,6.076050281524658
1749987801662280400,11.985280517578126,-4.876049995422363,-8.848050117492676,2.698050022125244
1749987801672294100,11.995294189453125,-3.028050184249878,-7.213050365447998,-0.09000000357627869
1749987801682308000,12.00530810546875,-0.09000000357627869,-5.632950305938721,-2.053950071334839
1749987801692321500,12.015321533203124,3.007050037384033,-4.426050186157227,-3.06600022315979
1749987801702335500,12.02533544921875,3.6790502071380615,-4.2900004386901855,-2.1379501819610596
1749987801712349000,12.035348876953124,3.9160501956939697,-3.646050214767456,-0.43995001912117004
1749987801722363000,12.04536279296875,3.4300501346588135,-2.020050048828125,0.09300000220537186
1749987801732376600,12.05537646484375,2.7739500999450684,-0.7300500273704529,-0.18405000865459442
1749987801742390500,12.065390625,3.0040502548217773,-0.16500000655651093,-0.6649500131607056
1749987801752404200,12.075404296875,3.3319501876831055,0.10500000417232513,-0.8760000467300415
1749987801762418000,12.08541796875,2.7720000743865967,0.4039500057697296,-1.5079500675201416
1749987801772431600,12.095431640625,1.1539500951766968,-0.0690000057220459,-1.7860500812530518
1749987801782445300,12.1054453125,-0.1579500138759613,-1.9990501403808594,-1.1610000133514404
1749987801792459000,12.115458984375,0.6769500374794006,-3.8179502487182617,-0.3679500222206116
1749987801802472700,12.12547265625,1.6180500984191895,-5.7019500732421875,0.17205001413822174
1749987801812486700,12.135486572265625,2.020050048828125,-7.984050273895264,0.04305000230669975
1749987801822500400,12.145500244140624,2.845950126647949,-10.891050338745117,-0.6840000152587891
1749987801832514000,12.15551416015625,4.201050281524658,-15.289051055908203,-1.867050051689148
1749987801842527700,12.16552783203125,4.9870500564575195,-17.57805061340332,-3.636000156402588
1749987801852541700,12.175541748046875,4.546050071716309,-16.792051315307617,-4.768950462341309
1749987801862555100,12.18555517578125,3.7579500675201416,-15.840001106262207,-4.4599504470825195
1749987801872569000,12.195569091796875,2.2240500450134277,-13.552950859069824,-2.952000141143799
1749987801882582500,12.20558251953125,-1.1059499979019165,-12.780000686645508,-0.14295001327991486
1749987801892596500,12.215596435546875,-7.663050174713135,-12.75105094909668,4.480950355529785
1749987801902610200,12.225610107421875,-10.96500015258789,-12.825000762939453,8.676000595092773
1749987801912623900,12.235623779296875,-9.38700008392334,-13.242000579833984,10.201050758361816
1749987801922637800,12.245637939453125,-7.222950458526611,-13.363950729370117,10.804950714111328
1749987801932651500,12.255651611328124,-5.185050010681152,-12.69105052947998,10.927050590515137
1749987801942665200,12.265665283203125,-3.766050100326538,-11.362051010131836,10.582050323486328
1749987801952679000,12.275678955078124,-2.2789502143859863,-10.134000778198242,9.277050018310547
1749987801962692600,12.285692626953125,-1.6870501041412354,-9.009000778198242,8.475000381469727
1749987801972706300,12.295706298828126,-2.3530499935150146,-8.656949996948242,8.3100004196167
1749987801982720300,12.30572021484375,-3.4710001945495605,-7.981950283050537,7.129050254821777
1749987801992734000,12.31573388671875,-4.156050205230713,-6.721950531005859,5.422050476074219
1749987802002747400,12.325747314453125,-4.978950023651123,-5.7460503578186035,3.7579500675201416
1749987802012761000,12.335760986328125,-7.0909504890441895,-5.389050483703613,0.8590500354766846
1749987802022775000,12.345775146484375,-4.615950107574463,-5.3269500732421875,-2.770050048828125
1749987802032788700,12.355788818359375,1.1539500951766968,-5.817000389099121,-3.7270500659942627
1749987802042802700,12.365802734375,-3.0330002307891846,-5.893950462341309,-6.829950332641602
1749987802052816100,12.375816162109375,-14.532000541687012,-7.411950588226318,-14.556000709533691
1749987802062829800,12.385829833984374,-9.600000381469727,-11.173050880432129,-12.68595027923584
1749987802072843500,12.395843505859375,4.944000244140625,-13.948050498962402,-5.005950450897217
1749987802082857200,12.405857177734376,11.382000923156738,-16.849950790405273,-2.947050094604492
1749987802092871200,12.41587109375,17.283000946044922,-22.675050735473633,-3.226950168609619
1749987802102884900,12.425884765625,10.4239501953125,-26.01300048828125,-1.258950114250183
1749987802112898600,12.435898681640625,-3.8449501991271973,-27.940052032470703,7.323000431060791
1749987802122912300,12.445912353515626,-7.801950454711914,-20.99700164794922,16.266000747680664
1749987802132926000,12.455926025390625,-0.25995001196861267,-11.961000442504883,16.37295150756836
1749987802142939600,12.465939697265625,2.3959500789642334,-6.579000473022461,9.981000900268555
1749987802152953300,12.475953369140624,3.118950128555298,-6.95205020904541,4.113000392913818
1749987802162967000,12.485967041015625,2.5540502071380615,-9.484950065612793,1.7830500602722168
1749987802172981000,12.49598095703125,1.371000051498413,-11.757000923156738,1.8409501314163208
1749987802182994700,12.50599462890625,0.6480000019073486,-12.421051025390625,2.454000234603882
1749987802193008400,12.51600830078125,0.06705000251531601,-13.27500057220459,3.1240501403808594
1749987802203022000,12.52602197265625,-0.22500000894069672,-13.82805061340332,3.217050075531006
1749987802213035800,12.536035888671876,-0.18900001049041748,-13.314001083374023,2.257050037384033
1749987802223049500,12.546049560546875,-0.4900500178337097,-12.718050956726074,1.3260000944137573
1749987802233063200,12.556063232421875,-0.6990000605583191,-11.85105037689209,0.5410500168800354
1749987802243076900,12.566076904296875,-0.037950001657009125,-10.570050239562988,-0.18900001049041748
1749987802253090600,12.576090576171875,0.12405000627040863,-9.229050636291504,-0.6220500469207764
1749987802263104500,12.5861044921875,-0.16005000472068787,-7.951050281524658,-0.6100500226020813
1749987802273118000,12.596117919921875,-0.15300001204013824,-7.302000522613525,-0.0070500001311302185
1749987802283131600,12.606131591796874,-0.2650500237941742,-7.261050224304199,1.327950119972229
1749987802293145600,12.6161455078125,-1.4959501028060913,-7.539000511169434,3.370950222015381
1749987802303159300,12.6261591796875,-4.294950008392334,-7.864050388336182,6.11400032043457
1749987802313173000,12.636173095703125,-7.43595027923584,-7.888050556182861,8.817000389099121
1749987802323186700,12.646186767578126,-8.79104995727539,-7.390050411224365,9.969000816345215
1749987802333200400,12.656200439453125,-7.204050540924072,-6.568950176239014,8.962950706481934
1749987802343214000,12.666214111328125,-5.832000255584717,-6.1810503005981445,7.419000148773193
1749987802353227800,12.676227783203124,-5.061000347137451,-6.253050327301025,5.278950214385986
1749987802363241500,12.686241455078125,-3.703050136566162,-6.306000232696533,2.3430001735687256
1749987802373255200,12.696255126953124,-1.659000039100647,-6.262950420379639,-0.12405000627040863
1749987802383268900,12.706268798828125,0.226950004696846,-5.995050430297852,-1.350000023841858
1749987802393282600,12.716282470703124,1.1700000762939453,-5.725950241088867,-1.8330000638961792
1749987802403296500,12.726296630859375,1.8379501104354858,-5.3460001945495605,-1.8769501447677612
1749987802413310200,12.736310302734376,2.700000047683716,-5.239950180053711,-1.258950114250183
1749987802423324000,12.746323974609375,3.579000234603882,-5.431950092315674,-1.1370000839233398
1749987802433337600,12.756337646484376,4.2109503746032715,-6.033000469207764,-1.2130500078201294
1749987802443351300,12.766351318359375,4.383000373840332,-7.129050254821777,-1.1389501094818115
1749987802453365000,12.776364990234375,4.495950222015381,-8.191950798034668,-0.9400500655174255
1749987802463378700,12.786378662109374,4.551000118255615,-9.271950721740723,-1.1460000276565552
1749987802473392400,12.796392333984375,4.441050052642822,-10.756950378417969,-2.01104998588562
1749987802483406000,12.806406005859374,4.291950225830078,-12.661951065063477,-3.2340002059936523
1749987802493419800,12.816419677734375,4.503000259399414,-14.350050926208496,-4.015050411224365
1749987802503433500,12.82643359375,5.161050319671631,-14.350050926208496,-3.9280502796173096
1749987802513447200,12.836447265625,5.47005033493042,-12.724950790405273,-2.9280002117156982
1749987802523460900,12.8464609375,4.13700008392334,-11.484000205993652,-2.1160500049591064
