time,seconds_elapsed,z,y,x
1747921855197228800,0.096228759765625,10.880763053894043,2.276172637939453,0.6765705943107605
1747921855215493000,0.1144931640625,9.779465675354004,1.7635103464126587,0.047258246690034866
1747921855233757700,0.1327578125,8.172087669372559,2.427518606185913,1.6199408769607544
1747921855252022000,0.15102197265625,7.6049885749816895,3.3236305713653564,2.4885356426239014
1747921855270286000,0.1692861328125,8.032705307006836,3.3164522647857666,1.7413766384124756
1747921855288550700,0.187550537109375,8.264809608459473,2.944368362426758,1.5391831398010254
1747921855306814700,0.205814697265625,8.845666885375977,2.6422743797302246,1.4518451690673828
1747921855325079800,0.224079833984375,10.142577171325684,3.249453067779541,1.6648063659667969
1747921855343343400,0.24234326171875,11.101500511169434,2.1852452754974365,1.1162517070770264
1747921855361608000,0.26060791015625,11.14038372039795,1.557727575302124,0.6993024349212646
1747921855379872500,0.27887255859375,8.601000785827637,2.9150562286376953,2.404188632965088
1747921855398137000,0.29713720703125,9.549755096435547,3.5754752159118652,2.7906293869018555
1747921855416401000,0.31540087890625,8.895915985107422,3.692723512649536,2.7014968395233154
1747921855434665500,0.33366552734375,8.282755851745605,3.7950167655944824,1.674377679824829
1747921855452929800,0.3519296875,7.864011764526367,3.098705291748047,1.454237937927246
1747921855471194400,0.3701943359375,8.09970474243164,2.726621389389038,0.8075776696205139
1747921855489457700,0.388457763671875,8.978468894958496,2.129014015197754,1.8143577575683594
1747921855507722200,0.40672216796875,9.159127235412598,1.9806588888168335,1.6893328428268433
1747921855525987000,0.424987060546875,8.908478736877441,1.7676976919174194,1.158724308013916
1747921855544252000,0.443251953125,9.744172096252441,1.74496591091156,1.2526426315307617
1747921855562515500,0.461515380859375,9.45464038848877,1.8652052879333496,1.836491346359253
1747921855580780000,0.479780029296875,8.93838882446289,2.775076150894165,1.867598056793213
1747921855599044600,0.498044677734375,8.283951759338379,2.270190477371216,2.475973129272461
1747921855617309000,0.516308837890625,7.863413333892822,1.9351953268051147,2.9306094646453857
1747921855635572700,0.53457275390625,7.667201995849609,2.4921247959136963,3.6634113788604736
1747921855653837300,0.55283740234375,7.798209190368652,2.843271493911743,4.1419758796691895
1747921855672102000,0.571101806640625,8.482556343078613,2.6362924575805664,4.924428939819336
1747921855690366000,0.589365966796875,9.671191215515137,2.6973092555999756,4.773681163787842
1747921855708630000,0.607630126953125,10.272985458374023,2.3706889152526855,3.5096726417541504
1747921855726895000,0.62589501953125,9.278767585754395,2.0997018814086914,3.497110366821289
1747921855745158700,0.64415869140625,8.209176063537598,2.7978079319000244,2.290529489517212
1747921855763423700,0.662423828125,6.337390899658203,1.862214207649231,3.603590965270996
1747921855781687600,0.6806875,8.02791976928711,2.3850460052490234,1.2137593030929565
1747921855799952400,0.698952392578125,7.865208148956299,2.3916261196136475,3.0077781677246094
1747921855818216700,0.717216796875,8.329415321350098,3.0592236518859863,4.112663745880127
1747921855836481300,0.735481201171875,8.281558990478516,3.111865758895874,4.079164505004883
1747921855854744800,0.753744873046875,7.031907558441162,3.060420274734497,2.7044878005981445
1747921855873009400,0.772009521484375,6.272186279296875,2.878565549850464,2.854039192199707
1747921855891273700,0.790273681640625,7.70668363571167,3.38105845451355,4.683351993560791
1747921855909538300,0.808538330078125,7.786843299865723,3.8087754249572754,5.621338367462158
1747921855927802000,0.826802001953125,6.673582553863525,3.823132276535034,5.08355188369751
1747921855946066400,0.84506640625,7.0031938552856445,3.678964853286743,5.3694939613342285
1747921855964330000,0.863330078125,7.444071292877197,3.9194436073303223,5.693721294403076
1747921855982596900,0.881596923828125,8.165507316589355,4.210171222686768,5.482554912567139
1747921856000859600,0.899859619140625,9.729216575622559,3.82791805267334,5.200799942016602
1747921856019124200,0.918124267578125,9.54197883605957,2.8827531337738037,4.36809778213501
1747921856037388800,0.936388916015625,8.606983184814453,3.4474592208862305,3.9499518871307373
1747921856055653400,0.9546533203125,8.85224723815918,3.1998021602630615,4.877170562744141
1747921856073917200,0.972917236328125,8.827122688293457,2.6871397495269775,5.1152567863464355
1747921856092181200,0.99118115234375,7.16231632232666,2.7571299076080322,5.6548380851745605
1747921856110446000,1.009446044921875,6.357131481170654,2.053041934967041,5.5932230949401855
1747921856128698600,1.02769873046875,6.724429607391357,1.7994025945663452,5.6925249099731445
1747921856146974000,1.045973876953125,7.612765312194824,1.7288143634796143,6.130411624908447
1747921856165239000,1.064239013671875,7.276573657989502,1.8921245336532593,6.815357208251953
1747921856183503400,1.08250341796875,6.308676719665527,1.241276741027832,6.548557281494141
1747921856201768000,1.100767822265625,5.653641700744629,0.11844471842050552,5.946164131164551
1747921856220031700,1.11903173828125,6.308078765869141,-1.8849459886550903,5.496912002563477
1747921856238296000,1.137296142578125,8.070392608642578,-0.9475577473640442,6.26440954208374
1747921856256560400,1.155560302734375,8.11824893951416,-0.09810572862625122,4.820939540863037
1747921856274824000,1.173823974609375,7.213762283325195,-0.8099704384803772,6.98405122756958
1747921856293084400,1.19208447265625,5.641677379608154,0.771087110042572,9.58205795288086
1747921856311352000,1.21035205078125,6.284748554229736,1.3106685876846313,11.919845581054688
1747921856329617400,1.228617431640625,5.508277893066406,1.3280165195465088,10.749755859375
1747921856347883300,1.24688330078125,4.902893543243408,0.550349235534668,8.583653450012207
1747921856366141400,1.265141357421875,4.332205295562744,-0.7441678643226624,7.645666599273682
1747921856384410600,1.28341064453125,5.4759745597839355,0.381655216217041,8.83071231842041
1747921856402675000,1.301675048828125,7.276573657989502,-1.5792629718780518,8.546564102172852
1747921856420938500,1.3199384765625,6.150750637054443,-3.432504177093506,6.073582172393799
1747921856439203000,1.338203125,3.3822548389434814,-3.613760471343994,6.658029079437256
1747921856457469200,1.35646923828125,2.6273193359375,-2.8396823406219482,8.861220359802246
1747921856475727400,1.374727294921875,0.9762716293334961,-1.9525432586669922,9.592825889587402
1747921856493992200,1.3929921875,0.07178468257188797,-2.8695926666259766,10.205986976623535
1747921856512260600,1.411260498046875,-0.6293123364448547,-1.7545372247695923,10.467402458190918
1747921856530524400,1.4295244140625,-1.3495519161224365,-2.2265214920043945,9.745966911315918
1747921856548790000,1.4477900390625,-2.38265323638916,-2.3682961463928223,10.962717056274414
1747921856567055600,1.4660556640625,-2.355733871459961,-0.8811569213867188,11.620144844055176
1747921856585313300,1.484313232421875,-1.1216355562210083,-0.05503492057323456,13.168301582336426
1747921856603578000,1.502578125,-0.7938188910484314,1.074377417564392,14.58485221862793
1747921856621848800,1.520848876953125,-1.7102699279785156,0.5892325639724731,13.514662742614746
1747921856640115700,1.53911572265625,-0.8452646136283875,-0.6747759580612183,12.152547836303711
1747921856658377000,1.557376953125,0.5802595019340515,-2.9724838733673096,9.391230583190918
1747921856676640000,1.575639892578125,-0.638883650302887,-1.2137593030929565,9.631111145019531
1747921856694899500,1.5938994140625,-1.7024933099746704,-2.334796667098999,8.130212783813477
1747921856713169000,1.6121689453125,-1.3334003686904907,-2.279761791229248,8.612366676330566
1747921856731431400,1.630431396484375,-2.33180570602417,-3.064009428024292,7.680960655212402
1747921856749697500,1.648697509765625,-2.4436700344085693,-1.6055840253829956,6.592824459075928
1747921856767963100,1.666963134765625,-2.843271493911743,-1.445863127708435,8.650053977966309
1747921856786245400,1.685245361328125,-3.5503506660461426,-0.6059823632240295,9.068798065185547
1747921856804484000,1.703484130859375,-3.0239295959472656,0.23748764395713806,10.135398864746094
1747921856822756400,1.72175634765625,-3.597010612487793,0.8434699773788452,10.792826652526855
1747921856841017900,1.740017822265625,-3.8321053981781006,0.26500511169433594,9.553942680358887
1747921856859283500,1.758283447265625,-2.2091734409332275,1.287936806678772,9.762118339538574
1747921856877549800,1.7765498046875,-0.48514479398727417,1.252044439315796,11.839088439941406
1747921856895804200,1.79480419921875,0.46719861030578613,-0.12442677468061447,13.097712516784668
1747921856914075000,1.813074951171875,-4.2281174659729,-1.6480566263198853,8.791828155517578
1747921856932341200,1.83134130859375,-7.2227349281311035,-1.1072787046432495,7.4739813804626465
1747921856950603800,1.849603759765625,-8.469993591308594,1.2263215780258179,7.174280643463135
1747921856968857600,1.867857666015625,-7.715058326721191,3.441477060317993,7.587042331695557
1747921856996255700,1.895255859375,-7.730013370513916,3.7734813690185547,6.888936519622803
1747921857014524700,1.913524658203125,-6.770491600036621,3.2004003524780273,9.6795654296875
1747921857032797200,1.931797119140625,-2.7421748638153076,2.50289249420166,12.285947799682617
1747921857051046100,1.950046142578125,0.42352959513664246,-1.1001001596450806,8.777471542358398
1747921857069323000,1.968322998046875,-2.9629125595092773,-4.074378967285156,3.3092737197875977
1747921857087591000,1.9865908203125,-8.649456024169922,-1.174277663230896,2.211566209793091
1747921857105848800,2.004848876953125,-8.46161937713623,0.1657029688358307,4.657031059265137
1747921857124108500,2.023108642578125,-8.482556343078613,1.6911274194717407,5.161318302154541
1747921857142391000,2.04139111328125,-9.407979965209961,6.278766632080078,4.002593994140625
1747921857160644000,2.05964404296875,0.08853443711996078,-2.6249263286590576,16.351951599121094
1747921857178910700,2.07791064453125,4.934000492095947,4.569094657897949,18.05384635925293
1747921857197175300,2.09617529296875,-0.6819544434547424,-0.760917603969574,21.84646987915039
1747921857215438800,2.11443896484375,-9.056235313415527,-2.0823538303375244,16.186248779296875
1747921857233697800,2.13269775390625,-11.237293243408203,0.09092725813388824,9.517452239990234
1747921857251968300,2.15096826171875,-7.2335028648376465,-0.6951149702072144,4.395017147064209
1747921857270230300,2.169230224609375,-7.317849636077881,-1.5643078088760376,-6.410371780395508
1747921857288498200,2.187498291015625,-11.01296615600586,1.5020943880081177,-7.670193195343018
1747921857306760000,2.205760009765625,-7.949554920196533,0.8165507316589355,0.2757728099822998
1747921857325020700,2.224020751953125,-4.956133842468262,0.9906286001205444,5.7888360023498535
1747921857343284000,2.242283935546875,-4.353142738342285,1.8203397989273071,8.61057186126709
1747921857361553000,2.260552978515625,-5.643472194671631,3.232703447341919,9.739386558532715
1747921857379818200,2.278818359375,-8.276175498962402,4.669593334197998,8.426922798156738
1747921857398078500,2.297078369140625,-9.662816047668457,4.323830604553223,6.195616245269775
1747921857416346000,2.31534619140625,-7.777271747589111,2.7182464599609375,4.898108005523682
1747921857434606800,2.33360693359375,-6.5252275466918945,2.09431791305542,4.545166492462158
1747921857452874800,2.351874755859375,0.5946164131164551,0.15314064919948578,8.429914474487305
1747921857471139000,2.37013916015625,-9.065208435058594,1.1904292106628418,5.970092296600342
1747921857489396700,2.388396728515625,-9.256035804748535,0.48813581466674805,5.2043890953063965
1747921857507670300,2.406670166015625,-8.933005332946777,1.4656038284301758,6.802196502685547
1747921857525927700,2.424927734375,-7.895118236541748,0.8536394834518433,8.458627700805664
1747921857544193000,2.443193115234375,-6.46241569519043,3.8333017826080322,5.958726406097412
1747921857562461000,2.4614609375,-7.360920429229736,3.662813186645508,7.677371501922607
1747921857580725500,2.4797255859375,-6.336792469024658,1.3782658576965332,8.322237014770508
1747921857598989800,2.49798974609375,-5.904888153076172,1.0947163105010986,6.049055576324463
1747921857617256700,2.516256591796875,-7.1958160400390625,1.262213945388794,5.042873859405518
1747921857635512300,2.53451220703125,-8.167900085449219,0.3595215976238251,5.2731828689575195
1747921857653780000,2.552780029296875,-8.718847274780273,0.4384847581386566,6.336792469024658
1747921857672047000,2.571047119140625,-6.080162525177002,0.2027917206287384,6.072385787963867
1747921857690311400,2.5893115234375,-5.969494342803955,1.5379867553710938,8.178069114685059
1747921857708577000,2.607576904296875,-6.580262184143066,1.2370892763137817,8.556734085083008
1747921857726838800,2.6258388671875,-4.716253280639648,0.0687936544418335,7.623532772064209
1747921857745103400,2.644103271484375,-5.174479007720947,-0.8321040868759155,7.207181930541992
1747921857763366400,2.662366455078125,-7.051050186157227,1.2293126583099365,7.529614448547363
1747921857781632000,2.680632080078125,-7.807182312011719,1.4518451690673828,8.191828727722168
1747921857799899000,2.69889892578125,-7.120441913604736,-0.09092725813388824,8.446065902709961
1747921857818163500,2.71716357421875,-5.741578102111816,-1.5032907724380493,8.589634895324707
1747921857836427300,2.73542724609375,-4.408775806427002,-0.037088751792907715,8.526225090026855
1747921857854686000,2.75368603515625,-3.5294134616851807,-0.3116651475429535,9.33739185333252
1747921857872956200,2.7719560546875,-6.293123722076416,0.4325026869773865,8.373682975769043
1747921857891218200,2.79021826171875,-5.904888153076172,0.4773681163787842,6.976274490356445
1747921857909485000,2.808485107421875,-6.839285373687744,1.1324033737182617,6.596413612365723
1747921857927749600,2.82674951171875,-6.138786315917969,1.353141188621521,7.4225358963012695
1747921857946008800,2.8450087890625,-4.965705394744873,0.9152546525001526,7.6875410079956055
1747921857964272000,2.863272216796875,-4.731208801269531,-0.11186445504426956,7.603792190551758
1747921857982541300,2.881541259765625,-5.4765729904174805,0.3858426511287689,8.586644172668457
1747921858000805400,2.899805419921875,-6.235097408294678,0.8739784955978394,7.919644832611084
1747921858019074800,2.91807470703125,-5.974279880523682,0.2883351147174835,8.161917686462402
1747921858037331700,2.936331787109375,-5.351547718048096,0.2955136001110077,8.992825508117676
1747921858055598600,2.9545986328125,-5.203192710876465,-0.4654040038585663,8.450851440429688
1747921858073857800,2.97285791015625,-4.72582483291626,-1.6839489936828613,8.539385795593262
1747921858092129000,2.99112890625,-5.858826160430908,-0.2679961323738098,7.6013994216918945
1747921858110389200,3.00938916015625,-5.6153564453125,-0.5587241053581238,8.021339416503906
1747921858128646400,3.027646484375,-4.9776692390441895,-0.4331009089946747,8.761320114135742
1747921858146920400,3.04592041015625,-4.975276470184326,0.4977070987224579,8.255836486816406
1747921858165181200,3.06418115234375,-4.655834674835205,0.47258245944976807,8.240880966186523
1747921858183445200,3.0824453125,-4.49252462387085,-0.1788634955883026,9.473184585571289
1747921858201714700,3.100714599609375,-4.037888050079346,0.20757736265659332,7.507481098175049
1747921858219976700,3.118976806640625,-5.517848968505859,-0.02751746028661728,7.93579626083374
1747921858238244600,3.13724462890625,-4.463212490081787,0.8560323119163513,8.135597229003906
1747921858256507600,3.155507568359375,3.7908291816711426,5.501099109649658,8.377870559692383
1747921858274766300,3.173766357421875,-12.589238166809082,0.7627122402191162,9.884750366210938
1747921858293035500,3.192035400390625,-4.907081127166748,3.156731367111206,6.686144828796387
1747921858311299600,3.210299560546875,-7.63729190826416,3.221935749053955,6.596413612365723
1747921858329564200,3.228564208984375,-7.004390239715576,2.2779672145843506,5.489135265350342
1747921858347830300,3.246830322265625,-5.311468124389648,-0.0011964113218709826,4.664209365844727
1747921858366081300,3.265081298828125,-5.441278457641602,0.2799602448940277,5.549553871154785
1747921858384345900,3.283345947265625,-5.647659778594971,0.1818545162677765,7.200003147125244
1747921858402623000,3.301623046875,-3.6364922523498535,1.6402798891067505,7.274180889129639
1747921858420885800,3.3198857421875,-5.735595703125,1.4691931009292603,6.226124286651611
1747921858439150300,3.338150390625,-7.230511665344238,3.0825538635253906,7.1886372566223145
1747921858457421600,3.356421630859375,-10.62413215637207,0.07238288223743439,6.732206344604492
1747921858475674000,3.374674072265625,-7.437490940093994,1.373480200767517,7.334599494934082
1747921858493939500,3.392939453125,-3.1998021602630615,2.118844509124756,9.406784057617188
1747921858512207600,3.41120751953125,1.700698733329773,-1.9459630250930786,11.026126861572266
1747921858530471700,3.4294716796875,1.3022937774658203,-2.575873613357544,11.20798110961914
1747921858548736300,3.447736328125,0.19202402234077454,-3.8392839431762695,10.161121368408203
1747921858567003100,3.466003173828125,-17.07757568359375,-9.193822860717773,6.551548480987549
1747921858585260300,3.48426025390625,-14.312070846557617,-4.450650215148926,8.838488578796387
1747921858603524900,3.50252490234375,-7.396214962005615,-1.4297115802764893,7.277770042419434
1747921858621795000,3.520795166015625,-6.296712875366211,-1.1210373640060425,7.400402069091797
1747921858640059000,3.539058837890625,-6.604788780212402,-1.1820544004440308,6.635895252227783
1747921858658324000,3.557323974609375,-6.339783668518066,-1.700698733329773,6.409773826599121
1747921858676588500,3.575588623046875,-6.956533432006836,-1.7694923877716064,6.209972858428955
1747921858694847000,3.593846923828125,-4.923830986022949,-3.3553354740142822,8.226524353027344
1747921858713112600,3.612112548828125,-9.778867721557617,-1.109073281288147,8.58903694152832
1747921858731383600,3.630383544921875,-6.519843578338623,-0.9080761671066284,4.029513359069824
1747921858749645800,3.648645751953125,-6.537191390991211,-0.8506484627723694,4.517050743103027
1747921858767910100,3.66691015625,-7.1228346824646,-1.4979069232940674,6.105287075042725
1747921858786169600,3.685169677734375,-5.139782905578613,-1.155733346939087,6.206982135772705
1747921858804433000,3.703432861328125,-4.587040901184082,-1.5002998113632202,6.468397617340088
1747921858822703000,3.721703125,-10.29452133178711,-1.164108157157898,6.86381196975708
1747921858840965000,3.739965087890625,-13.135997772216797,4.302295207977295,5.4765729904174805
1747921858859232000,3.75823193359375,-5.886343479156494,0.8614161610603333,4.412963390350342
1747921858877496800,3.776496826171875,-6.543771743774414,-3.7082769870758057,8.339585304260254
1747921858895755800,3.794755859375,-5.67756986618042,-1.7982062101364136,7.905287742614746
1747921858914019000,3.81301904296875,-6.196812629699707,-1.211964726448059,7.562515735626221
1747921858932289500,3.83128955078125,-7.022336483001709,-2.0715861320495605,9.017352104187012
1747921858950551600,3.849551513671875,-7.396812915802002,-2.221735715866089,10.232307434082031
1747921858968819000,3.86781884765625,-6.523432731628418,-0.7962117195129395,9.835697174072266
1747921858987077600,3.88607763671875,-5.386841773986816,-0.6323033571243286,5.8683977127075195
1747921859005342200,3.90434228515625,-5.671587944030762,-0.2267199456691742,6.032305717468262
1747921859023605200,3.922605224609375,-6.230311870574951,0.24646073579788208,7.052844524383545
1747921859041875700,3.940875732421875,-5.827121257781982,1.1288141012191772,8.277970314025879
1747921859060137700,3.9591376953125,-5.37906551361084,-0.7112665176391602,9.010771751403809
1747921859078398000,3.97739794921875,-6.871588230133057,-2.272583246231079,8.346763610839844
1747921859096667400,3.99566748046875,-6.93619441986084,-1.677966833114624,8.45324420928955
1747921859114928400,4.013928466796875,-6.369095802307129,-1.3525429964065552,9.327820777893066
1747921859133196300,4.0321962890625,-5.554339408874512,-0.3116651475429535,9.030512809753418
1747921859151460900,4.0504609375,-6.2530436515808105,0.39900317788124084,7.368697166442871
1747921859169725200,4.06872509765625,-5.191228866577148,1.3573286533355713,6.535995006561279
1747921859187992000,4.086991943359375,-5.24327278137207,-0.1818545162677765,5.486144065856934
1747921859206254000,4.105254150390625,-3.8285162448883057,0.8805587291717529,6.32662296295166
1747921859224513800,4.123513671875,-3.142374277114868,1.347757339477539,6.832705020904541
1747921859242783700,4.14178369140625,-3.4337005615234375,1.2640085220336914,6.9098734855651855
1747921859261047000,4.160047119140625,-4.292723655700684,1.0163514614105225,7.571488857269287
1747921859279311600,4.1783115234375,-5.536991596221924,1.1365907192230225,7.999804496765137
1747921859297578200,4.196578125,-5.754140377044678,2.287538528442383,8.872586250305176
1747921859315832600,4.21483251953125,-5.072783946990967,1.4572290182113647,7.8317084312438965
1747921859334104600,4.2331044921875,-6.139384746551514,-1.9866410493850708,6.9445695877075195
1747921859352369700,4.25136962890625,-5.441278457641602,0.03469592705368996,9.652647018432617
1747921859370633500,4.269633544921875,-5.781657695770264,0.7585247755050659,9.88415241241455
1747921859388898000,4.28789794921875,-5.640480995178223,1.9411773681640625,11.071590423583984
1747921859407164400,4.306164306640625,-6.751947402954102,-0.3768695592880249,9.300901412963867
1747921859425421800,4.324421875,-5.4179487228393555,0.005383851006627083,7.825726509094238
1747921859443692800,4.34269287109375,-5.117649555206299,-1.0319048166275024,7.206583499908447
1747921859461955000,4.360955078125,-4.213162422180176,0.5599204897880554,7.493722438812256
1747921859480220000,4.379219970703125,-5.916851997375488,0.49710890650749207,7.932805061340332
1747921859507616500,4.406616455078125,-5.058426856994629,15.950555801391602,7.752147197723389
1747921859525881000,4.424881103515625,-7.999206066131592,3.13639235496521,12.64726448059082
1747921859544145700,4.443145751953125,-10.189236640930176,-8.412566184997559,8.85224723815918
1747921859562410200,4.46141015625,-4.627718925476074,-7.6869425773620605,2.0452651977539062
1747921859580674000,4.479674072265625,-6.844070911407471,-4.6408796310424805,2.4562325477600098
1747921859598938400,4.4979384765625,-5.438287734985352,-5.652445316314697,6.655636310577393
1747921859617203200,4.516203125,-5.653641700744629,-3.0903303623199463,8.079963684082031
1747921859635467800,4.5344677734375,-5.827719688415527,-2.8253252506256104,4.977071285247803
1747921859653728500,4.552728515625,-8.405387878417969,6.032904148101807,6.343971252441406
1747921859671999200,4.570999267578125,-12.031710624694824,2.0925233364105225,5.671587944030762
1747921859690258700,4.5892587890625,-5.328815937042236,-3.2787652015686035,4.884349346160889
1747921859708527000,4.607527099609375,-6.199803352355957,-2.490330219268799,6.340980052947998
1747921859726786000,4.6257861328125,-7.706085205078125,-0.6819544434547424,8.346165657043457
1747921859745056800,4.644056884765625,-7.890930652618408,-2.5429723262786865,7.971090316772461
1747921859763318000,4.662318115234375,-7.390830993652344,-1.6145570278167725,7.856235027313232
1747921859781582800,4.680582763671875,-7.3746795654296875,0.4468596279621124,7.39561653137207
1747921859799846400,4.698846435546875,-6.9583282470703125,-1.0821540355682373,2.695514678955078
1747921859818111200,4.717111328125,-7.077969551086426,-1.898106575012207,3.8572301864624023
1747921859836375600,4.73537548828125,-7.245467185974121,-1.6013965606689453,6.756134510040283
1747921859854640400,4.753640380859375,-6.939784049987793,-2.0919251441955566,7.6013994216918945
1747921859872904200,4.771904296875,-7.520641803741455,-4.188037872314453,9.670592308044434
1747921859891168800,4.790168701171875,-7.121638298034668,-3.073580741882324,9.10229778289795
1747921859909433000,4.80843310546875,-7.274180889129639,-2.39401912689209,7.99382209777832
1747921859927698000,4.826697998046875,-7.3537421226501465,-0.22791635990142822,7.2125654220581055
1747921859945955600,4.84495556640625,-7.380661487579346,-0.6376872062683105,4.820939540863037
1747921859964226300,4.863226318359375,-8.252246856689453,0.8392825126647949,5.0255255699157715
1747921859982480000,4.88147998046875,-7.540980339050293,0.6652047038078308,5.349154949188232
1747921860000755500,4.89975537109375,-7.287341594696045,0.8303094506263733,5.453841209411621
1747921860019018800,4.918018798828125,-7.423732280731201,0.01375873014330864,5.5728840827941895
1747921860037284000,4.9362841796875,-7.5565338134765625,-0.47916272282600403,6.658029079437256
1747921860055548000,4.9545478515625,-7.595417499542236,-0.6119644045829773,6.643671989440918
1747921860073813000,4.97281298828125,-7.6528449058532715,-0.5497509837150574,6.581458568572998
1747921860092076500,4.99107666015625,-7.564908981323242,-1.0109676122665405,6.174080848693848
1747921860110341400,5.00934130859375,-5.487340450286865,-1.5637096166610718,3.562314748764038
1747921860128593400,5.027593505859375,-8.062616348266602,-0.5916253924369812,5.066203594207764
1747921860146870500,5.04587060546875,-12.427722930908203,-2.1990039348602295,-2.5357937812805176
1747921860165134000,5.064134033203125,-8.581260681152344,-0.5982056856155396,5.741578102111816
1747921860183399000,5.08239892578125,-6.952346324920654,-0.39960137009620667,9.46899700164795
1747921860201663000,5.1006630859375,-7.5427751541137695,-0.9678967595100403,7.11146879196167
1747921860219928000,5.118927978515625,-8.200202941894531,-1.730010747909546,7.121638298034668
1747921860238191400,5.13719140625,-7.378268718719482,-1.5439687967300415,7.043273448944092
1747921860256456400,5.15545654296875,-10.51944637298584,-1.9836499691009521,9.570094108581543
1747921860274720800,5.173720703125,-9.473783493041992,-2.2947168350219727,4.679762840270996
1747921860292985600,5.191985595703125,-5.989234924316406,-1.693520188331604,5.43290376663208
1747921860311249400,5.21024951171875,-6.344569206237793,-1.1120643615722656,5.56869649887085
1747921860329514000,5.228513916015625,-9.011369705200195,-0.6424728631973267,7.454838752746582
1747921860347778300,5.2467783203125,-9.972686767578125,-0.6849454641342163,8.72901725769043
1747921860366043100,5.265043212890625,-9.140582084655762,-1.158724308013916,9.860223770141602
1747921860384307000,5.283306884765625,-9.905089378356934,-0.9690931439399719,11.310873031616211
1747921860402571500,5.301571533203125,-10.268199920654297,-0.6598208546638489,8.815756797790527
1747921860420836000,5.319836181640625,-8.084749221801758,-0.9290133714675903,4.238286972045898
1747921860439100700,5.3381005859375,-2.7188446521759033,0.1860419660806656,4.419543266296387
1747921860457364500,5.356364501953125,-1.825723648071289,-0.20398813486099243,3.2452657222747803
1747921860475629000,5.374629150390625,-3.384049415588379,2.1888344287872314,4.529015064239502
1747921860493893600,5.3928935546875,-3.710669755935669,2.200200319290161,5.534000396728516
1747921860512158200,5.411158203125,-4.347160339355469,4.611567497253418,4.802394866943359
1747921860530422000,5.429422119140625,-4.562514781951904,5.315057277679443,3.6849467754364014
1747921860548686600,5.4476865234375,-4.258028030395508,5.114060401916504,3.372683525085449
1747921860566951000,5.465950927734375,-3.2584261894226074,3.8213376998901367,2.536990165710449
1747921860585216000,5.484216064453125,-1.057627558708191,2.489732027053833,0.8895317912101746
1747921860603479800,5.502479736328125,0.5868397355079651,1.8634105920791626,-1.0516455173492432
1747921860621744000,5.520744140625,-17.280366897583008,-2.5016961097717285,11.874980926513672
1747921860640008700,5.5390087890625,-18.560527801513672,-6.461219310760498,14.110475540161133
1747921860658273300,5.557273193359375,-13.549956321716309,-13.407583236694336,11.00997543334961
1747921860676537000,5.575537109375,-13.303495407104492,-5.949155330657959,4.237689018249512
1747921860694802000,5.593802001953125,-9.106484413146973,-1.5750755071640015,3.4169507026672363
1747921860713066200,5.612066162109375,-3.899104595184326,-1.9298114776611328,9.239884376525879
1747921860731330600,5.63033056640625,-7.144370079040527,-0.8913264274597168,2.337787628173828
1747921860749594600,5.6485947265625,-7.992027759552002,0.6089733839035034,2.695514678955078
1747921860776991200,5.6759912109375,-9.371489524841309,1.2424731254577637,1.7383856773376465
1747921860795256800,5.6942568359375,-9.231510162353516,1.6313068866729736,1.848455548286438
1747921860813520400,5.712520263671875,-8.46461009979248,-0.537188708782196,4.478765964508057
1747921860831786000,5.730785888671875,-7.699504852294922,-2.3742783069610596,6.000600814819336
1747921860850049300,5.74904931640625,-7.864609718322754,-2.7774689197540283,5.574678421020508
1747921860877446000,5.77644580078125,-9.092127799987793,-4.686343193054199,4.503292083740234
1747921860895709700,5.794709716796875,-9.422337532043457,-4.593023300170898,7.665407180786133
1747921860913974300,5.812974365234375,-9.277571678161621,0.27816563844680786,2.726621389389038
1747921860932238800,5.83123876953125,-8.7445707321167,3.6329028606414795,0.6400800347328186
1747921860950503400,5.84950341796875,-9.969695091247559,2.527418851852417,1.100698471069336
1747921860968767200,5.867767333984375,-9.686744689941406,-0.8991031050682068,1.26699960231781
1747921860987032000,5.886031982421875,-8.282156944274902,-5.7547383308410645,3.638885021209717
1747921861005296400,5.90429638671875,-7.606184959411621,-9.372088432312012,4.799404144287109
1747921861023560700,5.922560791015625,-8.064410209655762,-10.243673324584961,6.262615203857422
1747921861041825000,5.940824951171875,-8.419146537780762,-8.428119659423828,4.620540618896484
1747921861060089000,5.959089111328125,-8.315058708190918,-7.350152969360352,4.469194412231445
1747921861078354200,5.977354248046875,-8.305487632751465,-8.575876235961914,4.4482574462890625
1747921861096618200,5.9956181640625,-7.456035137176514,-2.751147747039795,4.794020175933838
1747921861114882600,6.013882568359375,-8.394619941711426,5.793023586273193,1.6468602418899536
1747921861133147000,6.03214697265625,-10.64507007598877,10.39621639251709,-0.8189435601234436
1747921861151411500,6.050411376953125,-9.660423278808594,3.964308977127075,-1.4763715267181396
1747921861169675800,6.06867578125,-7.6049885749816895,5.43290376663208,1.01814603805542
1747921861187939800,6.08693994140625,-8.446663856506348,1.698904037475586,2.554338216781616
1747921861206204400,6.105204345703125,-8.650053977966309,-9.686145782470703,4.155734539031982
1747921861224469000,6.123468994140625,-8.831908226013184,-10.762916564941406,5.48375129699707
1747921861242733600,6.141733642578125,-9.584450721740723,-9.7005033493042,4.673780918121338
1747921861260997600,6.15999755859375,-9.978070259094238,-4.967499732971191,3.8973097801208496
1747921861279262000,6.178261962890625,-9.128618240356445,-1.1425727605819702,3.4127633571624756
1747921861297526500,6.196526611328125,-8.86361312866211,0.31345975399017334,2.0608184337615967
1747921861315790800,6.214790771484375,-8.958727836608887,2.9838497638702393,1.887937068939209
1747921861334055200,6.23305517578125,-8.438887596130371,1.841277003288269,1.526620864868164
1747921861352320000,6.251320068359375,-9.157332420349121,-1.97407865524292,2.8187451362609863
1747921861370584300,6.269584228515625,-9.861420631408691,-4.351347923278809,1.9465612173080444
1747921861388848600,6.2878486328125,-9.421140670776367,-5.236692428588867,1.8963119983673096
1747921861407112700,6.30611279296875,-10.083354949951172,-4.929812908172607,1.9076778888702393
1747921861425377500,6.32437744140625,-9.966106414794922,-4.265206336975098,1.9184455871582031
1747921861443641600,6.3426416015625,-9.268000602722168,-2.9288148880004883,2.0380866527557373
1747921861461906400,6.360906494140625,-7.950153350830078,-2.022533416748047,2.7014968395233154
1747921861480170200,6.379170166015625,-9.20159912109375,0.4055834412574768,2.334198474884033
1747921861498435000,6.39743505859375,-9.728020668029785,0.7639086246490479,1.2693923711776733
1747921861516699400,6.415699462890625,-9.367900848388672,-0.4630111753940582,2.1517457962036133
1747921861534964000,6.4339638671875,-9.005388259887695,-1.2478569746017456,3.1830523014068604
1747921861553228000,6.45222802734375,-9.397810935974121,-2.376671075820923,2.8139593601226807
1747921861571492900,6.470492919921875,-9.075976371765137,-1.932204246520996,2.785245656967163
1747921861589756200,6.488756103515625,-7.366304397583008,-0.851844847202301,3.2709884643554688
1747921861608024000,6.507024169921875,-9.846465110778809,-1.9573289155960083,2.184048891067505
1747921861626285300,6.525285400390625,-10.238887786865234,-2.4634108543395996,2.5908286571502686
1747921861644550100,6.543550048828125,-9.378069877624512,-2.248655080795288,2.833101987838745
1747921861662814500,6.561814453125,-8.994620323181152,-1.6618152856826782,2.5842485427856445
1747921861681079300,6.580079345703125,-8.93240737915039,-1.5481562614440918,2.4699912071228027
1747921861699342800,6.5983427734375,-9.032905578613281,-1.8131613731384277,2.6560330390930176
1747921861717607400,6.616607421875,-9.196215629577637,-2.097309112548828,2.8522446155548096
1747921861735872300,6.634872314453125,-9.349356651306152,-2.2157537937164307,2.7900311946868896
1747921861754136600,6.653136474609375,-9.287740707397461,-2.111665964126587,2.5609183311462402
1747921861772400400,6.671400390625,-9.253643035888672,-1.9310078620910645,2.513062000274658
1747921861790665500,6.68966552734375,-9.248259544372559,-1.8598214387893677,2.575275421142578
1747921861808929500,6.707929443359375,-9.20997428894043,-1.9124635457992554,2.613560438156128
1747921861827194400,6.7261943359375,-9.20578670501709,-1.9932212829589844,2.6273193359375
1747921861845455000,6.744455078125,-9.248857498168945,-2.0165512561798096,2.6087749004364014
1747921861863725600,6.7627255859375,-9.229715347290039,-1.9645073413848877,2.5178475379943848
1747921861881986600,6.780986572265625,-9.215357780456543,-1.8460626602172852,2.4269204139709473
1747921861900252400,6.79925244140625,-9.257830619812012,-1.7413766384124756,2.379063844680786
1747921861918515700,6.817515625,-9.262018203735352,-1.674975872039795,2.403590440750122
1747921861936780300,6.8357802734375,-9.229117393493652,-1.7078771591186523,2.455634355545044
1747921861955044600,6.854044677734375,-9.186046600341797,-1.76051926612854,2.503490686416626
1747921861973309400,6.872309326171875,-9.071788787841797,-1.8179470300674438,2.5076780319213867
1747921861991573200,6.8905732421875,-9.05264663696289,-1.8131613731384277,2.4837498664855957
1747921862009837800,6.908837890625,-9.08135986328125,-1.770688772201538,2.4221346378326416
1747921862028102100,6.92710205078125,-9.186644554138184,-1.8035900592803955,2.3886351585388184
1747921862046366700,6.94536669921875,-9.367900848388672,-1.8783657550811768,2.4221346378326416
1747921862064630500,6.963630615234375,-9.392427444458008,-2.0159530639648438,2.4508485794067383
1747921862082895400,6.981895263671875,-9.33021354675293,-2.073380708694458,2.551347255706787
1747921862101164500,7.00016455078125,-9.220144271850586,-2.026122570037842,2.526820659637451
1747921862119424500,7.018424560546875,-9.263813018798828,-2.1828525066375732,2.5124638080596924
1747921862137687800,7.036687744140625,-9.406784057617188,-2.0207388401031494,2.431705951690674
1747921862165085000,7.0640849609375,-9.247661590576172,-1.679761528968811,2.4364917278289795
1747921862183350800,7.082350830078125,-9.136993408203125,-1.537388563156128,2.62313175201416
1747921862201613600,7.100613525390625,-9.195018768310547,-1.9028922319412231,2.8809585571289062
1747921862219879400,7.11887939453125,-9.233902931213379,-2.073380708694458,2.933600664138794
1747921862238142500,7.137142578125,-9.34875774383545,-2.0781664848327637,2.8283164501190186
1747921862256408300,7.155408203125,-9.382855415344238,-2.059023857116699,2.513062000274658
1747921862274671400,7.17367138671875,-9.2255277633667,-2.1403799057006836,2.5459632873535156
1747921862292937000,7.19193701171875,-9.124430656433105,-1.903490424156189,2.541177749633789
1747921862311200000,7.210199951171875,-8.906085968017578,-2.33180570602417,2.654836654663086
1747921862329465300,7.22846533203125,-9.407382011413574,-2.2061824798583984,2.6087749004364014
1747921862347729000,7.24672900390625,-9.744172096252441,-1.6869399547576904,2.428116798400879
1747921862365994500,7.264994384765625,-9.968499183654785,-1.472184181213379,2.1469600200653076
1747921862384257500,7.283257568359375,-9.402596473693848,-2.201396942138672,2.5561327934265137
1747921862402523400,7.3015234375,-8.876773834228516,-2.2366909980773926,2.727219581604004
1747921862420784600,7.31978466796875,-9.116056442260742,-2.3497519493103027,2.7320053577423096
1747921862439053800,7.3380537109375,-9.506684303283691,-2.0673987865448,2.723630428314209
1747921862457315300,7.3563154296875,-9.558130264282227,-1.9866410493850708,2.967698335647583
1747921862475580700,7.37458056640625,-9.20997428894043,-2.073979139328003,2.895315408706665
1747921862493844000,7.392843994140625,-9.382855415344238,-2.1206390857696533,2.6183462142944336
1747921862512109600,7.411109619140625,-9.493523597717285,-2.3910279273986816,2.6039891242980957
1747921862530372600,7.42937255859375,-9.346364974975586,-2.4059832096099854,2.392822742462158
1747921862548638200,7.44763818359375,-9.489934921264648,-2.049452543258667,1.8005990982055664
1747921862566901500,7.465901611328125,-9.471389770507812,-1.9357935190200806,1.308275818824768
1747921862585167000,7.4841669921875,-9.166305541992188,-2.7212376594543457,0.3978067636489868
1747921862603430100,7.50243017578125,-9.396016120910645,-3.2679975032806396,-2.4675984382629395
1747921862621696000,7.520696044921875,-8.736793518066406,-2.6907291412353516,-1.4207384586334229
1747921862639959300,7.538959228515625,-8.26839828491211,-1.2849457263946533,2.215155601501465
1747921862658224600,7.557224609375,-8.629714965820312,-1.5433706045150757,4.980062007904053
1747921862676487700,7.57548779296875,-9.597013473510742,-2.132004976272583,6.693323135375977
1747921862694753500,7.59375341796875,-9.376873970031738,-1.4530415534973145,7.703094482421875
1747921862713002200,7.612002197265625,-8.332406997680664,-1.1306086778640747,6.639484405517578
1747921862731282000,7.630281982421875,-8.621339797973633,-1.4404792785644531,2.50289249420166
1747921862749545000,7.648544921875,-9.068798065185547,-1.9226330518722534,1.9962122440338135
1747921862767810800,7.666810791015625,-9.009575843811035,-1.7521443367004395,2.3359930515289307
1747921862786074000,7.68507421875,-8.788837432861328,-1.3968101739883423,2.407777786254883
1747921862804339700,7.703339599609375,-8.5704927444458,-0.8177471160888672,2.771486759185791
1747921862822602800,7.721602783203125,-8.625527381896973,-0.47557350993156433,3.0490541458129883
1747921862840868600,7.73986865234375,-9.002396583557129,-0.40259242057800293,3.0933215618133545
1747921862859131400,7.75813134765625,-9.259625434875488,-1.256830096244812,2.7146573066711426
1747921862877397200,7.776397216796875,-9.574281692504883,-3.3122646808624268,2.373081922531128
1747921862895660500,7.79466064453125,-9.696913719177246,-3.9194436073303223,2.1714866161346436
1747921862913926100,7.812926025390625,-9.553942680358887,-2.9892337322235107,2.4735803604125977
1747921862932189000,7.83118896484375,-9.434301376342773,-2.1104695796966553,2.9485557079315186
1747921862950454800,7.849454833984375,-9.34277629852295,-2.1062822341918945,3.2829527854919434
1747921862968718000,7.867718017578125,-9.270991325378418,-1.973480463027954,3.2590243816375732
1747921862986983700,7.885983642578125,-9.189037322998047,-1.7694923877716064,3.129812002182007
1747921863005247000,7.9042470703125,-9.19442081451416,-1.8502501249313354,3.0101709365844727
1747921863023512300,7.92251220703125,-9.227322578430176,-1.8029918670654297,3.0867412090301514
1747921863041775900,7.94077587890625,-9.467203140258789,-1.9824535846710205,3.0681967735290527
1747921863060041200,7.959041259765625,-9.43310546875,-2.000998020172119,3.335594654083252
1747921863078304500,7.977304443359375,-9.384650230407715,-1.8113667964935303,3.40797758102417
1747921863096569900,7.99556982421875,-9.407979965209961,-1.5930216312408447,3.0975089073181152
1747921863114833400,8.01383349609375,-9.384650230407715,-1.5553346872329712,2.9730820655822754
1747921863133099000,8.03209912109375,-9.30329418182373,-1.5553346872329712,3.0346972942352295
1747921863151361800,8.05036181640625,-9.384052276611328,-1.469791293144226,3.0065815448760986
1747921863169627600,8.068627685546875,-9.159127235412598,-1.3423734903335571,3.0251259803771973
1747921863187891000,8.086890869140625,-9.20279598236084,-1.4991034269332886,2.881556749343872
1747921863206156300,8.10515625,-9.229715347290039,-1.2041879892349243,3.2410783767700195
1747921863224419600,8.123419677734375,-9.591031074523926,-1.1736794710159302,3.6675989627838135
1747921863242685200,8.141685302734375,-9.467203140258789,-1.0223335027694702,3.490530014038086
1747921863260948200,8.1599482421875,-8.883952140808105,-0.7878368496894836,3.40797758102417
1747921863279213800,8.1782138671875,-8.870193481445312,-0.8781659007072449,3.273979663848877
1747921863297477000,8.19647705078125,-9.266803741455078,-0.97148597240448,3.2027931213378906
1747921863315742500,8.214742431640625,-9.366106033325195,-0.6526423692703247,3.184846878051758
1747921863334005800,8.233005859375,-9.413962364196777,-0.6191428303718567,3.098705291748047
1747921863352271400,8.251271240234376,-9.336793899536133,-0.5623133182525635,3.304488182067871
1747921863370534400,8.269534423828125,-8.61057186126709,-0.5276173949241638,3.47019100189209
1747921863388800000,8.287800048828124,-9.154939651489258,-0.3355933725833893,3.1130621433258057
1747921863407063300,8.306063232421875,-8.885746955871582,-0.2273181527853012,3.5575289726257324
1747921863425329000,8.324328857421875,-9.363713264465332,-0.31046873331069946,3.438486099243164
1747921863443592200,8.34259228515625,-9.30030345916748,0.059820566326379776,3.43908429145813
1747921863461857800,8.36085791015625,-9.251849174499512,0.349352091550827,3.2338998317718506
1747921863480121000,8.37912109375,-9.323633193969727,0.5156532526016235,3.0616166591644287
1747921863498387500,8.397387451171875,-9.123832702636719,0.5718846321105957,2.6596224308013916
1747921863516648700,8.415648681640626,-8.402995109558105,0.259621262550354,3.064009428024292
1747921863534912300,8.433912353515625,-8.951549530029297,0.3475574851036072,3.1375887393951416
1747921863553181400,8.452181396484375,-9.0514497756958,0.45284169912338257,3.046661376953125
1747921863571444000,8.47044384765625,-8.94137954711914,0.44745782017707825,3.281157970428467
1747921863589707500,8.48870751953125,-8.792427062988281,0.7130611538887024,3.1040892601013184
1747921863607972600,8.50697265625,-9.08973503112793,0.5431707501411438,2.937189817428589
1747921863626236200,8.525236083984375,-8.649456024169922,0.6837490797042847,3.2614171504974365
1747921863644501500,8.54350146484375,-8.754141807556152,0.5940182209014893,3.4959139823913574
1747921863662764800,8.561764892578125,-8.830113410949707,0.6041877269744873,3.500699520111084
1747921863681030400,8.580030517578125,-8.912068367004395,0.7184450030326843,3.1519455909729004
1747921863699293700,8.598293701171874,-8.754739761352539,0.8644071817398071,2.802593469619751
1747921863717559000,8.61655908203125,-8.726025581359863,0.778863787651062,2.8552355766296387
1747921863735822600,8.634822509765625,-8.836095809936523,0.6227321028709412,3.0035905838012695
1747921863754089500,8.65308935546875,-9.205188751220703,0.44386860728263855,2.8414769172668457
1747921863772351200,8.671351318359376,-9.430113792419434,0.373878538608551,2.7559335231781006
1747921863790602000,8.68960205078125,-9.042476654052734,0.6376872062683105,2.669193744659424
1747921863808879900,8.7078798828125,-8.831908226013184,0.7082754969596863,2.7260231971740723
1747921863827145000,8.72614501953125,-8.879764556884766,0.6652047038078308,2.6117658615112305
1747921863845408800,8.74440869140625,-9.559925079345703,0.4217349886894226,2.335394859313965
1747921863863673900,8.762673828125,-9.561120986938477,0.07956135272979736,2.38265323638916
1747921863881937400,8.7809375,-9.394221305847168,-0.08733802288770676,2.530410051345825
1747921863900202800,8.79920263671875,-8.784051895141602,-0.18065811693668365,2.3563320636749268
1747921863918466300,8.81746630859375,-8.726025581359863,-0.0526420995593071,2.2947168350219727
1747921863936731600,8.835731689453125,-9.30329418182373,-0.12083754688501358,2.620738983154297
1747921863954995000,8.853994873046876,-10.039087295532227,-0.29790642857551575,2.6362924575805664
1747921863973260300,8.87226025390625,-10.316655158996582,-0.31106695532798767,2.331207513809204
1747921863991523800,8.89052392578125,-9.459425926208496,-0.6855437159538269,2.1373889446258545
1747921864009789000,8.908788818359374,-8.754141807556152,-0.7651050686836243,1.8203397989273071
1747921864028052500,8.927052490234376,-8.797212600708008,-0.9978070259094238,2.183450698852539
1747921864046317800,8.94531787109375,-9.632905960083008,-1.155135154724121,2.3473589420318604
1747921864064581400,8.963581298828124,-10.391430854797363,-1.2699905633926392,2.5597219467163086
1747921864082847000,8.981846923828124,-9.960722923278809,-1.2005987167358398,2.9796624183654785
1747921864101110300,9.0001103515625,-9.879964828491211,-1.2915260791778564,2.9599215984344482
1747921864119375600,9.018375732421875,-9.728020668029785,-1.4207384586334229,2.9210381507873535
1747921864137638700,9.036638671875,-9.634101867675781,-1.7533408403396606,2.6763720512390137
1747921864155904300,9.054904296875,-9.470193862915039,-1.5595221519470215,2.968296527862549
1747921864174167800,9.073167724609375,-9.272188186645508,-1.2658032178878784,3.5084762573242188
1747921864192433000,9.091432861328125,-9.391230583190918,-1.3645070791244507,3.662214994430542
1747921864210696400,9.109696533203126,-9.383454322814941,-1.5643078088760376,3.2931220531463623
1747921864228962000,9.127962158203125,-9.479764938354492,-1.5355939865112305,2.953939437866211
1747921864247225000,9.14622509765625,-9.440881729125977,-1.4644074440002441,3.0544381141662598
1747921864265490700,9.16449072265625,-9.196813583374023,-1.3471591472625732,3.125624656677246
1747921864283754000,9.18275390625,-9.1112699508667,-1.3142578601837158,3.0729825496673584
1747921864302019300,9.201019287109375,-9.360123634338379,-1.4315061569213867,2.9108686447143555
1747921864320283000,9.219282958984374,-9.41336441040039,-1.4267204999923706,2.6285157203674316
1747921864338548200,9.23754833984375,-9.318249702453613,-1.275374412536621,2.4233310222625732
1747921864356811500,9.2558115234375,-9.145368576049805,-1.0863415002822876,2.3802602291107178
1747921864375076900,9.274076904296875,-9.183652877807617,-1.0007981061935425,2.3132612705230713
1747921864393340400,9.29234033203125,-9.293723106384277,-1.095314621925354,2.365903377532959
1747921864411605800,9.310605712890625,-9.375079154968262,-1.1467602252960205,2.1744775772094727
1747921864429868500,9.32886865234375,-9.346963882446289,-1.109073281288147,2.1128623485565186
1747921864448134700,9.347134765625,-9.270393371582031,-1.114457130432129,2.2031915187835693
1747921864466397700,9.365397705078125,-9.332008361816406,-1.1330015659332275,2.3946173191070557
1747921864484663600,9.38366357421875,-9.513264656066895,-1.1748759746551514,2.5148565769195557
1747921864502926600,9.401926513671874,-9.451051712036133,-1.2083754539489746,2.5669004917144775
1747921864521192000,9.42019189453125,-9.412766456604004,-1.2508480548858643,2.6051857471466064
1747921864539455000,9.438455078125,-9.374481201171875,-1.2939188480377197,2.720041036605835
1747921864557720800,9.456720947265625,-9.245866775512695,-1.41834557056427,2.7672994136810303
1747921864575984600,9.474984619140624,-9.346364974975586,-1.5696916580200195,2.8965117931365967
1747921864594249000,9.4932490234375,-9.399605751037598,-1.8448662757873535,3.0011978149414062
1747921864612510500,9.511510498046874,-9.276374816894531,-2.002194404602051,3.043670415878296
1747921864630780700,9.52978076171875,-9.224929809570312,-2.1876380443573,2.9240293502807617
1747921864649041700,9.548041748046876,-9.325428009033203,-2.286940336227417,2.861815929412842
1747921864667307000,9.56630712890625,-9.248857498168945,-2.2923240661621094,2.919243574142456
1747921864685570300,9.5845703125,-9.020342826843262,-2.231307029724121,2.7846474647521973
1747921864703835600,9.602835693359374,-9.110671997070312,-2.1361923217773438,2.7421748638153076
1747921864722099200,9.62109912109375,-9.201001167297363,-2.211566209793091,2.833101987838745
1747921864740364500,9.639364501953125,-9.421140670776367,-2.2815563678741455,2.9144580364227295
1747921864758627800,9.6576279296875,-9.253045082092285,-2.111665964126587,2.8522446155548096
1747921864776893400,9.6758935546875,-9.186046600341797,-1.8789639472961426,2.637488842010498
1747921864795148500,9.6941484375,-9.252447128295898,-1.7647067308425903,2.6183462142944336
1747921864813424000,9.712424072265625,-9.352945327758789,-1.949552297592163,2.723630428314209
1747921864831678200,9.73067822265625,-9.31047248840332,-2.097309112548828,2.8187451362609863
1747921864849951000,9.748950927734375,-9.711869239807129,-2.1996021270751953,2.9246275424957275
1747921864868213800,9.7672138671875,-10.055238723754883,-2.259422779083252,3.073580741882324
1747921864886479600,9.785479736328124,-9.768698692321777,-2.218146562576294,3.101696252822876
1747921864904742700,9.80374267578125,-9.52941608428955,-1.8681962490081787,2.7912275791168213
1747921864923008300,9.82200830078125,-9.543174743652344,-1.5595221519470215,2.51425838470459
1747921864941271300,9.840271240234374,-9.442078590393066,-1.3555340766906738,2.609971284866333
1747921864959537200,9.858537109375,-9.364909172058105,-1.1563315391540527,2.624328136444092
1747921864977800200,9.87680029296875,-9.535398483276367,-0.9846464991569519,2.8594231605529785
1747921864996066000,9.895066162109375,-9.272188186645508,-0.9996016621589661,3.064607620239258
1747921865014328800,9.913328857421876,-9.22433090209961,-0.9002995491027832,2.9306094646453857
1747921865032595000,9.931594970703125,-9.113663673400879,-0.592223584651947,2.8492536544799805
1747921865050857700,9.949857666015625,-9.265008926391602,-0.24466611444950104,2.9312076568603516
1747921865069123300,9.968123291015624,-9.284152030944824,-0.1782652884721756,2.692523717880249
1747921865087386400,9.986386474609375,-9.065208435058594,-0.1746760457754135,2.5148565769195557
1747921865105652200,10.00465234375,-9.346364974975586,0.10707881301641464,2.30069899559021
1747921865123915000,10.0229150390625,-8.49152946472168,0.3732803463935852,1.9022940397262573
1747921865142180900,10.041180908203126,-9.31047248840332,0.4205385744571686,2.779263496398926
1747921865160444200,10.059444091796875,-9.132805824279785,0.4103690981864929,3.0179476737976074
1747921865187841000,10.086841064453125,-10.173684120178223,0.47198426723480225,2.9485557079315186
1747921865206105000,10.10510498046875,-9.358329772949219,1.332802176475525,3.077169895172119
1747921865224369700,10.12336962890625,-7.530810832977295,1.4901303052902222,2.6051857471466064
1747921865242634000,10.141634033203125,-7.94716215133667,-0.07058826833963394,2.5603201389312744
1747921865260898800,10.15989892578125,-9.167501449584961,0.31046873331069946,2.630908489227295
1747921865279162400,10.178162353515624,-10.313065528869629,0.064606212079525,3.111267566680908
1747921865297427000,10.196427001953126,-9.91286563873291,0.062213387340307236,2.9288148880004883
1747921865315691800,10.21469189453125,-9.588638305664062,0.16031911969184875,2.5597219467163086
1747921865333956000,10.2329560546875,-9.264410972595215,0.049651071429252625,2.592623233795166
1747921865352220200,10.25122021484375,-9.30748176574707,-0.04007977992296219,2.630310297012329
1747921865370488000,10.269488037109374,-9.713663101196289,-0.12382857501506805,2.602792739868164
1747921865388749000,10.2877490234375,-10.440483093261719,-0.30568310618400574,2.5178475379943848
1747921865407001300,10.30600146484375,-9.903892517089844,0.2476571500301361,2.4741785526275635
1747921865425277700,10.324277587890625,-8.6243314743042,0.2554338276386261,2.510071039199829
1747921865443530000,10.342530029296874,-9.378069877624512,0.09810572862625122,2.985046148300171
1747921865461806600,10.360806640625,-9.897313117980957,0.18125630915164948,3.2201411724090576
1747921865480071000,10.37907080078125,-9.705288887023926,0.5318048596382141,2.9623143672943115
1747921865498335000,10.3973349609375,-9.513862609863281,0.8488538265228271,2.8187451362609863
1747921865516599000,10.41559912109375,-8.850452423095703,0.8123632669448853,2.7074787616729736
1747921865534864100,10.433864013671876,-8.865407943725586,0.8033902049064636,2.5351955890655518
1747921865553128200,10.452128173828125,-9.003593444824219,0.8321040868759155,2.5878376960754395
1747921865571392500,10.470392578125,-9.160323143005371,1.1084750890731812,2.5603201389312744
1747921865589656800,10.48865673828125,-9.031110763549805,1.1365907192230225,2.4879374504089355
1747921865607921400,10.50692138671875,-8.884550094604492,0.8267202377319336,2.530410051345825
1747921865626186000,10.52518603515625,-8.62193775177002,0.8069794178009033,2.434098720550537
1747921865644450000,10.543449951171874,-8.837292671203613,0.755533754825592,2.386840581893921
1747921865662714000,10.561714111328126,-8.793622970581055,0.8500502705574036,2.472982168197632
1747921865680979000,10.57997900390625,-9.256035804748535,-0.04546362906694412,2.3910279273986816
1747921865699243500,10.598243408203125,-8.910871505737305,0.23330020904541016,2.510669231414795
1747921865717507600,10.616507568359374,-9.138788223266602,0.4863412082195282,2.496910333633423
1747921865735772200,10.634772216796875,-10.975278854370117,-0.5880361795425415,2.944368362426758
1747921865754036500,10.653036376953125,-10.982458114624023,-0.017946170642971992,2.925823926925659
1747921865772301000,10.671301025390624,-10.012167930603027,0.36191442608833313,2.8384859561920166
1747921865790564900,10.68956494140625,-9.400801658630371,0.47796630859375,2.674577474594116
1747921865808829700,10.70782958984375,-9.101698875427246,0.30568310618400574,2.449054002761841
1747921865827094000,10.726093994140625,-9.002995491027832,0.2763710021972656,1.8891334533691406
1747921865845358800,10.74435888671875,-8.815756797790527,0.3038884699344635,2.15653133392334
1747921865863622400,10.762622314453125,-8.938986778259277,0.28115665912628174,2.4532413482666016
1747921865881887000,10.780886962890625,-9.100502967834473,0.3768695592880249,2.750549554824829
1747921865900151800,10.79915185546875,-9.280562400817871,0.5772684812545776,2.899502754211426
1747921865918416100,10.817416015625,-9.53360366821289,0.6161518096923828,2.833101987838745
1747921865936680000,10.835679931640625,-9.644271850585938,0.47916272282600403,2.6943182945251465
1747921865954944800,10.85394482421875,-9.923633575439453,0.1381855010986328,2.416750907897949
1747921865973209000,10.872208984375,-10.16291618347168,-0.01734796352684498,2.245065927505493
1747921865991473700,10.8904736328125,-9.995418548583984,0.1052841991186142,2.211566209793091
1747921866009737500,10.908737548828125,-9.641879081726074,0.25064817070961,2.201396942138672
1747921866028002000,10.927001953125,-9.302696228027344,0.3397808074951172,2.186441659927368
1747921866046266400,10.945266357421875,-9.125627517700195,0.39122650027275085,2.2241287231445312
1747921866064531200,10.96353125,-9.144769668579102,0.32961133122444153,2.2671995162963867
1747921866082795000,10.981794921875,-9.340981483459473,0.2021935135126114,2.3533411026000977
1747921866101059600,11.0000595703125,-9.57487964630127,0.003589233849197626,2.554936408996582
1747921866119324200,11.01832421875,-9.66640567779541,-0.21415762603282928,2.5591237545013428
1747921866137588500,11.03658837890625,-9.719645500183105,-0.26620152592658997,2.38265323638916
1747921866155852300,11.054852294921876,-9.767501831054688,-0.22372891008853912,2.239083766937256
1747921866174116900,11.073116943359375,-9.714859962463379,-0.14297115802764893,2.1577277183532715
1747921866192381200,11.091381103515625,-9.638289451599121,-0.08195417374372482,2.162513494491577
1747921866210646300,11.109646240234374,-9.571290969848633,-0.039481572806835175,2.1720848083496094
1747921866228909800,11.127909912109375,-9.485149383544922,0.01734796352684498,2.2295124530792236
1747921866247174100,11.146174072265625,-9.41755199432373,0.08853443711996078,2.286940336227417
1747921866265438700,11.164438720703124,-9.412766456604004,0.12622138857841492,2.3443679809570312
1747921866283703800,11.182703857421876,-9.427123069763184,0.13100704550743103,2.38265323638916
1747921866301967400,11.20096728515625,-9.43190860748291,0.14057832956314087,2.3539392948150635
1747921866320232000,11.21923193359375,-9.522237777709961,0.1698904037475586,2.3060827255249023
1747921866338496800,11.237496826171874,-9.56052303314209,0.25064817070961,2.334796667098999
1747921866356761000,11.255760986328125,-9.598209381103516,0.32662028074264526,2.3401806354522705
1747921866375025000,11.27402490234375,-9.521639823913574,0.18843477964401245,2.5357937812805176
1747921866393289700,11.292289794921874,-9.43609619140625,0.07417750358581543,2.583052158355713
1747921866411553800,11.3105537109375,-9.412766456604004,0.12143574655056,2.396411895751953
1747921866429818400,11.328818359375,-9.427123069763184,0.18364913761615753,2.2534406185150146
1747921866448082200,11.347082275390624,-9.436694145202637,0.19322042167186737,2.2677977085113525
1747921866466347000,11.365346923828126,-9.340981483459473,0.14476576447486877,2.4011974334716797
1747921866484613000,11.383613037109376,-9.32183837890625,0.0975075215101242,2.4538395404815674
1747921866502876200,11.401876220703125,-9.465408325195312,0.11246266216039658,2.3874387741088867
1747921866521137000,11.420136962890625,-9.45583724975586,0.0933200865983963,2.4400808811187744
1747921866539404300,11.438404296875,-9.465408325195312,0.012562318705022335,2.3437697887420654
1747921866557668400,11.45666845703125,-9.499505996704102,-0.03469592705368996,2.1577277183532715
1747921866575933400,11.474933349609374,-9.57188892364502,-0.03469592705368996,2.042872428894043
1747921866594196700,11.49319677734375,-9.600603103637695,-0.08195417374372482,2.052443504333496
1747921866612462000,11.511462158203125,-9.624530792236328,-0.09152546525001526,1.9854445457458496
1747921866630726000,11.529725830078124,-9.748957633972168,-0.07657032459974289,1.9286150932312012
1747921866648990700,11.54799072265625,-9.67238712310791,-0.08135596662759781,2.028515338897705
1747921866667254300,11.566254150390625,-9.581459999084473,-0.0771685317158699,2.0811574459075928
1747921866685519400,11.584519287109375,-9.562317848205566,-0.0011964113218709826,2.004587173461914
1747921866703783200,11.602783203125,-9.523433685302734,0.09810572862625122,1.9854445457458496
1747921866722048500,11.621048583984376,-9.485149383544922,0.0933200865983963,1.9854445457458496
1747921866740311800,11.639311767578125,-9.470791816711426,0.13579268753528595,1.9663020372390747
1747921866758576600,11.65757666015625,-9.580862045288086,0.13639089465141296,1.9573289155960083
1747921866776841200,11.67584130859375,-9.547362327575684,0.09391828626394272,2.1098713874816895
1747921866795105500,11.69410546875,-9.489934921264648,0.046061836183071136,2.224726915359497
1747921866813369900,11.712369873046875,-9.442078590393066,0.040677983313798904,2.263011932373047
1747921866831634000,11.730634033203126,-9.446864128112793,0.04127619042992592,2.286940336227417
1747921866849898800,11.748898681640625,-9.441479682922363,0.11246266216039658,2.3060827255249023
1747921866868163000,11.7671630859375,-9.451051712036133,0.12681959569454193,2.3635106086730957
1747921866886427100,11.78542724609375,-9.517452239990234,0.11246266216039658,2.4496521949768066
1747921866904691700,11.803691650390626,-9.460023880004883,0.11246266216039658,2.5734808444976807
1747921866922956000,11.8219560546875,-9.393025398254395,0.12143574655056,2.568695068359375
1747921866941220900,11.840220947265625,-9.388239860534668,0.15972091257572174,2.5160529613494873
1747921866959484400,11.858484375,-9.426525115966797,0.16450655460357666,2.4975085258483887
1747921866977749000,11.8767490234375,-9.445667266845703,0.1788634955883026,2.459223508834839
1747921866996013600,11.895013671875,-9.498309135437012,0.2267199456691742,2.397010087966919
1747921867014278100,11.913278076171874,-9.598209381103516,0.2225325107574463,2.3443679809570312
1747921867032542000,11.9315419921875,-9.559925079345703,0.15553347766399384,2.468794822692871
1747921867050806800,11.949806884765625,-9.421140670776367,0.12203395366668701,2.717050075531006
1747921867069070800,11.96807080078125,-9.334999084472656,0.10229317098855972,2.851048231124878
1747921867087335700,11.986335693359376,-9.339784622192383,0.15493527054786682,2.851048231124878
1747921867105599200,12.00459912109375,-9.425926208496094,0.22133609652519226,2.7361927032470703
1747921867123864000,12.022864013671875,-9.507282257080078,0.2315055876970291,2.617149829864502
1747921867142128000,12.041128173828126,-9.512067794799805,0.19800607860088348,2.54536509513855
1747921867160393000,12.05939306640625,-9.45045280456543,0.19322042167186737,2.516651153564453
1747921867178656800,12.07765673828125,-9.407382011413574,0.24047867953777313,2.468794822692871
1747921867196921300,12.09592138671875,-9.411569595336914,0.27816563844680786,2.444866418838501
1747921867215185700,12.114185546875,-9.430712699890137,0.26440688967704773,2.4640090465545654
1747921867233450500,12.132450439453125,-9.479166984558105,0.20757736265659332,2.5022943019866943
1747921867251714000,12.150714111328124,-9.488738059997559,0.1788634955883026,2.507079839706421
1747921867269979000,12.168978759765626,-9.479166984558105,0.16450655460357666,2.4783661365509033
1747921867288243200,12.1872431640625,-9.45045280456543,0.21236300468444824,2.4400808811187744
1747921867306508300,12.20550830078125,-9.42173957824707,0.2021935135126114,2.4017956256866455
1747921867324771300,12.223771240234376,-9.445667266845703,0.1740778535604477,2.373081922531128
1747921867343033300,12.242033447265625,-9.460023880004883,0.16929219663143158,2.349153518676758
1747921867361303300,12.26030322265625,-9.493523597717285,0.16929219663143158,2.334796667098999
1747921867379565300,12.2785654296875,-9.517452239990234,0.13160525262355804,2.3395824432373047
1747921867397828900,12.296828857421875,-9.518050193786621,0.1459621787071228,2.3060827255249023
1747921867416094000,12.315093994140625,-9.493523597717285,0.16929219663143158,2.3156540393829346
1747921867434358000,12.33335791015625,-9.512666702270508,0.2267199456691742,2.334796667098999
1747921867452622600,12.35162255859375,-9.512666702270508,0.22193430364131927,2.3874387741088867
1747921867470886700,12.36988671875,-9.464810371398926,0.1740778535604477,2.459223508834839
1747921867489151000,12.38815087890625,-9.474381446838379,0.15972091257572174,2.4783661365509033
1747921867507415600,12.40641552734375,-9.455238342285156,0.19322042167186737,2.454437732696533
1747921867525680000,12.42468017578125,-9.460023880004883,0.19322042167186737,2.4257240295410156
1747921867543944000,12.44294384765625,-9.460023880004883,0.1788634955883026,2.406581401824951
1747921867562212400,12.46121240234375,-9.464810371398926,0.19800607860088348,2.397010087966919
1747921867580473000,12.47947314453125,-9.469595909118652,0.21236300468444824,2.397010087966919
1747921867598725400,12.497725341796874,-9.440881729125977,0.2027917206287384,2.435295343399048
1747921867617001200,12.516001220703124,-9.42173957824707,0.19322042167186737,2.459223508834839
1747921867635265500,12.534265625,-9.431310653686523,0.18843477964401245,2.4975085258483887
1747921867653530400,12.5525302734375,-9.460023880004883,0.19322042167186737,2.468794822692871
1747921867671794400,12.57079443359375,-9.503094673156738,0.16929219663143158,2.459223508834839
1747921867690058800,12.589058837890626,-9.570094108581543,0.1178465187549591,2.454437732696533
1747921867708323000,12.607322998046875,-9.589237213134766,0.12263216078281403,2.4640090465545654
1747921867726587600,12.625587646484375,-9.522237777709961,0.15553347766399384,2.444866418838501
1747921867744852000,12.64385205078125,-9.445667266845703,0.19322042167186737,2.4113669395446777
1747921867763116300,12.6621162109375,-9.393025398254395,0.22612173855304718,2.4161527156829834
1747921867781380400,12.68038037109375,-9.402596473693848,0.27816563844680786,2.4161527156829834
1747921867799645000,12.69864501953125,-9.425926208496094,0.29730820655822754,2.42093825340271
1747921867817909200,12.7169091796875,-9.435498237609863,0.27397820353507996,2.430509567260742
1747921867836173300,12.73517333984375,-9.416953086853027,0.26440688967704773,2.406581401824951
1747921867854438000,12.75343798828125,-9.416953086853027,0.21655045449733734,2.3778674602508545
1747921867872702500,12.771702392578124,-9.45583724975586,0.1453639715909958,2.3443679809570312
1747921867890967600,12.789967529296876,-9.513264656066895,0.0891326442360878,2.3635106086730957
1747921867909230800,12.80823095703125,-9.53659439086914,0.07477571070194244,2.4257240295410156
1747921867927495700,12.82649560546875,-9.53659439086914,0.09391828626394272,2.435295343399048
1747921867945760000,12.844760009765626,-9.488738059997559,0.13639089465141296,2.435295343399048
1747921867964024600,12.863024658203125,-9.455238342285156,0.1788634955883026,2.3874387741088867
1747921867982288400,12.881288330078124,-9.45045280456543,0.18364913761615753,2.3395824432373047
1747921868000539000,12.899538818359375,-9.493523597717285,0.1740778535604477,2.3204398155212402
1747921868018820400,12.9178203125,-9.527023315429688,0.21236300468444824,2.2821545600891113
1747921868037082000,12.93608203125,-9.527023315429688,0.2315055876970291,2.2438695430755615
1747921868055345700,12.954345703125,-9.493523597717285,0.2356930375099182,2.248655080795288
1747921868073610200,12.9726103515625,-9.460023880004883,0.259621262550354,2.2821545600891113
1747921868091874600,12.99087451171875,-9.479166984558105,0.24047867953777313,2.35872483253479
1747921868110139100,13.00913916015625,-9.449854850769043,0.259621262550354,2.454437732696533
1747921868128403200,13.0274033203125,-9.41635513305664,0.22612173855304718,2.521436929702759
1747921868146667800,13.045667724609375,-9.4121675491333,0.19322042167186737,2.516651153564453
1747921868164932400,13.063932373046875,-9.431310653686523,0.19800607860088348,2.492722988128662
1747921868183196700,13.08219677734375,-9.473783493041992,0.2315055876970291,2.4783661365509033
1747921868201460500,13.10046044921875,-9.492925643920898,0.2315055876970291,2.4783661365509033
1747921868219725000,13.11872509765625,-9.502496719360352,0.2267199456691742,2.4640090465545654
1747921868237989600,13.13698974609375,-9.473783493041992,0.2356930375099182,2.4496521949768066
1747921868256254200,13.155254150390626,-9.440881729125977,0.20757736265659332,2.42093825340271
1747921868274517800,13.173517822265625,-9.445667266845703,0.18843477964401245,2.430509567260742
1747921868292782600,13.191782470703124,-9.455238342285156,0.16450655460357666,2.4496521949768066
1747921868311047000,13.210046875,-9.464810371398926,0.1501496136188507,2.454437732696533
1747921868329311200,13.228311279296875,-9.455238342285156,0.12681959569454193,2.459223508834839
1747921868347575300,13.2465751953125,-9.45045280456543,0.1501496136188507,2.454437732696533
1747921868365840100,13.264840087890626,-9.483952522277832,0.19800607860088348,2.42093825340271
1747921868384104200,13.283104248046875,-9.488140106201172,0.2548356056213379,2.42093825340271
1747921868402368800,13.30136865234375,-9.464211463928223,0.2835494875907898,2.459223508834839
1747921868420628500,13.31962841796875,-9.445069313049316,0.2309073805809021,2.4783661365509033
1747921868438901500,13.337901611328125,-9.43609619140625,0.14057832956314087,2.4496521949768066
1747921868457161700,13.35616162109375,-9.441479682922363,0.07896314561367035,2.3778674602508545
1747921868475426000,13.374426025390624,-9.412766456604004,0.07896314561367035,2.3437697887420654
1747921868493689900,13.39268994140625,-9.45045280456543,0.22133609652519226,2.3443679809570312
1747921868511954700,13.41095458984375,-9.507282257080078,0.3595215976238251,2.3682961463928223
1747921868530218800,13.42921875,-9.507282257080078,0.3355933725833893,2.444866418838501
1747921868548483800,13.44748388671875,-9.449854850769043,0.3164508044719696,2.4879374504089355
1747921868566747400,13.465747314453125,-9.382855415344238,0.30209386348724365,2.492722988128662
1747921868585012000,13.484011962890625,-9.401998519897461,0.27337998151779175,2.4879374504089355
1747921868603276500,13.502276611328124,-9.463613510131836,0.3643072545528412,2.5357937812805176
1747921868621541000,13.520541015625,-9.468399047851562,0.388235479593277,2.5645077228546143
1747921868639806200,13.53880615234375,-9.45882797241211,0.33080771565437317,2.5740790367126465
1747921868658069500,13.557069580078124,-9.44028377532959,0.2309073805809021,2.5884358882904053
1747921868676321500,13.575321533203125,-9.397810935974121,0.1501496136188507,2.5974090099334717
1747921868694598400,13.593598388671875,-9.373284339904785,0.2069791555404663,2.6021945476531982
1747921868712862000,13.611862060546875,-9.373284339904785,0.2309073805809021,2.6213371753692627
1747921868731126500,13.63012646484375,-9.397212982177734,0.21176479756832123,2.640479803085327
1747921868749390800,13.648390869140625,-9.435498237609863,0.2309073805809021,2.674577474594116
1747921868767655700,13.66665576171875,-9.411569595336914,0.14057832956314087,2.717050075531006
1747921868785919200,13.684919189453124,-9.397810935974121,0.09810572862625122,2.717050075531006
1747921868804184300,13.703184326171876,-9.397212982177734,0.14057832956314087,2.7314071655273438
1747921868822448000,13.7214482421875,-9.44028377532959,0.18364913761615753,2.7696921825408936
1747921868840713200,13.739713134765625,-9.449256896972656,0.1788634955883026,2.8175487518310547
1747921868858976800,13.757976806640626,-9.411569595336914,0.14057832956314087,2.803191661834717
1747921868877241600,13.77624169921875,-9.378069877624512,0.1501496136188507,2.740978240966797
1747921868895505400,13.79450537109375,-9.373284339904785,0.18305093050003052,2.7122645378112793
1747921868913770200,13.812770263671876,-9.392427444458008,0.22133609652519226,2.688336133956909
1747921868932033800,13.83103369140625,-9.378069877624512,0.2356930375099182,2.6835505962371826
1747921868950299000,13.849298828125,-9.358927726745605,0.15972091257572174,2.6596224308013916
1747921868968563000,13.86756298828125,-9.373882293701172,0.13100704550743103,2.6356940269470215
1747921868986828000,13.885828125,-9.416953086853027,0.13579268753528595,2.6261229515075684
1747921869005091600,13.904091552734375,-9.459425926208496,0.15972091257572174,2.6075785160064697
1747921869023356200,13.922356201171874,-9.46899700164795,0.16929219663143158,2.6075785160064697
1747921869041620700,13.940620849609376,-9.464211463928223,0.12681959569454193,2.616551637649536
1747921869059885000,13.958885009765625,-9.431310653686523,0.08374879509210587,2.6021945476531982
1747921869078149000,13.977149169921875,-9.393025398254395,0.08853443711996078,2.5591237545013428
1747921869096413400,13.995413330078126,-9.383454322814941,0.12622138857841492,2.482553482055664
1747921869114677800,14.013677734375,-9.402596473693848,0.21655045449733734,2.444866418838501
1747921869132942300,14.0319423828125,-9.43609619140625,0.24526432156562805,2.430509567260742
1747921869151206400,14.050206298828124,-9.455238342285156,0.22612173855304718,2.454437732696533
1747921869169470700,14.068470703125,-9.464810371398926,0.15493527054786682,2.5262224674224854
1747921869187735300,14.0867353515625,-9.460023880004883,0.0933200865983963,2.5399811267852783
1747921869205999600,14.10499951171875,-9.42173957824707,0.10289137065410614,2.5639095306396484
1747921869224263700,14.123263671875,-9.373882293701172,0.1501496136188507,2.5734808444976807
1747921869242528300,14.1415283203125,-9.378668785095215,0.1782652884721756,2.5734808444976807
1747921869260792600,14.15979248046875,-9.406784057617188,0.1788634955883026,2.583052158355713
1747921869279057200,14.17805712890625,-9.42173957824707,0.13579268753528595,2.592623233795166
1747921869297321000,14.196321044921875,-9.4121675491333,0.1501496136188507,2.5974090099334717
1747921869315585500,14.21458544921875,-9.430712699890137,0.21655045449733734,2.5884358882904053
1747921869333849900,14.232849853515624,-9.464211463928223,0.24047867953777313,2.6219353675842285
1747921869352114400,14.251114501953126,-9.478569030761719,0.2027917206287384,2.6362924575805664
1747921869370378500,14.26937841796875,-9.488140106201172,0.12681959569454193,2.641077995300293
1747921869388642800,14.287642822265624,-9.473783493041992,0.10767702013254166,2.669193744659424
1747921869406907100,14.3059072265625,-9.43609619140625,0.03170489892363548,2.7074787616729736
1747921869425172000,14.324171875,-9.392427444458008,0.12622138857841492,2.6835505962371826
1747921869443435500,14.342435546875,-9.377471923828125,0.27816563844680786,2.693121910095215
1747921869461700000,14.3607001953125,-9.372686386108398,0.2925225794315338,2.7218358516693115
1747921869479953400,14.378953369140625,-9.430113792419434,0.2548356056213379,2.7080769538879395
1747921869498227200,14.397227294921874,-9.459425926208496,0.16929219663143158,2.6739792823791504
1747921869516494600,14.41549462890625,-9.382855415344238,0.1740778535604477,2.6739792823791504
1747921869534757600,14.433757568359376,-9.334999084472656,0.2021935135126114,2.616551637649536
1747921869553021700,14.452021728515625,-9.345169067382812,0.21655045449733734,2.544766902923584
1747921869571286300,14.470286376953124,-9.41635513305664,0.2309073805809021,2.5357937812805176
1747921869589550300,14.48855029296875,-9.502496719360352,0.18843477964401245,2.5740790367126465
1747921869607814700,14.506814697265625,-9.488140106201172,0.1788634955883026,2.6219353675842285
1747921869626079500,14.52507958984375,-9.45464038848877,0.2267199456691742,2.617149829864502
1747921869644343800,14.54334375,-9.41635513305664,0.259621262550354,2.5740790367126465
1747921869662608000,14.56160791015625,-9.397212982177734,0.2548356056213379,2.5262224674224854
1747921869680872200,14.5798720703125,-9.397810935974121,0.21655045449733734,2.492722988128662
1747921869699136500,14.598136474609374,-9.426525115966797,0.1788634955883026,2.4783661365509033
1747921869717389000,14.61638916015625,-9.435498237609863,0.20757736265659332,2.5022943019866943
1747921869735665200,14.6346650390625,-9.425926208496094,0.26440688967704773,2.5501506328582764
1747921869753925600,14.652925537109375,-9.401998519897461,0.3068794906139374,2.5597219467163086
1747921869772194000,14.671194091796876,-9.401998519897461,0.30209386348724365,2.54536509513855
1747921869790446000,14.689446044921874,-9.393025398254395,0.2069791555404663,2.521436929702759
1747921869808722400,14.707722412109375,-9.407382011413574,0.1501496136188507,2.4921247959136963
1747921869826986500,14.725986572265626,-9.407382011413574,0.1501496136188507,2.4777679443359375
1747921869845251000,14.7442509765625,-9.42173957824707,0.1788634955883026,2.468794822692871
1747921869863515400,14.762515380859375,-9.445667266845703,0.19800607860088348,2.4400808811187744
1747921869881779700,14.78077978515625,-9.431310653686523,0.22612173855304718,2.459223508834839
1747921869900044800,14.799044921875,-9.445667266845703,0.18843477964401245,2.48315167427063
1747921869918308400,14.817308349609375,-9.464810371398926,0.16450655460357666,2.5118656158447266
1747921869936573000,14.835572998046874,-9.460023880004883,0.14117653667926788,2.5357937812805176
1747921869954837000,14.8538369140625,-9.445667266845703,0.13639089465141296,2.568695068359375
1747921869973101000,14.87210107421875,-9.426525115966797,0.14057832956314087,2.5974090099334717
1747921869991366000,14.890365966796875,-9.425926208496094,0.1501496136188507,2.6452653408050537
1747921870009630200,14.908630126953126,-9.411569595336914,0.14057832956314087,2.6500511169433594
1747921870027894300,14.926894287109375,-9.397212982177734,0.14057832956314087,2.669193744659424
1747921870046158600,14.94515869140625,-9.388239860534668,0.12143574655056,2.669193744659424
1747921870064423200,14.963423095703124,-9.392427444458008,0.13579268753528595,2.678765058517456
1747921870082688000,14.98168798828125,-9.401998519897461,0.16450655460357666,2.6979074478149414
1747921870100951600,14.99995166015625,-9.397212982177734,0.18843477964401245,2.7122645378112793
1747921870119216000,15.018216064453124,-9.406784057617188,0.16929219663143158,2.7074787616729736
1747921870137480200,15.036480224609376,-9.411569595336914,0.1740778535604477,2.6835505962371826
1747921870155744800,15.054744873046875,-9.41635513305664,0.20757736265659332,2.678765058517456
1747921870174008800,15.0730087890625,-9.411569595336914,0.22612173855304718,2.664407968521118
1747921870192273400,15.0912734375,-9.425926208496094,0.24047867953777313,2.665006160736084
1747921870210537700,15.109537841796875,-9.430712699890137,0.259621262550354,2.6362924575805664
1747921870228802000,15.127802001953125,-9.425926208496094,0.2548356056213379,2.6219353675842285
1747921870247066000,15.146066162109374,-9.406784057617188,0.2309073805809021,2.6362924575805664
1747921870265330700,15.16433056640625,-9.382855415344238,0.2021935135126114,2.6356940269470215
1747921870283595000,15.182594970703125,-9.397212982177734,0.19740787148475647,2.616551637649536
1747921870301859600,15.200859619140624,-9.421140670776367,0.1788634955883026,2.6261229515075684
1747921870320123400,15.219123291015626,-9.435498237609863,0.13639089465141296,2.6356940269470215
1747921870338388000,15.237387939453125,-9.435498237609863,0.11246266216039658,2.6452653408050537
1747921870356652300,15.25565234375,-9.445069313049316,0.12203395366668701,2.6261229515075684
1747921870374916900,15.273916748046876,-9.46899700164795,0.15553347766399384,2.6075785160064697
1747921870393180700,15.2921806640625,-9.45464038848877,0.15493527054786682,2.6075785160064697
1747921870411445500,15.310445556640625,-9.44028377532959,0.13160525262355804,2.606980323791504
1747921870429709600,15.32870947265625,-9.416953086853027,0.12203395366668701,2.6117658615112305
1747921870447974100,15.34697412109375,-9.406784057617188,0.15493527054786682,2.630908489227295
1747921870466238000,15.365238037109375,-9.397212982177734,0.2069791555404663,2.6261229515075684
1747921870484502500,15.38350244140625,-9.406784057617188,0.24047867953777313,2.6075785160064697
1747921870502766800,15.401766845703126,-9.411569595336914,0.26440688967704773,2.5884358882904053
1747921870521031700,15.42003173828125,-9.421140670776367,0.2548356056213379,2.5836503505706787
1747921870539295200,15.438295166015624,-9.430712699890137,0.2309073805809021,2.5597219467163086
1747921870557559800,15.456559814453126,-9.430712699890137,0.21655045449733734,2.521436929702759
1747921870575824000,15.474823974609375,-9.41635513305664,0.21176479756832123,2.507079839706421
1747921870594089000,15.4930888671875,-9.425926208496094,0.19322042167186737,2.5022943019866943
1747921870612352300,15.511352294921876,-9.431310653686523,0.1740778535604477,2.5118656158447266
1747921870630617000,15.5296171875,-9.42173957824707,0.15972091257572174,2.5118656158447266
1747921870648881700,15.547881591796875,-9.42173957824707,0.18843477964401245,2.4975085258483887
1747921870667146200,15.566146240234374,-9.449854850769043,0.19322042167186737,2.5405795574188232
1747921870685409800,15.584409912109376,-9.46899700164795,0.15493527054786682,2.531008243560791
1747921870703674400,15.60267431640625,-9.460023880004883,0.13639089465141296,2.5501506328582764
1747921870721938400,15.6209384765625,-9.43609619140625,0.12681959569454193,2.568695068359375
1747921870740203300,15.639203369140626,-9.445069313049316,0.11724831163883209,2.616551637649536
1747921870758467000,15.657467041015625,-9.435498237609863,0.1501496136188507,2.6500511169433594
1747921870776731600,15.675731689453125,-9.411569595336914,0.14057832956314087,2.688336133956909
1747921870794996200,15.693996337890624,-9.41635513305664,0.14057832956314087,2.678765058517456
1747921870813260500,15.712260498046875,-9.435498237609863,0.15493527054786682,2.678765058517456
1747921870831523800,15.73052392578125,-9.44028377532959,0.12203395366668701,2.6500511169433594
1747921870849789000,15.748788818359374,-9.4121675491333,0.10767702013254166,2.606980323791504
1747921870868051700,15.7670517578125,-9.402596473693848,0.040677983313798904,2.568695068359375
1747921870886317800,15.78531787109375,-9.379266738891602,0.035892341285943985,2.530410051345825
1747921870904581400,15.803581298828124,-9.378668785095215,0.08853443711996078,2.5016961097717285
1747921870922846200,15.82184619140625,-9.407382011413574,0.14057832956314087,2.4777679443359375
1747921870941110300,15.8401103515625,-9.431310653686523,0.19800607860088348,2.4496521949768066
1747921870959375000,15.858375,-9.45464038848877,0.25004997849464417,2.4257240295410156
1747921870977638400,15.876638427734376,-9.497711181640625,0.23629122972488403,2.4113669395446777
1747921870995903500,15.894903564453125,-9.493523597717285,0.18364913761615753,2.4017956256866455
1747921871014167300,15.913167236328125,-9.45045280456543,0.1501496136188507,2.4113669395446777
1747921871032432600,15.9314326171875,-9.431310653686523,0.13100704550743103,2.444866418838501
1747921871050696000,15.949696044921875,-9.455238342285156,0.12681959569454193,2.459223508834839
1747921871068960800,15.967960693359375,-9.464810371398926,0.14117653667926788,2.4975085258483887
1747921871087224600,15.986224609375,-9.445667266845703,0.16450655460357666,2.5118656158447266
1747921871105489700,16.00448974609375,-9.401998519897461,0.2021935135126114,2.4975085258483887
1747921871123753500,16.02275341796875,-9.349954605102539,0.18783657252788544,2.4681966304779053
1747921871142017800,16.041017822265626,-9.359525680541992,0.16390834748744965,2.42512583732605
1747921871160282400,16.059282470703124,-9.407382011413574,0.1740778535604477,2.4017956256866455
1747921871178547000,16.077546875,-9.460023880004883,0.1740778535604477,2.4257240295410156
1747921871196798000,16.0957978515625,-9.512067794799805,0.18843477964401245,2.521436929702759
1747921871215076400,16.114076416015624,-9.506684303283691,0.23629122972488403,2.626721143722534
1747921871233339000,16.1323388671875,-9.468399047851562,0.19322042167186737,2.703291416168213
1747921871251604000,16.15060400390625,-9.435498237609863,0.1501496136188507,2.7314071655273438
1747921871269867800,16.16886767578125,-9.464211463928223,0.15972091257572174,2.6985056400299072
1747921871288132600,16.187132568359374,-9.459425926208496,0.1459621787071228,2.626721143722534
1747921871306397000,16.20539697265625,-9.426525115966797,0.13100704550743103,2.583052158355713
1747921871324661500,16.22366162109375,-9.402596473693848,0.12143574655056,2.5639095306396484
1747921871342925300,16.24192529296875,-9.416953086853027,0.09810572862625122,2.554338216781616
1747921871361189600,16.260189697265623,-9.416953086853027,0.05024927482008934,2.5591237545013428
1747921871379454000,16.278453857421876,-9.388837814331055,0.02153540402650833,2.544766902923584
1747921871397718800,16.29671875,-9.388837814331055,0.031106693670153618,2.5351955890655518
1747921871415982300,16.314982421875,-9.43190860748291,0.0029910283628851175,2.5160529613494873
1747921871434247000,16.333246826171877,-9.464810371398926,0.022133609279990196,2.5256242752075195
1747921871452511200,16.35151123046875,-9.474381446838379,0.050847481936216354,2.520838737487793
1747921871470775800,16.36977587890625,-9.469595909118652,0.08374879509210587,2.4879374504089355
1747921871489039600,16.38803955078125,-9.479166984558105,0.10767702013254166,2.4496521949768066
1747921871507304200,16.40630419921875,-9.503094673156738,0.09810572862625122,2.42093825340271
1747921871525568800,16.42456884765625,-9.503094673156738,0.14117653667926788,2.406581401824951
1747921871543833000,16.4428330078125,-9.483952522277832,0.15493527054786682,2.3922245502471924
1747921871562097000,16.461096923828126,-9.498309135437012,0.18843477964401245,2.38265323638916
1747921871580361700,16.47936181640625,-9.488738059997559,0.21714866161346436,2.406581401824951
1747921871598625800,16.497625732421874,-9.474381446838379,0.21714866161346436,2.4257240295410156
1747921871616890000,16.51589013671875,-9.460023880004883,0.1788634955883026,2.459223508834839
1747921871635154200,16.534154296875,-9.440881729125977,0.09810572862625122,2.4873390197753906
1747921871653418800,16.552418701171874,-9.43609619140625,0.0933200865983963,2.506481647491455
1747921871671683000,16.57068310546875,-9.42173957824707,0.12143574655056,2.506481647491455
1747921871689947600,16.58894775390625,-9.4121675491333,0.1453639715909958,2.506481647491455
1747921871708211200,16.607211181640626,-9.42173957824707,0.12622138857841492,2.496910333633423
1747921871726475800,16.625475830078123,-9.4121675491333,0.12143574655056,2.4634108543395996
1747921871744740400,16.643740234375,-9.440881729125977,0.10767702013254166,2.430509567260742
1747921871763004700,16.662004638671874,-9.445667266845703,0.13100704550743103,2.397010087966919
1747921871781268700,16.680268798828124,-9.493523597717285,0.15972091257572174,2.397010087966919
1747921871799533000,16.698532958984377,-9.498309135437012,0.16031911969184875,2.4017956256866455
1747921871817797400,16.71679736328125,-9.483952522277832,0.12203395366668701,2.42093825340271
1747921871836062000,16.73506201171875,-9.469595909118652,0.08374879509210587,2.430509567260742
1747921871854325800,16.75332568359375,-9.445667266845703,0.064606212079525,2.444866418838501
1747921871872590300,16.77159033203125,-9.42173957824707,0.11724831163883209,2.48315167427063
1747921871890854700,16.789854736328124,-9.402596473693848,0.15972091257572174,2.516651153564453
1747921871909118700,16.80811865234375,-9.392427444458008,0.19262222945690155,2.5495524406433105
1747921871927383000,16.826383056640626,-9.397212982177734,0.19740787148475647,2.583052158355713
1747921871945632500,16.844632568359376,-9.411569595336914,0.15972091257572174,2.5974090099334717
1747921871963912000,16.862911865234373,-9.44028377532959,0.13639089465141296,2.606980323791504
1747921871982176300,16.88117626953125,-9.430712699890137,0.12203395366668701,2.6261229515075684
1747921872000439800,16.899439697265624,-9.425926208496094,0.0933200865983963,2.664407968521118
1747921872018704400,16.917704345703125,-9.411569595336914,0.10289137065410614,2.702693223953247
1747921872036969000,16.935968994140627,-9.397212982177734,0.09810572862625122,2.740978240966797
1747921872055233300,16.9542333984375,-9.411569595336914,0.05503492057323456,2.7553353309631348
1747921872073497300,16.972497314453125,-9.411569595336914,0.064606212079525,2.7361927032470703
1747921872091761700,16.99076171875,-9.411569595336914,0.05503492057323456,2.7218358516693115
1747921872110026200,17.009026123046876,-9.421140670776367,0.08374879509210587,2.7122645378112793
1747921872128290600,17.02729052734375,-9.430712699890137,0.07896314561367035,2.6979074478149414
1747921872146554400,17.045554443359375,-9.435498237609863,0.08374879509210587,2.693121910095215
1747921872164819000,17.06381884765625,-9.430712699890137,0.0933200865983963,2.693121910095215
1747921872183083300,17.082083251953126,-9.411569595336914,0.12622138857841492,2.6979074478149414
1747921872201348000,17.10034814453125,-9.392427444458008,0.1788634955883026,2.7074787616729736
1747921872219612000,17.11861181640625,-9.392427444458008,0.19322042167186737,2.740978240966797
1747921872237876200,17.136876220703126,-9.406784057617188,0.18364913761615753,2.7457640171051025
1747921872256140500,17.155140625,-9.435498237609863,0.15493527054786682,2.717050075531006
1747921872274405000,17.173405029296877,-9.449854850769043,0.16929219663143158,2.679363250732422
1747921872292669000,17.1916689453125,-9.435498237609863,0.18364913761615753,2.6602206230163574
1747921872310933200,17.209933349609376,-9.401998519897461,0.2069791555404663,2.664407968521118
1747921872329197600,17.228197509765625,-9.397212982177734,0.21176479756832123,2.6979074478149414
1747921872347462400,17.24646240234375,-9.382855415344238,0.18843477964401245,2.7361927032470703
1747921872365726200,17.264726318359376,-9.358927726745605,0.16929219663143158,2.7553353309631348
1747921872383990800,17.28299072265625,-9.368498802185059,0.1453639715909958,2.7361927032470703
1747921872402254800,17.3012548828125,-9.378069877624512,0.15493527054786682,2.7074787616729736
1747921872420519700,17.319519775390624,-9.373284339904785,0.14057832956314087,2.726621389389038
1747921872438783200,17.337783203125,-9.382855415344238,0.12622138857841492,2.6979074478149414
1747921872457047800,17.3560478515625,-9.373284339904785,0.13100704550743103,2.630908489227295
1747921872475312000,17.37431201171875,-9.397212982177734,0.15972091257572174,2.5639095306396484
1747921872493576700,17.39257666015625,-9.411569595336914,0.15972091257572174,2.554936408996582
1747921872511840500,17.410840576171875,-9.43609619140625,0.13579268753528595,2.5405795574188232
1747921872530105000,17.42910498046875,-9.407382011413574,0.08374879509210587,2.496910333633423
1747921872548369400,17.447369384765626,-9.431310653686523,0.08853443711996078,2.4257240295410156
1747921872566634000,17.465634033203123,-9.455238342285156,0.12203395366668701,2.38265323638916
1747921872584897500,17.4838974609375,-9.464810371398926,0.14057832956314087,2.334796667098999
1747921872603162400,17.502162353515626,-9.488738059997559,0.13639089465141296,2.286940336227417
1747921872621426700,17.5204267578125,-9.508479118347168,0.0933200865983963,2.2582263946533203
1747921872639691300,17.538691162109377,-9.503693580627441,0.08374879509210587,2.2773690223693848
1747921872657955000,17.556955078125,-9.508479118347168,0.06520441919565201,2.3300111293792725
1747921872676219600,17.5752197265625,-9.484550476074219,0.06041877344250679,2.334796667098999
1747921872694484200,17.593484130859373,-9.474381446838379,0.08374879509210587,2.3682961463928223
1747921872712747800,17.611747802734374,-9.44626522064209,0.07896314561367035,2.4161527156829834
1747921872731008800,17.6300087890625,-9.43609619140625,0.07896314561367035,2.449054002761841
1747921872749279700,17.64827978515625,-9.43609619140625,0.06939185410737991,2.482553482055664
1747921872767538000,17.666537841796874,-9.455238342285156,0.06939185410737991,2.5160529613494873
1747921872785808400,17.684808349609376,-9.440881729125977,0.064606212079525,2.5591237545013428
1747921872804069400,17.7030693359375,-9.431310653686523,0.06939185410737991,2.583052158355713
1747921872822333700,17.721333740234375,-9.416953086853027,0.07417750358581543,2.606980323791504
1747921872840598300,17.739598388671876,-9.416953086853027,0.0933200865983963,2.630908489227295
1747921872858862600,17.757862548828125,-9.406784057617188,0.12143574655056,2.654836654663086
1747921872877126100,17.776126220703127,-9.392427444458008,0.1453639715909958,2.669193744659424
1747921872895391200,17.79439111328125,-9.392427444458008,0.15493527054786682,2.6835505962371826
1747921872913655000,17.812655029296874,-9.397212982177734,0.16450655460357666,2.6835505962371826
1747921872931920000,17.830919921875,-9.387641906738281,0.1453639715909958,2.6835505962371826
1747921872950183700,17.84918359375,-9.41635513305664,0.13100704550743103,2.6835505962371826
1747921872968448000,17.867447998046874,-9.430712699890137,0.13639089465141296,2.693121910095215
1747921872986709200,17.885709228515626,-9.425926208496094,0.11246266216039658,2.7122645378112793
1747921873014109000,17.91310888671875,-9.41635513305664,0.09810572862625122,2.7314071655273438
1747921873032374300,17.931374267578125,-9.41635513305664,0.08853443711996078,2.7361927032470703
1747921873050637300,17.94963720703125,-9.401998519897461,0.07896314561367035,2.726621389389038
1747921873068902700,17.967902587890624,-9.406784057617188,0.08374879509210587,2.702693223953247
1747921873087166000,17.986166015625,-9.397212982177734,0.11665010452270508,2.6979074478149414
1747921873105431300,18.004431396484375,-9.397212982177734,0.13100704550743103,2.6979074478149414
1747921873123694300,18.0226943359375,-9.406784057617188,0.12622138857841492,2.688336133956909
1747921873141960000,18.0409599609375,-9.411569595336914,0.13100704550743103,2.6596224308013916
1747921873160223000,18.059222900390626,-9.421140670776367,0.12203395366668701,2.616551637649536
1747921873178488600,18.077488525390624,-9.425926208496094,0.12681959569454193,2.5974090099334717
1747921873196751600,18.095751708984373,-9.41635513305664,0.12143574655056,2.5974090099334717
1747921873215017200,18.114017333984375,-9.43609619140625,0.07896314561367035,2.5878376960754395
1747921873233277200,18.132277099609375,-9.43609619140625,0.0933200865983963,2.5639095306396484
1747921873251548700,18.150548583984374,-9.431310653686523,0.12203395366668701,2.554338216781616
1747921873269809200,18.16880908203125,-9.431310653686523,0.15493527054786682,2.54536509513855
1747921873288074200,18.18707421875,-9.42173957824707,0.15972091257572174,2.554936408996582
1747921873306334500,18.20533447265625,-9.41635513305664,0.1453639715909958,2.554936408996582
1747921873324606000,18.22360595703125,-9.426525115966797,0.12622138857841492,2.568695068359375
1747921873342866000,18.241865966796876,-9.4121675491333,0.13579268753528595,2.5639095306396484
1747921873361131500,18.260131591796874,-9.44028377532959,0.12203395366668701,2.578864574432373
1747921873379394600,18.27839453125,-9.42173957824707,0.08853443711996078,2.5974090099334717
1747921873397660000,18.296659912109376,-9.42173957824707,0.07417750358581543,2.6021945476531982
1747921873415923200,18.314923095703126,-9.426525115966797,0.059820566326379776,2.6213371753692627
1747921873434188500,18.3331884765625,-9.397810935974121,0.064606212079525,2.6261229515075684
1747921873452451600,18.35145166015625,-9.407382011413574,0.064606212079525,2.616551637649536
1747921873470717200,18.36971728515625,-9.42173957824707,0.07417750358581543,2.640479803085327
1747921873488980200,18.387980224609375,-9.421140670776367,0.0933200865983963,2.6452653408050537
1747921873507245600,18.40624560546875,-9.421140670776367,0.09810572862625122,2.6452653408050537
1747921873525496800,18.424496826171875,-9.41635513305664,0.12203395366668701,2.6261229515075684
1747921873543774200,18.442774169921876,-9.421140670776367,0.13579268753528595,2.606980323791504
1747921873562020000,18.46102001953125,-9.41635513305664,0.1453639715909958,2.6021945476531982
1747921873580302800,18.479302734375,-9.406784057617188,0.13579268753528595,2.616551637649536
1747921873598565600,18.497565673828124,-9.393025398254395,0.11665010452270508,2.6117658615112305
1747921873616831200,18.515831298828125,-9.387641906738281,0.13100704550743103,2.6261229515075684
1747921873635094300,18.53409423828125,-9.383454322814941,0.13579268753528595,2.606980323791504
1747921873653359900,18.55235986328125,-9.392427444458008,0.1453639715909958,2.6261229515075684
1747921873671623000,18.570622802734373,-9.401998519897461,0.1501496136188507,2.6500511169433594
1747921873689888500,18.588888427734375,-9.401998519897461,0.13100704550743103,2.664407968521118
1747921873708151300,18.6071513671875,-9.421140670776367,0.11246266216039658,2.640479803085327
1747921873726417200,18.625417236328126,-9.425926208496094,0.12203395366668701,2.6117658615112305
1747921873744680000,18.643679931640627,-9.435498237609863,0.11724831163883209,2.6021945476531982
1747921873762945500,18.661945556640624,-9.430712699890137,0.13100704550743103,2.6021945476531982
1747921873781208600,18.68020849609375,-9.425926208496094,0.13579268753528595,2.6261229515075684
1747921873799474200,18.69847412109375,-9.41635513305664,0.13100704550743103,2.678765058517456
1747921873817737000,18.716737060546876,-9.41635513305664,0.10289137065410614,2.717050075531006
1747921873836002800,18.7350029296875,-9.382855415344238,0.08853443711996078,2.726621389389038
1747921873854265900,18.753265869140623,-9.358927726745605,0.08374879509210587,2.7218358516693115
1747921873872531500,18.771531494140625,-9.387641906738281,0.08374879509210587,2.702693223953247
1747921873890794500,18.78979443359375,-9.401998519897461,0.10289137065410614,2.693121910095215
1747921873909059800,18.808059814453124,-9.421140670776367,0.09810572862625122,2.7122645378112793
1747921873927323100,18.8263232421875,-9.411569595336914,0.06939185410737991,2.7122645378112793
1747921873945588500,18.84458837890625,-9.401998519897461,0.06939185410737991,2.702693223953247
1747921873963851500,18.8628515625,-9.392427444458008,0.10289137065410614,2.678765058517456
1747921873982116900,18.881116943359373,-9.387641906738281,0.12143574655056,2.693121910095215
1747921874000380000,18.8993798828125,-9.387641906738281,0.12622138857841492,2.6835505962371826
1747921874018645500,18.9176455078125,-9.382855415344238,0.10707881301641464,2.6739792823791504
1747921874036908500,18.935908447265625,-9.392427444458008,0.09810572862625122,2.664407968521118
1747921874055174000,18.954173828125,-9.430712699890137,0.10767702013254166,2.640479803085327
1747921874073437200,18.972437255859376,-9.435498237609863,0.11246266216039658,2.606980323791504
1747921874091702800,18.990702880859374,-9.416953086853027,0.11246266216039658,2.6021945476531982
1747921874109965600,19.008965576171875,-9.407382011413574,0.10289137065410614,2.616551637649536
1747921874128231200,19.027231201171876,-9.397810935974121,0.08853443711996078,2.6213371753692627
1747921874146494500,19.045494384765625,-9.393025398254395,0.10707881301641464,2.6213371753692627
1747921874164759800,19.063759765625,-9.401998519897461,0.11665010452270508,2.6213371753692627
1747921874183022800,19.08202294921875,-9.411569595336914,0.09810572862625122,2.640479803085327
1747921874201288400,19.100288330078126,-9.416953086853027,0.07417750358581543,2.6261229515075684
1747921874219551200,19.11855126953125,-9.426525115966797,0.05503492057323456,2.6213371753692627
1747921874237816600,19.136816650390625,-9.416953086853027,0.064606212079525,2.616551637649536
1747921874256080000,19.155079833984374,-9.416953086853027,0.06939185410737991,2.6213371753692627
1747921874274345200,19.17334521484375,-9.402596473693848,0.06939185410737991,2.630908489227295
1747921874292608500,19.1916083984375,-9.407382011413574,0.07417750358581543,2.6356940269470215
1747921874310875100,19.209875244140626,-9.4121675491333,0.06939185410737991,2.6356940269470215
1747921874329135600,19.228135498046875,-9.416953086853027,0.07417750358581543,2.6500511169433594
1747921874347401200,19.246401123046876,-9.430712699890137,0.0933200865983963,2.669193744659424
1747921874365666800,19.264666748046874,-9.41635513305664,0.0933200865983963,2.6452653408050537
1747921874383923500,19.28292333984375,-9.407382011413574,0.08853443711996078,2.6452653408050537
1747921874402195200,19.3011953125,-9.397810935974121,0.08374879509210587,2.6261229515075684
1747921874420459500,19.31945947265625,-9.406784057617188,0.09810572862625122,2.6452653408050537
1747921874438722800,19.337722900390624,-9.41635513305664,0.11246266216039658,2.664407968521118
1747921874456988000,19.35598779296875,-9.41635513305664,0.10289137065410614,2.664407968521118
1747921874475251200,19.374251220703126,-9.41635513305664,0.12203395366668701,2.664407968521118
1747921874493516500,19.3925166015625,-9.397212982177734,0.11246266216039658,2.678765058517456
1747921874511779600,19.410779541015625,-9.401998519897461,0.08374879509210587,2.6596224308013916
1747921874530045000,19.429044921875,-9.407382011413574,0.059820566326379776,2.6452653408050537
1747921874548308500,19.44730859375,-9.397810935974121,0.06939185410737991,2.630908489227295
1747921874566573800,19.46557373046875,-9.397810935974121,0.06939185410737991,2.6261229515075684
1747921874584837000,19.483837158203126,-9.421140670776367,0.0933200865983963,2.630908489227295
1747921874603101700,19.502101806640624,-9.421140670776367,0.10767702013254166,2.6452653408050537
1747921874621365200,19.520365234375,-9.425926208496094,0.08853443711996078,2.6739792823791504
1747921874639614700,19.53861474609375,-9.406784057617188,0.06939185410737991,2.669193744659424
1747921874657894000,19.556893798828124,-9.430712699890137,0.10767702013254166,2.669193744659424
1747921874676159000,19.575158935546874,-9.430712699890137,0.12681959569454193,2.6739792823791504
1747921874694422500,19.593422607421875,-9.421140670776367,0.13579268753528595,2.688336133956909
1747921874712687600,19.6116875,-9.387641906738281,0.10767702013254166,2.6835505962371826
1747921874730950700,19.62995068359375,-9.373284339904785,0.0933200865983963,2.678765058517456
1747921874749216000,19.648216064453123,-9.392427444458008,0.10289137065410614,2.6739792823791504
1747921874767479600,19.6664794921875,-9.401998519897461,0.11724831163883209,2.688336133956909
1747921874785744600,19.68474462890625,-9.406784057617188,0.11246266216039658,2.702693223953247
1747921874804008200,19.70300830078125,-9.392427444458008,0.07417750358581543,2.7122645378112793
1747921874822273300,19.721273193359377,-9.401998519897461,0.064606212079525,2.7122645378112793
1747921874840536300,19.739536376953126,-9.401998519897461,0.08374879509210587,2.6979074478149414
1747921874858802000,19.757802001953124,-9.406784057617188,0.11724831163883209,2.678765058517456
1747921874877065200,19.776065185546877,-9.401998519897461,0.12622138857841492,2.664407968521118
1747921874895330300,19.794330322265626,-9.401998519897461,0.12143574655056,2.664407968521118
1747921874913593600,19.812593505859375,-9.401998519897461,0.1453639715909958,2.6452653408050537
1747921874931859000,19.83085888671875,-9.401998519897461,0.16450655460357666,2.6500511169433594
1747921874950122200,19.849122314453126,-9.397212982177734,0.18364913761615753,2.6356940269470215
1747921874968387800,19.867387939453124,-9.392427444458008,0.15972091257572174,2.6261229515075684
1747921874986650600,19.885650634765625,-9.392427444458008,0.13100704550743103,2.6356940269470215
1747921875004916000,19.903916015625,-9.397212982177734,0.11186445504426956,2.6261229515075684
1747921875023179300,19.92217919921875,-9.411569595336914,0.14057832956314087,2.630908489227295
1747921875041444900,19.94044482421875,-9.425926208496094,0.1453639715909958,2.640479803085327
1747921875059708000,19.9587080078125,-9.430712699890137,0.08374879509210587,2.693121910095215
1747921875077973200,19.97697314453125,-9.426525115966797,0.0077766734175384045,2.7122645378112793
1747921875096236300,19.995236328125,-9.426525115966797,-0.058624155819416046,2.702693223953247
1747921875114502000,20.013501953125,-9.397810935974121,-0.04486542567610741,2.6835505962371826
1747921875132765000,20.031764892578124,-9.383454322814941,0.02632104977965355,2.702693223953247
1747921875151030000,20.050030029296874,-9.401998519897461,0.08374879509210587,2.664407968521118
1747921875169293300,20.068293212890627,-9.392427444458008,0.10289137065410614,2.654836654663086
1747921875187558700,20.08655859375,-9.392427444458008,0.10289137065410614,2.640479803085327
1747921875205822200,20.104822265625,-9.411569595336914,0.11246266216039658,2.616551637649536
1747921875224084500,20.12308447265625,-9.41635513305664,0.14057832956314087,2.5974090099334717
1747921875242353200,20.141353271484373,-9.392427444458008,0.15493527054786682,2.592623233795166
1747921875260615700,20.15961572265625,-9.387641906738281,0.1740778535604477,2.606980323791504
1747921875278878700,20.177878662109375,-9.41635513305664,0.16929219663143158,2.617149829864502
1747921875297144300,20.196144287109377,-9.435498237609863,0.1740778535604477,2.617149829864502
1747921875315407400,20.214407470703126,-9.430712699890137,0.12681959569454193,2.583052158355713
1747921875333673000,20.2326728515625,-9.407382011413574,0.10289137065410614,2.5974090099334717
1747921875351935700,20.250935791015625,-9.402596473693848,0.09810572862625122,2.616551637649536
1747921875370201600,20.26920166015625,-9.397810935974121,0.08853443711996078,2.654836654663086
1747921875388464400,20.28746435546875,-9.387641906738281,0.09810572862625122,2.678765058517456
1747921875406729700,20.305729736328125,-9.41635513305664,0.07417750358581543,2.7218358516693115
1747921875424993000,20.323992919921874,-9.411569595336914,0.0364905446767807,2.7457640171051025
1747921875443258400,20.34225830078125,-9.4121675491333,0.0077766734175384045,2.7553353309631348
1747921875461518800,20.360518798828124,-9.378668785095215,-0.020937198773026466,2.7457640171051025
1747921875479789600,20.37878955078125,-9.359525680541992,0.0077766734175384045,2.726621389389038
1747921875498050000,20.397050048828124,-9.354740142822266,0.031106693670153618,2.740978240966797
1747921875516315400,20.4153154296875,-9.378069877624512,0.05024927482008934,2.764906644821167
1747921875534578700,20.43357861328125,-9.378069877624512,0.08374879509210587,2.7840490341186523
1747921875552843800,20.45184375,-9.382855415344238,0.10289137065410614,2.7984061241149902
1747921875571107000,20.470107177734373,-9.401998519897461,0.10767702013254166,2.788834810256958
1747921875589372400,20.488372314453127,-9.392427444458008,0.12143574655056,2.7601208686828613
1747921875607635500,20.506635498046876,-9.406784057617188,0.1501496136188507,2.740978240966797
1747921875625901000,20.524901123046874,-9.387042999267578,0.18364913761615753,2.7553353309631348
1747921875644164000,20.5431640625,-9.378069877624512,0.16450655460357666,2.764906644821167
1747921875662429400,20.561429443359376,-9.358927726745605,0.12622138857841492,2.7553353309631348
1747921875680692200,20.579692138671874,-9.373284339904785,0.11186445504426956,2.717050075531006
1747921875698957800,20.597957763671875,-9.368498802185059,0.10707881301641464,2.6979074478149414
1747921875717203000,20.616202880859376,-9.378069877624512,0.0933200865983963,2.693121910095215
1747921875735486500,20.634486572265626,-9.397212982177734,0.06939185410737991,2.678765058517456
1747921875753749200,20.652749267578123,-9.4121675491333,0.04546362906694412,2.669193744659424
1747921875772014800,20.671014892578125,-9.46899700164795,0.04127619042992592,2.717050075531006
1747921875790278000,20.68927783203125,-9.492925643920898,0.046061836183071136,2.8079774379730225
1747921875808543700,20.707543701171875,-9.506684303283691,0.013160524889826775,2.937189817428589
1747921875826806500,20.725806640625,-9.525827407836914,-0.048454657196998596,2.9754750728607178
1747921875845072100,20.744072021484374,-9.516854286193848,-0.07238288223743439,2.9419753551483154
1747921875863335000,20.7623349609375,-9.349356651306152,0.04546362906694412,2.8462624549865723
1747921875881600800,20.780600830078125,-9.186046600341797,0.22073788940906525,3.0131618976593018
1747921875899863300,20.79886328125,-8.950352668762207,0.39062830805778503,3.415156126022339
1747921875918129000,20.81712890625,-8.787042617797852,0.5180460810661316,3.6634113788604736
1747921875936392000,20.835391845703125,-8.854042053222656,0.42352959513664246,3.596412420272827
1747921875954657500,20.853657470703126,-9.132805824279785,0.2584248483181,3.218944549560547
1747921875972920600,20.871920654296876,-9.31585693359375,0.13100704550743103,2.8319056034088135
1747921875991186200,20.890186279296874,-9.45045280456543,0.06939185410737991,2.530410051345825
1747921876009449200,20.90844921875,-9.470193862915039,0.050847481936216354,2.373081922531128
1747921876027714600,20.926714599609376,-9.470193862915039,0.0029910283628851175,2.325225353240967
1747921876045977600,20.9449775390625,-9.480362892150879,-0.07776673883199692,2.3294129371643066
1747921876064243000,20.963242919921875,-9.571290969848633,-0.16271193325519562,2.310868501663208
1747921876082506200,20.98150634765625,-9.667003631591797,-0.24287149310112,2.210369825363159
1747921876100771600,20.999771484375,-9.734601020812988,-0.25244277715682983,2.0380866527557373
1747921876119034600,21.01803466796875,-9.725028991699219,-0.21415762603282928,1.8849459886550903
1747921876137300000,21.036300048828124,-9.600603103637695,-0.14356936514377594,1.9280169010162354
1747921876155563300,21.054563232421874,-9.519247055053711,-0.13459627330303192,2.129014015197754
1747921876173828600,21.07282861328125,-9.562317848205566,-0.22911277413368225,2.2719850540161133
1747921876192092000,21.091091796875,-9.610174179077148,-0.33798620104789734,2.2911276817321777
1747921876210357000,21.10935693359375,-9.576674461364746,-0.3577269911766052,2.262413740158081
1747921876228603600,21.127603759765623,-9.519247055053711,-0.28654050827026367,2.3150558471679688
1747921876246885600,21.1458857421875,-9.422935485839844,-0.18723836541175842,2.386840581893921
1747921876265148400,21.1641484375,-9.384650230407715,-0.11126625537872314,2.4155545234680176
1747921876283414000,21.1824140625,-9.379864692687988,-0.04007977992296219,2.4011974334716797
1747921876301677000,21.200677001953125,-9.364909172058105,-0.0023928226437419653,2.4299113750457764
1747921876319942400,21.2189423828125,-9.350552558898926,-0.007178467698395252,2.5016961097717285
1747921876338205700,21.237205810546875,-9.355338096618652,-0.04007977992296219,2.5974090099334717
1747921876356471000,21.255470947265625,-9.397810935974121,-0.05383851006627083,2.6500511169433594
1747921876374734000,21.273734130859374,-9.440881729125977,-0.039481572806835175,2.654836654663086
1747921876392999200,21.291999267578124,-9.464810371398926,-0.015553346835076809,2.616551637649536
1747921876411262700,21.3102626953125,-9.460023880004883,0.050847481936216354,2.616551637649536
1747921876429527800,21.32852783203125,-9.445069313049316,0.11724831163883209,2.6452653408050537
1747921876447791000,21.346791015625,-9.492327690124512,0.18843477964401245,2.650649309158325
1747921876466056400,21.365056396484373,-9.57787036895752,0.21774685382843018,2.727219581604004
1747921876484319500,21.383319580078126,-9.43489933013916,0.15972091257572174,2.946761131286621
1747921876502582800,21.401582763671875,-9.238688468933105,0.13040883839130402,3.0275187492370605
1747921876520850400,21.419850341796874,-9.17587661743164,0.16809579730033875,3.252444267272949
1747921876539112000,21.43811181640625,-8.950352668762207,0.2386840581893921,3.5676984786987305
1747921876557377800,21.456377685546876,-8.778668403625488,0.17168502509593964,3.648456335067749
1747921876575641900,21.474641845703125,-9.037691116333008,0.04426721855998039,3.3954153060913086
1747921876593905200,21.4929052734375,-9.397212982177734,-0.06340979784727097,3.046661376953125
1747921876612170500,21.51117041015625,-9.507282257080078,-0.05802594870328903,2.750549554824829
1747921876630433800,21.529433837890625,-9.498908042907715,-0.09631111472845078,2.530410051345825
1747921876648699000,21.547698974609375,-9.436694145202637,-0.12502498924732208,2.4538395404815674
1747921876666962200,21.565962158203124,-9.394820213317871,-0.22552353143692017,2.420340061187744
1747921876685227500,21.5842275390625,-9.495318412780762,-0.3008974492549896,2.2815563678741455
1747921876703490600,21.602490478515627,-9.644271850585938,-0.36191442608833313,2.052443504333496
1747921876721756000,21.620755859375,-9.739984512329102,-0.37088751792907715,1.8849459886550903
1747921876740019000,21.63901904296875,-9.79262638092041,-0.3188436031341553,1.7994025945663452
1747921876758284000,21.657283935546875,-9.754341125488281,-0.2805584669113159,1.8137595653533936
1747921876776547300,21.67554736328125,-9.773484230041504,-0.2476571500301361,1.8472590446472168
1747921876794812400,21.6938125,-9.848857879638672,-0.18544375896453857,1.9716858863830566
1747921876813076000,21.712075927734375,-9.848259925842285,-0.2183450609445572,2.2636101245880127
1747921876831341000,21.730341064453125,-9.643074989318848,-0.2955136001110077,2.449054002761841
1747921876849604600,21.7486044921875,-9.418149948120117,-0.22492532432079315,2.592623233795166
1747921876867869700,21.76686962890625,-9.06281566619873,-0.0077766734175384045,2.9312076568603516
1747921876886132700,21.7851328125,-8.751151084899902,0.17587246000766754,3.19441819190979
1747921876904398300,21.8033984375,-8.803194046020508,0.23330020904541016,3.31884503364563
1747921876922661400,21.821661376953124,-9.013762474060059,0.1579262912273407,3.328416347503662
1747921876940926500,21.839926513671877,-9.172286987304688,-0.06939185410737991,3.2518460750579834
1747921876959190000,21.85818994140625,-9.29731273651123,-0.22073788940906525,3.022733211517334
1747921876977455000,21.876455078125,-9.355338096618652,-0.23449662327766418,2.7738797664642334
1747921876995718400,21.894718505859377,-9.427123069763184,-0.18723836541175842,2.5591237545013428
1747921877013983500,21.9129833984375,-9.561120986938477,-0.16271193325519562,2.4017956256866455
1747921877032246800,21.931246826171876,-9.686145782470703,-0.19561325013637543,2.2295124530792236
1747921877050512000,21.949511962890625,-9.762716293334961,-0.20458634197711945,2.138585329055786
1747921877068775400,21.967775390625,-9.753145217895508,-0.15254244208335876,2.1104695796966553
1747921877087040800,21.986040771484376,-9.66221809387207,-0.05802594870328903,2.1194427013397217
1747921877105303800,22.0043037109375,-9.589835166931152,0.050847481936216354,2.152942180633545
1747921877123569400,22.0225693359375,-9.503094673156738,0.16929219663143158,2.310868501663208
1747921877141832200,22.040832275390624,-9.401400566101074,0.24526432156562805,2.626721143722534
1747921877160097800,22.059097900390626,-9.262616157531738,0.14476576447486877,2.9180471897125244
1747921877178360800,22.07736083984375,-9.192028045654297,-0.1453639715909958,2.984447956085205
1747921877196626200,22.095626220703124,-9.322437286376953,-0.35832518339157104,2.84087872505188
1747921877214889200,22.11388916015625,-9.379864692687988,-0.3487538993358612,2.84087872505188
1747921877233154600,22.132154541015623,-9.336195945739746,-0.2632105052471161,2.9892337322235107
1747921877251417900,22.15041796875,-9.259625434875488,-0.24945175647735596,2.960519790649414
1747921877269683000,22.168682861328126,-9.273982048034668,-0.2350948303937912,2.7978079319000244
1747921877287946000,22.186946044921875,-9.346364974975586,-0.19202402234077454,2.5920250415802
1747921877306211600,22.205211669921876,-9.408578872680664,-0.1824527233839035,2.4681966304779053
1747921877324474600,22.223474609375,-9.45164966583252,-0.2105683982372284,2.434697151184082
1747921877342740000,22.241739990234375,-9.476176261901855,-0.25363919138908386,2.3772692680358887
1747921877361003300,22.260003173828125,-9.581459999084473,-0.25304099917411804,2.2671995162963867
1747921877379268400,22.278268310546874,-9.7005033493042,-0.20039889216423035,2.1098713874816895
1747921877397531400,22.296531494140623,-9.734002113342285,-0.11006984114646912,2.0195422172546387
1747921877415797000,22.314796875,-9.661619186401367,0.013160524889826775,2.053041934967041
1747921877434060000,22.33306005859375,-9.570094108581543,0.12203395366668701,2.2295124530792236
1747921877452325600,22.35132568359375,-9.473783493041992,0.19800607860088348,2.430509567260742
1747921877470588700,22.369588623046877,-9.382855415344238,0.16929219663143158,2.688336133956909
1747921877488854000,22.38785400390625,-9.282357215881348,0.04546362906694412,2.9030921459198
1747921877507117300,22.406117431640624,-9.244669914245605,-0.13519448041915894,2.898306369781494
1747921877525382400,22.42438232421875,-9.32183837890625,-0.22073788940906525,2.836092948913574
1747921877543646000,22.44264599609375,-9.345169067382812,-0.19202402234077454,2.9030921459198
1747921877561910800,22.460910888671876,-9.259027481079102,-0.13998012244701385,2.998805046081543
1747921877580163000,22.4791630859375,-9.273384094238281,-0.0975075215101242,2.9030921459198
1747921877598440400,22.4974404296875,-9.292527198791504,-0.0687936544418335,2.77866530418396
1747921877616699100,22.51569921875,-9.340981483459473,-0.05922235921025276,2.664407968521118
1747921877634971100,22.53397119140625,-9.388837814331055,-0.10169496387243271,2.592623233795166
1747921877653230800,22.55223095703125,-9.399007797241211,-0.20159530639648438,2.5591237545013428
1747921877671496400,22.570496337890624,-9.42772102355957,-0.27756741642951965,2.5112674236297607
1747921877689759200,22.58875927734375,-9.518648147583008,-0.2626122832298279,2.4299113750457764
1747921877708024800,22.60702490234375,-9.556933403015137,-0.19142581522464752,2.348555326461792
1747921877726288000,22.625287841796876,-9.585647583007812,-0.11485548317432404,2.286940336227417
1747921877744553200,22.64355322265625,-9.608977317810059,-0.053240302950143814,2.248655080795288
1747921877762816300,22.661816162109375,-9.608977317810059,0.013160524889826775,2.248655080795288
1747921877781081600,22.68008154296875,-9.608379364013672,0.07956135272979736,2.3778674602508545
1747921877799344600,22.6983447265625,-9.55513858795166,0.07956135272979736,2.531008243560791
1747921877817610200,22.7166103515625,-9.479166984558105,0.0029910283628851175,2.6261229515075684
1747921877835872300,22.734872314453124,-9.398408889770508,-0.11126625537872314,2.693121910095215
1747921877854138600,22.753138671875,-9.33141040802002,-0.16869398951530457,2.6973092555999756
1747921877872397800,22.771397705078126,-9.30329418182373,-0.19680966436862946,2.6733810901641846
1747921877890667000,22.7896669921875,-9.332008361816406,-0.22552353143692017,2.6638097763061523
1747921877908921000,22.807921142578124,-9.370293617248535,-0.22073788940906525,2.644667148590088
1747921877927195400,22.8261953125,-9.379266738891602,-0.1824527233839035,2.6452653408050537
1747921877945458400,22.84445849609375,-9.398408889770508,-0.10648060590028763,2.6596224308013916
1747921877963723800,22.862723876953126,-9.383454322814941,-0.049651071429252625,2.664407968521118
1747921877981986800,22.88098681640625,-9.369096755981445,-0.025722842663526535,2.6835505962371826
1747921878000252400,22.89925244140625,-9.402596473693848,-0.03529413416981697,2.693121910095215
1747921878018515200,22.91751513671875,-9.426525115966797,-0.05383851006627083,2.6739792823791504
1747921878036780800,22.93578076171875,-9.464810371398926,-0.029910283163189888,2.6356940269470215
1747921878055043800,22.9540439453125,-9.460023880004883,0.01734796352684498,2.6021945476531982
1747921878073309400,22.972309326171874,-9.45045280456543,0.064606212079525,2.5782663822174072
1747921878091572000,22.990572021484375,-9.464211463928223,0.11246266216039658,2.5597219467163086
1747921878109837600,23.008837646484373,-9.421140670776367,0.14057832956314087,2.5405795574188232
1747921878128100600,23.0271005859375,-9.402596473693848,0.13100704550743103,2.544766902923584
1747921878146366200,23.0453662109375,-9.397810935974121,0.06939185410737991,2.5495524406433105
1747921878164629500,23.06362939453125,-9.412766456604004,-0.006580262444913387,2.520838737487793
1747921878182894600,23.08189453125,-9.427123069763184,-0.06340979784727097,2.482553482055664
1747921878201158000,23.100157958984376,-9.465408325195312,-0.08733802288770676,2.449054002761841
1747921878219423000,23.118423095703125,-9.489336013793945,-0.11066804826259613,2.4538395404815674
1747921878237686300,23.136686279296875,-9.479764938354492,-0.13938191533088684,2.496910333633423
1747921878255951600,23.15495166015625,-9.451051712036133,-0.1537388563156128,2.5256242752075195
1747921878274214700,23.173214599609373,-9.441479682922363,-0.14416755735874176,2.568695068359375
1747921878292480000,23.19147998046875,-9.427123069763184,-0.129810631275177,2.5974090099334717
1747921878310743300,23.209743408203124,-9.422337532043457,-0.10169496387243271,2.616551637649536
1747921878329008400,23.22800830078125,-9.43190860748291,-0.09690931439399719,2.6213371753692627
1747921878347271700,23.246271728515627,-9.412766456604004,-0.08733802288770676,2.6261229515075684
1747921878365536800,23.264536865234376,-9.436694145202637,-0.08255238085985184,2.6117658615112305
1747921878383799800,23.2827998046875,-9.43190860748291,-0.05383851006627083,2.5878376960754395
1747921878402065400,23.3010654296875,-9.416953086853027,-0.01136590726673603,2.5591237545013428
1747921878420328400,23.319328369140624,-9.43609619140625,-0.001794616924598813,2.544766902923584
