time,seconds_elapsed,z,y,x
1747543334261339100,0.078339111328125,0.4866124987602234,0.3291749954223633,0.2320999950170517
1747543334270933800,0.087933837890625,0.44261249899864197,0.3218874931335449,0.210099995136261
1747543334280529200,0.097529052734375,0.3913249969482422,0.3119874894618988,0.19910000264644623
1747543334290125300,0.107125244140625,0.3546124994754791,0.31322500109672546,0.19538749754428864
1747543334299720700,0.116720703125,0.34485000371932983,0.3218874931335449,0.19304999709129333
1747543334309315000,0.126315185546875,0.3558500111103058,0.30469998717308044,0.19304999709129333
1747543334318910500,0.135910400390625,0.37056249380111694,0.28146249055862427,0.19538749754428864
1747543334328506600,0.145506591796875,0.3815625011920929,0.271699994802475,0.19910000264644623
1747543334338102000,0.15510205078125,0.3913249969482422,0.2656500041484833,0.20281249284744263
1747543334347696400,0.1646962890625,0.39256250858306885,0.25341248512268066,0.20762500166893005
1747543334357291800,0.174291748046875,0.3815625011920929,0.23388749361038208,0.21986250579357147
1747543334366888200,0.18388818359375,0.35337498784065247,0.20941250026226044,0.24186250567436218
1747543334376483300,0.1934833984375,0.29356250166893005,0.19112500548362732,0.2723875045776367
1747543334386078000,0.203077880859375,0.2032250016927719,0.17393749952316284,0.29809999465942383
1747543334395673000,0.212673095703125,0.12251249700784683,0.15812499821186066,0.31267499923706055
1747543334405269200,0.222269287109375,0.07975000143051147,0.13241249322891235,0.3139125108718872
1747543334414864600,0.23186474609375,0.0882750004529953,0.05912499874830246,0.30662500858306885
1747543334424459300,0.241459228515625,0.1335124969482422,-0.06792499870061874,0.2993375062942505
1747543334434054700,0.2510546875,0.1909874975681305,-0.14973749220371246,0.28091248869895935
1747543334443650600,0.260650634765625,0.24227499961853027,-0.13516250252723694,0.24310000240802765
1747543334453246000,0.270245849609375,0.2910875082015991,-0.03616249933838844,0.18205000460147858
1747543334462840600,0.279840576171875,0.33880001306533813,0.10436250269412994,0.10381250083446503
1747543334472436000,0.28943603515625,0.3778499960899353,0.24365000426769257,0.02199999988079071
1747543334482031900,0.299031982421875,0.4071374833583832,0.36217498779296875,-0.04028749838471413
1747543334491627300,0.308627197265625,0.43408748507499695,0.4342249929904938,-0.07328750193119049
1747543334501222100,0.31822216796875,0.45608749985694885,0.45374998450279236,-0.07452499866485596
1747543334510817300,0.3278173828125,0.47437500953674316,0.4195125102996826,-0.05128749832510948
1747543334520413400,0.337413330078125,0.48413750529289246,0.3316499888896942,-0.02199999988079071
1747543334530008800,0.3470087890625,0.47808748483657837,0.19470000267028809,0.002474999986588955
1747543334539603200,0.356603271484375,0.4609000086784363,0.020075000822544098,0.018287500366568565
1747543334549198300,0.3661982421875,0.4388999938964844,-0.14368750154972076,0.028049999848008156
1747543334558794500,0.37579443359375,0.4096125066280365,-0.27431249618530273,0.03904999792575836
1747543334568390000,0.385389892578125,0.3741374909877777,-0.36959999799728394,0.05376249924302101
1747543334577984500,0.394984619140625,0.3400374948978424,-0.4441249966621399,0.07452499866485596
1747543334587579600,0.40457958984375,0.30332499742507935,-0.5273125171661377,0.09281250089406967
1747543334597175800,0.41417578125,0.25575000047683716,-0.5773624777793884,0.10876250267028809
1747543334606771200,0.423771240234375,0.21175000071525574,-0.5603125095367432,0.11976250261068344
1747543334616365600,0.433365478515625,0.18851250410079956,-0.5235999822616577,0.13805000483989716
1747543334625961000,0.4429609375,0.18479999899864197,-0.49431249499320984,0.1722874939441681
1747543334635557000,0.45255712890625,0.19580000638961792,-0.5016000270843506,0.23086249828338623
1747543334645152500,0.462152587890625,0.2129874974489212,-0.5273125171661377,0.30291250348091125
1747543334654747100,0.4717470703125,0.2190375030040741,-0.5395500063896179,0.37619999051094055
1747543334664342500,0.481342529296875,0.22398750483989716,-0.5088874697685242,0.4422000050544739
1747543334673938400,0.4909384765625,0.23980000615119934,-0.4295499920845032,0.4923875033855438
1747543334683533800,0.500533935546875,0.25808748602867126,-0.3232625126838684,0.5302000045776367
1747543334693128200,0.510128173828125,0.2605625092983246,-0.20473749935626984,0.5582500100135803
1747543334702723600,0.5197236328125,0.2447499930858612,-0.04963750019669533,0.5741999745368958
1747543334712319500,0.529319580078125,0.2250874936580658,0.13859999179840088,0.5717250108718872
1747543334721915000,0.538914794921875,0.21051250398159027,0.30346250534057617,0.5607249736785889
1747543334731509500,0.548509521484375,0.20074999332427979,0.4207499921321869,0.5497249960899353
1747543334741105000,0.55810498046875,0.1909874975681305,0.5002250075340271,0.5350124835968018
1747543334750700800,0.56770068359375,0.1812250018119812,0.5563250184059143,0.5131499767303467
1747543334760296200,0.577296142578125,0.16898749768733978,0.5820375084877014,0.4727250039577484
1747543334769890800,0.586890869140625,0.15303750336170197,0.5612750053405762,0.42391249537467957
1747543334779486200,0.596486328125,0.14822499454021454,0.47946250438690186,0.3554374873638153
1747543334789082400,0.606082275390625,0.17627499997615814,0.3792249858379364,0.27486249804496765
1747543334798677500,0.615677490234375,0.22632500529289246,0.32298749685287476,0.20886249840259552
1747543334808272100,0.625272216796875,0.2765125036239624,0.3731749951839447,0.14533749222755432
1747543334817867500,0.634867431640625,0.3143250048160553,0.4269374907016754,0.09776250272989273
1747543334827463400,0.64446337890625,0.3485625088214874,0.382937490940094,0.08910000324249268
1747543334837058800,0.654058837890625,0.38032498955726624,0.319412499666214,0.1270499974489212
1747543334846653400,0.6636533203125,0.3973749876022339,0.2839374840259552,0.20762500166893005
1747543334856248800,0.673248779296875,0.3876124918460846,0.25093749165534973,0.32615000009536743
1747543334865845000,0.682844970703125,0.36079999804496765,0.19470000267028809,0.476437509059906
1747543334875440000,0.692440185546875,0.3375625014305115,0.1434125006198883,0.6425374746322632
1747543334885034800,0.70203466796875,0.3278000056743622,0.11783749610185623,0.8038250207901001
1747543334894630100,0.711630126953125,0.32903748750686646,0.1153625026345253,0.9235875010490417
1747543334904226000,0.72122607421875,0.32532501220703125,0.13488750159740448,0.9651125073432922
1747543334913821400,0.730821533203125,0.2985124886035919,0.16664999723434448,0.8955374956130981
1747543334923416300,0.740416259765625,0.2508000135421753,0.10917499661445618,0.734250009059906
1747543334933011500,0.750011474609375,0.18851250410079956,-0.10821250081062317,0.5350124835968018
1747543334952203000,0.769203125,0.007699999958276749,-0.9255124926567078,0.13805000483989716
1747543334961797400,0.77879736328125,-0.04606249928474426,-1.3714250326156616,-0.08071249723434448
1747543334971392800,0.788392822265625,0.01251249946653843,-1.8052375316619873,-0.2932874858379364
1747543334980989000,0.797989013671875,0.050462499260902405,-2.0580999851226807,-0.45938751101493835
1747543334990584300,0.807584228515625,0.043175000697374344,-2.2206249237060547,-0.5388625264167786
1747543335000178700,0.8171787109375,-0.004537499975413084,-2.3304874897003174,-0.5436750054359436
1747543335009774000,0.826774169921875,0.02722499892115593,-2.285249948501587,-0.5181000232696533
1747543335028965600,0.845965576171875,0.26551249623298645,-1.9493374824523926,-0.3848625123500824
1747543335038560000,0.85556005859375,0.28380000591278076,-1.7122875452041626,-0.32862499356269836
1747543335048155400,0.8651552734375,0.2825624942779541,-1.4569499492645264,-0.2773374915122986
1747543335057751600,0.87475146484375,0.2727999985218048,-1.1796125173568726,-0.18576249480247498
1747543335067346700,0.8843466796875,0.26551249623298645,-0.9022749662399292,-0.07328750193119049
1747543335076941600,0.893941650390625,0.26551249623298645,-0.6226000189781189,0.028049999848008156
1747543335086536700,0.90353662109375,0.27403751015663147,-0.39160001277923584,0.09281250089406967
1747543335096132900,0.9131328125,0.30332499742507935,-0.26221248507499695,0.10876250267028809
1747543335105728000,0.92272802734375,0.3423750102519989,-0.20845000445842743,0.08676250278949738
1747543335115322600,0.932322509765625,0.35227498412132263,-0.16197499632835388,0.05857500061392784
1747543335124918000,0.94191796875,0.31308749318122864,0.03712499886751175,0.045237500220537186
1747543335134514200,0.95151416015625,0.22756250202655792,0.37070000171661377,0.023237500339746475
1747543335144109600,0.961109619140625,0.06627500057220459,0.47079998254776,-0.08428750187158585
1747543335153704000,0.970703857421875,-0.09006249904632568,0.260699987411499,-0.19676250219345093
1747543335163299300,0.98029931640625,-0.16830000281333923,-0.08016250282526016,-0.2358125001192093
1747543335182490600,0.99949072265625,-0.1975875049829483,-0.24255000054836273,-0.23457500338554382
1747543335192085200,1.009085205078125,-0.2525874972343445,-0.16073749959468842,-0.2358125001192093
1747543335201680600,1.0186806640625,-0.3086875081062317,-0.015399999916553497,-0.2540999948978424
1747543335211276800,1.02827685546875,-0.3539249897003174,0.20212499797344208,-0.2773374915122986
1747543335220872200,1.0378720703125,-0.39544999599456787,0.44756248593330383,-0.2798124849796295
1747543335230466600,1.047466552734375,-0.43697500228881836,0.6565625071525574,-0.22481249272823334
1747543335240062000,1.05706201171875,-0.46021249890327454,0.8104249835014343,-0.11728750169277191
1747543335249658000,1.066658203125,-0.45649999380111694,0.9179499745368958,0.018287500366568565
1747543335259253500,1.07625341796875,-0.4345000088214874,0.9681375026702881,0.15262499451637268
1747543335268848000,1.08584814453125,-0.39916250109672546,0.9448999762535095,0.26138749718666077
1747543335278443300,1.095443359375,-0.34911251068115234,0.8801375031471252,0.329862505197525
1747543335288039400,1.105039306640625,-0.30140000581741333,0.8056125044822693,0.3431999981403351
1747543335297634800,1.114634765625,-0.26468750834465027,0.7346624732017517,0.3004375100135803
1747543335307229200,1.124229248046875,-0.22316250205039978,0.6613749861717224,0.2063875049352646
1747543335316824600,1.133824462890625,-0.18411250412464142,0.5795624852180481,0.07809999585151672
1747543335326420700,1.143420654296875,-0.15111249685287476,0.490325003862381,-0.07095000147819519
1747543335336016100,1.15301611328125,-0.12553749978542328,0.415800005197525,-0.22357499599456787
1747543335345610800,1.16261083984375,-0.11453749984502792,0.3559874892234802,-0.3592875003814697
1747543335355206000,1.172205810546875,-0.12306249886751175,0.319412499666214,-0.45691248774528503
1747543335364802300,1.18180224609375,-0.14739999175071716,0.2985124886035919,-0.5009124875068665
1747543335374397400,1.1913974609375,-0.18287499248981476,0.2679874897003174,-0.48138749599456787
1747543335383992000,1.200991943359375,-0.21463750302791595,0.2264624983072281,-0.4068624973297119
1747543335393587500,1.21058740234375,-0.22192500531673431,0.21422499418258667,-0.30428749322891235
1747543335403183400,1.220183349609375,-0.20487499237060547,0.23746250569820404,-0.20281249284744263
1747543335412778800,1.22977880859375,-0.18287499248981476,0.21546250581741333,-0.10628750175237656
1747543335422373400,1.239373291015625,-0.16335000097751617,0.17641249299049377,-0.02694999985396862
1747543335431968800,1.24896875,-0.13158750534057617,0.19346250593662262,0.014574999921023846
1747543335441564700,1.258564697265625,-0.08511249721050262,0.260699987411499,0.018287500366568565
1747543335451160000,1.26816015625,-0.0387750007212162,0.34375,-0.00494999997317791
1747543335460754700,1.277754638671875,-0.010587500408291817,0.40246251225471497,-0.04166249930858612
1747543335470350000,1.28735009765625,-0.0032999999821186066,0.43656250834465027,-0.0929500013589859
1747543335479946000,1.296946044921875,-0.0057749999687075615,0.4684624969959259,-0.16747500002384186
1747543335489541400,1.306541259765625,-0.024062499403953552,0.47203749418258667,-0.25533750653266907
1747543335499136000,1.316135986328125,-0.07177499681711197,0.40851250290870667,-0.3348124921321869
1747543335508731400,1.3257314453125,-0.1438249945640564,0.2864125072956085,-0.3885749876499176
1747543335518327300,1.335327392578125,-0.22192500531673431,0.1396999955177307,-0.4020499885082245
1747543335527922700,1.344922607421875,-0.2806375026702881,0.011412499472498894,-0.3726249933242798
1747543335537517000,1.35451708984375,-0.3051125109195709,-0.05816249921917915,-0.30428749322891235
1747543335547112400,1.364112548828125,-0.283112496137619,-0.0789249986410141,-0.2125750035047531
1747543335556708600,1.37370849609375,-0.22192500531673431,-0.06668750196695328,-0.12099999934434891
1747543335566304000,1.383303955078125,-0.14739999175071716,-0.021449999883770943,-0.050187498331069946
1747543335575898400,1.3928984375,-0.08635000139474869,0.053075000643730164,-0.018424998968839645
1747543335585493800,1.40249365234375,-0.05335000157356262,0.13241249322891235,-0.029424998909235
1747543335595090000,1.41208984375,-0.04606249928474426,0.19112500548362732,-0.06971249729394913
1747543335604685300,1.421685302734375,-0.05335000157356262,0.22165000438690186,-0.11852499842643738
1747543335614279700,1.43127978515625,-0.06201250106096268,0.22893749177455902,-0.1625249981880188
1747543335623875000,1.440875,-0.06201250106096268,0.21188749372959137,-0.18700000643730164
1747543335633471200,1.45047119140625,-0.05829999968409538,0.16664999723434448,-0.1845249980688095
1747543335643066400,1.46006640625,-0.05953750014305115,0.09941250085830688,-0.15399999916553497
1747543335652661000,1.469660888671875,-0.06929999589920044,0.010312499478459358,-0.10395000129938126
1747543335662256000,1.479256103515625,-0.09487500041723251,-0.08868750184774399,-0.05252499878406525
1747543335671852500,1.4888525390625,-0.1303499937057495,-0.16940000653266907,-0.008662499487400055
1747543335681448000,1.498447998046875,-0.1658249944448471,-0.22192500531673431,0.02681249938905239
1747543335691042300,1.508042236328125,-0.18039999902248383,-0.20350000262260437,0.047575000673532486
1747543335700637700,1.5176376953125,-0.15839999914169312,-0.03244999796152115,0.047575000673532486
1747543335710233900,1.52723388671875,-0.15606249868869781,0.07259999960660934,0.07081250101327896
1747543335719829200,1.536829345703125,-0.19634999334812164,0.013887500390410423,0.11962500214576721
1747543335729423600,1.546423583984375,-0.2488749921321869,0.0028874999843537807,0.18205000460147858
1747543335739019000,1.55601904296875,-0.27816250920295715,0.09707500040531158,0.2381500005722046
1747543335748615200,1.565615234375,-0.29163751006126404,0.16541250050067902,0.28338751196861267
1747543335758210600,1.57521044921875,-0.3026374876499176,0.15812499821186066,0.31638750433921814
1747543335767805200,1.58480517578125,-0.3123999834060669,0.11659999936819077,0.3310999870300293
1747543335777400300,1.594400390625,-0.30992498993873596,0.08112499862909317,0.31267499923706055
1747543335786996500,1.60399658203125,-0.28792500495910645,0.07136250287294388,0.2675749957561493
1747543335796591600,1.613591552734375,-0.24158750474452972,0.07136250287294388,0.2040500044822693
1747543335806186500,1.6231865234375,-0.19263750314712524,0.09941250085830688,0.13062499463558197
1747543335815782000,1.632781982421875,-0.15963749587535858,0.1691250056028366,0.04152499884366989
1747543335825377800,1.642377685546875,-0.13158750534057617,0.20941250026226044,-0.02928750030696392
1747543335834973200,1.65197314453125,-0.12911249697208405,0.20817500352859497,-0.05871250107884407
1747543335844567800,1.66156787109375,-0.1621125042438507,0.18741250038146973,-0.054999999701976776
1747543335854163000,1.671162841796875,-0.2073500007390976,0.18369999527931213,-0.050187498331069946
1747543335863759000,1.680759033203125,-0.24158750474452972,0.19717499613761902,-0.07095000147819519
1747543335873354500,1.6903544921875,-0.2525874972343445,0.1825999915599823,-0.1050499975681305
1747543335882948900,1.699948974609375,-0.24639999866485596,0.16541250050067902,-0.1368124932050705
1747543335892544300,1.709544189453125,-0.22687499225139618,0.1568875014781952,-0.15523749589920044
1747543335902140400,1.719140380859375,-0.1975875049829483,0.15441249310970306,-0.1564749926328659
1747543335911735800,1.72873583984375,-0.16706250607967377,0.15565000474452972,-0.14781250059604645
1747543335921330200,1.738330078125,-0.13763749599456787,0.16664999723434448,-0.12828749418258667
1747543335930925600,1.747925537109375,-0.11082500219345093,0.18741250038146973,-0.1050499975681305
1747543335950116900,1.767116943359375,-0.08277499675750732,0.25093749165534973,-0.05623750016093254
1747543335959711700,1.776711669921875,-0.07782500237226486,0.27898749709129333,-0.032999999821186066
1747543335969307000,1.786306884765625,-0.07535000145435333,0.28146249055862427,-0.015949999913573265
1747543335978903000,1.795903076171875,-0.07177499681711197,0.24722500145435333,-0.007424999959766865
1747543335988498400,1.80549853515625,-0.06077500060200691,0.19717499613761902,0.002474999986588955
1747543335998092800,1.8150927734375,-0.04606249928474426,0.15936249494552612,0.013337500393390656
1747543336007688200,1.824688232421875,-0.03382499888539314,0.13241249322891235,0.015812499448657036
1747543336017284400,1.834284423828125,-0.021587500348687172,0.11783749610185623,0.006049999967217445
1747543336026879500,1.84387939453125,-0.004537499975413084,0.12759999930858612,-0.015949999913573265
1747543336036474000,1.85347412109375,0.014987500384449959,0.15193749964237213,-0.03423750028014183
1747543336046069500,1.863069580078125,0.02241249941289425,0.17641249299049377,-0.04028749838471413
1747543336055665700,1.872665771484375,0.011412499472498894,0.19236250221729279,-0.03671250119805336
1747543336065260800,1.8822607421875,-0.004537499975413084,0.20446249842643738,-0.028187500312924385
1747543336074855700,1.891855712890625,-0.01924999989569187,0.21188749372959137,-0.01718750037252903
1747543336084450800,1.901450927734375,-0.025299999862909317,0.19965000450611115,0.004812499973922968
1747543336094047000,1.911046875,-0.03258749842643738,0.1691250056028366,0.037812501192092896
1747543336103642000,1.92064208984375,-0.0411125011742115,0.133650004863739,0.07081250101327896
1747543336113236700,1.93023681640625,-0.04853750020265579,0.10188750177621841,0.09886249899864197
1747543336122832000,1.939831787109375,-0.05211250111460686,0.07741250097751617,0.11852499842643738
1747543336132428300,1.94942822265625,-0.05582499876618385,0.06764999777078629,0.1331000030040741
1747543336142023700,1.959023681640625,-0.05211250111460686,0.07631249725818634,0.14904999732971191
1747543336151618000,1.9686181640625,-0.03135000169277191,0.08607500046491623,0.16238750517368317
1747543336161213400,1.97821337890625,-0.004537499975413084,0.10683749616146088,0.1722874939441681
1747543336170809600,1.9878095703125,0.016224998980760574,0.16788749396800995,0.16362500190734863
1747543336180405000,1.997405029296875,0.02474999986588955,0.2679874897003174,0.12333749979734421
1747543336189999400,2.006999267578125,0.02474999986588955,0.3852750062942505,0.05128749832510948
1747543336199594800,2.0165947265625,0.03341250121593475,0.49527499079704285,-0.04399999976158142
1747543336209190700,2.026190673828125,0.05169999971985817,0.5502749681472778,-0.14300000667572021
1747543336218786000,2.0357861328125,0.07493750005960464,0.5209875106811523,-0.22357499599456787
1747543336228380700,2.045380615234375,0.10051249712705612,0.40369999408721924,-0.26510000228881836
1747543336237975800,2.054975830078125,0.12251249700784683,0.22522500157356262,-0.25533750653266907
1747543336247572200,2.064572265625,0.12622499465942383,0.023649999871850014,-0.1942874938249588
1747543336257167600,2.074167724609375,0.10051249712705612,-0.15097500383853912,-0.10876250267028809
1747543336266762000,2.083761962890625,0.057750001549720764,-0.2694999873638153,-0.025712499395012856
1747543336276357400,2.093357421875,0.01251249946653843,-0.3244999945163727,0.030524998903274536
1747543336285953300,2.102953369140625,-0.022824998944997787,-0.31597501039505005,0.057337500154972076
1747543336295548700,2.112548583984375,-0.04235000163316727,-0.2475000023841858,0.05128749832510948
1747543336305143300,2.122143310546875,-0.03629999980330467,-0.1363999992609024,0.015812499448657036
1747543336314738700,2.13173876953125,-0.009349999949336052,-0.008112499490380287,-0.023237500339746475
1747543336324334800,2.1413349609375,0.018699999898672104,0.09088750183582306,-0.04895000159740448
1747543336333930000,2.150929931640625,0.03451250120997429,0.16788749396800995,-0.057475000619888306
1747543336343524600,2.160524658203125,0.043175000697374344,0.23622499406337738,-0.04895000159740448
1747543336353120000,2.1701201171875,0.04675000160932541,0.2876499891281128,-0.023237500339746475
1747543336362716000,2.1797158203125,0.052937500178813934,0.3242250084877014,0.01223750039935112
1747543336372311300,2.189311279296875,0.07246249914169312,0.34869998693466187,0.06104999780654907
1747543336381906200,2.19890625,0.11027500033378601,0.3596999943256378,0.11728750169277191
1747543336391501300,2.208501220703125,0.16651250422000885,0.3511750102043152,0.17586250603199005
1747543336401097500,2.218097412109375,0.23498749732971191,0.3242250084877014,0.22714999318122864
1747543336410692900,2.22769287109375,0.3057999908924103,0.2887499928474426,0.2626250088214874
1747543336420287200,2.237287353515625,0.36932501196861267,0.24488750100135803,0.2761000096797943
1747543336429882600,2.246882568359375,0.426800012588501,0.18246249854564667,0.2686749994754791
1747543336439478800,2.256478759765625,0.47066250443458557,0.10559999942779541,0.24557499587535858
1747543336449074000,2.266073974609375,0.5000874996185303,0.02983750030398369,0.20281249284744263
1747543336458668500,2.27566845703125,0.5134249925613403,-0.03616249933838844,0.14657500386238098
1747543336468264000,2.285263916015625,0.514662504196167,-0.0789249986410141,0.08676250278949738
1747543336477859800,2.29485986328125,0.509850025177002,-0.09721250087022781,0.02928750030696392
1747543336487455200,2.304455322265625,0.5048999786376953,-0.09968750178813934,-0.020762499421834946
1747543336497049900,2.3140498046875,0.49761250615119934,-0.09363749623298645,-0.0611874982714653
1747543336506645200,2.323645263671875,0.4926624894142151,-0.07397499680519104,-0.09404999762773514
1747543336516241400,2.333241455078125,0.48413750529289246,-0.03863750025629997,-0.13199999928474426
1747543336525836500,2.34283642578125,0.4731374979019165,0.004124999977648258,-0.17476250231266022
1747543336535431200,2.35243115234375,0.4548499882221222,0.04936249926686287,-0.21504999697208405
1747543336545026300,2.3620263671875,0.4328500032424927,0.09459999948740005,-0.24928750097751617
1747543336554622700,2.371622802734375,0.41208750009536743,0.12759999930858612,-0.26881250739097595
1747543336564218000,2.381218017578125,0.3961375057697296,0.13612499833106995,-0.26276248693466187
1747543336573812500,2.3908125,0.38513749837875366,0.1214125007390976,-0.2297624945640564
1747543336583407900,2.400407958984375,0.3778499960899353,0.09212499856948853,-0.1882375031709671
1747543336593004000,2.410004150390625,0.3730374872684479,0.06407500058412552,-0.1467124968767166
1747543336602599200,2.41959912109375,0.368087500333786,0.040837500244379044,-0.10752499848604202
1747543336612193800,2.42919384765625,0.368087500333786,0.021312499418854713,-0.06847500056028366
1747543336621789200,2.4387890625,0.3730374872684479,0.0016499999910593033,-0.029424998909235
1747543336631385000,2.448385009765625,0.3778499960899353,0.0005499999970197678,0
1747543336640980500,2.45798046875,0.3815625011920929,0.026124998927116394,0.013337500393390656
1747543336650575000,2.4675751953125,0.38032498955726624,0.05912499874830246,0.00976249948143959
1747543336660170500,2.47717041015625,0.3815625011920929,0.089649997651577,0.0012374999932944775
1747543336669766400,2.486766357421875,0.39256250858306885,0.11288750171661377,-0.0037124999798834324
1747543336679361800,2.49636181640625,0.4047999978065491,0.12993749976158142,-0.0147124994546175
1747543336688956400,2.505956298828125,0.4071374833583832,0.13859999179840088,-0.02694999985396862
1747543336698551800,2.5155517578125,0.3998500108718872,0.133650004863739,-0.032999999821186066
1747543336708147700,2.525147705078125,0.38885000348091125,0.1214125007390976,-0.0317624993622303
1747543336717743000,2.5347431640625,0.38032498955726624,0.10188750177621841,-0.030524998903274536
1747543336727337700,2.544337646484375,0.37908750772476196,0.08112499862909317,-0.0317624993622303
1747543336736933000,2.55393310546875,0.38885000348091125,0.07259999960660934,-0.032999999821186066
1747543336746529000,2.563529052734375,0.415800005197525,0.07864999771118164,-0.035475000739097595
1747543336756124400,2.57312451171875,0.4511374831199646,0.0835999995470047,-0.03918749839067459
1747543336765719000,2.582718994140625,0.48785001039505005,0.09459999948740005,-0.045237500220537186
1747543336775314400,2.592314453125,0.5244249701499939,0.11893749982118607,-0.05623750016093254
1747543336784910300,2.601910400390625,0.562375009059906,0.14588749408721924,-0.06971249729394913
1747543336794505700,2.611505615234375,0.5856124758720398,0.17270000278949738,-0.08071249723434448
1747543336804100000,2.62110009765625,0.5819000005722046,0.21422499418258667,-0.08195000141859055
1747543336813695500,2.630695556640625,0.5636125206947327,0.2887499928474426,-0.05376249924302101
1747543336823292000,2.6402919921875,0.5306124687194824,0.3877499997615814,0.01209999993443489
1747543336832887000,2.649886962890625,0.4866124987602234,0.5013250112533569,0.11110000312328339
1747543336842481700,2.659481689453125,0.44013750553131104,0.6052749752998352,0.2283875048160553
1747543336852076800,2.669076904296875,0.39861249923706055,0.6870874762535095,0.34443750977516174
1747543336861673200,2.678673095703125,0.39861249923706055,0.6590374708175659,0.45801249146461487
1747543336871268000,2.68826806640625,0.47437500953674316,0.6052749752998352,0.5447750091552734
1747543336880863000,2.697863037109375,0.562375009059906,0.6210874915122986,0.5765374898910522
1747543336890458400,2.707458251953125,0.6076124906539917,0.6821374893188477,0.5802500247955322
1747543336900054300,2.71705419921875,0.5489000082015991,0.9399499893188477,0.6340125203132629
1747543336909649700,2.726649658203125,0.4035624861717224,1.3651000261306763,0.7525374889373779
1747543336919244300,2.736244384765625,0.36932501196861267,1.379812479019165,0.6168249845504761
1747543336928839400,2.74583935546875,0.4133250117301941,1.1892374753952026,0.31267499923706055
1747543336948031000,2.765031005859375,0.3656125068664551,0.28751251101493835,-0.11371249705553055
1747543336957625600,2.77462548828125,0.23375000059604645,-0.10339999943971634,-0.33605000376701355
1747543336967220700,2.784220703125,0.03341250121593475,-0.3330250084400177,-0.5449125170707703
1747543336976817000,2.79381689453125,-0.14630000293254852,-0.4760249853134155,-0.7184374928474426
1747543336986412300,2.803412353515625,-0.24158750474452972,-0.5663625001907349,-0.8760125041007996
1747543336996007000,2.8130068359375,-0.2451625019311905,-0.5883625149726868,-1.0250624418258667
1747543337005602000,2.82260205078125,-0.18782499432563782,-0.5480750203132629,-1.1460624933242798
1747543337015198500,2.832198486328125,-0.09006249904632568,-0.4918375015258789,-1.1998250484466553
1747543337024793600,2.841793701171875,0.04427500069141388,-0.4160749912261963,-1.1618750095367432
1747543337034388200,2.85138818359375,0.2032250016927719,-0.30744999647140503,-1.022587537765503
1747543337043983600,2.860983642578125,0.3583250045776367,-0.18892499804496765,-0.7672500014305115
1747543337053579800,2.870579833984375,0.4731374979019165,-0.09116250276565552,-0.4240500032901764
1747543337063175000,2.8801748046875,0.5244249701499939,0.02983750030398369,-0.07218749821186066
1747543337072769500,2.88976953125,0.5256624817848206,0.2106499969959259,0.22591249644756317
1747543337082364700,2.89936474609375,0.5110874772071838,0.42803749442100525,0.43601250648498535
1747543337091960800,2.9089609375,0.5048999786376953,0.6687999963760376,0.5570124983787537
1747543337101556200,2.91855615234375,0.4926624894142151,0.8849499821662903,0.6144874691963196
1747543337111150800,2.92815087890625,0.4413749873638153,1.0034749507904053,0.5997750163078308
1747543337120746000,2.93774609375,0.3302749991416931,1.0719499588012695,0.5057250261306763
1747543337130342400,2.94734228515625,0.17022499442100525,1.1622874736785889,0.37248748540878296
1747543337139937500,2.9569375,0.006462499964982271,1.2307624816894531,0.2576749920845032
1747543337149532200,2.9665322265625,-0.13529999554157257,1.2148125171661377,0.20157499611377716
1747543337159127300,2.976127197265625,-0.24639999866485596,1.1037124395370483,0.22110000252723694
1747543337168723500,2.985723388671875,-0.3258749842643738,0.947237491607666,0.28696250915527344
1747543337178318800,2.99531884765625,-0.3698749840259552,0.7884249687194824,0.36272498965263367
1747543337187913500,3.00491357421875,-0.38692501187324524,0.5612750053405762,0.4702500104904175
1747543337197508900,3.0145087890625,-0.3856875002384186,0.3217499852180481,0.608299970626831
1747543337207104800,3.024104736328125,-0.3686375021934509,0.16417500376701355,0.7255874872207642
1747543337226294800,3.043294677734375,-0.25011250376701355,0.22398750483989716,0.7585874795913696
1747543337235890200,3.05289013671875,-0.1340624988079071,0.3302749991416931,0.6925874948501587
1747543337245486000,3.062486083984375,-0.015537500381469727,0.2985124886035919,0.5631999969482422
1747543337255081500,3.07208154296875,0.018699999898672104,0.31322500109672546,0.3786749839782715
1747543337264676000,3.081676025390625,-0.026537500321865082,0.42198750376701355,0.21133749186992645
1747543337274271200,3.091271240234375,-0.08511249721050262,0.5087500214576721,0.13186250627040863
1747543337283867600,3.10086767578125,-0.1621125042438507,0.5747500061988831,0.14409999549388885
1747543337293462800,3.110462890625,-0.2745875120162964,0.6065124869346619,0.19415000081062317
1747543337303057400,3.120057373046875,-0.4016374945640564,0.5637499690055847,0.2686749994754791
1747543337312652500,3.129652587890625,-0.4809750020503998,0.5062749981880188,0.345674991607666
1747543337322248700,3.139248779296875,-0.4871625006198883,0.4879874885082245,0.38967499136924744
1747543337331844000,3.148843994140625,-0.4529249966144562,0.4842749834060669,0.3811500072479248
1747543337341438700,3.158438720703125,-0.43092501163482666,0.48179998993873596,0.33467498421669006
1747543337351034000,3.1680341796875,-0.3539249897003174,0.5025625228881836,0.28091248869895935
1747543337360630000,3.177630126953125,-0.29768750071525574,0.5600374937057495,0.24914999306201935
1747543337370225400,3.187225341796875,-0.2733500003814697,0.6088500022888184,0.2125750035047531
1747543337379820000,3.196820068359375,-0.2793999910354614,0.6565625071525574,0.1428624987602234
1747543337389415200,3.206415283203125,-0.3381125032901764,0.654087483882904,0.11852499842643738
1747543337399011300,3.21601123046875,-0.44068750739097595,0.6418499946594238,0.10752499848604202
1747543337408606700,3.225606689453125,-0.5384500026702881,0.6015625,0.0695749968290329
1747543337418201300,3.235201416015625,-0.6202625036239624,0.5575624704360962,0.05252499878406525
1747543337427796700,3.244796630859375,-0.6935499906539917,0.4940375089645386,0.0635249987244606
1747543337437393000,3.254392822265625,-0.7302625179290771,0.37798750400543213,0.07809999585151672
1747543337446988000,3.263988037109375,-0.7338374853134155,0.2387000024318695,0.08428750187158585
1747543337456582700,3.273582763671875,-0.740024983882904,0.1153625026345253,0.08910000324249268
1747543337466177800,3.283177734375,-0.7655999660491943,0.055412501096725464,0.10986249893903732
1747543337475774000,3.29277392578125,-0.7937874794006348,0.0798875018954277,0.15757499635219574
1747543337485369300,3.302369384765625,-0.8047875165939331,0.15812499821186066,0.2320999950170517
1747543337494964000,3.3119638671875,-0.8095999956130981,0.25341248512268066,0.3493874967098236
1747543337504559400,3.321559326171875,-0.8108375072479248,0.3156999945640564,0.4984374940395355
1747543337514155300,3.3311552734375,-0.8047875165939331,0.28517499566078186,0.6340125203132629
1747543337523750700,3.340750732421875,-0.8157874941825867,0.22288750112056732,0.7207750082015991
1747543337533345300,3.35034521484375,-0.8560749888420105,0.13612499833106995,0.7330124974250793
1747543337542940700,3.359940673828125,-0.9085999727249146,-0.019112499430775642,0.6572499871253967
1747543337552536600,3.36953662109375,-0.9220749735832214,-0.22550000250339508,0.520437479019165
1747543337562132000,3.379132080078125,-0.8853625059127808,-0.39902499318122864,0.3651999831199646
1747543337571726300,3.388726318359375,-0.8573125004768372,-0.5505499839782715,0.2063875049352646
1747543337581321700,3.39832177734375,-0.8633624911308289,-0.6848874688148499,0.04028749838471413
1747543337590918100,3.407918212890625,-0.8963624835014343,-0.8144124746322632,-0.11495000123977661
1747543337600513300,3.41751318359375,-0.9293624758720398,-0.9402250051498413,-0.23952500522136688
1747543337610108000,3.42710791015625,-0.9598875045776367,-0.9757000207901001,-0.3348124921321869
1747543337619703000,3.436703125,-0.9598875045776367,-0.8766999840736389,-0.369049996137619
1747543337629299200,3.44629931640625,-0.9158874750137329,-0.7141749858856201,-0.3091000020503998
1747543337638894600,3.45589453125,-0.8487874865531921,-0.5370749831199646,-0.17104999721050262
1747543337648489200,3.4654892578125,-0.7827875018119812,-0.3097875118255615,0.00976249948143959
1747543337658084600,3.475084716796875,-0.7460749745368958,-0.025162499397993088,0.19415000081062317
1747543337667680500,3.484680419921875,-0.722837507724762,0.24969999492168427,0.3419624865055084
1747543337677276000,3.49427587890625,-0.6898375153541565,0.46956250071525574,0.44948750734329224
1747543337686870500,3.50387060546875,-0.6434999704360962,0.610087513923645,0.5179625153541565
1747543337696465700,3.513465576171875,-0.5934500098228455,0.6858500242233276,0.5729625225067139
1747543337706061800,3.523061767578125,-0.5579749941825867,0.7017999887466431,0.6193000078201294
1747543337715657200,3.5326572265625,-0.5262125134468079,0.6883249878883362,0.6389625072479248
1747543337725251600,3.54225146484375,-0.5176874995231628,0.6065124869346619,0.5875374674797058
1747543337734847000,3.551846923828125,-0.512737512588501,0.4622749984264374,0.42996248602867126
1747543337744443000,3.56144287109375,-0.4894999861717224,0.30346250534057617,0.24310000240802765
1747543337754038300,3.571038330078125,-0.44673749804496765,0.18369999527931213,0.07204999774694443
1747543337763633200,3.580633056640625,-0.39063748717308044,0.10917499661445618,-0.04399999976158142
1747543337773228500,3.590228515625,-0.33687499165534973,0.09941250085830688,-0.09776250272989273
1747543337782824400,3.599824462890625,-0.3051125109195709,0.16169999539852142,-0.09542500227689743
1747543337792419800,3.609419921875,-0.283112496137619,0.3242250084877014,-0.05623750016093254
1747543337802014500,3.619014404296875,-0.26468750834465027,0.5160375237464905,0.002337499987334013
1747543337811609900,3.62860986328125,-0.2964499890804291,0.6589000225067139,0.06228749826550484
1747543337821205800,3.638205810546875,-0.3844499886035919,0.7726125121116638,0.06104999780654907
1747543337830801200,3.64780126953125,-0.4529249966144562,0.8299499750137329,-0.0648999959230423
1747543337840395800,3.657395751953125,-0.4529249966144562,0.7958499789237976,-0.2578125
1747543337849991000,3.666990966796875,-0.4016374945640564,0.6919000148773193,-0.48138749599456787
1747543337859587000,3.676587158203125,-0.3429250121116638,0.5685625076293945,-0.7026249766349792
1747543337869182500,3.686182373046875,-0.318450003862381,0.5000874996185303,-0.8845375180244446
1747543337878776800,3.69577685546875,-0.35997501015663147,0.5625125169754028,-1.0348249673843384
1747543337888372200,3.705372314453125,-0.4357374906539917,0.6601374745368958,-1.1508749723434448
1747543337897968400,3.714968505859375,-0.4797374904155731,0.7298499941825867,-1.185112476348877
1747543337907563500,3.7245634765625,-0.4589749872684479,0.7566624879837036,-1.1338249444961548
1747543337917158100,3.734158203125,-0.4345000088214874,0.7383750081062317,-1.085012435913086
1747543337926753500,3.74375341796875,-0.4492124915122986,0.7138999700546265,-1.0788249969482422
1747543337936349700,3.753349609375,-0.4772624969482422,0.7213249802589417,-1.1203500032424927
1747543337955539700,3.772539794921875,-0.43092501163482666,0.6430875062942505,-1.1875874996185303
1747543337965134800,3.782134765625,-0.381974995136261,0.5917999744415283,-1.131350040435791
1747543337974731000,3.79173095703125,-0.39668750762939453,0.5233250260353088,-1.1215875148773193
1747543337984326400,3.801326416015625,-0.49445000290870667,0.3669874966144562,-1.1668249368667603
1747543337993921000,3.810921142578125,-0.604449987411499,0.09088750183582306,-1.2340625524520874
1747543338003516200,3.82051611328125,-0.6117374897003174,-0.25616249442100525,-1.30239999294281
1747543338013112300,3.8301123046875,-0.46392500400543213,-0.5578374862670898,-1.3281124830245972
1747543338022707700,3.839707763671875,-0.21834999322891235,-0.8034124970436096,-1.3281124830245972
1747543338032302000,3.849302001953125,0.05169999971985817,-1.058750033378601,-1.359874963760376
1747543338041897500,3.8588974609375,0.31556248664855957,-1.3520375490188599,-1.4404499530792236
1747543338051493600,3.86849365234375,0.5366625189781189,-1.6719999313354492,-1.5309250354766846
1747543338061089000,3.878089111328125,0.6869499683380127,-1.9933375120162964,-1.56021249294281
1747543338070683600,3.88768359375,0.768762469291687,-2.310962438583374,-1.4954500198364258
1747543338080278800,3.89727880859375,0.8005250096321106,-2.563962459564209,-1.3476375341415405
1747543338089875000,3.906875,0.8115249872207642,-2.706825017929077,-1.110587477684021
1747543338099470000,3.916469970703125,0.8359999656677246,-2.7385873794555664,-0.8002499938011169
1747543338109064700,3.926064697265625,0.8848124742507935,-2.675062417984009,-0.46309998631477356
1747543338118659800,3.935659912109375,0.9508125185966492,-2.5760624408721924,-0.14423750340938568
1747543338128256300,3.94525634765625,1.0338624715805054,-2.4894375801086426,0.09638749808073044
1747543338137851400,3.954851318359375,1.1292874813079834,-2.4112000465393066,0.22591249644756317
1747543338147446000,3.964446044921875,1.2233375310897827,-2.2976250648498535,0.2796750068664551
1747543338157041400,3.97404150390625,1.2916749715805054,-2.1533875465393066,0.32243749499320984
1747543338166637600,3.983637451171875,1.3149124383926392,-1.960337519645691,0.3774375021457672
1747543338176232700,3.993232666015625,1.292912483215332,-1.731950044631958,0.44948750734329224
1747543338185827300,4.002827392578125,1.2366750240325928,-1.5351874828338623,0.5289624929428101
1747543338195422700,4.012422607421875,1.1829124689102173,-1.453374981880188,0.5960624814033508
1747543338205018600,4.0220185546875,1.1206250190734863,-1.4386625289916992,0.6510624885559082
1747543338214614000,4.031614013671875,1.0205249786376953,-1.3018499612808228,0.7512999773025513
1747543338224208600,4.041208740234375,0.9605749845504761,-1.1393250226974487,0.9198749661445618
1747543338233803800,4.0508037109375,0.9374749660491943,-1.0184625387191772,1.0946375131607056
1747543338243400000,4.06039990234375,0.9252374768257141,-0.9011750221252441,1.219212532043457
1747543338252995300,4.069995361328125,0.8982874751091003,-0.6788374781608582,1.2753125429153442
1747543338262589700,4.079589599609375,0.8762875199317932,-0.6433625221252441,1.3095500469207764
1747543338272185000,4.08918505859375,0.8482375144958496,-0.7521250247955322,1.3413125276565552
1747543338281781500,4.098781494140625,0.7994250059127808,-0.7716500163078308,1.3425500392913818
1747543338291376600,4.108376708984375,0.7431874871253967,-0.6360750198364258,1.2974499464035034
1747543338300971300,4.11797119140625,0.6857125163078308,-0.4760249853134155,1.2362624406814575
1747543338310566400,4.12756640625,0.6344249844551086,-0.3722124993801117,1.1704000234603882
1747543338320162800,4.137162841796875,0.5867124795913696,-0.3489750027656555,1.1006875038146973
1747543338339352600,4.1563525390625,0.509850025177002,-0.2694999873638153,0.9589250087738037
1747543338348948000,4.165947998046875,0.4731374979019165,-0.24502499401569366,0.8771125078201294
1747543338358544000,4.1755439453125,0.4193750023841858,-0.2780250012874603,0.7768750190734863
1747543338368139300,4.18513916015625,0.35227498412132263,-0.3330250084400177,0.6450124979019165
1747543338377734000,4.19473388671875,0.2887499928474426,-0.39902499318122864,0.48496249318122864
1747543338387329300,4.204329345703125,0.22756250202655792,-0.25244998931884766,0.3359124958515167
1747543338396925200,4.21392529296875,0.1592250019311905,0.10312499850988388,0.24791249632835388
1747543338406520600,4.2235205078125,0.06393750011920929,0.2827000021934509,0.2320999950170517
1747543338435306500,4.252306396484375,-0.37097498774528503,0.6137999892234802,0.10257499665021896
1747543338444902000,4.26190185546875,-0.4174500107765198,0.6810374855995178,-0.0989999994635582
1747543338464091600,4.281091552734375,-0.03258749842643738,0.19470000267028809,-0.5046250224113464
1747543338483283200,4.300283203125,0.04675000160932541,0.2741749882698059,-0.5559124946594238
1747543338502473000,4.319472900390625,-0.11935000121593475,0.29493749141693115,-0.3788124918937683
1747543338512069400,4.3290693359375,-0.2171124964952469,0.31322500109672546,-0.28833749890327454
1747543338521664800,4.338664794921875,-0.33192500472068787,0.4147000014781952,-0.22481249272823334
1747543338531259100,4.348259033203125,-0.49816250801086426,0.5465624928474426,-0.1979999989271164
1747543338540854500,4.3578544921875,-0.7143124938011169,0.72861248254776,-0.2125750035047531
1747543338550450400,4.367450439453125,-0.94159996509552,1.0107624530792236,-0.2529999911785126
1747543338560045800,4.3770458984375,-1.1309374570846558,1.38833749294281,-0.2895750105381012
1747543338569640400,4.386640380859375,-1.3264625072479248,1.8012499809265137,-0.2810499966144562
1747543338579235800,4.39623583984375,-1.5817999839782715,2.1823999881744385,-0.19181250035762787
1747543338588831700,4.405831787109375,-1.8554250001907349,2.5844500064849854,-0.02694999985396862
1747543338598427100,4.41542724609375,-2.0642874240875244,3.0694124698638916,0.1868624985218048
1747543338608021800,4.425021728515625,-2.153524875640869,3.632612466812134,0.4141499996185303
1747543338617617200,4.4346171875,-2.1852874755859375,4.255624771118164,0.6070625185966492
1747543338627213000,4.444213134765625,-2.265862464904785,4.847012519836426,0.7647749781608582
1747543338636808400,4.453808349609375,-2.411337375640869,5.311212539672852,0.8746374845504761
1747543338646402800,4.46340283203125,-2.588437557220459,5.730312347412109,0.8833000063896179
1747543338655998200,4.472998291015625,-2.8010125160217285,6.149274826049805,0.7623000144958496
1747543338675189500,4.492189453125,-3.4887874126434326,6.961762428283691,0.19786250591278076
1747543338684784400,4.501784423828125,-3.971412420272827,7.279387474060059,-0.19676250219345093
1747543338694379500,4.511379638671875,-4.855949878692627,7.539674758911133,-0.781962513923645
1747543338713571000,4.530571044921875,-5.685487270355225,7.649537563323975,-1.5162124633789062
1747543338723165400,4.54016552734375,-6.295162677764893,7.616674900054932,-1.6127375364303589
1747543338732760800,4.5497607421875,-6.600550174713135,7.70701265335083,-1.193637490272522
1747543338742356700,4.559356689453125,-6.813125133514404,7.82182502746582,-0.3372874855995178
1747543338751952100,4.5689521484375,-6.8729376792907715,8.035637855529785,0.8575875163078308
1747543338771142100,4.58814208984375,-6.6360249519348145,8.121162414550781,3.3302500247955322
1747543338780738000,4.597738037109375,-6.40749979019165,7.74248743057251,4.1805500984191895
1747543338799927800,4.616927734375,-6.006824970245361,6.000225067138672,4.67912483215332
1747543338809523200,4.626523193359375,-5.815012454986572,4.788300037384033,4.422550201416016
1747543338819119000,4.636119140625,-5.551149845123291,3.563037395477295,3.975399971008301
1747543338828714500,4.645714599609375,-5.292099952697754,2.3449249267578125,3.4672000408172607
1747543338838309000,4.65530908203125,-5.096574783325195,1.1610499620437622,2.955287456512451
1747543338857500700,4.674500732421875,-4.893762588500977,-0.9048874974250793,2.0352749824523926
1747543338867095800,4.684095703125,-4.848662376403809,-1.8210500478744507,1.656599998474121
1747543338876690400,4.6936904296875,-4.7936625480651855,-2.783824920654297,1.2362624406814575
1747543338886285600,4.70328564453125,-4.683662414550781,-4.060512542724609,0.682824969291687
1747543338895882000,4.712882080078125,-4.303750038146973,-5.1686248779296875,0.02186249941587448
1747543338905477000,4.72247705078125,-3.7465999126434326,-5.571774959564209,-0.5938624739646912
1747543338915071700,4.73207177734375,-3.2506375312805176,-5.652349948883057,-0.8967750072479248
1747543338924667000,4.7416669921875,-2.757012367248535,-5.560774803161621,-0.7794874906539917
1747543338934263000,4.751262939453125,-2.247575044631958,-5.3299126625061035,-0.38733750581741333
1747543338953453300,4.770453369140625,-1.4535125494003296,-4.237612247467041,0.5960624814033508
1747543338963048400,4.78004833984375,-1.3472249507904053,-3.6524124145507812,1.136162519454956
1747543338972644600,4.78964453125,-1.374037504196167,-3.083162546157837,1.6003625392913818
1747543338991834400,4.80883447265625,-1.6171374320983887,-2.212100028991699,2.1245124340057373
1747543339001429800,4.8184296875,-1.7393749952316284,-1.9090499877929688,2.3101375102996826
1747543339011026000,4.82802587890625,-1.768662452697754,-1.6097124814987183,2.522712469100952
1747543339020621300,4.837621337890625,-1.7088500261306763,-1.3140875101089478,2.7952375411987305
1747543339030215700,4.847215576171875,-1.562137484550476,-1.112512469291687,3.0701000690460205
1747543339039811000,4.85681103515625,-1.3508000373840332,-0.9817500114440918,3.293674945831299
1747543339049407200,4.8664072265625,-1.1236499547958374,-0.802174985408783,3.4672000408172607
1747543339059002400,4.87600244140625,-0.9220749735832214,-0.600600004196167,3.6198248863220215
1747543339068597000,4.885596923828125,-0.766837477684021,-0.4955500066280365,3.705349922180176
1747543339078192400,4.8951923828125,-0.6385499835014343,-0.5981249809265137,3.6455373764038086
1747543339087788500,4.90478857421875,-0.4871625006198883,-0.4259749948978424,3.486725091934204
1747543339097384000,4.914384033203125,-0.20239999890327454,0.038362499326467514,3.4342000484466553
1747543339106978300,4.923978271484375,0.10175000131130219,0.18369999527931213,3.528249979019165
1747543339116573400,4.933573486328125,0.31679999828338623,0.23498749732971191,3.4244375228881836
1747543339126169900,4.943169921875,0.4963749945163727,0.12264999747276306,3.1373374462127686
1747543339135765000,4.952764892578125,0.6344249844551086,-0.09721250087022781,2.773237466812134
1747543339145359600,4.962359619140625,0.7847124934196472,-0.3782624900341034,2.3076624870300293
1747543339154955000,4.971955078125,0.9154750108718872,-0.8278874754905701,1.5588375329971313
1747543339164551000,4.981551025390625,0.9532874822616577,-1.4130874872207642,0.39820000529289246
1747543339183741000,5.000740966796875,0.8787624835968018,-1.807712435722351,-1.7410249710083008
1747543339193336000,5.010336181640625,1.0888625383377075,-0.9952250123023987,-1.9145499467849731
1747543339202932200,5.01993212890625,1.3747249841690063,0.23498749732971191,-1.8070249557495117
1747543339212527600,5.029527587890625,1.6825875043869019,1.4641000032424927,-1.6505500078201294
1747543339222122000,5.0391220703125,1.9489250183105469,2.4524500370025635,-1.4306875467300415
1747543339231717400,5.04871728515625,2.194499969482422,3.148750066757202,-1.2328250408172607
1747543339241313500,5.0583134765625,2.440074920654297,3.6289000511169434,-1.0910625457763672
1747543339250909000,5.067908935546875,2.686887502670288,3.8159000873565674,-1.0458250045776367
1747543339260503300,5.07750341796875,2.9385125637054443,3.722949981689453,-1.0678249597549438
1747543339270098700,5.0870986328125,3.1425623893737793,3.472562551498413,-1.0861124992370605
1747543339279694600,5.096694580078125,3.357612371444702,3.2465124130249023,-1.0788249969482422
1747543339289290000,5.1062900390625,3.6654748916625977,3.0156500339508057,-1.1008249521255493
1747543339298884600,5.115884521484375,3.966049909591675,2.6687374114990234,-1.2754499912261963
1747543339308480000,5.12547998046875,4.162674903869629,2.1373000144958496,-1.5247374773025513
1747543339318076200,5.135076171875,4.22867488861084,1.3333375453948975,-1.797124981880188
1747543339327671300,5.14467138671875,4.244625091552734,0.38046249747276306,-1.9571750164031982
1747543339337266000,5.154265869140625,4.036862373352051,-0.3207874894142151,-1.9315999746322632
1747543339346792200,5.163792236328125,3.698474884033203,-0.5736500024795532,-1.7300249338150024
1747543339356457200,5.173457275390625,3.3356125354766846,-0.43683749437332153,-1.2339249849319458
1747543339366052600,5.183052490234375,2.834699869155884,0.010312499478459358,-0.5473874807357788
1747543339375647200,5.192647216796875,2.245924949645996,0.6822749972343445,-0.06228749826550484
1747543339385202000,5.202201904296875,1.6387250423431396,1.3468124866485596,0.08057499676942825
1747543339394838500,5.211838623046875,0.9813374876976013,1.8196749687194824,0.035337500274181366
1747543339404434000,5.221433837890625,0.30951249599456787,2.1128249168395996,-0.05128749832510948
1747543339413961200,5.230961181640625,-0.3051125109195709,2.3095874786376953,-0.06599999964237213
1747543339423623700,5.240623779296875,-0.7070249915122986,2.468400001525879,-0.12099999934434891
1747543339433219800,5.2502197265625,-0.8303624987602234,2.606450080871582,-0.08923749625682831
1747543339442815200,5.259815185546875,-1.0001749992370605,2.6747875213623047,0.04152499884366989
1747543339452409600,5.26940966796875,-1.0344125032424927,2.599025011062622,0.08057499676942825
1747543339462005000,5.2790048828125,-1.095462441444397,2.1885874271392822,-0.01347499992698431
1747543339471601200,5.28860107421875,-1.2689875364303589,1.4616249799728394,-0.2712875008583069
1747543339481196500,5.298196533203125,-1.5023249387741089,0.8276125192642212,-0.6927250027656555
1747543339490791000,5.307791015625,-1.7736124992370605,0.15565000474452972,-1.1178749799728394
1747543339500386300,5.31738623046875,-2.10471248626709,-0.8082249760627747,-1.4074499607086182
1747543339509982200,5.326982177734375,-2.422337532043457,-1.4984749555587769,-1.634737491607666
1747543339519577600,5.33657763671875,-2.4356749057769775,-1.7404749393463135,-1.909600019454956
1747543339529172200,5.346172119140625,-2.368575096130371,-1.5266624689102173,-2.0781750679016113
1747543339538767600,5.355767578125,-2.2963874340057373,-1.1393250226974487,-2.225987434387207
1747543339548363800,5.36536376953125,-2.26104998588562,-0.802174985408783,-2.399512529373169
1747543339557959200,5.374959228515625,-2.2683374881744385,-0.534600019454956,-2.609612464904785
1747543339567553500,5.384553466796875,-2.408862590789795,-0.22550000250339508,-2.8489999771118164
1747543339577148700,5.394148681640625,-2.9635374546051025,0.4195125102996826,-3.075049877166748
1747543339586745000,5.4037451171875,-3.5975499153137207,1.021899938583374,-3.104337453842163
1747543339596340500,5.413340576171875,-4.048412322998047,1.62909996509552,-2.8759500980377197
1747543339605934800,5.422934814453125,-4.215749740600586,2.1641125679016113,-2.430037498474121
1747543339615530200,5.4325302734375,-4.168174743652344,2.5489749908447266,-1.9254125356674194
1747543339625126400,5.44212646484375,-4.027649879455566,2.910599946975708,-1.402500033378601
1747543339634721800,5.4517216796875,-3.7441248893737793,2.9191250801086426,-0.7110124826431274
1747543339644316200,5.461316162109375,-2.862062454223633,1.4983375072479248,0.46915000677108765
1747543339653911600,5.47091162109375,-1.3472249507904053,-0.5505499839782715,1.6493124961853027
1747543339663507500,5.480507568359375,-0.4162124991416931,-1.0000375509262085,2.392087459564209
1747543339673102800,5.490102783203125,-0.14630000293254852,-0.30002498626708984,2.6559500694274902
1747543339682697500,5.499697509765625,-0.26468750834465027,0.9326624870300293,2.5691874027252197
1747543339692292900,5.50929296875,-0.42473748326301575,1.9467250108718872,2.1575124263763428
1747543339701889000,5.518888916015625,-0.7167875170707703,3.0021750926971436,1.2669249773025513
1747543339711484200,5.528484130859375,-1.4840375185012817,4.457337379455566,0.007287499960511923
1747543339721078800,5.538078857421875,-2.2378125190734863,5.1743998527526855,-0.927299976348877
1747543339730674000,5.547673828125,-2.7447750568389893,5.02658748626709,-1.2326874732971191
1747543339740270000,5.55727001953125,-3.039299964904785,4.405912399291992,-1.0775874853134155
1747543339749865500,5.566865478515625,-3.132112503051758,3.6070375442504883,-0.7660124897956848
1747543339759378400,5.57637841796875,-3.1235873699188232,2.880074977874756,-0.5436750054359436
1747543339769055500,5.586055419921875,-3.1785874366760254,2.2251625061035156,-0.5058624744415283
1747543339778651600,5.595651611328125,-3.372737407684326,1.5056250095367432,-0.6573874950408936
1747543339788246800,5.605246826171875,-3.641550064086914,0.7396125197410583,-0.9933000206947327
1747543339797841200,5.614841064453125,-3.832124948501587,0.021312499418854713,-1.4257375001907349
1747543339807436500,5.6244365234375,-3.790600061416626,-0.7031750082969666,-1.7727874517440796
1747543339817033000,5.634032958984375,-3.4009249210357666,-1.3604249954223633,-1.8863624334335327
1747543339826628000,5.643628173828125,-2.666675090789795,-1.7697625160217285,-1.7018375396728516
1747543339836222700,5.65322265625,-1.6501375436782837,-1.8259999752044678,-1.3329249620437622
1747543339845817900,5.66281787109375,-0.512737512588501,-1.5474250316619873,-0.91753751039505
1747543339855414000,5.6724140625,0.5391374826431274,-1.0832250118255615,-0.559624969959259
1747543339865009200,5.682009033203125,1.2563375234603882,-0.5273125171661377,-0.32257500290870667
1747543339874532900,5.691532958984375,1.5885374546051025,0.031075000762939453,-0.20776249468326569
1747543339884199400,5.701199462890625,1.6850625276565552,0.5685625076293945,-0.18700000643730164
1747543339893795300,5.71079541015625,1.6520625352859497,1.108525037765503,-0.19923749566078186
1747543339903310800,5.720310791015625,1.5360125303268433,1.5936249494552612,-0.20528750121593475
1747543339912985000,5.729985107421875,1.3564374446868896,1.9172999858856201,-0.1845249980688095
1747543339922580500,5.73958056640625,1.1463375091552734,2.0590624809265137,-0.12952500581741333
1747543339932176600,5.7491767578125,0.9972875118255615,2.0517749786376953,-0.028187500312924385
1747543339941772000,5.75877197265625,0.9068124890327454,1.886775016784668,0.09033749997615814
1747543339951366400,5.768366455078125,0.7907624840736389,1.5508625507354736,0.16733749210834503
1747543339960961800,5.7779619140625,0.6271374821662903,1.1599500179290771,0.19910000264644623
1747543339970557700,5.7875576171875,0.25203749537467957,1.0462374687194824,0.23333749175071716
1747543339980153000,5.797153076171875,-0.30744999647140503,1.3309999704360962,0.28091248869895935
1747543339989675500,5.806675537109375,-0.8035500049591064,1.5056250095367432,0.22591249644756317
1747543339999342800,5.8163427734375,-1.19941246509552,1.6314375400543213,0.11357499659061432
1747543340008939000,5.82593896484375,-1.4547499418258667,1.6962000131607056,-0.023237500339746475
1747543340018534400,5.835534423828125,-1.5940375328063965,1.7389625310897827,-0.1625249981880188
1747543340028128800,5.845128662109375,-1.645324945449829,1.8306750059127808,-0.26633748412132263
1747543340037649200,5.854649169921875,-1.6330875158309937,1.9857749938964844,-0.32628750801086426
1747543340047320300,5.8643203125,-1.6086125373840332,2.2056374549865723,-0.32862499356269836
1747543340056915700,5.873915771484375,-1.561037540435791,2.4671623706817627,-0.2895750105381012
1747543340066510000,5.883510009765625,-1.4558500051498413,2.6919748783111572,-0.24199999868869781
1747543340076105500,5.89310546875,-1.2970374822616577,2.7798373699188232,-0.20652499794960022
1747543340095296800,5.912296875,-0.9233124852180481,2.528212547302246,-0.1247124969959259
1747543340104891400,5.921891357421875,-0.7033125162124634,2.2471625804901123,-0.05871250107884407
1747543340114486800,5.93148681640625,-0.4174500107765198,1.817199945449829,0.02928750030696392
1747543340124083000,5.9410830078125,-0.09982500225305557,1.2185250520706177,0.14409999549388885
1747543340133678000,5.950677978515625,0.11646249890327454,0.4965125024318695,0.27114999294281006
1747543340143272400,5.9602724609375,0.19580000638961792,-0.2340250015258789,0.39214998483657837
1747543340152867800,5.969867919921875,0.19456249475479126,-0.8607500195503235,0.5021499991416931
1747543340162464300,5.97946435546875,0.17998750507831573,-1.3018499612808228,0.5937250256538391
1747543340172059400,5.989059326171875,0.17627499997615814,-1.5339499711990356,0.6474875211715698
1747543340181654000,5.998654052734375,0.18975000083446503,-1.5547125339508057,0.6450124979019165
1747543340191249400,6.00824951171875,0.2287999987602234,-1.3738999366760254,0.5790125131607056
1747543340200845300,6.01784521484375,0.2862749993801117,-1.046512484550476,0.44948750734329224
1747543340210378500,6.02737841796875,0.3363249897956848,-0.6323624849319458,0.2638624906539917
1747543340220035300,6.037035400390625,0.3643749952316284,-0.19497500360012054,0.04881250113248825
1747543340229630500,6.04663037109375,0.3558500111103058,0.1886499971151352,-0.1564749926328659
1747543340239226600,6.0562265625,0.2923249900341034,0.45374998450279236,-0.31652501225471497
1747543340248822000,6.065822021484375,0.18603749573230743,0.58451247215271,-0.4118124842643738
1747543340258416400,6.07541650390625,0.10051249712705612,0.6040375232696533,-0.43738749623298645
1747543340268011800,6.08501171875,0.06627500057220459,0.5209875106811523,-0.4081000089645386
1747543340277608000,6.09460791015625,0.060224998742341995,0.34375,-0.3335750102996826
1747543340287203000,6.104203125,0.060224998742341995,0.11893749982118607,-0.21504999697208405
1747543340296797700,6.113797607421875,0.06393750011920929,-0.1069749966263771,-0.06971249729394913
1747543340306393000,6.12339306640625,0.07369999587535858,-0.28049999475479126,0.07933750003576279
1747543340315989000,6.132989013671875,0.09075000137090683,-0.3293125033378601,0.19910000264644623
1747543340325584400,6.14258447265625,0.13227500021457672,-0.15950000286102295,0.29315000772476196
1747543340335103700,6.152103759765625,0.1457500010728836,0.1714625060558319,0.41538751125335693
1747543340344774100,6.161774169921875,0.08951249718666077,0.42570000886917114,0.555774986743927
1747543340354370300,6.171370361328125,-0.009349999949336052,0.47079998254776,0.6340125203132629
1747543340363965700,6.180965576171875,-0.09129999577999115,0.38403749465942383,0.6010124683380127
1747543340373560000,6.19056005859375,-0.05582499876618385,0.34869998693466187,0.42391249537467957
1747543340383155500,6.200155517578125,0.15427500009536743,0.5758500099182129,0.004812499973922968
1747543340392751600,6.209751708984375,0.4278999865055084,0.8421875238418579,-0.44714999198913574
1747543340402347000,6.219346923828125,0.6087124943733215,0.6503750085830688,-0.4801499843597412
1747543340411941400,6.22894140625,0.7039999961853027,0.055412501096725464,-0.21147499978542328
1747543340421536800,6.238536865234375,0.7419499754905701,-0.5761250257492065,0.11357499659061432
1747543340431133000,6.2481328125,0.697950005531311,-1.0147500038146973,0.3359124958515167
1747543340440728300,6.257728271484375,0.5183749794960022,-1.2370874881744385,0.5522000193595886
1747543340450322700,6.26732275390625,0.25808748602867126,-1.2945624589920044,0.7317749857902527
1747543340459918000,6.27691796875,-0.0032999999821186066,-1.2005125284194946,0.8538749814033508
1747543340469514200,6.28651416015625,-0.17063750326633453,-1.0062249898910522,0.8844000101089478
1747543340479109400,6.296109375,-0.3918749988079071,-0.8327000141143799,0.896637499332428
1747543340488704300,6.305704345703125,-0.6117374897003174,-0.8619874715805054,0.9601625204086304
1747543340498299400,6.31529931640625,-0.880549967288971,-1.0514625310897827,1.0481624603271484
1747543340507895600,6.3248955078125,-1.045412540435791,-1.5021874904632568,1.123924970626831
1747543340517416000,6.334416015625,-1.1346499919891357,-1.960337519645691,1.153212547302246
1747543340527085300,6.344085205078125,-1.124887466430664,-2.268199920654297,1.1299749612808228
1747543340536680700,6.3536806640625,-1.016124963760376,-2.365962505340576,1.0604000091552734
1747543340546276900,6.36327685546875,-0.8303624987602234,-2.275624990463257,0.9565874934196472
1747543340555872300,6.372872314453125,-0.6092625260353088,-2.011625051498413,0.8428750038146973
1747543340565466600,6.382466552734375,-0.4039750099182129,-1.6512374877929688,0.7537750005722046
1747543340575062000,6.39206201171875,-0.25011250376701355,-1.2688499689102173,0.7085375189781189
1747543340584658200,6.401658203125,-0.15358750522136688,-0.9182249903678894,0.7048249840736389
1747543340594253600,6.411253662109375,-0.1120624989271164,-0.6263124942779541,0.7280625104904175
1747543340603848000,6.420847900390625,-0.1083500012755394,-0.39531248807907104,0.7623000144958496
1747543340613443300,6.430443359375,-0.10958749800920486,-0.23649999499320984,0.7928249835968018
1747543340623039500,6.44003955078125,-0.09253749996423721,-0.16692499816417694,0.8001124858856201
1747543340632558800,6.449558837890625,-0.04606249928474426,-0.19249999523162842,0.769587516784668
1747543340642229200,6.459229248046875,0.030937500298023224,-0.28421249985694885,0.7048249840736389
1747543340651824600,6.46882470703125,0.1297999918460846,-0.4100250005722046,0.620537519454956
1747543340661420500,6.478420654296875,0.2410375028848648,-0.5395500063896179,0.5350124835968018
1747543340671016000,6.488015869140625,0.3363249897956848,-0.6470749974250793,0.48124998807907104
1747543340680532500,6.497532470703125,0.3815625011920929,-0.731362521648407,0.48124998807907104
1747543340690205700,6.507205810546875,0.359562486410141,-0.7886999845504761,0.5227749943733215
1747543340699728000,6.516727783203125,0.27403751015663147,-0.8119375109672546,0.5692499876022339
1747543340709397000,6.52639697265625,0.14698749780654907,-0.8034124970436096,0.5852000117301941
1747543340718991600,6.53599169921875,0.007699999958276749,-0.780174970626831,0.5607249736785889
1747543340728587000,6.5455869140625,-0.12911249697208405,-0.7594124674797058,0.5057250261306763
1747543340738183000,6.555182861328125,-0.254925012588501,-0.744700014591217,0.4446749985218048
1747543340747778300,6.5647783203125,-0.35887500643730164,-0.7264124751091003,0.4104374945163727
1747543340757373000,6.574373046875,-0.4236375093460083,-0.7008374929428101,0.4226749837398529
1747543340766968000,6.583968017578125,-0.45416250824928284,-0.6995999813079834,0.4690124988555908
1747543340776564200,6.593564208984375,-0.4589749872684479,-0.6995999813079834,0.5374875068664551
1747543340786159600,6.60315966796875,-0.43697500228881836,-0.6788374781608582,0.6193000078201294
1747543340795754000,6.61275390625,-0.38321250677108765,-0.6433625221252441,0.7097749710083008
1747543340805349400,6.622349365234375,-0.29163751006126404,-0.5858874917030334,0.8025875091552734
1747543340814945300,6.6319453125,-0.1755875051021576,-0.5126000046730042,0.8893499970436096
1747543340824540700,6.641540771484375,-0.05211250111460686,-0.43326249718666077,0.9553499817848206
1747543340834066200,6.651066162109375,0.06998749822378159,-0.34154999256134033,0.9931625127792358
1747543340843730700,6.660730712890625,0.17998750507831573,-0.2377374917268753,0.9906874895095825
1747543340853326600,6.67032666015625,0.28132501244544983,-0.11921250075101852,0.9394000172615051
1747543340862922000,6.679921875,0.37537500262260437,0.004124999977648258,0.8465874791145325
1747543340872516400,6.689516357421875,0.44385001063346863,0.10436250269412994,0.7133499979972839
1747543340882111700,6.69911181640625,0.4646124839782715,0.14822499454021454,0.5520625114440918
1747543340891708000,6.7087080078125,0.4291374981403351,0.10188750177621841,0.38967499136924744
1747543340901303300,6.71830322265625,0.34732499718666077,-0.0411125011742115,0.24543750286102295
1747543340910897700,6.727897705078125,0.24598750472068787,-0.2634499967098236,0.1428624987602234
1747543340920493000,6.7374931640625,0.1494625061750412,-0.522362470626831,0.09886249899864197
1747543340930089200,6.747089111328125,0.07851249724626541,-0.7716500163078308,0.11357499659061432
1747543340949209000,6.766208984375,0.018699999898672104,-1.0636999607086182,0.2686749994754791
1747543340958874400,6.775874267578125,-0.014299999922513962,-1.067275047302246,0.3639625012874603
1747543340968470500,6.785470458984375,-0.04606249928474426,-0.9866999983787537,0.4446749985218048
1747543340978065700,6.795065673828125,-0.0705375000834465,-0.841362476348877,0.4800125062465668
1747543340987660300,6.804660400390625,-0.0668250024318695,-0.6898375153541565,0.46172499656677246
1747543340997255400,6.81425537109375,-0.018012499436736107,-0.5860249996185303,0.420199990272522
1747543341006851800,6.823851806640625,0.035750001668930054,-0.5285499691963196,0.3431999981403351
1747543341016447200,6.833447265625,0.06627500057220459,-0.5322625041007996,0.25286251306533813
1747543341025960700,6.842960693359375,0.08098749816417694,-0.5847874879837036,0.202674999833107
1747543341035637000,6.852636962890625,0.07246249914169312,-0.6373124718666077,0.19786250591278076
1747543341045233000,6.86223291015625,0.043175000697374344,-0.6763625144958496,0.23086249828338623
1747543341054828000,6.871828125,0.010174999944865704,-0.6776000261306763,0.3004375100135803
1747543341064423000,6.8814228515625,-0.022824998944997787,-0.6311249732971191,0.4054875075817108
1747543341074018300,6.891018310546875,-0.06311249732971191,-0.5248374938964844,0.5277249813079834
1747543341083614200,6.9006142578125,-0.12911249697208405,-0.3684999942779541,0.6413000226020813
1747543341093209600,6.910209716796875,-0.23539999127388,-0.21697500348091125,0.7110124826431274
1747543341102804000,6.919803955078125,-0.3624500036239624,-0.12540000677108765,0.7365875244140625
1747543341112399600,6.929399658203125,-0.4834499955177307,-0.09239999949932098,0.7195374965667725
1747543341121995500,6.93899560546875,-0.604449987411499,-0.12540000677108765,0.6608250141143799
1747543341131591000,6.9485908203125,-0.6997374892234802,-0.20473749935626984,0.5875374674797058
1747543341141185300,6.958185302734375,-0.731499969959259,-0.2536875009536743,0.5105375051498413
1747543341150780700,6.96778076171875,-0.6984999775886536,-0.22192500531673431,0.4349125027656555
1747543341160376800,6.977376953125,-0.6275500059127808,-0.10216250270605087,0.37991249561309814
1747543341169972000,6.986971923828125,-0.5444999933242798,0.08236250281333923,0.3529624938964844
1747543341179566600,6.996566650390625,-0.46639999747276306,0.26551249623298645,0.35667499899864197
1747543341189077200,7.0060771484375,-0.3979249894618988,0.3718000054359436,0.3811500072479248
1747543341198758000,7.0157578125,-0.3282124996185303,0.38279998302459717,0.39820000529289246
1747543341208353300,7.025353271484375,-0.2513499855995178,0.3242250084877014,0.38843750953674316
1747543341217948000,7.034947998046875,-0.17682500183582306,0.24722500145435333,0.34072500467300415
1747543341227543000,7.04454296875,-0.11687500029802322,0.17393749952316284,0.2626250088214874
1747543341237139200,7.05413916015625,-0.08387500047683716,0.08841250091791153,0.1685750037431717
1747543341246734600,7.063734619140625,-0.08277499675750732,0.007837500423192978,0.06228749826550484
1747543341256329000,7.073328857421875,-0.10711249709129333,-0.008112499490380287,-0.0672374963760376
1747543341265924600,7.082924560546875,-0.13763749599456787,0.05912499874830246,-0.23223750293254852
1747543341275520500,7.0925205078125,-0.14739999175071716,0.1909874975681305,-0.4460499882698059
1747543341285116000,7.102115966796875,-0.14258749783039093,0.32298749685287476,-0.7001500129699707
1747543341294710300,7.111710205078125,-0.1340624988079071,0.3937999904155731,-0.9847750067710876
1747543341304305700,7.1213056640625,-0.11082500219345093,0.4255625009536743,-1.2670625448226929
1747543341313901800,7.13090185546875,-0.06806249916553497,0.48179998993873596,-1.5234999656677246
1747543341323497200,7.140497314453125,-0.007012499962002039,0.5648499727249146,-1.7483124732971191
1747543341333091600,7.150091552734375,0.045512501150369644,0.6650875210762024,-1.9450750350952148
1747543341342687000,7.15968701171875,0.06875000149011612,0.7811374664306641,-2.1271250247955322
1747543341352283100,7.169283203125,0.07246249914169312,0.9106624722480774,-2.3017499446868896
1747543341361878300,7.178878173828125,0.0541750006377697,0.9900000095367432,-2.453274965286255
1747543341371473000,7.188472900390625,0.016224998980760574,0.9559000134468079,-2.5815625190734863
1747543341381068300,7.198068359375,-0.03629999980330467,0.7860875129699707,-2.6915624141693115
1747543341390664400,7.20766455078125,-0.09253749996423721,0.4879874885082245,-2.7856125831604004
1747543341400259600,7.217259521484375,-0.14739999175071716,0.055412501096725464,-2.8393750190734863
1747543341409854500,7.2268544921875,-0.19511249661445618,-0.5200250148773193,-2.8308498859405518
1747543341419449600,7.23644970703125,-0.23182499408721924,-1.1687500476837158,-2.7684249877929688
1747543341429045800,7.246045654296875,-0.24639999866485596,-1.811287522315979,-2.6610374450683594
1747543341438641000,7.255640869140625,-0.2391124963760376,-2.370912551879883,-2.514324903488159
1747543341448235500,7.265235595703125,-0.22687499225139618,-2.7227749824523926,-2.3542749881744385
1747543341457831000,7.274830810546875,-0.20858749747276306,-2.798537492752075,-2.1881749629974365
1747543341467427000,7.284427001953125,-0.16706250607967377,-2.609062433242798,-2.0195999145507812
1747543341477022500,7.2940224609375,-0.1083500012755394,-2.185149908065796,-1.8620250225067139
1747543341486616800,7.303616943359375,-0.0387750007212162,-1.5719000101089478,-1.7250750064849854
1747543341496212200,7.313212158203125,0.043175000697374344,-0.8314625024795532,-1.6322624683380127
1747543341505808400,7.322808349609375,0.14451250433921814,-0.08016250282526016,-1.6604499816894531
1747543341515403800,7.33240380859375,0.24956250190734863,0.6003249883651733,-1.8130749464035034
1747543341524998100,7.341998046875,0.3583250045776367,1.1525249481201172,-2.0208375453948975
1747543341534593500,7.351593505859375,0.4353249967098236,1.466575026512146,-2.2052249908447266
1747543341544189400,7.361189453125,0.4388999938964844,1.5642000436782837,-2.3079373836517334
1747543341553784800,7.370784912109375,0.34485000371932983,1.393149971961975,-2.3372249603271484
1747543341563379500,7.38037939453125,0.19222499430179596,1.0279500484466553,-2.3237500190734863
1747543341572974800,7.389974853515625,0.03946249932050705,0.6173750162124634,-2.304224967956543
1747543341582570800,7.39957080078125,-0.0668250024318695,0.26551249623298645,-2.3066999912261963
1747543341592166100,7.409166259765625,-0.09006249904632568,0.03217500075697899,-2.3262250423431396
1747543341601760800,7.4187607421875,-0.027775000780820847,-0.09116250276565552,-2.3494625091552734
1747543341611356000,7.42835595703125,0.10051249712705612,-0.17544999718666077,-2.3359875679016113
1747543341620952000,7.4379521484375,0.28008750081062317,-0.1839749962091446,-2.2407000064849854
1747543341630547500,7.44754736328125,0.514662504196167,-0.04235000163316727,-2.0684125423431396
1747543341640141800,7.457141845703125,0.7566624879837036,0.1434125006198883,-1.8778375387191772
1747543341649737200,7.4667373046875,1.0020999908447266,0.2741749882698059,-1.7153124809265137
1747543341659333400,7.47633349609375,1.222100019454956,0.3474625051021576,-1.6004999876022339
1747543341668928500,7.485928466796875,1.367437481880188,0.41827499866485596,-1.5455000400543213
1747543341678523100,7.495523193359375,1.4089624881744385,0.5172749757766724,-1.5467374324798584
1747543341688118500,7.505118408203125,1.3491499423980713,0.6186124682426453,-1.5797375440597534
1747543341697714700,7.514714599609375,1.2281500101089478,0.7188500165939331,-1.6187875270843506
1747543341707309800,7.524309814453125,1.0973875522613525,0.867900013923645,-1.6407874822616577
1747543341716904400,7.533904541015625,0.9655249714851379,1.0034749507904053,-1.6274499893188477
1747543341726499800,7.543499755859375,0.816474974155426,1.0742875337600708,-1.5589749813079834
1747543341736095700,7.553095703125,0.6857125163078308,1.096287488937378,-1.4869250059127808
1747543341745691100,7.562691162109375,0.5636125206947327,1.0987625122070312,-1.3903999328613281
1747543341755285500,7.572285400390625,0.4683249890804291,1.0755250453948975,-1.2670625448226929
1747543341764881000,7.581880859375,0.3950375020503998,1.0230000019073486,-1.1155375242233276
1747543341774477000,7.59147705078125,0.3497999906539917,0.9289500117301941,-0.9285374879837036
1747543341784072400,7.601072509765625,0.3205125033855438,0.7823749780654907,-0.7123875021934509
1747543341793666800,7.610666748046875,0.3020874857902527,0.5820375084877014,-0.4973374903202057
1747543341803262200,7.62026220703125,0.26179999113082886,0.3339875042438507,-0.29081249237060547
1747543341812858400,7.6298583984375,0.2092749923467636,0.08470000326633453,-0.10999999940395355
1747543341822453800,7.639453857421875,0.15798750519752502,-0.1424500048160553,0.02681249938905239
1747543341832048000,7.649048095703125,0.11646249890327454,-0.33178749680519104,0.12086249887943268
1747543341841643500,7.6586435546875,0.10051249712705612,-0.4515500068664551,0.18933749198913574
1747543341851239400,7.668239501953125,0.1200374960899353,-0.47850000858306885,0.2503874897956848
1747543341860834800,7.677834716796875,0.16898749768733978,-0.4235000014305115,0.29919999837875366
1747543341870429400,7.687429443359375,0.2287999987602234,-0.31597501039505005,0.34443750977516174
1747543341880024800,7.69702490234375,0.27403751015663147,-0.1779250055551529,0.3932499885559082
1747543341889621000,7.70662109375,0.29356250166893005,-0.04235000163316727,0.45319998264312744
1747543341899216100,7.716216064453125,0.2985124886035919,0.07136250287294388,0.5325375199317932
1747543341908810800,7.725810791015625,0.30951249599456787,0.1788875013589859,0.6315374970436096
1747543341918406000,7.735406005859375,0.32284998893737793,0.2777499854564667,0.7402999997138977
1747543341928002300,7.745002197265625,0.3180375099182129,0.3632749915122986,0.8416374921798706
1747543341937597400,7.754597412109375,0.28380000591278076,0.4353249967098236,0.9174000024795532
1747543341947192000,7.764192138671875,0.2287999987602234,0.44632500410079956,0.9553499817848206
1747543341956787200,7.773787109375,0.18603749573230743,0.2741749882698059,0.9699249863624573
1747543341966383400,7.78338330078125,0.16403749585151672,-0.19139999151229858,0.9455875158309937
1747543341975978500,7.792978515625,0.17503750324249268,-0.8181250095367432,0.7647749781608582
1747543341985573000,7.802572998046875,0.23127499222755432,-1.141800045967102,0.3712500035762787
1747543341995168300,7.812168212890625,0.2825624942779541,-0.6226000189781189,0.04138749837875366
1747543342004764700,7.8217646484375,0.2569875121116638,0.34375,0.06710000336170197
1747543342014360000,7.831360107421875,0.2703250050544739,0.3059374988079071,0.6193000078201294
1747543342023954400,7.840954345703125,0.3338499963283539,-0.5248374938964844,1.4243625402450562
1747543342033549800,7.8505498046875,0.37056249380111694,-0.4992625117301941,1.7237000465393066
1747543342043145700,7.860145751953125,0.4059000015258789,0.37798750400543213,1.464787483215332
1747543342052740900,7.869740966796875,0.3730374872684479,0.867900013923645,1.1519750356674194
1747543342062335700,7.879335693359375,0.24832500517368317,0.680899977684021,0.9919250011444092
1747543342071931100,7.88893115234375,0.10422500222921371,0.22522500157356262,0.9833999872207642
1747543342081527000,7.898527099609375,-0.025299999862909317,-0.24873749911785126,1.0799249410629272
1747543342091122400,7.908122314453125,-0.15358750522136688,-0.6983624696731567,1.2374999523162842
1747543342100716800,7.917716796875,-0.28558748960494995,-1.1222749948501587,1.373075008392334
1747543342110312200,7.927312255859375,-0.45045000314712524,-1.399612545967102,1.4378374814987183
1747543342119908000,7.936908203125,-0.6617875099182129,-1.4166624546051025,1.4305499792099
1747543342129503500,7.94650341796875,-0.8718875050544739,-1.221274971961975,1.3828375339508057
1747543342139098000,7.95609814453125,-1.0136499404907227,-0.9671750068664551,1.3450249433517456
1747543342148693500,7.965693603515625,-1.0381250381469727,-0.7814124822616577,1.3290749788284302
1747543342158289400,7.975289306640625,-0.9671750068664551,-0.7166500091552734,1.3327875137329102
1747543342167884800,7.984884765625,-0.8377875089645386,-0.7606499791145325,1.3315500020980835
1747543342177479200,7.994479248046875,-0.6825500130653381,-0.8266500234603882,1.3267375230789185
1747543342187074600,8.004074462890625,-0.5494499802589417,-0.8694124817848206,1.3413125276565552
1747543342196670500,8.01367041015625,-0.4516874849796295,-0.9304624795913696,1.3890249729156494
1747543342206265900,8.023265869140625,-0.39544999599456787,-1.0001749992370605,1.442787528038025
1747543342215860500,8.032860595703125,-0.37345001101493835,-1.0527000427246094,1.4891250133514404
1747543342225455900,8.042455810546874,-0.3722124993801117,-1.0734624862670898,1.530650019645691
1747543342235051800,8.0520517578125,-0.3856875002384186,-1.0660375356674194,1.5588375329971313
1747543342244647200,8.061647216796874,-0.3881624937057495,-1.0452749729156494,1.5551249980926514
1747543342254241800,8.07124169921875,-0.3881624937057495,-1.041700005531311,1.5173125267028809
1747543342263837200,8.080837158203124,-0.421162486076355,-1.055037498474121,1.461074948310852
1747543342273433000,8.09043310546875,-0.4809750020503998,-1.0514625310897827,1.3963124752044678
1747543342283028500,8.100028564453124,-0.548212468624115,-1.0392249822616577,1.3267375230789185
1747543342292623000,8.109623046875,-0.6032124757766724,-1.0232750177383423,1.2655500173568726
1747543342302218500,8.119218505859376,-0.639787495136261,-0.985462486743927,1.2094500064849854
1747543342311814400,8.128814453125,-0.6703125238418579,-0.9476500153541565,1.1569249629974365
1747543342321409800,8.138409912109376,-0.7057874798774719,-0.929224967956543,1.1226874589920044
1747543342331004200,8.148004150390625,-0.7583125233650208,-0.9304624795913696,1.1031625270843506
1747543342340599600,8.157599609375,-0.8095999956130981,-0.9402250051498413,1.081162452697754
1747543342350195700,8.16719580078125,-0.8560749888420105,-0.9279875159263611,1.0554499626159668
1747543342359791000,8.176791015625,-0.9013124704360962,-0.8828874826431274,1.0261625051498413
1747543342369385500,8.186385498046874,-0.9256500005722046,-0.810699999332428,0.9846374988555908
1747543342378980900,8.19598095703125,-0.9330750107765198,-0.7106000185012817,0.940637469291687
1747543342388576800,8.20557666015625,-0.9281250238418579,-0.583549976348877,0.9174000024795532
1747543342398172200,8.215172119140625,-0.9196000099182129,-0.46131250262260437,0.9246875047683716
1747543342407766800,8.224766845703124,-0.9013124704360962,-0.36726251244544983,0.940637469291687
1747543342417362200,8.234362060546875,-0.8597875237464905,-0.28421249985694885,0.9356874823570251
1747543342426958000,8.2439580078125,-0.7900750041007996,-0.21092499792575836,0.9039250016212463
1747543342436553500,8.253553466796875,-0.692312479019165,-0.14368750154972076,0.8501625061035156
1747543342446147800,8.26314794921875,-0.5812125205993652,-0.06063750013709068,0.7903500199317932
1747543342455743200,8.2727431640625,-0.4809750020503998,0.048124998807907104,0.7378249764442444
1747543342465339400,8.28233935546875,-0.40039998292922974,0.1751749962568283,0.691349983215332
1747543342474934800,8.291934814453125,-0.3392125070095062,0.3022249937057495,0.6498249769210815
1747543342484529200,8.301529052734375,-0.29768750071525574,0.4047999978065491,0.6180624961853027
1747543342494124500,8.31112451171875,-0.2733500003814697,0.47574999928474426,0.5924875140190125
1747543342503720700,8.320720703125,-0.26468750834465027,0.5135625004768372,0.5765374898910522
1747543342513315800,8.33031591796875,-0.2586374878883362,0.5307499766349792,0.5717250108718872
1747543342522910700,8.33991064453125,-0.2488749921321869,0.527037501335144,0.5790125131607056
1747543342532505900,8.349505859375,-0.2391124963760376,0.5013250112533569,0.5985375046730042
1747543342542101800,8.359101806640625,-0.23539999127388,0.4487999975681305,0.6278250217437744
1747543342551697200,8.368697265625,-0.23058749735355377,0.3792249858379364,0.6535375118255615
1747543342561291500,8.37829150390625,-0.2110625058412552,0.3082749843597412,0.6645374894142151
1747543342570887000,8.387886962890626,-0.18039999902248383,0.24117499589920044,0.6547750234603882
1747543342580483300,8.3974833984375,-0.15358750522136688,0.1812250018119812,0.6193000078201294
1747543342590078500,8.407078369140624,-0.13653749227523804,0.13241249322891235,0.5655375123023987
1747543342599673000,8.416673095703125,-0.12182500213384628,0.10793749988079071,0.5092999935150146
1747543342609268200,8.426268310546876,-0.10353749990463257,0.11041250079870224,0.45567500591278076
1747543342618864400,8.435864501953125,-0.07906249910593033,0.14217500388622284,0.4067249894142151
1747543342628459500,8.44545947265625,-0.04853750020265579,0.19965000450611115,0.3651999831199646
1747543342638054400,8.455054443359375,-0.009349999949336052,0.2741749882698059,0.32615000009536743
1747543342647649500,8.4646494140625,0.03698749840259552,0.35227498412132263,0.2858625054359436
1747543342657245700,8.47424560546875,0.0859375,0.4232249855995178,0.24543750286102295
1747543342666840800,8.4838408203125,0.14451250433921814,0.47574999928474426,0.21133749186992645
1747543342676435500,8.493435546875,0.21175000071525574,0.4977499842643738,0.19167499244213104
1747543342686030600,8.503030517578125,0.28132501244544983,0.4927999973297119,0.20143750309944153
1747543342695627000,8.512626953125,0.3326124846935272,0.4562250077724457,0.24186250567436218
1747543342705222100,8.52222216796875,0.35103750228881836,0.38046249747276306,0.29919999837875366
1747543342714816800,8.531816650390626,0.3375625014305115,0.2704625129699707,0.36272498965263367
1747543342724412000,8.541411865234375,0.2947999835014343,0.13488750159740448,0.41772499680519104
1747543342734008000,8.551008056640624,0.23498749732971191,-0.009349999949336052,0.45196250081062317
1747543342743603200,8.560603271484375,0.17379999160766602,-0.1498750001192093,0.4507249891757965
1747543342753198000,8.570197998046876,0.13227500021457672,-0.26826250553131104,0.4189625084400177
1747543342762793200,8.579793212890625,0.11522500216960907,-0.3452624976634979,0.3639625012874603
1747543342772389400,8.589389404296876,0.12127500027418137,-0.37345001101493835,0.3041499853134155
1747543342781984800,8.59898486328125,0.14451250433921814,-0.3562625050544739,0.2564375102519989
1747543342791579100,8.6085791015625,0.17503750324249268,-0.30250000953674316,0.2320999950170517
1747543342801174800,8.6181748046875,0.2032250016927719,-0.22550000250339508,0.234437495470047
1747543342810770700,8.627770751953125,0.2153249979019165,-0.13997499644756317,0.2686749994754791
1747543342820365800,8.63736572265625,0.2055625021457672,-0.06311249732971191,0.3236750066280365
1747543342829960400,8.64696044921875,0.17998750507831573,-0.015399999916553497,0.37991249561309814
1747543342839555600,8.6565556640625,0.15674999356269836,-0.010587500408291817,0.41167500615119934
1747543342849151700,8.66615185546875,0.1396999955177307,-0.05087500065565109,0.4054875075817108
1747543342858747400,8.675747314453124,0.1237500011920929,-0.12416250258684158,0.3639625012874603
1747543342868341800,8.685341796875,0.10175000131130219,-0.22192500531673431,0.29067498445510864
1747543342877937200,8.694937255859376,0.06998749822378159,-0.3367374837398529,0.19910000264644623
1747543342887533300,8.704533203125,0.03341250121593475,-0.46131250262260437,0.10257499665021896
1747543342897054700,8.7140546875,0.002749999985098839,-0.583549976348877,0.013337500393390656
1747543342906723000,8.72372314453125,-0.01677500084042549,-0.6873624920845032,-0.05623750016093254
1747543342916318500,8.733318359375,-0.027775000780820847,-0.7704125046730042,-0.08566249907016754
1747543342925914400,8.742914306640625,-0.0387750007212162,-0.8216999769210815,-0.06847500056028366
1747543342935509800,8.752509765625,-0.05706249922513962,-0.8449375033378601,-0.007424999959766865
1747543342954699500,8.771699462890625,-0.12306249886751175,-0.8156499862670898,0.15991249680519104
1747543342964295700,8.781295654296875,-0.1658249944448471,-0.7716500163078308,0.2186249941587448
1747543342973891000,8.79089111328125,-0.20487499237060547,-0.7203624844551086,0.23567499220371246
1747543342983485400,8.8004853515625,-0.23292499780654907,-0.6763625144958496,0.202674999833107
1747543342993080800,8.810080810546875,-0.25011250376701355,-0.6470749974250793,0.13433749973773956
1747543343002676700,8.8196767578125,-0.254925012588501,-0.6360750198364258,0.04881250113248825
1747543343012272000,8.829272216796875,-0.2488749921321869,-0.6385499835014343,-0.02694999985396862
1747543343021866800,8.83886669921875,-0.23292499780654907,-0.6433625221252441,-0.07095000147819519
1747543343031462100,8.848462158203125,-0.2134000062942505,-0.6421250104904175,-0.0672374963760376
1747543343050653400,8.8676533203125,-0.1816374957561493,-0.6458374857902527,0.04633750021457672
1747543343060248000,8.877248046875,-0.1658249944448471,-0.6690750122070312,0.1013374999165535
1747543343069843200,8.88684326171875,-0.1498750001192093,-0.7106000185012817,0.11962500214576721
1747543343079439400,8.896439453125,-0.13529999554157257,-0.766837477684021,0.10257499665021896
1747543343089034800,8.90603466796875,-0.12306249886751175,-0.8241750001907349,0.06338749825954437
1747543343098629000,8.915629150390625,-0.11687500029802322,-0.8706499934196472,0.028049999848008156
1747543343108224500,8.925224609375,-0.12430000305175781,-0.8999375104904175,0.0085249999538064
1747543343117820700,8.934820556640625,-0.14630000293254852,-0.9158874750137329,0.014574999921023846
1747543343127416000,8.944416015625,-0.17311249673366547,-0.9194625020027161,0.04262499883770943
1747543343137010400,8.954010498046875,-0.19634999334812164,-0.9182249903678894,0.08181250095367432
1747543343146605800,8.963605712890624,-0.21587499976158142,-0.9169874787330627,0.12333749979734421
1747543343156202000,8.973201904296875,-0.2488749921321869,-0.9121749997138977,0.1685750037431717
1747543343165797400,8.98279736328125,-0.31363749504089355,-0.9059875011444092,0.21615000069141388
1747543343175391700,8.992391845703125,-0.4113999903202057,-0.8999375104904175,0.2576749920845032
1747543343184987100,9.001987060546876,-0.5152124762535095,-0.8974624872207642,0.2857249975204468
1747543343194583000,9.0115830078125,-0.5982624888420105,-0.8889374732971191,0.29315000772476196
1747543343204178700,9.0211787109375,-0.6472125053405762,-0.8718875050544739,0.2857249975204468
1747543343213773000,9.03077294921875,-0.6557375192642212,-0.8449375033378601,0.26496249437332153
1747543343223368400,9.040368408203125,-0.6287875175476074,-0.8204625248908997,0.2381500005722046
1747543343232964400,9.04996435546875,-0.5665000081062317,-0.8009374737739563,0.2003374993801117
1747543343242559700,9.059559814453126,-0.4797374904155731,-0.7741249799728394,0.15015000104904175
1747543343252154400,9.069154296875,-0.38940000534057617,-0.731362521648407,0.09886249899864197
1747543343261749800,9.078749755859375,-0.3123999834060669,-0.6690750122070312,0.07081250101327896
1747543343271345700,9.088345703125,-0.2708750069141388,-0.5810750126838684,0.1013374999165535
1747543343280941000,9.097941162109375,-0.28187498450279236,-0.44907498359680176,0.21119999885559082
1747543343290535400,9.107535400390624,-0.30992498993873596,-0.26468750834465027,0.4092000126838684
1747543343300130800,9.117130859375,-0.3063499927520752,-0.03616249933838844,0.6364874839782715
1747543343309727000,9.12672705078125,-0.26840001344680786,0.19841249287128448,0.7988749742507935
1747543343319322400,9.136322265625,-0.20116250216960907,0.4170374870300293,0.8685874938964844
1747543343328916700,9.145916748046876,-0.1266375035047531,0.6198499798774719,0.8501625061035156
1747543343338512100,9.15551220703125,-0.06929999589920044,0.7933750152587891,0.7598249912261963
1747543343348108300,9.1651083984375,-0.04853750020265579,0.8934749960899353,0.612012505531311
1747543343357703400,9.174703369140625,-0.07411249727010727,0.8751875162124634,0.4067249894142151
1747543343367298000,9.184298095703125,-0.13529999554157257,0.7090874910354614,0.15262499451637268
1747543343376893400,9.1938935546875,-0.21216249465942383,0.39256250858306885,-0.13323749601840973
1747543343386489300,9.2034892578125,-0.2793999910354614,-0.0471624992787838,-0.432574987411499
1747543343396084700,9.213084716796875,-0.31363749504089355,-0.5322625041007996,-0.7184374928474426
1747543343405679400,9.222679443359375,-0.2964499890804291,-0.9609875082969666,-0.9590625166893005
1747543343415274500,9.2322744140625,-0.2391124963760376,-1.270087480545044,-1.1460624933242798
1747543343424870700,9.24187060546875,-0.15358750522136688,-1.4508999586105347,-1.2816375494003296
1747543343434465800,9.2514658203125,-0.05706249922513962,-1.5351874828338623,-1.3756874799728394
1747543343444060700,9.261060791015625,0.03451250120997429,-1.5719000101089478,-1.434399962425232
1747543343453655800,9.27065576171875,0.10546249896287918,-1.5999499559402466,-1.463687539100647
1747543343463252000,9.280251953125,0.14698749780654907,-1.6402374505996704,-1.4722124338150024
1747543343472847000,9.28984716796875,0.17503750324249268,-1.6964750289916992,-1.4722124338150024
1747543343482441700,9.299441650390625,0.19580000638961792,-1.7782875299453735,-1.463687539100647
1747543343492036900,9.309036865234376,0.21656249463558197,-1.885812520980835,-1.451449990272522
1747543343501633000,9.318633056640625,0.24598750472068787,-1.9970500469207764,-1.4441624879837036
1747543343511228200,9.328228271484376,0.28132501244544983,-2.072812557220459,-1.463687539100647
1747543343520823000,9.337822998046875,0.3265624940395355,-2.0703375339508057,-1.5224000215530396
1747543343530418200,9.347418212890625,0.3815625011920929,-1.9579999446868896,-1.6127375364303589
1747543343540014300,9.357014404296875,0.43408748507499695,-1.7392375469207764,-1.6640249490737915
1747543343549609700,9.366609619140625,0.47808748483657837,-1.4460874795913696,-1.6029750108718872
1747543343559204000,9.3762041015625,0.5000874996185303,-1.133275032043457,-1.4148750305175781
1747543343568799500,9.385799560546875,0.495137482881546,-0.858412504196167,-1.1423499584197998
1747543343578395600,9.395395751953124,0.495137482881546,-0.6263124942779541,-0.8626750111579895
1747543343587990800,9.40499072265625,0.5013250112533569,-0.4124999940395355,-0.637862503528595
1747543343597585400,9.41458544921875,0.509850025177002,-0.2194499969482422,-0.4801499843597412
1747543343607180500,9.4241806640625,0.5268999934196472,-0.08511249721050262,-0.37152498960494995
1747543343616776700,9.433776611328126,0.5598999857902527,-0.022687500342726707,-0.2957625091075897
1747543343626372000,9.4433720703125,0.6161375045776367,-0.0411125011742115,-0.2480500042438507
1747543343635966700,9.452966796875,0.7004249691963196,-0.11563749611377716,-0.22481249272823334
1747543343645562000,9.46256201171875,0.8005250096321106,-0.23045000433921814,-0.2237125039100647
1747543343655158000,9.472157958984376,0.9092875123023987,-0.37345001101493835,-0.22605000436306
1747543343664753400,9.48175341796875,1.0205249786376953,-0.5138375163078308,-0.21504999697208405
1747543343674347800,9.49134765625,1.121862530708313,-0.6213625073432922,-0.1662375032901764
1747543343683943200,9.500943115234374,1.2025749683380127,-0.6348375082015991,-0.0672374963760376
1747543343693539300,9.510539306640625,1.2574374675750732,-0.4405499994754791,0.09886249899864197
1747543343703134700,9.520134765625,1.3296250104904175,0.018837500363588333,0.3053874969482422
1747543343712729000,9.52972900390625,1.4114375114440918,0.5575624704360962,0.42748749256134033
1747543343722324500,9.539324462890624,1.4529625177383423,1.009524941444397,0.3932499885559082
1747543343731920600,9.548920654296875,1.424912452697754,1.305287480354309,0.2576749920845032
1747543343741515800,9.558515869140624,1.3381500244140625,1.4018124341964722,0.11591249704360962
1747543343751110400,9.5681103515625,1.222100019454956,1.3602875471115112,0.018287500366568565
1747543343760705800,9.577705810546876,1.1060500144958496,1.2868624925613403,-0.020899999886751175
1747543343770301700,9.5873017578125,1.0119999647140503,1.2319999933242798,-0.02213750034570694
1747543343779897000,9.59689697265625,0.9484750032424927,1.2197624444961548,-0.00989999994635582
1747543343789491700,9.60649169921875,0.9007624983787537,1.2600499391555786,0.010862499475479126
1747543343799086800,9.6160869140625,0.8677625060081482,1.3688124418258667,0.028049999848008156
1747543343808683000,9.62568310546875,0.8397125005722046,1.549625039100647,0.0340999998152256
1747543343818278400,9.6352783203125,0.8079500198364258,1.8012499809265137,0.030524998903274536
1747543343827872800,9.644872802734374,0.7651875019073486,2.084637403488159,0.013337500393390656
1747543343837468200,9.65446826171875,0.7077124714851379,2.3131625652313232,-0.023237500339746475
1747543343847064300,9.664064208984374,0.645425021648407,2.460974931716919,-0.05871250107884407
1747543343856659500,9.673659423828125,0.5928999781608582,2.573312520980835,-0.07342500239610672
1747543343866254000,9.683254150390624,0.5659499764442444,2.6320250034332275,-0.06847500056028366
1747543343875849500,9.692849365234375,0.5659499764442444,2.634500026702881,-0.050187498331069946
1747543343885445400,9.7024453125,0.5758500099182129,2.5880250930786133,-0.020899999886751175
1747543343895040800,9.712040771484375,0.5684249997138977,2.4964499473571777,0.018287500366568565
1747543343904635100,9.72163525390625,0.5416125059127808,2.359637498855591,0.0695749968290329
1747543343914230500,9.73123046875,0.5110874772071838,2.1958749294281006,0.12691250443458557
1747543343923826700,9.74082666015625,0.48537498712539673,2.0223500728607178,0.18438750505447388
1747543343933421800,9.750421875,0.4670875072479248,1.8623000383377075,0.23691250383853912
1747543343952611800,9.76961181640625,0.4328500032424927,1.6571500301361084,0.30662500858306885
1747543343962207700,9.779207763671875,0.39861249923706055,1.5849624872207642,0.32120001316070557
1747543343971803100,9.78880322265625,0.3485625088214874,1.5141500234603882,0.31872498989105225
1747543343981397800,9.798397705078125,0.28751251101493835,1.4421000480651855,0.30291250348091125
1747543343990993200,9.8079931640625,0.23251250386238098,1.393149971961975,0.282150000333786
1747543344000589000,9.817589111328125,0.2092749923467636,1.4066250324249268,0.26496249437332153
1747543344010122200,9.827122314453124,0.2190375030040741,1.4970999956130981,0.2699125111103058
1747543344019778800,9.83677880859375,0.2447499930858612,1.6326749324798584,0.2919124960899353
1747543344029374500,9.84637451171875,0.2630375027656555,1.754775047302246,0.3297249972820282
1747543344038970600,9.855970703125,0.2630375027656555,1.820775032043457,0.38472500443458557
1747543344048565800,9.865565673828126,0.24832500517368317,1.8183000087738037,0.4470124840736389
1747543344058160000,9.87516015625,0.24227499961853027,1.7279624938964844,0.49720001220703125
1747543344067755500,9.884755615234376,0.2642749845981598,1.541100025177002,0.5142499804496765
1747543344077351700,9.8943515625,0.31679999828338623,1.305287480354309,0.4959625005722046
1747543344086947000,9.903947021484376,0.3778499960899353,1.0804749727249146,0.46543750166893005
1747543344096541400,9.91354150390625,0.39861249923706055,0.9154750108718872,0.42748749256134033
1747543344106136800,9.92313671875,0.3778499960899353,0.8544250130653381,0.3749625086784363
1747543344115733000,9.93273291015625,0.3436124920845032,0.9264749884605408,0.3176249861717224
1747543344125328400,9.942328369140625,0.3106124997138977,1.1072875261306763,0.26496249437332153
1747543344134923000,9.951923095703124,0.2727999985218048,1.317525029182434,0.23319999873638153
1747543344144518100,9.96151806640625,0.23498749732971191,1.4983375072479248,0.23691250383853912
1747543344154114000,9.971114013671874,0.2055625021457672,1.637487530708313,0.29686251282691956
1747543344163709400,9.98070947265625,0.18479999899864197,1.734012484550476,0.4189625084400177
1747543344173304300,9.99030419921875,0.16046249866485596,1.7670124769210815,0.5850625038146973
1747543344182899500,9.9998994140625,0.1200374960899353,1.7437750101089478,0.7585874795913696
1747543344192495600,10.00949560546875,0.02474999986588955,1.6411999464035034,0.9345874786376953
1747543344202090800,10.0190908203125,-0.20982499420642853,1.3613874912261963,1.1886874437332153
1747543344211685600,10.028685546875,-0.5079249739646912,0.9704750180244446,1.4440250396728516
1747543344221280800,10.03828076171875,-0.6800749897956848,0.6125624775886536,1.4720749855041504
1747543344230877000,10.047876953125,-0.5517874956130981,0.3877499997615814,1.1054999828338623
1747543344240472000,10.05747216796875,-0.13282500207424164,0.30951249599456787,0.42143750190734863
1747543344250067000,10.06706689453125,0.3265624940395355,0.2447499930858612,-0.2578125
1747543344259662000,10.076662109375,0.5831375122070312,0.060362499207258224,-0.6939625144004822
1747543344269258200,10.08625830078125,0.5733749866485596,-0.24392500519752502,-0.9700624942779541
1747543344278853600,10.095853515625,0.3632749915122986,-0.4515500068664551,-1.0262999534606934
1747543344288448000,10.105447998046875,0.09075000137090683,-0.24021250009536743,-0.6549124717712402
1747543344298043100,10.115043212890624,-0.2256374955177307,0.29727500677108765,-0.029424998909235
1747543344307639600,10.1246396484375,-0.46639999747276306,0.7871875166893005,0.49472498893737793
1747543344317234700,10.134234619140624,-0.5812125205993652,1.0267125368118286,0.8196374773979187
1747543344326829300,10.143829345703125,-0.5970249772071838,1.0157124996185303,0.9748749732971191
1747543344336424700,10.1534248046875,-0.5799750089645386,0.859375,0.9663500189781189
1747543344346020600,10.1630205078125,-0.5885000228881836,0.6833750009536743,0.8233500123023987
1747543344355616000,10.172615966796876,-0.6410250067710876,0.5575624704360962,0.5863000154495239
1747543344365210400,10.18221044921875,-0.7204999923706055,0.5318499803543091,0.2858625054359436
1747543344374805800,10.1918056640625,-0.770550012588501,0.6370375156402588,-0.03671250119805336
1747543344384402000,10.20140185546875,-0.766837477684021,0.8458999991416931,-0.3152875006198883
1747543344393997300,10.210997314453126,-0.7180249691009521,1.104949951171875,-0.5058624744415283
1747543344403591700,10.220591796875,-0.6532624959945679,1.345574975013733,-0.568149983882904
1747543344413187000,10.23018701171875,-0.5860249996185303,1.520337462425232,-0.4838624894618988
1747543344422783200,10.239783203125,-0.5322625041007996,1.6143875122070312,-0.1527625024318695
1747543344432378400,10.24937841796875,-0.4419249892234802,1.637624979019165,0.3139125108718872
1747543344441973000,10.258972900390624,-0.25987499952316284,1.6191999912261963,0.6327750086784363
1747543344451568400,10.268568359375,-0.0411125011742115,1.5861999988555908,0.730537474155426
1747543344461164300,10.278164306640624,0.14451250433921814,1.5300999879837036,0.6730625033378601
1747543344470759700,10.287759765625,0.2690874934196472,1.450624942779541,0.5350124835968018
1747543344480354000,10.29735400390625,0.34485000371932983,1.3505250215530396,0.37991249561309814
1747543344489949400,10.306949462890625,0.3913249969482422,1.2258124351501465,0.2686749994754791
1747543344499545600,10.316545654296876,0.415800005197525,1.0804749727249146,0.234437495470047
1747543344509141000,10.32614111328125,0.41456249356269836,0.9229000210762024,0.2699125111103058
1747543344518735400,10.3357353515625,0.38885000348091125,0.7653250098228455,0.3493874967098236
1747543344528249900,10.345249755859374,0.3400374948978424,0.6260374784469604,0.4372499883174896
1747543344537926700,10.3549267578125,0.27527499198913574,0.509987473487854,0.5081999897956848
1747543344547522000,10.36452197265625,0.20803749561309814,0.42803749442100525,0.5522000193595886
1747543344557116700,10.37411669921875,0.14079999923706055,0.37427499890327454,0.5667750239372253
1747543344566711800,10.3837119140625,0.08346249908208847,0.34127500653266907,0.5570124983787537
1747543344576308000,10.393307861328125,0.03451250120997429,0.33646249771118164,0.5387250185012817
1747543344585903400,10.4029033203125,-0.004537499975413084,0.3559874892234802,0.5191999673843384
1747543344595498000,10.412498046875,-0.04235000163316727,0.3975124955177307,0.5057250261306763
1747543344605093000,10.422093017578124,-0.08030000329017639,0.44756248593330383,0.5044875144958496
1747543344614689300,10.431689208984375,-0.12553749978542328,0.4977499842643738,0.511775016784668
1747543344624284700,10.44128466796875,-0.17916250228881836,0.5405125021934509,0.5264874696731567
1747543344633879000,10.450879150390625,-0.23182499408721924,0.5637499690055847,0.5460125207901001
1747543344643474400,10.460474365234376,-0.2733500003814697,0.5575624704360962,0.5619624853134155
1747543344653070600,10.470070556640625,-0.2891624867916107,0.527037501335144,0.5704874992370605
1747543344662665700,10.479665771484376,-0.26592499017715454,0.4830375015735626,0.5704874992370605
1747543344672260400,10.48926025390625,-0.19139999151229858,0.4342249929904938,0.564300000667572
1747543344681855500,10.49885546875,-0.08635000139474869,0.382937490940094,0.550962507724762
1747543344691451600,10.50845166015625,0.021175000816583633,0.32298749685287476,0.5302000045776367
1747543344701047000,10.518047119140626,0.10546249896287918,0.2447499930858612,0.5081999897956848
1747543344710641400,10.527641357421874,0.1555124968290329,0.15565000474452972,0.4959625005722046
1747543344720236800,10.53723681640625,0.1812250018119812,0.07493750005960464,0.4959625005722046
1747543344729833000,10.5468330078125,0.19580000638961792,0.009074999950826168,0.5069624781608582
1747543344739428400,10.556428466796875,0.20074999332427979,-0.043449997901916504,0.5240125060081482
1747543344749022700,10.566022705078124,0.19580000638961792,-0.09116250276565552,0.5399624705314636
1747543344758618000,10.5756181640625,0.1775124967098236,-0.1363999992609024,0.5484874844551086
1747543344768214000,10.585214111328124,0.1457500010728836,-0.1779250055551529,0.5399624705314636
1747543344777809400,10.594809326171875,0.09322500228881836,-0.22068749368190765,0.5081999897956848
1747543344787404000,10.604404052734376,0.03341250121593475,-0.26826250553131104,0.4604874849319458
1747543344796999400,10.61399951171875,-0.03506249934434891,-0.318450003862381,0.40796250104904175
1747543344806595300,10.62359521484375,-0.11563749611377716,-0.37578749656677246,0.36162498593330383
1747543344816190700,10.633190673828125,-0.19634999334812164,-0.4258374869823456,0.33467498421669006
1747543344825785000,10.64278515625,-0.26840001344680786,-0.46254998445510864,0.33096250891685486
1747543344835380500,10.65238037109375,-0.3306874930858612,-0.4796000123023987,0.3419624865055084
1747543344844976600,10.6619765625,-0.3844499886035919,-0.47850000858306885,0.3529624938964844
1747543344854572000,10.671572021484375,-0.43216249346733093,-0.46254998445510864,0.34814998507499695
1747543344864166400,10.68116650390625,-0.4675000011920929,-0.4357374906539917,0.329862505197525
1747543344873761800,10.69076171875,-0.4846875071525574,-0.4002625048160553,0.3053874969482422
1747543344883357700,10.700357666015625,-0.4846875071525574,-0.3452624976634979,0.28462499380111694
1747543344892953000,10.709953125,-0.46639999747276306,-0.27445000410079956,0.2796750068664551
1747543344902547700,10.719547607421875,-0.4259749948978424,-0.19016249477863312,0.3041499853134155
1747543344912143000,10.72914306640625,-0.357637494802475,-0.09487500041723251,0.36643749475479126
1747543344921739000,10.738739013671875,-0.26592499017715454,0.0016499999910593033,0.4567750096321106
1747543344931334400,10.74833447265625,-0.16830000281333923,0.06270000338554382,0.5570124983787537
1747543344950524200,10.767524169921876,0.01251249946653843,0.012649999931454659,0.7598249912261963
1747543344960120300,10.777120361328125,0.06270000338554382,-0.08139999955892563,0.8538749814033508
1747543344969715700,10.7867158203125,0.10051249712705612,-0.196212500333786,0.9626374840736389
1747543344979310000,10.79631005859375,0.10670000314712524,-0.3086875081062317,1.0604000091552734
1747543344988905500,10.805905517578125,0.08470000326633453,-0.3965499997138977,1.1116875410079956
1747543344998501400,10.81550146484375,0.045512501150369644,-0.42473748326301575,1.1165000200271606
1747543345008097000,10.825096923828125,-0.0057749999687075615,-0.38926249742507935,1.0921624898910522
1747543345017691400,10.83469140625,-0.05953750014305115,-0.2927374839782715,1.0432125329971313
1747543345027286800,10.844286865234375,-0.10587500035762787,-0.13516250252723694,0.9662125110626221
1747543345036882700,10.853882568359374,-0.12553749978542328,0.07741250097751617,0.8551124930381775
1747543345046478000,10.86347802734375,-0.12306249886751175,0.33274999260902405,0.7085375189781189
1747543345056072400,10.873072509765626,-0.10711249709129333,0.6260374784469604,0.5300624966621399
1747543345065668000,10.882668212890625,-0.0728750005364418,0.9631875157356262,0.30662500858306885
1747543345075264000,10.892263916015626,-0.009349999949336052,1.3100999593734741,0.04386249929666519
1747543345084859400,10.901859375,0.0541750006377697,1.6057250499725342,-0.24199999868869781
1747543345094453800,10.911453857421876,0.09569999575614929,1.7682499885559082,-0.5291000008583069
1747543345104049200,10.921049072265625,0.12127500027418137,1.7426749467849731,-0.7892500162124634
1747543345113645600,10.9306455078125,0.1592250019311905,1.571624994277954,-1.014062523841858
1747543345123240700,10.94024072265625,0.22632500529289246,1.341862440109253,-1.210824966430664
1747543345132835300,10.94983544921875,0.32161250710487366,1.12681245803833,-1.3818750381469727
1747543345142430500,10.959430419921874,0.43408748507499695,0.9484750032424927,-1.5357375144958496
1747543345152026400,10.9690263671875,0.5549499988555908,0.8214250206947327,-1.6799750328063965
1747543345161621800,10.978621826171874,0.6649500131607056,0.7518500089645386,-1.826550006866455
1747543345171216400,10.98821630859375,0.7431874871253967,0.7236624956130981,-1.984125018119812
1747543345180811800,10.997811767578124,0.7761874794960022,0.7236624956130981,-2.1514625549316406
1747543345190408000,11.007407958984375,0.755424976348877,0.7188500165939331,-2.32993745803833
1747543345200003000,11.017003173828124,0.6711375117301941,0.6943749785423279,-2.519274950027466
1747543345209597400,11.026597412109375,0.5073750019073486,0.645562469959259,-2.7037999629974365
1747543345219192800,11.03619287109375,0.27156248688697815,0.509850025177002,-2.8441874980926514
1747543345228789200,11.045789306640625,-0.013062499463558197,0.2227499932050705,-2.908950090408325
1747543345238384400,11.05538427734375,-0.32945001125335693,-0.21216249465942383,-2.889425039291382
1747543345247979000,11.06497900390625,-0.6520249843597412,-0.6323624849319458,-2.8051373958587646
1747543345257574100,11.07457421875,-0.8926500082015991,-0.8131750226020813,-2.711087465286255
1747543345267170300,11.08417041015625,-0.9318374991416931,-0.6873624920845032,-2.645087480545044
1747543345276765400,11.093765380859375,-0.7717875242233276,-0.3624500036239624,-2.5876123905181885
1747543345286360300,11.1033603515625,-0.4797374904155731,0.015124999918043613,-2.5020875930786133
1747543345295955500,11.11295556640625,-0.16830000281333923,0.36079999804496765,-2.3799874782562256
1747543345305551400,11.12255126953125,0.09569999575614929,0.676087498664856,-2.232174873352051
1747543345315146800,11.132146728515625,0.28380000591278076,0.9448999762535095,-2.08917498588562
1747543345324741400,11.141741455078124,0.3937999904155731,1.1757625341415405,-1.9596500396728516
1747543345334336500,11.15133642578125,0.44385001063346863,1.3565750122070312,-1.8400249481201172
1747543345343933000,11.160932861328124,0.4633750021457672,1.4786750078201294,-1.7337374687194824
1747543345353528000,11.170528076171875,0.4683249890804291,1.4983375072479248,-1.6372125148773193
1747543345363122700,11.180122802734376,0.48785001039505005,1.4139125347137451,-1.534500002861023
1747543345372717800,11.1897177734375,0.5366625189781189,1.2698124647140503,-1.4234000444412231
1747543345382314000,11.19931396484375,0.5879499912261963,1.087762475013733,-1.3171124458312988
1747543345391909000,11.2089091796875,0.641712486743927,0.8824750185012817,-1.215637445449829
1747543345401418500,11.21841845703125,0.6967124938964844,0.7236624956130981,-1.0947749614715576
1747543345411099000,11.228098876953124,0.706475019454956,0.6235625147819519,-0.9554874897003174
1747543345420695300,11.2376953125,0.6564249992370605,0.5893250107765198,-0.8162000179290771
1747543345430290400,11.24729052734375,0.5549499988555908,0.6980875134468079,-0.6621999740600586
1747543345439885000,11.256885009765625,0.426800012588501,0.9069499969482422,-0.5291000008583069
1747543345449480200,11.266480224609374,0.2862749993801117,1.0865249633789062,-0.4703874886035919
1747543345459076400,11.276076416015625,0.17379999160766602,1.1903375387191772,-0.48262500762939453
1747543345468671700,11.285671630859374,0.11151249706745148,1.208762526512146,-0.5328124761581421
1747543345478266400,11.295266357421875,0.09322500228881836,1.1512874364852905,-0.5853375196456909
1747543345487861500,11.304861572265626,0.10903749614953995,1.009524941444397,-0.5975750088691711
1747543345497457700,11.314457763671875,0.1335124969482422,0.7811374664306641,-0.5205749869346619
1747543345507052800,11.324052734375,0.13474999368190765,0.5563250184059143,-0.33233749866485596
1747543345516647400,11.3336474609375,0.09927500039339066,0.3377000093460083,-0.042899999767541885
1747543345526242600,11.34324267578125,0.04427500069141388,0.16046249866485596,0.28338751196861267
1747543345535839000,11.3528388671875,-0.010587500408291817,0.011412499472498894,0.5790125131607056
1747543345545434400,11.362434326171876,-0.04729999974370003,-0.09239999949932098,0.813587486743927
1747543345555028700,11.37202880859375,-0.07177499681711197,-0.1266375035047531,0.9821624755859375
1747543345564624100,11.3816240234375,-0.06929999589920044,-0.08511249721050262,1.0932625532150269
1747543345574220000,11.391219970703125,-0.0448249988257885,0.01993750035762787,1.1642124652862549
1747543345583815200,11.400815185546875,0.007699999958276749,0.16046249866485596,1.198449969291687
1747543345593410000,11.41041015625,0.08470000326633453,0.34251248836517334,1.2020249366760254
1747543345603005200,11.420005126953125,0.19580000638961792,0.5990874767303467,1.1617374420166016
1747543345612601300,11.429601318359374,0.3265624940395355,0.9277125000953674,1.044450044631958
1747543345622196700,11.43919677734375,0.44866248965263367,1.2868624925613403,0.8160625100135803
1747543345631791000,11.448791015625,0.47808748483657837,1.6044875383377075,0.4787749946117401
1747543345641386500,11.458386474609375,0.41208750009536743,1.8269624710083008,0.09033749997615814
1747543345650982700,11.467982666015626,0.3460874855518341,1.895300030708313,-0.2932874858379364
1747543345660577800,11.477577880859375,0.3423750102519989,1.795199990272522,-0.5816249847412109
1747543345670172400,11.48717236328125,0.3961375057697296,1.5129125118255615,-0.7148625254631042
1747543345679767600,11.496767578125,0.47561249136924744,1.043762445449829,-0.6866750121116638
1747543345689363700,11.50636376953125,0.5330874919891357,0.44398748874664307,-0.5253875255584717
1747543345698959000,11.515958984375,0.5318499803543091,-0.20363749563694,-0.26028749346733093
1747543345708553700,11.5255537109375,0.4670875072479248,-0.8266500234603882,0.08181250095367432
1747543345718149000,11.535149169921874,0.3656125068664551,-1.2725625038146973,0.4470124840736389
1747543345727745000,11.5447451171875,0.2910875082015991,-1.2688499689102173,0.7671124935150146
1747543345737340400,11.55434033203125,0.17256249487400055,-0.8436999917030334,0.9846374988555908
1747543345746934800,11.563934814453125,-0.029012499377131462,-0.16197499632835388,1.049399971961975
1747543345756530000,11.573530029296874,-0.1658249944448471,0.7176125049591064,0.869825005531311
1747543345766126300,11.583126220703125,-0.06311249732971191,1.5666749477386475,0.4152500033378601
1747543345775721700,11.5927216796875,0.27156248688697815,1.9465874433517456,-0.10023749619722366
1747543345785316000,11.602316162109375,0.6576625108718872,1.633912444114685,-0.4020499885082245
1747543345794911500,11.611911376953126,0.8604750037193298,0.6015625,-0.23594999313354492
1747543345804507400,11.62150732421875,0.8519499897956848,-0.7778375148773193,0.29067498445510864
1747543345814102800,11.631102783203126,0.7847124934196472,-1.8577624559402466,0.8061624765396118
1747543345823697400,11.640697509765625,0.6821374893188477,-2.324437379837036,1.0053999423980713
1747543345833292800,11.650292724609375,0.5073750019073486,-2.2059125900268555,0.8953999876976013
1747543345842888700,11.659888671875,0.27403751015663147,-1.731950044631958,0.7316374778747559
1747543345852483800,11.66948388671875,0.045512501150369644,-1.0685124397277832,0.630299985408783
1747543345862078500,11.679078369140624,-0.19511249661445618,-0.45649999380111694,0.6253499984741211
1747543345871673900,11.688673828125,-0.4516874849796295,-0.18273749947547913,0.6705874800682068
1747543345881270000,11.69827001953125,-0.7570750117301941,-0.27816250920295715,0.8270624876022339
1747543345890865400,11.707865478515625,-0.9941250085830688,-0.6507874727249146,0.9724000096321106
1747543345900459800,11.717459716796874,-1.1259875297546387,-1.1540374755859375,1.04087495803833
1747543345910055200,11.72705517578125,-1.1981749534606934,-1.698949933052063,1.015162467956543
1747543345919651300,11.7366513671875,-1.2469874620437622,-2.2242000102996826,0.9369249939918518
1747543345929246700,11.746246826171875,-1.2421749830245972,-2.6250123977661133,0.8428750038146973
1747543345938841000,11.755841064453126,-1.177412509918213,-2.8033499717712402,0.7671124935150146
1747543345948436500,11.7654365234375,-1.0491249561309814,-2.747112512588501,0.7463499903678894
1747543345958032600,11.77503271484375,-0.8731250166893005,-2.5370125770568848,0.8062999844551086
1747543345967628000,11.7846279296875,-0.6910749673843384,-2.215674877166748,0.9161624908447266
1747543345977222400,11.794222412109375,-0.5359749794006348,-1.8480000495910645,1.023687481880188
1747543345986817800,11.80381787109375,-0.4345000088214874,-1.5021874904632568,1.1166374683380127
1747543345996414000,11.8134140625,-0.40521249175071716,-1.1430374383926392,1.2704999446868896
1747543346006009300,11.82300927734375,-0.4846875071525574,-0.736175000667572,1.5930750370025635
1747543346015603700,11.832603759765625,-0.631262481212616,-0.454025000333786,1.9449374675750732
1747543346025199000,11.84219921875,-0.7375500202178955,-0.39778751134872437,2.1257500648498535
1747543346034795000,11.851794921875,-0.762024998664856,-0.5565999746322632,2.0829875469207764
1747543346044390400,11.861390380859374,-0.7020750045776367,-0.8474124670028687,1.8507499694824219
1747543346053985000,11.870985107421875,-0.5689749717712402,-1.1565124988555908,1.4830750226974487
1747543346063580400,11.880580322265626,-0.3796375095844269,-1.3580875396728516,1.0506374835968018
1747543346073176300,11.89017626953125,-0.14135000109672546,-1.3629000186920166,0.6340125203132629
1747543346082771700,11.899771728515624,0.10298749804496765,-1.187037467956543,0.3139125108718872
1747543346092366300,11.909366455078125,0.28008750081062317,-0.9157499670982361,0.1648624986410141
1747543346101961700,11.918961669921876,0.3400374948978424,-0.6421250104904175,0.170912504196167
1747543346111557600,11.9285576171875,0.2910875082015991,-0.4295499920845032,0.273624986410141
1747543346121153000,11.938153076171876,0.1775124967098236,-0.3086875081062317,0.38472500443458557
1747543346130747400,11.947747314453125,0.028462499380111694,-0.279262512922287,0.4544374942779541
1747543346140342800,11.9573427734375,-0.12058749794960022,-0.32202500104904175,0.4787749946117401
1747543346149939000,11.96693896484375,-0.23416249454021454,-0.41497498750686646,0.4776749908924103
1747543346159534300,11.976534423828125,-0.29534998536109924,-0.5333625078201294,0.4739624857902527
1747543346169128700,11.986128662109374,-0.3086875081062317,-0.656837522983551,0.48743748664855957
1747543346178724000,11.99572412109375,-0.2806375026702881,-0.7691749930381775,0.5215374827384949
1747543346188320000,12.005320068359374,-0.20858749747276306,-0.8424624800682068,0.564300000667572
1747543346197915400,12.014915283203125,-0.10106249898672104,-0.863224983215332,0.594962477684021
1747543346207510000,12.024510009765624,0.01746249943971634,-0.8474124670028687,0.6022499799728394
1747543346217105200,12.034105224609375,0.11027500033378601,-0.810699999332428,0.5937250256538391
1747543346226701300,12.043701416015624,0.16046249866485596,-0.7655999660491943,0.5850625038146973
1747543346236296700,12.053296630859375,0.1652749925851822,-0.7215999960899353,0.5802500247955322
1747543346245891000,12.06289111328125,0.13846249878406525,-0.6811749935150146,0.5740625262260437
1747543346255486500,12.072486572265625,0.0919874981045723,-0.6348375082015991,0.5582500100135803
1747543346265082600,12.08208251953125,0.04427500069141388,-0.5676000118255615,0.5350124835968018
1747543346274677800,12.091677734375,-0.014299999922513962,-0.48826250433921814,0.5130124688148499
1747543346284272400,12.1012724609375,-0.07782500237226486,-0.4002625048160553,0.5081999897956848
1747543346293867800,12.11086767578125,-0.13282500207424164,-0.30373749136924744,0.5252500176429749
1747543346313059000,12.13005908203125,-0.27568748593330383,-0.19868749380111694,0.5497249960899353
1747543346322653700,12.13965380859375,-0.35144999623298645,-0.17173749208450317,0.5167250037193298
1747543346332249000,12.1492490234375,-0.4296875,-0.17173749208450317,0.45801249146461487
1747543346341845000,12.158844970703125,-0.4651624858379364,-0.16197499632835388,0.40191251039505005
1747543346351440400,12.1684404296875,-0.4736874997615814,-0.13021250069141388,0.3713875114917755
1747543346361034800,12.17803466796875,-0.46021249890327454,-0.07644999772310257,0.38596248626708984
1747543346370630100,12.187630126953126,-0.3918749988079071,0.02488750033080578,0.45196250081062317
1747543346380226300,12.197226318359375,-0.24639999866485596,0.15812499821186066,0.5460125207901001
1747543346389821700,12.20682177734375,-0.0705375000834465,0.3082749843597412,0.6254875063896179
1747543346399416000,12.216416015625,0.07851249724626541,0.40603750944137573,0.6755374670028687
1747543346409011500,12.226011474609376,0.1933249980211258,0.4427500069141388,0.7182999849319458
1747543346418607600,12.235607666015625,0.2630375027656555,0.41827499866485596,0.7671124935150146
1747543346428202800,12.24520263671875,0.29961249232292175,0.3497999906539917,0.8380625247955322
1747543346437797400,12.25479736328125,0.29961249232292175,0.24351249635219574,0.9125875234603882
1747543346447392800,12.264392822265625,0.25203749537467957,0.10312499850988388,0.9711624979972839
1747543346456988700,12.27398876953125,0.17503750324249268,-0.03739999979734421,1.0224499702453613
1747543346466584000,12.283583984375,0.09569999575614929,-0.16692499816417694,1.0616375207901
