time,seconds_elapsed,z,y,x
1749919946152346000,0.09034619140625,0.010999999940395355,0.033275000751018524,-0.2689499855041504
1749919946162359600,0.100359619140625,0.040837500244379044,0.042899999767541885,-0.24667499959468842
1749919946172373000,0.110373046875,0.06861250102519989,0.048262499272823334,-0.2040500044822693
1749919946182386200,0.12038623046875,0.07177499681711197,0.007837500423192978,-0.16885000467300415
1749919946192399400,0.1303994140625,0.06324999779462814,-0.02736249938607216,-0.13695000112056732
1749919946202412500,0.14041259765625,0.05362499877810478,-0.09446249902248383,-0.11879999935626984
1749919946212425700,0.15042578125,0.03657500073313713,-0.1264999955892563,-0.11137499660253525
1749919946222439200,0.160439208984375,0.016362499445676804,-0.13708749413490295,-0.11879999935626984
1749919946232452600,0.17045263671875,-0.009212499484419823,-0.11893749982118607,-0.14327499270439148
1749919946242465800,0.1804658203125,-0.05073750019073486,-0.06998749822378159,-0.19126249849796295
1749919946252479000,0.19047900390625,-0.09226249903440475,-0.02419999986886978,-0.26372501254081726
1749919946262492400,0.200492431640625,-0.09226249903440475,-0.01347499992698431,-0.32120001316070557
1749919946272505900,0.210505859375,-0.05719999969005585,0.029012499377131462,-0.3382500112056732
1749919946282519000,0.22051904296875,-0.025162499397993088,0.10683749616146088,-0.30951249599456787
1749919946292532500,0.230532470703125,-0.04647500067949295,0.2069374918937683,-0.22316250205039978
1749919946302545700,0.240545654296875,-0.05389999970793724,0.31776249408721924,-0.10064999759197235
1749919946312558800,0.250558837890625,-0.028324998915195465,0.4371125102043152,0.03987500071525574
1749919946322572300,0.260572265625,0.015262499451637268,0.5414749979972839,0.1751749962568283
1749919946332585700,0.270585693359375,0.06435000151395798,0.6276875138282776,0.2689499855041504
1749919946342599000,0.280598876953125,0.09844999760389328,0.6949250102043152,0.3147374987602234
1749919946352612400,0.2906123046875,0.10587500035762787,0.7587249875068665,0.3030500113964081
1749919946362625800,0.300625732421875,0.11550000309944153,0.8131750226020813,0.22948749363422394
1749919946372639000,0.310638916015625,0.15166249871253967,0.8258249759674072,0.11550000309944153
1749919946382652200,0.320652099609375,0.2176624983549118,0.7651875019073486,-0.006874999962747097
1749919946392665600,0.33066552734375,0.3221625089645386,0.6415749788284302,-0.11453749984502792
1749919946402679000,0.340678955078125,0.3807374835014343,0.4423374831676483,-0.2157374918460846
1749919946412692200,0.350692138671875,0.40094998478889465,0.19841249287128448,-0.3030500113964081
1749919946422705400,0.360705322265625,0.41690000891685486,-0.02956249937415123,-0.3669874966144562
1749919946432718800,0.37071875,0.43078750371932983,-0.23512500524520874,-0.39476248621940613
1749919946442732300,0.380732177734375,0.41263750195503235,-0.39806249737739563,-0.41071251034736633
1749919946452745500,0.390745361328125,0.3433375060558319,-0.5120499730110168,-0.4244624972343445
1749919946462758700,0.400758544921875,0.28049999475479126,-0.5685625076293945,-0.43092501163482666
1749919946472772000,0.410772216796875,0.2624875009059906,-0.5739250183105469,-0.4320249855518341
1749919946482785500,0.42078564453125,0.27527499198913574,-0.5802500247955322,-0.4372499883174896
1749919946492798700,0.430798828125,0.2997500002384186,-0.5515124797821045,-0.45649999380111694
1749919946502812200,0.440812255859375,0.3221625089645386,-0.510949969291687,-0.44577500224113464
1749919946512825300,0.450825439453125,0.3221625089645386,-0.5429875254631042,-0.39998748898506165
1749919946522838800,0.4608388671875,0.27623748779296875,-0.5461499691009521,-0.3371500074863434
1749919946532852200,0.470852294921875,0.2176624983549118,-0.4343625009059906,-0.23704999685287476
1749919946542865400,0.480865478515625,0.17407499253749847,-0.19030000269412994,-0.11343749612569809
1749919946552878600,0.490878662109375,0.142037495970726,0.16431249678134918,0.01759999990463257
1749919946562891800,0.500891845703125,0.14093749225139618,0.5883625149726868,0.14533749222755432
1749919946572905500,0.510905517578125,0.17723749577999115,1.0005874633789062,0.27857500314712524
1749919946582918700,0.520918701171875,0.23691250383853912,1.239150047302246,0.39256250858306885
1749919946592931800,0.530931884765625,0.23045000433921814,0.5446375012397766,0.2433750033378601
1749919946602945300,0.5409453125,0.23897500336170197,0.34869998693466187,0.10807500034570694
1749919946612958700,0.550958740234375,0.2326499968767166,0.1676124930381775,0.10381250083446503
1749919946622972000,0.560971923828125,0.18782499432563782,0.16005000472068787,0.04633750021457672
1749919946632985300,0.5709853515625,0.08139999955892563,0.4797374904155731,-0.026124998927116394
1749919946642998500,0.58099853515625,-0.06668750196695328,0.9345874786376953,-0.07411249727010727
1749919946653012000,0.591011962890625,-0.17861250042915344,1.5236375331878662,-0.12196250259876251
1749919946663025400,0.601025390625,-0.18603749573230743,2.097837448120117,-0.2700499892234802
1749919946673038600,0.61103857421875,-0.14024999737739563,2.115987539291382,-0.5810750126838684
1749919946683052000,0.621052001953125,-0.20514999330043793,1.1156749725341797,-1.0327625274658203
1749919946693065200,0.631065185546875,-0.38733750581741333,-0.20212499797344208,-1.517449975013733
1749919946703078700,0.64107861328125,-0.5961999893188477,-0.952049970626831,-1.8423625230789185
1749919946713091800,0.651091796875,-0.7154124975204468,-1.0799249410629272,-1.817887544631958
1749919946723105300,0.661105224609375,-0.6536750197410583,-0.8945749998092651,-1.4099249839782715
1749919946733118700,0.67111865234375,-0.4310624897480011,-0.6740249991416931,-0.7473124861717224
1749919946743132000,0.6811318359375,-0.07837499678134918,-0.40232500433921814,-0.015399999916553497
1749919946753145300,0.691145263671875,0.23897500336170197,-0.07218749821186066,0.6098124980926514
1749919946773172000,0.711171875,0.5319874882698059,0.5883625149726868,1.1658624410629272
1749919946783185400,0.721185302734375,0.6107749938964844,0.8982874751091003,1.1638000011444092
1749919946793198800,0.73119873046875,0.67044997215271,1.1316249370574951,1.0774500370025635
1749919946803212000,0.7412119140625,0.6971250176429749,1.229662537574768,0.9634624719619751
1749919946813225500,0.7512255859375,0.6832374930381775,1.1933624744415283,0.8101499676704407
1749919946823238700,0.76123876953125,0.6215000152587891,1.0528374910354614,0.6109125018119812
1749919946833251800,0.771251953125,0.5138375163078308,0.8248624801635742,0.38403749465942383
1749919946843265500,0.781265625,0.3881624937057495,0.5776374936103821,0.19126249849796295
1749919946853278700,0.79127880859375,0.2901250123977661,0.29218751192092896,0.08249999582767487
1749919946863292200,0.801292236328125,0.25066250562667847,-0.07218749821186066,0.043175000697374344
1749919946873305300,0.811305419921875,0.27197501063346863,-0.48867499828338623,0.03244999796152115
1749919946883318800,0.82131884765625,0.31459999084472656,-0.7613375186920166,0.03891250118613243
1749919946893332200,0.831332275390625,0.3231250047683716,-0.9040625095367432,0.04839999973773956
1749919946903345400,0.841345458984375,0.2997500002384186,-1.1459250450134277,0.06544999778270721
1749919946913358600,0.851358642578125,0.3125374913215637,-1.5060374736785889,0.05169999971985817
1749919946923372000,0.8613720703125,0.37853750586509705,-1.8767374753952026,-0.02928750030696392
1749919946933385500,0.871385498046875,0.4254249930381775,-1.9438375234603882,-0.09006249904632568
1749919946943398700,0.881398681640625,0.36465001106262207,-1.5368374586105347,-0.09212499856948853
1749919946953412000,0.891412109375,0.2124374955892563,-0.859375,-0.06338749825954437
1749919946963425500,0.901425537109375,0.05252499878406525,-0.21271249651908875,-0.028187500312924385
1749919946973439000,0.91143896484375,-0.05073750019073486,0.18782499432563782,0.015399999916553497
1749919946983452200,0.9214521484375,-0.10188750177621841,0.3998500108718872,0.04097500070929527
1749919946993465300,0.93146533203125,-0.1274625062942505,0.5392749905586243,0.022824998944997787
1749919947003478800,0.941478759765625,-0.13488750159740448,0.6309875249862671,-0.04207500070333481
1749919947013492200,0.9514921875,-0.14024999737739563,0.48399999737739563,-0.13901250064373016
1749919947023505700,0.961505615234375,-0.15729999542236328,0.1036750003695488,-0.25616249442100525
1749919947033518800,0.971518798828125,-0.18067499995231628,0.34759998321533203,-0.36492499709129333
1749919947043532000,0.981531982421875,-0.20418749749660492,0.47437500953674316,-0.2998875081539154
1749919947053545700,0.991545654296875,-0.1317249983549118,0.4189625084400177,-0.17201249301433563
1749919947063559000,1.001558837890625,-0.03478749841451645,0.6267250180244446,-0.07617499679327011
1749919947073572000,1.011572021484375,0.043037500232458115,0.8226624727249146,0.0037124999798834324
1749919947083585500,1.02158544921875,0.13255000114440918,0.8706499934196472,0.050599999725818634
1749919947093599000,1.031598876953125,0.22192500531673431,0.9058499932289124,0.023924998939037323
1749919947103612400,1.0416123046875,0.2634499967098236,0.9451749920845032,-0.05596249923110008
1749919947113625600,1.05162548828125,0.2517625093460083,0.946274995803833,-0.15826250612735748
1749919947123639000,1.06163916015625,0.19112500548362732,0.9249625205993652,-0.23058749735355377
1749919947133652500,1.071652587890625,0.13255000114440918,0.853600025177002,-0.24763749539852142
1749919947143665700,1.081665771484375,0.08566249907016754,0.679937481880188,-0.24667499959468842
1749919947153679000,1.09167919921875,0.035612501204013824,0.4008125066757202,-0.2540999948978424
1749919947163692500,1.101692626953125,-0.028324998915195465,0.2176624983549118,-0.2913624942302704
1749919947173705700,1.111705810546875,-0.11357499659061432,0.12815000116825104,-0.3531000018119812
1749919947183719200,1.12171923828125,-0.1891999989748001,0.06641250103712082,-0.4064500033855438
1749919947193732600,1.131732666015625,-0.2232999950647354,0.025849999859929085,-0.43834999203681946
1749919947203746000,1.14174609375,-0.2190375030040741,-0.045512501150369644,-0.46392500400543213
1749919947213759200,1.15175927734375,-0.1775124967098236,-0.20102499425411224,-0.5224999785423279
1749919947223772700,1.161772705078125,-0.12319999933242798,-0.4641999900341034,-0.6099500060081482
1749919947233786000,1.1717861328125,-0.13598750531673431,-0.7325999736785889,-0.640749990940094
1749919947243799300,1.18179931640625,-0.19456249475479126,-0.8241750001907349,-0.6173750162124634
1749919947253812500,1.1918125,-0.29356250166893005,-0.7048249840736389,-0.5341874957084656
1749919947263826000,1.201825927734375,-0.3830749988555908,-0.5398250222206116,-0.40851250290870667
1749919947273839400,1.21183935546875,-0.4384874999523163,-0.5972999930381775,-0.3063499927520752
1749919947283852800,1.221852783203125,-0.48743748664855957,-0.9477875232696533,-0.29782500863075256
1749919947293866000,1.231865966796875,-0.5620999932289124,-1.1299749612808228,-0.3564000129699707
1749919947303879400,1.24187939453125,-0.6547750234603882,-1.0393625497817993,-0.38087499141693115
1749919947313892900,1.251892822265625,-0.7623000144958496,-0.6047250032424927,-0.31693750619888306
1749919947323906000,1.261906005859375,-0.8677625060081482,0.04179999977350235,-0.2040500044822693
1749919947333919500,1.27191943359375,-0.9168499708175659,0.4647499918937683,-0.10807500034570694
1749919947343933000,1.281932861328125,-0.926337480545044,0.5105375051498413,-0.035750001668930054
1749919947353946000,1.291946044921875,-0.9722625017166138,0.3922874927520752,0.11233749985694885
1749919947363959600,1.30195947265625,-1.0073250532150269,0.3987500071525574,0.30621248483657837
1749919947373972700,1.31197265625,-0.9754250049591064,0.550000011920929,0.45003750920295715
1749919947383986200,1.321986083984375,-0.9103875160217285,0.7353500127792358,0.4787749946117401
1749919947393999600,1.33199951171875,-0.8369625210762024,0.7396125197410583,0.39682498574256897
1749919947404012800,1.3420126953125,-0.7517125010490417,0.6171000003814697,0.21353749930858612
1749919947414026200,1.352026123046875,-0.656837522983551,0.5383124947547913,-0.02502499893307686
1749919947424039700,1.362039794921875,-0.57378751039505,0.5511000156402588,-0.2391124963760376
1749919947434053000,1.37205322265625,-0.5376250147819519,0.754462480545044,-0.38830000162124634
1749919947444066300,1.38206640625,-0.5002250075340271,1.0240999460220337,-0.47561249136924744
1749919947454079700,1.392079833984375,-0.3170749843120575,0.9451749920845032,-0.6140750050544739
1749919947464093000,1.402093017578125,-0.23828749358654022,0.6980875134468079,-0.7578999996185303
1749919947474106400,1.4121064453125,-0.2765125036239624,0.6000499725341797,-0.9102500081062317
1749919947484119800,1.422119873046875,-0.33838748931884766,0.6745749711990356,-1.03496253490448
1749919947494133200,1.43213330078125,-0.4171749949455261,0.8035500049591064,-1.0168124437332153
1749919947504146700,1.442146728515625,-0.527999997138977,0.7683500051498413,-0.8357250094413757
1749919947514159900,1.452159912109375,-0.6909375190734863,0.6159999966621399,-0.5790125131607056
1749919947524173000,1.462173095703125,-0.7975000143051147,0.5468375086784363,-0.34677499532699585
1749919947534186500,1.4721865234375,-0.8028625249862671,0.370012491941452,-0.14217500388622284
1749919947544200000,1.482199951171875,-0.7442874908447266,0.07809999585151672,-0.0005499999970197678
1749919947554213400,1.49221337890625,-0.7005624771118164,-0.17861250042915344,0.06764999777078629
1749919947564226600,1.5022265625,-0.7016624808311462,-0.31075000762939453,0.08043749630451202
1749919947574240000,1.512239990234375,-0.7420874834060669,-0.42899999022483826,0.04839999973773956
1749919947584253400,1.52225341796875,-0.8305000066757202,-0.7581750154495239,-0.0005499999970197678
1749919947594266600,1.5322666015625,-0.9092875123023987,-0.9200124740600586,-0.015399999916553497
1749919947604280000,1.542280029296875,-0.8848124742507935,-0.7507500052452087,0.07301250100135803
1749919947614293200,1.552293212890625,-0.7389249801635742,-0.44288748502731323,0.18906250596046448
1749919947624307000,1.562306884765625,-0.5087500214576721,-0.39489999413490295,0.30195000767707825
1749919947634320100,1.572320068359375,-0.2670249938964844,-0.21697500348091125,0.359562486410141
1749919947644333300,1.582333251953125,-0.014574999921023846,0.23045000433921814,0.3488374948501587
1749919947654346800,1.5923466796875,0.2167000025510788,0.4115374982357025,0.2870999872684479
1749919947664360200,1.602360107421875,0.3242250084877014,0.29534998536109924,0.14327499270439148
1749919947674373600,1.61237353515625,0.3242250084877014,0.02474999986588955,-0.09748750180006027
1749919947684386800,1.62238671875,0.24543750286102295,-0.24681249260902405,-0.345674991607666
1749919947694400300,1.632400146484375,0.13887499272823334,-0.5046250224113464,-0.5332249999046326
1749919947704413700,1.64241357421875,-0.002749999985098839,-0.6291999816894531,-0.6450124979019165
1749919947714427000,1.652427001953125,-0.15619999170303345,-0.6186124682426453,-0.7078499794006348
1749919947724440300,1.6624404296875,-0.2690874934196472,-0.5313000082969666,-0.6822749972343445
1749919947734453800,1.672453857421875,-0.28613749146461487,-0.15523749589920044,-0.427762508392334
1749919947744467200,1.68246728515625,-0.2232999950647354,0.49348750710487366,0.06544999778270721
1749919947754480400,1.69248046875,-0.10078749805688858,1.2711875438690186,0.6663249731063843
1749919947764493800,1.702493896484375,0.09418749809265137,1.829437494277954,1.1829124689102173
1749919947774507300,1.71250732421875,0.3156999945640564,1.8826500177383423,1.4449875354766846
1749919947784520400,1.7225205078125,0.4361499845981598,1.7419874668121338,1.3437875509262085
1749919947794534000,1.732533935546875,0.4265249967575073,1.3957624435424805,0.9634624719619751
1749919947804547300,1.74254736328125,0.2890250086784363,0.7374125123023987,0.4361499845981598
1749919947814560800,1.752560791015625,0.11646249890327454,0.09941250085830688,-0.10284999758005142
1749919947824574000,1.762573974609375,-0.006049999967217445,-0.3320625126361847,-0.46502500772476196
1749919947834587400,1.77258740234375,-0.03684999793767929,-0.5950999855995178,-0.5651249885559082
1749919947844600800,1.782600830078125,-0.014574999921023846,-0.7303999662399292,-0.4437125027179718
1749919947854614300,1.7926142578125,-0.002749999985098839,-0.7422249913215637,-0.21779999136924744
1749919947864627500,1.80262744140625,-0.006049999967217445,-0.6271374821662903,0.01223750039935112
1749919947874640600,1.812640625,0.016362499445676804,-0.5237374901771545,0.2157374918460846
1749919947884654300,1.822654296875,0.0919874981045723,-0.3885749876499176,0.35530000925064087
1749919947894667500,1.83266748046875,0.17297500371932983,-0.20212499797344208,0.4692874848842621
1749919947904681000,1.842680908203125,0.2241249978542328,0.004537499975413084,0.5438125133514404
1749919947914694400,1.8526943359375,0.23691250383853912,0.22398750483989716,0.5512375235557556
1749919947924707600,1.86270751953125,0.18576249480247498,0.444537490606308,0.4926624894142151
1749919947934721000,1.872720947265625,0.07809999585151672,0.6628875136375427,0.3712500035762787
1749919947944734500,1.882734375,0.05678749829530716,0.8450750112533569,0.21463750302791595
1749919947954748000,1.892747802734375,0.016362499445676804,0.8791750073432922,0.03464999794960022
1749919947964761000,1.902760986328125,-0.0976250022649765,0.8738124966621399,-0.11879999935626984
1749919947974774800,1.91277490234375,-0.2690874934196472,0.8205999732017517,-0.15496249496936798
1749919947984788000,1.9227880859375,-0.39160001277923584,0.6745749711990356,-0.08689999580383301
1749919947994801200,1.93280126953125,-0.33838748931884766,0.5733749866485596,0.0644875019788742
1749919948004814800,1.94281494140625,-0.12526249885559082,0.595787525177002,0.3232625126838684
1749919948014828000,1.952828125,0.10793749988079071,0.7066124677658081,0.4692874848842621
1749919948024841500,1.962841552734375,0.10477499663829803,0.8428750038146973,0.40424999594688416
1749919948034854700,1.972854736328125,-0.13805000483989716,0.9025499820709229,0.17627499997615814
1749919948044868400,1.982868408203125,-0.42143750190734863,0.9281250238418579,-0.06984999775886536
1749919948054881500,1.992881591796875,-0.5801125168800354,0.9101125001907349,-0.13901250064373016
1749919948064895000,2.00289501953125,-0.5215374827384949,0.7353500127792358,-0.037812501192092896
1749919948074908200,2.012908203125,-0.35007500648498535,0.5159000158309937,0.07301250100135803
1749919948084921600,2.022921630859375,-0.20418749749660492,0.2858625054359436,0.12306249886751175
1749919948094935000,2.03293505859375,-0.11783749610185623,0.0056374999694526196,0.04839999973773956
1749919948104948200,2.0429482421875,-0.07204999774694443,-0.24901250004768372,-0.09116250276565552
1749919948114961400,2.05296142578125,0.0004124999977648258,-0.44068750739097595,-0.23594999313354492
1749919948124974800,2.062974853515625,0.12718750536441803,-0.5504124760627747,-0.359562486410141
1749919948134988300,2.07298828125,0.23375000059604645,-0.5131499767303467,-0.4329875111579895
1749919948145001700,2.083001708984375,0.23375000059604645,-0.4545750021934509,-0.4969249963760376
1749919948155015000,2.093014892578125,0.18039999902248383,-0.46309998631477356,-0.5523374676704407
1749919948165028400,2.1030283203125,0.13461250066757202,-0.5696625113487244,-0.5512375235557556
1749919948175041800,2.113041748046875,0.1069749966263771,-0.6899750232696533,-0.5128750205039978
1749919948185055000,2.123054931640625,0.06531249731779099,-0.8273375034332275,-0.4096125066280365
1749919948195068700,2.133068603515625,0.05898749828338623,-0.9509499669075012,-0.3180375099182129
1749919948205082000,2.14308203125,0.03451250120997429,-1.024512529373169,-0.27857500314712524
1749919948215095300,2.15309521484375,-0.016637500375509262,-1.042525053024292,-0.2807750105857849
1749919948225108500,2.1631083984375,-0.07947500050067902,-0.9637374877929688,-0.3180375099182129
1749919948235122000,2.173121826171875,-0.13062499463558197,-0.7666999697685242,-0.368087500333786
1749919948245135400,2.18313525390625,-0.1775124967098236,-0.510949969291687,-0.4351874887943268
1749919948255148500,2.1931484375,-0.2340250015258789,-0.21917499601840973,-0.5341874957084656
1749919948265162000,2.203161865234375,-0.24351249635219574,0.1153625026345253,-0.6151750087738037
1749919948275175400,2.213175537109375,-0.2755500078201294,0.42528748512268066,-0.6364874839782715
1749919948285188900,2.22318896484375,-0.367125004529953,0.7204999923706055,-0.6099500060081482
1749919948295202000,2.2332021484375,-0.4725874960422516,1.1369874477386475,-0.5821750164031982
1749919948305215700,2.2432158203125,-0.6610999703407288,1.8144500255584717,-0.5449125170707703
1749919948315229200,2.253229248046875,-0.8720250129699707,2.3812248706817627,-0.47244998812675476
1749919948325241300,2.263241455078125,-1.042525053024292,2.814762592315674,-0.36162498593330383
1749919948335254800,2.2732548828125,-1.1565124988555908,3.268512487411499,-0.1742125004529953
1749919948345269000,2.28326904296875,-1.2588125467300415,3.8373498916625977,0.18273749947547913
1749919948355282400,2.293282470703125,-1.3248125314712524,4.4669623374938965,0.7578999996185303
1749919948365295900,2.3032958984375,-1.3140875101089478,5.1136250495910645,1.4003000259399414
1749919948375309300,2.313309326171875,-1.3557499647140503,5.667474746704102,1.8892500400543213
1749919948385322500,2.323322509765625,-1.559112548828125,5.93491268157959,2.137437582015991
1749919948395336000,2.3333359375,-1.9160624742507935,5.819825172424316,2.214162588119507
1749919948405349400,2.343349365234375,-2.309037446975708,5.349024772644043,2.22475004196167
1749919948415362800,2.35336279296875,-2.5605249404907227,4.797237396240234,2.2013750076293945
1749919948425376000,2.3633759765625,-2.5434749126434326,4.393400192260742,2.1289124488830566
1749919948445402600,2.383402587890625,-2.2825000286102295,3.949275016784668,2.1405999660491943
1749919948455416000,2.393416015625,-2.514737367630005,3.489062547683716,2.5273873805999756
1749919948465429200,2.40342919921875,-2.766087532043457,3.055525064468384,2.7222249507904053
1749919948475442700,2.413442626953125,-2.914175033569336,2.710400104522705,2.7424376010894775
1749919948485456100,2.4234560546875,-3.1219375133514404,2.2618749141693115,2.677537441253662
1749919948495469600,2.433469482421875,-3.3903374671936035,1.8539124727249146,2.6178624629974365
1749919948505482800,2.443482666015625,-3.6459500789642334,1.547012448310852,2.5933876037597656
1749919948515496200,2.45349609375,-3.79830002784729,1.313812494277954,2.6030125617980957
1749919948525509600,2.463509521484375,-3.8420250415802,1.230625033378601,2.650862455368042
1749919948545536300,2.483536376953125,-3.7109875679016113,1.4331624507904053,2.6690125465393066
1749919948555549700,2.4935498046875,-3.5853123664855957,1.4256000518798828,2.5496625900268555
1749919948565563000,2.50356298828125,-3.223137378692627,1.1891000270843506,2.3568875789642334
1749919948575576300,2.513576416015625,-2.5477375984191895,0.7077124714851379,2.000075101852417
1749919948585589800,2.52358984375,-1.7551875114440918,0.0695749968290329,1.4481500387191772
1749919948595603000,2.53360302734375,-0.9711624979972839,-0.5322625041007996,0.73232501745224
1749919948605616400,2.543616455078125,-0.32339999079704285,-1.0106250047683716,0.002612499985843897
1749919948615629800,2.5536298828125,0.11219999939203262,-1.385587453842163,-0.6674249768257141
1749919948625643000,2.56364306640625,0.3722124993801117,-1.8798999786376953,-1.1830500364303589
1749919948635656400,2.573656494140625,0.5511000156402588,-2.4615249633789062,-1.5569125413894653
1749919948645670000,2.583669921875,0.596887469291687,-2.7842373847961426,-1.8253124952316284
1749919948655683300,2.593683349609375,0.5160375237464905,-2.8279623985290527,-1.984125018119812
1749919948665696500,2.603696533203125,0.4115374982357025,-2.7373499870300293,-1.9808249473571777
1749919948675710000,2.6137099609375,0.3679499924182892,-2.5434749126434326,-1.817887544631958
1749919948685723400,2.623723388671875,0.43078750371932983,-2.397587537765503,-1.6112250089645386
1749919948695736800,2.63373681640625,0.6832374930381775,-2.263387441635132,-1.4013999700546265
1749919948705750000,2.64375,0.9729499816894531,-1.8713749647140503,-1.2979999780654907
1749919948715763500,2.653763427734375,1.2244374752044678,-1.3898500204086304,-1.2649999856948853
1749919948725777000,2.66377685546875,1.4661624431610107,-1.0510499477386475,-1.2223750352859497
1749919948735790000,2.6737900390625,1.6867125034332275,-0.8529124855995178,-1.2043625116348267
1749919948745803500,2.683803466796875,1.895437479019165,-0.7805874943733215,-1.2383249998092651
1749919948765830400,2.703830322265625,2.1788249015808105,-1.0106250047683716,-1.4077249765396118
1749919948775843600,2.713843505859375,2.2577500343322754,-1.3557499647140503,-1.5046625137329102
1749919948785857000,2.72385693359375,2.369537591934204,-1.940537452697754,-1.6069624423980713
1749919948795870500,2.733870361328125,2.5059375762939453,-2.675612449645996,-1.734837532043457
1749919948805883600,2.743883544921875,2.5750999450683594,-3.376587390899658,-1.8775625228881836
1749919948815897000,2.75389697265625,2.637937545776367,-3.9294750690460205,-1.9361374378204346
1749919948825910300,2.76391015625,2.6848249435424805,-4.11688756942749,-1.9489250183105469
1749919948835923700,2.773923828125,2.6922500133514404,-4.135037422180176,-1.8999749422073364
1749919948845937200,2.783937255859375,2.702975034713745,-4.132975101470947,-1.7550499439239502
1749919948855950600,2.79395068359375,2.7189249992370605,-4.135037422180176,-1.5313374996185303
1749919948865964000,2.803964111328125,2.7093000411987305,-4.144662380218506,-1.2586749792099
1749919948875977200,2.813977294921875,2.6475625038146973,-4.297975063323975,-1.0168124437332153
1749919948885990700,2.82399072265625,2.513362407684326,-4.44290018081665,-0.8590999841690063
1749919948896004000,2.834004150390625,2.3024375438690186,-4.437537670135498,-0.7760499715805054
1749919948906017500,2.844017578125,2.0585124492645264,-4.288487434387207,-0.7089499831199646
1749919948916030700,2.85403076171875,1.8368624448776245,-4.055150032043457,-0.6216375231742859
1749919948926044000,2.8640439453125,1.670762538909912,-3.763237476348877,-0.4735499918460846
1749919948936057300,2.874057373046875,1.5780874490737915,-3.332862377166748,-0.1859000027179718
1749919948946070800,2.88407080078125,1.5195125341415405,-2.8257625102996826,0.20184999704360962
1749919948956084200,2.894084228515625,1.4650624990463257,-2.2772750854492188,0.5927624702453613
1749919948966097700,2.90409765625,1.3894374370574951,-1.733875036239624,0.8729875087738037
1749919948976110800,2.91411083984375,1.221137523651123,-1.210824966430664,0.9933000206947327
1749919948986124300,2.924124267578125,0.9686874747276306,-0.7198125123977661,0.97308748960495
1749919948996137500,2.934137451171875,0.7321875095367432,-0.29686251282691956,0.8878374695777893
1749919949006151000,2.94415087890625,0.5607249736785889,0.13667500019073486,0.8516749739646912
1749919949016164400,2.954164306640625,0.3540624976158142,0.6330500245094299,0.8559374809265137
1749919949026177800,2.964177734375,0.10903749614953995,1.1635249853134155,0.870787501335144
1749919949036191000,2.97419091796875,-0.12636250257492065,1.7004624605178833,0.8846749663352966
1749919949046204200,2.9842041015625,-0.3745499849319458,2.280025005340576,0.9411875009536743
1749919949056217600,2.994217529296875,-0.6516125202178955,2.9435999393463135,1.1083874702453613
1749919949066231000,3.00423095703125,-0.8634999990463257,3.589162588119507,1.3886125087738037
1749919949076244500,3.014244384765625,-1.0564124584197998,4.112212657928467,1.6911125183105469
1749919949086257700,3.024257568359375,-1.3088624477386475,4.493637561798096,1.8392000198364258
1749919949096271000,3.03427099609375,-1.6401000022888184,4.936800003051758,1.9009374380111694
1749919949106284500,3.044284423828125,-2.0587875843048096,5.246725082397461,1.9009374380111694
1749919949116297700,3.054297607421875,-2.5690500736236572,5.405399799346924,1.8316375017166138
1749919949126311200,3.064311279296875,-3.137887477874756,5.527912616729736,1.817887544631958
1749919949136324600,3.07432470703125,-3.7141499519348145,5.604637622833252,2.02028751373291
1749919949146338000,3.084338134765625,-4.2052998542785645,5.5983123779296875,2.406937599182129
1749919949156351200,3.094351318359375,-4.599374771118164,5.5577497482299805,2.874574899673462
1749919949166364400,3.104364501953125,-4.922224998474121,5.43853759765625,3.329425096511841
1749919949176377900,3.1143779296875,-5.169312477111816,5.10290002822876,3.7119500637054443
1749919949186391300,3.124391357421875,-5.3099751472473145,4.511650085449219,3.999462366104126
1749919949196404700,3.13440478515625,-5.364287376403809,3.6627249717712402,4.159237384796143
1749919949206418200,3.144418212890625,-5.328125,2.674099922180176,4.189074993133545
1749919949216431600,3.154431640625,-5.210837364196777,1.654675006866455,4.007024765014648
1749919949226444800,3.16444482421875,-5.006374835968018,0.8067125082015991,3.648012399673462
1749919949236458200,3.174458251953125,-4.688887596130371,0.22082500159740448,3.23152494430542
1749919949246471700,3.1844716796875,-4.249987602233887,-0.17338749766349792,2.823425054550171
1749919949256484900,3.19448486328125,-3.78344988822937,-0.3139125108718872,2.495349884033203
1749919949266498300,3.204498291015625,-3.3445498943328857,-0.27665001153945923,2.3249874114990234
1749919949276511700,3.21451171875,-2.9493749141693115,-0.18287499248981476,2.2695748805999756
1749919949286525200,3.224525146484375,-2.622262477874756,-0.06572499871253967,2.331312417984009
1749919949296538400,3.234538330078125,-2.3506999015808105,-0.05087500065565109,2.5113000869750977
1749919949306551600,3.244551513671875,-2.0801000595092773,-0.11797499656677246,2.6039750576019287
1749919949316565200,3.254565185546875,-1.8254499435424805,0.04936249926686287,2.331312417984009
1749919949326578400,3.264578369140625,-1.0744249820709229,1.821874976158142,0.612012505531311
1749919949336592000,3.274591796875,-0.27761250734329224,3.1917874813079834,-1.5472874641418457
1749919949346605300,3.284605224609375,-0.20418749749660492,2.7955124378204346,-2.454925060272217
1749919949356618800,3.29461865234375,-0.7665625214576721,2.0381624698638916,-2.4569873809814453
1749919949366632000,3.3046318359375,-1.5570499897003174,1.4309624433517456,-1.9765625
1749919949376645400,3.314645263671875,-1.7370375394821167,1.2456125020980835,-1.2340625524520874
1749919949386658800,3.324658935546875,-1.6411999464035034,1.496962547302246,-0.5704874992370605
1749919949406685400,3.344685546875,-1.8106000423431396,2.0381624698638916,0.45649999380111694
1749919949416699000,3.354698974609375,-1.9170249700546265,2.109524965286255,0.8058875203132629
1749919949426712000,3.364712158203125,-1.9298124313354492,2.023312568664551,0.9667624831199646
1749919949436725500,3.3747255859375,-1.8776999711990356,1.7910749912261963,1.001824975013733
1749919949446738700,3.38473876953125,-1.7402000427246094,1.4096499681472778,0.8409500122070312
1749919949456752000,3.394752197265625,-1.7487249374389648,1.1347874402999878,0.23704999685287476
1749919949466765600,3.404765625,-1.451587438583374,1.3670250177383423,-0.3478749990463257
1749919949476778800,3.41477880859375,-1.1585749387741089,0.8589624762535095,-0.6290624737739563
1749919949486792200,3.424792236328125,-0.951912522315979,-0.260699987411499,-0.7697250247001648
1749919949496805600,3.4348056640625,-0.8091874718666077,-1.109624981880188,-1.210687518119812
1749919949506819000,3.444819091796875,-0.9040625095367432,-1.3355374336242676,-1.919087529182434
1749919949516832300,3.454832275390625,-1.3524500131607056,-1.4697375297546387,-2.50923752784729
1749919949526845400,3.464845458984375,-1.7296124696731567,-1.4623124599456787,-2.949237585067749
1749919949536859000,3.47485888671875,-1.7859874963760376,-1.0063624382019043,-3.0845375061035156
1749919949546872300,3.484872314453125,-1.8286124467849731,-0.22123749554157257,-2.729787588119507
1749919949556885500,3.494885498046875,-1.9138624668121338,0.39338749647140503,-2.02771258354187
1749919949566899000,3.50489892578125,-1.9735374450683594,0.8802750110626221,-1.2991000413894653
1749919949576912400,3.514912353515625,-2.0960500240325928,1.0997250080108643,-0.7621625065803528
1749919949586925800,3.52492578125,-2.211137533187866,1.055999994277954,-0.4170374870300293
1749919949596939000,3.53493896484375,-2.2367124557495117,0.7449749708175659,-0.15716250240802765
1749919949606952400,3.544952392578125,-2.1461000442504883,0.4456374943256378,0.12196250259876251
1749919949616966000,3.5549658203125,-1.8328750133514404,0.6991875171661377,0.5992249846458435
1749919949626979000,3.56497900390625,-1.401537537574768,0.5755749940872192,0.9602999687194824
1749919949636992300,3.5749921875,-0.9743250012397766,0.04936249926686287,0.7973625063896179
1749919949647005700,3.585005615234375,-0.5237374901771545,0.14093749225139618,0.3871999979019165
1749919949657019100,3.59501904296875,-0.06146249920129776,0.14093749225139618,0.04633750021457672
1749919949667032600,3.605032470703125,0.3125374913215637,0.05142499879002571,-0.11659999936819077
1749919949677045800,3.615045654296875,0.5277249813079834,0.08662500232458115,-0.06132499873638153
1749919949687059000,3.625058837890625,0.6491374969482422,0.07699999958276749,0.13158750534057617
1749919949697072400,3.635072265625,0.8185374736785889,0.004537499975413084,0.38609999418258667
1749919949707085800,3.6450859375,1.0476125478744507,-0.15633749961853027,0.6151750087738037
1749919949717099300,3.655099365234375,1.0901000499725342,-0.32670000195503235,0.7845749855041504
1749919949727112700,3.66511279296875,1.0337250232696533,-0.7783874869346619,0.7482749819755554
1749919949737126000,3.6751259765625,1.1679250001907349,-1.6550874710083008,0.49802500009536743
1749919949757152500,3.695152587890625,1.701562523841858,-3.8368000984191895,-0.5630624890327454
1749919949767165700,3.705165771484375,2.005162477493286,-3.7408249378204346,-0.8826124668121338
1749919949777179100,3.71517919921875,1.9337999820709229,-2.2037124633789062,-0.6972625255584717
1749919949787192600,3.725192626953125,1.4811500310897827,-0.21381250023841858,-0.30098751187324524
1749919949797205800,3.735205810546875,0.7184374928474426,1.6972999572753906,-0.2391124963760376
1749919949807219200,3.74521923828125,-0.17434999346733093,3.312237501144409,-0.47891250252723694
1749919949817233000,3.75523291015625,-1.1107250452041626,4.380612373352051,-0.7601000070571899
1749919949827246000,3.76524609375,-1.5666749477386475,4.218774795532227,-1.085012435913086
1749919949837259300,3.77525927734375,-1.226775050163269,3.275937557220459,-1.5537500381469727
1749919949847272400,3.7852724609375,-0.5215374827384949,2.4653749465942383,-1.6282750368118286
1749919949857286100,3.7952861328125,-0.09116250276565552,1.895437479019165,-1.2468500137329102
1749919949867299300,3.80529931640625,-0.10395000129938126,1.7324999570846558,-0.9741874933242798
1749919949877312800,3.815312744140625,-0.3053874969482422,2.250187397003174,-0.7739874720573425
1749919949887326200,3.825326171875,-0.5897374749183655,2.9969499111175537,-0.4255625009536743
1749919949897339600,3.835339599609375,-0.8657000064849854,3.5072124004364014,-0.1592250019311905
1749919949907352800,3.845352783203125,-0.942425012588501,3.5541000366210938,-0.08689999580383301
1749919949917366000,3.855365966796875,-0.8497499823570251,3.226987600326538,0.02708750031888485
1749919949927379500,3.86537939453125,-0.7005624771118164,2.776400089263916,0.3115749955177307
1749919949937393000,3.875392822265625,-0.6610999703407288,2.2299749851226807,0.6919000148773193
1749919949947406000,3.885406005859375,-0.7261375188827515,1.4671249389648438,1.1211750507354736
1749919949957419500,3.89541943359375,-0.9040625095367432,0.8269249796867371,1.5398625135421753
1749919949967433000,3.905432861328125,-1.1042624711990356,0.37853750586509705,1.9446624517440796
1749919949977446400,3.9154462890625,-1.2204500436782837,0.007837500423192978,2.219525098800659
1749919949987459600,3.92545947265625,-1.291812539100647,-0.4801499843597412,2.266274929046631
1749919949997473000,3.93547314453125,-1.034000039100647,-1.2865874767303467,2.152287483215332
1749919950007486500,3.945486572265625,-0.3702875077724457,-2.2793374061584473,1.8497874736785889
1749919950017499600,3.955499755859375,0.35089999437332153,-3.218874931335449,1.3843499422073364
1749919950027512800,3.965512939453125,1.094362497329712,-3.920949935913086,0.7951624989509583
1749919950037526300,3.9755263671875,1.7219125032424927,-4.1637749671936035,0.10491249710321426
1749919950047539700,3.985539794921875,2.0030999183654785,-3.937999963760376,-0.520437479019165
1749919950057553000,3.995552978515625,2.2023375034332275,-3.617349863052368,-0.9187750220298767
1749919950067566300,4.00556640625,2.490949869155884,-3.563999891281128,-1.0648000240325928
1749919950077579800,4.015579833984375,2.559149980545044,-3.8505499362945557,-1.026437520980835
1749919950087593000,4.025593017578125,2.320587396621704,-4.34060001373291,-0.8377875089645386
1749919950097606400,4.0356064453125,1.9349000453948975,-4.568574905395508,-0.4852375090122223
1749919950107619600,4.04561962890625,1.6739250421524048,-4.171199798583984,0.14863750338554382
1749919950117633000,4.055633056640625,1.4107500314712524,-3.54268741607666,0.7675250172615051
1749919950127646500,4.065646484375,0.8089125156402588,-3.0516750812530518,1.2490500211715698
1749919950137659600,4.07565966796875,-0.045375000685453415,-2.562725067138672,1.627174973487854
1749919950147673000,4.085673095703125,-0.9157499670982361,-1.956624984741211,1.8647749423980713
1749919950157686300,4.095686279296875,-1.7487249374389648,-1.6220874786376953,2.024549961090088
1749919950167699700,4.10569970703125,-2.273974895477295,-1.9075374603271484,2.069237470626831
1749919950177713200,4.115713134765625,-1.5815249681472778,-1.2332375049591064,1.5504499673843384
1749919950187726300,4.125726318359375,0.3529624938964844,0.3507624864578247,0.28600001335144043
1749919950197739500,4.135739501953125,1.5738250017166138,0.6256250143051147,-0.46502500772476196
1749919950207753000,4.1457529296875,1.4374250173568726,0.8674874901771545,-0.640749990940094
1749919950217766400,4.155766357421875,1.0326249599456787,1.055999994277954,-0.6418499946594238
1749919950227779800,4.16577978515625,0.9388499855995178,0.559624969959259,-0.6481750011444092
1749919950237793000,4.17579296875,1.0092500448226929,-0.01677500084042549,-0.8133124709129333
1749919950247806500,4.185806396484375,1.129562497138977,-0.35337498784065247,-1.0764875411987305
1749919950257820000,4.19581982421875,1.1647624969482422,-0.3320625126361847,-1.1882749795913696
1749919950267833000,4.2058330078125,1.0687874555587769,0.0002749999985098839,-1.0636999607086182
1749919950277846300,4.21584619140625,0.8706499934196472,0.5883625149726868,-0.8047875165939331
1749919950287859700,4.225859619140625,0.9314249753952026,1.4576375484466553,-0.5960624814033508
1749919950297873200,4.235873046875,1.471524953842163,2.168099880218506,-0.45333749055862427
1749919950307886300,4.24588623046875,1.8453874588012695,2.2416625022888184,-0.3041499853134155
1749919950317899800,4.255899658203125,2.094675064086914,2.102099895477295,-0.2157374918460846
1749919950327913200,4.265913330078125,2.320587396621704,1.9710625410079956,-0.34031251072883606
1749919950337926700,4.2759267578125,2.3365375995635986,1.5801500082015991,-0.5725499987602234
1749919950347939800,4.28593994140625,1.884850025177002,1.0421124696731567,-1.0562750101089478
1749919950357953300,4.295953369140625,1.3021249771118164,0.6736124753952026,-1.6325374841690063
1749919950367966500,4.305966552734375,1.2350250482559204,0.10793749988079071,-2.035137414932251
1749919950377980000,4.31597998046875,1.3202749490737915,-0.24997499585151672,-1.9520875215530396
1749919950387993000,4.3259931640625,1.4140499830245972,-0.12966249883174896,-1.3886125087738037
1749919950398006500,4.336006591796875,1.3074874877929688,0.19744999706745148,-0.6663249731063843
1749919950408020000,4.34602001953125,0.8962249755859375,0.2677125036716461,0.04633750021457672
1749919950418033400,4.356033447265625,0.30717501044273376,0.031212499365210533,0.23801249265670776
1749919950428046600,4.366046630859375,0.4361499845981598,-0.33412501215934753,-0.2700499892234802
1749919950438060000,4.37606005859375,0.23375000059604645,-0.22769999504089355,-0.927299976348877
1749919950448073500,4.386073486328125,0.004674999974668026,-0.08703749626874924,-1.1638000011444092
1749919950458086700,4.396086669921875,0.3125374913215637,-0.1083500012755394,-1.2128875255584717
1749919950468099800,4.406099853515625,0.696025013923645,0.15152500569820404,-1.2086249589920044
1749919950478113300,4.41611328125,0.8674874901771545,0.28049999475479126,-0.8377875089645386
1749919950488126700,4.426126708984375,1.0528374910354614,0.26028749346733093,-0.510812520980835
1749919950498140000,4.436139892578125,1.3469499349594116,0.946274995803833,-0.557699978351593
1749919950508153300,4.4461533203125,1.4502124786376953,2.2064623832702637,-0.5673249959945679
1749919950518166800,4.456166748046875,1.2680250406265259,2.873337507247925,-0.5502749681472778
1749919950528180000,4.466179931640625,1.0187374353408813,2.9213249683380127,-0.6077499985694885
1749919950538193400,4.476193359375,0.7779750227928162,2.824387550354004,-0.6364874839782715
1749919950548206600,4.48620654296875,0.5564625263214111,2.429075002670288,-0.5341874957084656
1749919950558220000,4.496219970703125,0.2059749960899353,1.90396249294281,-0.21037499606609344
1749919950568233500,4.5062333984375,-0.1551000028848648,1.9391624927520752,0.15386250615119934
1749919950578246700,4.51624658203125,-0.4927999973297119,2.538800001144409,0.3723500072956085
1749919950588260000,4.526260009765625,-0.6184750199317932,3.185462474822998,0.382937490940094
1749919950598273500,4.5362734375,-0.45237499475479126,2.7880873680114746,0.3297249972820282
1749919950608287000,4.546286865234375,0.050462499260902405,1.2935999631881714,0.170912504196167
1749919950618300200,4.556300048828125,0.3583250045776367,-0.2180749922990799,-0.07411249727010727
1749919950628313600,4.566313720703125,0.18039999902248383,-0.7869125008583069,-0.3063499927520752
1749919950638326800,4.576326904296875,0.18782499432563782,-0.9946749806404114,-0.5886374711990356
1749919950648340500,4.586340576171875,0.37853750586509705,-1.1811250448226929,-0.7280625104904175
1749919950658353700,4.596353759765625,0.3359124958515167,-1.1448249816894531,-0.7803124785423279
1749919950668366800,4.606366943359375,0.19208750128746033,-0.8082249760627747,-0.8857749700546265
1749919950678380000,4.616380126953125,0.32532501220703125,-0.35653749108314514,-0.9187750220298767
1749919950688393700,4.626393798828125,0.5095750093460083,-0.040150001645088196,-0.7845749855041504
1749919950698407000,4.636406982421875,0.5266249775886536,0.09721250087022781,-0.6705874800682068
1749919950708420000,4.646420166015625,0.6087124943733215,-0.10518749803304672,-0.5619624853134155
1749919950718433500,4.65643359375,0.7236624956130981,-0.40878748893737793,-0.48317500948905945
1749919950728447000,4.666447021484375,0.7301250100135803,-0.58451247215271,-0.5821750164031982
1749919950738460200,4.676460205078125,0.6906625032424927,-0.830637514591217,-0.731362521648407
1749919950748473600,4.6864736328125,0.6608250141143799,-0.9574124813079834,-0.9198749661445618
1749919950758486800,4.69648681640625,0.5777750015258789,-1.0788249969482422,-0.9017249941825867
1749919950768500200,4.706500244140625,0.2283875048160553,-1.1672375202178955,-0.8357250094413757
1749919950778513700,4.716513671875,-0.3244999945163727,-0.8210124969482422,-1.044450044631958
1749919950788526800,4.72652685546875,0.18782499432563782,0.06737499684095383,-0.6642624735832214
1749919950798540300,4.736540283203125,0.8621249794960022,0.42858749628067017,-0.08470000326633453
1749919950808553500,4.746553466796875,0.6682500243186951,0.807812511920929,0.23801249265670776
1749919950818566700,4.756566650390625,0.724762499332428,0.14836250245571136,0.3254624903202057
1749919950828580000,4.766580078125,0.6204000115394592,0.15056249499320984,0.5725499987602234
1749919950838593300,4.77659326171875,0.415800005197525,0.5883625149726868,0.890037477016449
1749919950848606700,4.786606689453125,0.16981250047683716,0.6523000001907349,1.3182125091552734
1749919950858620000,4.796619873046875,-0.27761250734329224,0.5627874732017517,1.6559125185012817
1749919950868633300,4.80663330078125,-0.677049994468689,0.6500999927520752,1.8210500478744507
1749919950878646800,4.816646728515625,-0.9860125184059143,0.716237485408783,1.6516499519348145
1749919950888660000,4.826659912109375,-1.2000999450683594,0.6991875171661377,1.4407249689102173
1749919950898673200,4.836673095703125,-1.2321374416351318,0.521262526512146,1.302262544631958
1749919950908686600,4.8466865234375,-1.2289749383926392,0.40933749079704285,1.0082875490188599
1749919950918700000,4.856699951171875,-1.1576124429702759,0.2069374918937683,0.7291625142097473
1749919950928713200,4.866713134765625,-0.897599995136261,0.06104999780654907,0.521399974822998
1749919950938726700,4.8767265625,-0.8166124820709229,0.22398750483989716,0.2774749994277954
1749919950948740000,4.886739990234375,-0.9882124662399292,0.5787374973297119,0.3073124885559082
1749919950958753300,4.896753173828125,-1.1031625270843506,1.0005874633789062,0.6769124865531921
1749919950968766700,4.9067666015625,-1.0147500038146973,1.1540374755859375,1.1648999452590942
1749919950978780000,4.91677978515625,-0.9871125221252441,0.9729499816894531,1.47056245803833
1749919950988793300,4.92679345703125,-1.053112506866455,0.9568625092506409,1.6303374767303467
1749919950998806500,4.936806640625,-0.9455875158309937,0.7587249875068665,1.2309000492095947
1749919951008819700,4.94681982421875,-1.0393625497817993,0.7970874905586243,1.1990000009536743
1749919951018833200,4.956833251953125,-0.8475499749183655,0.595787525177002,1.1243374347686768
1749919951028846600,4.9668466796875,-0.7932375073432922,0.5329499840736389,0.8452125191688538
1749919951038859800,4.97685986328125,-0.8794500231742859,0.6671500205993652,0.6631624698638916
1749919951048873200,4.986873291015625,-0.8742250204086304,0.6916249990463257,0.7781124711036682
1749919951058886400,4.996886474609375,-0.8592374920845032,0.521262526512146,0.8388875126838684
1749919951068899800,5.00689990234375,-0.9700624942779541,0.38376250863075256,0.8271999955177307
1749919951078913000,5.0169130859375,-1.3717000484466553,0.43174999952316284,0.8431500196456909
1749919951088926500,5.026926513671875,-1.875499963760376,0.39448750019073486,0.7728874683380127
1749919951098940000,5.03693994140625,-2.4198625087738037,0.44769999384880066,0.5363875031471252
1749919951108953300,5.046953369140625,-3.014275074005127,0.909012496471405,0.24763749539852142
1749919951118966500,5.056966552734375,-3.4872748851776123,1.2658250331878662,-0.02502499893307686
1749919951128979700,5.066979736328125,-3.839824914932251,1.5417875051498413,-0.32010000944137573
1749919951138993200,5.0769931640625,-4.277762413024902,1.821874976158142,-0.045237500220537186
1749919951149006600,5.087006591796875,-5.475112438201904,0.807812511920929,-0.944350004196167
1749919951159019800,5.097019775390625,-6.869500160217285,1.9060249328613281,-2.25362491607666
1749919951169033000,5.107032958984375,-7.263712406158447,2.282087564468384,-1.7582124471664429
1749919951179046100,5.117046142578125,-6.406125068664551,1.3914999961853027,-1.4577749967575073
1749919951189059600,5.1270595703125,-4.678299903869629,-0.9094250202178955,-1.5760250091552734
1749919951199073000,5.137072998046875,-3.2146124839782715,-1.6721374988555908,-1.1254374980926514
1749919951209086200,5.147086181640625,-2.3379125595092773,-0.9605749845504761,-0.23278750479221344
1749919951219099600,5.157099609375,-1.6219500303268433,-0.647350013256073,0.391462504863739
1749919951229112800,5.16711279296875,-1.3811874389648438,-0.6069250106811523,0.952875018119812
1749919951239126300,5.177126220703125,-1.7945125102996826,-0.6154500246047974,1.4130874872207642
1749919951249139500,5.187139404296875,-2.0684125423431396,-0.5972999930381775,1.6590750217437744
1749919951259152600,5.197152587890625,-1.8361749649047852,-0.3246375024318695,1.9413625001907349
1749919951269166000,5.207166015625,-1.1479874849319458,0.16541250050067902,2.154487371444702
1749919951279179300,5.21717919921875,-0.5237374901771545,0.5020124912261963,1.8264124393463135
1749919951289192400,5.2271923828125,-0.1541374921798706,0.5659499764442444,1.1147124767303467
1749919951299206100,5.2372060546875,0.2591874897480011,0.2890250086784363,0.4894999861717224
1749919951309219300,5.24721923828125,0.6300249695777893,0.25808748602867126,0.11233749985694885
1749919951319232500,5.257232421875,0.3955875039100647,0.8184000253677368,0.07301250100135803
1749919951329246000,5.267245849609375,-0.020899999886751175,1.0080125331878662,0.04097500070929527
1749919951339259400,5.27725927734375,-0.12526249885559082,0.3817000091075897,-0.5119125247001648
1749919951349272600,5.2872724609375,0.34759998321533203,-0.4076874852180481,-0.9849125146865845
1749919951359285800,5.29728564453125,1.4289000034332275,-0.3821125030517578,-0.7365875244140625
1749919951369299500,5.307299560546875,2.6294124126434326,0.32945001125335693,-0.16458749771118164
1749919951379312600,5.317312744140625,2.8521625995635986,0.9494374990463257,0.6854375004768372
1749919951389325800,5.327325927734375,1.8731625080108643,1.6652624607086182,1.192537546157837
1749919951399339000,5.337339111328125,0.4904625117778778,1.9731249809265137,0.7803124785423279
1749919951409352700,5.347352783203125,-0.5769500136375427,1.261562466621399,-0.4138749837875366
1749919951419366000,5.357365966796875,-1.3685375452041626,0.5755749940872192,-1.8616124391555786
1749919951429379000,5.367379150390625,-1.5655750036239624,-0.36822500824928284,-3.0749125480651855
1749919951439392800,5.377392822265625,-1.3950749635696411,-0.2745875120162964,-3.2954623699188232
1749919951449406000,5.387406005859375,-1.2034000158309937,0.7779750227928162,-2.384662389755249
1749919951459419100,5.397419189453125,-0.5055875182151794,1.3979624509811401,-1.210687518119812
1749919951469432300,5.407432373046875,0.35942500829696655,0.9494374990463257,-0.1966249942779541
1749919951479445800,5.41744580078125,0.9143750071525574,0.13021250069141388,0.5779125094413757
1749919951489459200,5.427459228515625,1.378849983215332,-0.22659999132156372,1.1957000494003296
1749919951499472400,5.437472412109375,1.7879124879837036,-0.025299999862909317,1.7624750137329102
1749919951509485600,5.447485595703125,2.1617748737335205,0.2910875082015991,2.16617488861084
1749919951519499000,5.4574990234375,2.514462471008301,0.7119749784469604,2.5134999752044678
1749919951529512200,5.46751220703125,3.0864624977111816,1.379812479019165,2.8660500049591064
1749919951539525600,5.477525634765625,3.703287363052368,1.7047250270843506,3.2580626010894775
1749919951549539000,5.4875390625,3.8769500255584717,2.2554125785827637,3.8812124729156494
1749919951559552300,5.49755224609375,3.680875062942505,2.2692999839782715,4.185912609100342
1749919951569565400,5.5075654296875,3.106674909591675,-0.3139125108718872,3.6320624351501465
1749919951579579000,5.517578857421875,2.0446250438690186,-2.7885000705718994,2.633812427520752
1749919951589592000,5.527592041015625,1.3714250326156616,-1.6806625127792358,1.3001999855041504
1749919951599605500,5.53760546875,1.0806125402450562,-0.09239999949932098,0.0494999997317791
1749919951609618700,5.54761865234375,0.8941624760627747,-0.22343750298023224,-0.5810750126838684
1749919951619632000,5.557632080078125,1.0613625049591064,-0.09129999577999115,-0.7132124900817871
1749919951629645600,5.5676455078125,1.4491125345230103,0.5926250219345093,-0.5534374713897705
1749919951639658800,5.57765869140625,1.7740249633789062,0.9345874786376953,0.023924998939037323
1749919951649672000,5.587671875,2.043524980545044,0.8802750110626221,0.9699249863624573
1749919951659685400,5.597685302734375,2.113924980163574,0.41690000891685486,2.0564498901367188
1749919951669698800,5.60769873046875,1.9349000453948975,0.18562500178813934,3.1270248889923096
1749919951679712000,5.6177119140625,1.8720624446868896,0.716237485408783,4.055974960327148
1749919951689725200,5.62772509765625,1.9349000453948975,1.2552374601364136,4.1656999588012695
1749919951699739000,5.63773876953125,1.7708624601364136,2.1180500984191895,2.8554625511169434
1749919951709752000,5.647751953125,1.1529375314712524,1.463962435722351,1.3736250400543213
1749919951719765200,5.65776513671875,0.633187472820282,0.3987500071525574,-0.02186249941587448
1749919951729778700,5.66777880859375,-0.007012499962002039,0.24529999494552612,-0.8815125226974487
1749919951739792000,5.6777919921875,-1.0829499959945679,2.0935750007629395,-1.1830500364303589
1749919951749805300,5.687805419921875,-2.539212465286255,3.88643741607666,-0.824037492275238
1749919951759818500,5.697818603515625,-4.046487331390381,3.2866625785827637,0.41593748331069946
1749919951769832000,5.70783203125,-4.776199817657471,3.3153998851776123,0.9421499967575073
1749919951779845000,5.71784521484375,-3.7780873775482178,3.7127749919891357,-1.8232499361038208
1749919951789858600,5.727858642578125,-3.2316625118255615,0.6821374893188477,-3.1334874629974365
1749919951799871700,5.737871826171875,-2.9886999130249023,-0.8912749886512756,-3.3060500621795654
1749919951809885000,5.747885009765625,-2.4848999977111816,-1.5017750263214111,-3.2943625450134277
1749919951819898400,5.7578984375,-2.3826000690460205,-1.384487509727478,-2.9748125076293945
1749919951829911800,5.767911865234375,-2.8235623836517334,-1.0979374647140503,-2.0501248836517334
1749919951839925000,5.777925048828125,-2.787400007247925,-0.9839500188827515,-1.03496253490448
1749919951849938400,5.7879384765625,-2.517899990081787,-0.8934749960899353,-0.22206249833106995
1749919951859951400,5.797951416015625,-2.738450050354004,-1.1885499954223633,-0.2722499966621399
1749919951869964800,5.80796484375,-3.237987518310547,-1.560349941253662,-1.4045624732971191
1749919951879978000,5.81797802734375,-3.5191750526428223,-1.8756375312805176,-2.5251874923706055
1749919951889991400,5.827991455078125,-3.2251999378204346,-2.339012384414673,-2.4144999980926514
1749919951900004600,5.838004638671875,-2.111999988555908,-2.407212495803833,-1.919087529182434
1749919951910018000,5.84801806640625,-0.9541124701499939,-2.4209625720977783,-1.3704625368118286
1749919951920031200,5.85803125,-0.5130124688148499,-2.0289499759674072,-0.5406500101089478
1749919951930044700,5.868044677734375,-0.8113874793052673,-1.4079999923706055,0.0952875018119812
1749919951940057900,5.878057861328125,-2.0204250812530518,-0.784850001335144,0.6556000113487244
1749919951950071300,5.8880712890625,-3.425537586212158,0.19744999706745148,1.251112461090088
1749919951960084500,5.89808447265625,-4.221250057220459,1.0623250007629395,1.468500018119812
1749919951970097700,5.90809765625,-4.2479248046875,1.1753499507904053,1.3426874876022339
1749919951980110800,5.91811083984375,-4.0125250816345215,0.963325023651123,0.8281624913215637
1749919951990124300,5.928124267578125,-3.8015999794006348,0.7310875058174133,-0.10491249710321426
1749919952000137700,5.9381376953125,-3.131424903869629,0.3539249897003174,-0.9965999722480774
1749919952010151000,5.94815087890625,-2.1482999324798584,-0.5387250185012817,-1.5015000104904175
1749919952020164000,5.9581640625,-1.3567124605178833,-0.7517125010490417,-1.3619375228881836
1749919952030177300,5.96817724609375,-0.8794500231742859,0.19841249287128448,-0.6301624774932861
1749919952040190700,5.978190673828125,-0.6813125014305115,0.9675874710083008,0.14533749222755432
1749919952050204200,5.9882041015625,-0.7207750082015991,1.436324954032898,0.7675250172615051
1749919952060217300,5.99821728515625,-0.8582749962806702,1.8463499546051025,1.3853124380111694
1749919952070230500,6.00823046875,-0.8412249684333801,2.0179500579833984,2.02028751373291
1749919952080244000,6.018243896484375,-0.7645000219345093,2.1425249576568604,2.51886248588562
1749919952090257200,6.028257080078125,-0.619575023651123,2.1074624061584473,2.633812427520752
1749919952100270600,6.0382705078125,-0.42996248602867126,1.7324999570846558,2.4421374797821045
1749919952110283800,6.04828369140625,-0.2679874897003174,1.195562481880188,2.0510873794555664
1749919952120297200,6.058297119140625,-0.1274625062942505,0.5190625190734863,1.4631375074386597
1749919952130310400,6.068310302734375,0.07177499681711197,-0.2297624945640564,0.7249000072479248
1749919952140323800,6.07832373046875,0.3881624937057495,-0.9072250127792358,0.016499999910593033
1749919952150337000,6.0883369140625,0.9325249791145325,-1.3110624551773071,-0.4372499883174896
1749919952160350500,6.0983505859375,1.6835500001907349,-1.290850043296814,-0.40851250290870667
1749919952170363600,6.10836376953125,2.318387508392334,-1.708437442779541,-0.13474999368190765
1749919952180377000,6.118377197265625,2.716862440109253,-2.376275062561035,0.20184999704360962
1749919952190390300,6.128390380859375,2.919262409210205,-2.585137367248535,0.6556000113487244
1749919952200403700,6.13840380859375,2.972475051879883,-2.4125750064849854,1.0978000164031982
1749919952210417000,6.1484169921875,3.108875036239624,-2.007775068283081,1.4929749965667725
1749919952220430000,6.15843017578125,3.401750087738037,-1.275862455368042,1.7710000276565552
1749919952230443300,6.168443359375,3.828962564468384,-0.6879125237464905,1.875362515449524
1749919952240456700,6.178456787109375,4.191137313842773,-0.5398250222206116,1.8273749351501465
1749919952250470100,6.18847021484375,4.241187572479248,-0.403425008058548,1.71875
1749919952260483300,6.1984833984375,4.019674777984619,0.18892499804496765,1.5569125413894653
1749919952270496500,6.20849658203125,3.6361875534057617,1.2541375160217285,1.1521124839782715
1749919952280510000,6.218510009765625,3.165250062942505,2.043524980545044,0.5768125057220459
1749919952290523400,6.2285234375,2.7839624881744385,2.0893125534057617,0.009074999950826168
1749919952300536600,6.23853662109375,2.4579498767852783,1.037850022315979,-0.33178749680519104
1749919952310549800,6.2485498046875,1.9530500173568726,-0.4609000086784363,-0.45649999380111694
1749919952320563500,6.2585634765625,1.3149124383926392,-1.5069999694824219,-0.5022875070571899
1749919952330576600,6.26857666015625,0.613937497138977,-2.0141000747680664,-0.4916999936103821
1749919952340589800,6.27858984375,-0.14877499639987946,-1.8884249925613403,-0.46392500400543213
1749919952350603000,6.28860302734375,-0.8412249684333801,-1.0777250528335571,-0.4212999939918518
1749919952360616400,6.298616455078125,-1.4163874387741089,-0.047575000673532486,-0.30951249599456787
1749919952370629600,6.308629638671875,-1.8115625381469727,0.521262526512146,-0.04743750020861626
1749919952380642800,6.318642822265625,-2.060849905014038,0.8131750226020813,0.3712500035762787
1749919952390656300,6.32865625,-2.0630500316619873,1.0665874481201172,0.8548374772071838
1749919952400669400,6.33866943359375,-1.7648124694824219,0.9653875231742859,1.1424875259399414
1749919952410683000,6.348682861328125,-1.0946375131607056,0.40507498383522034,0.8485124707221985
1749919952420696000,6.358696044921875,-0.03368749842047691,0.0013749999925494194,-0.11137499660253525
1749919952430709500,6.36870947265625,1.1093499660491943,0.15798750519752502,-1.035925030708313
1749919952440722700,6.37872265625,2.1096625328063965,0.42102500796318054,-1.469599962234497
1749919952450735900,6.38873583984375,2.565612554550171,0.31459999084472656,-1.5750625133514404
1749919952460749300,6.398749267578125,2.5048375129699707,0.048262499272823334,-1.4898124933242798
1749919952470762500,6.408762451171875,2.272599935531616,-0.2297624945640564,-1.3704625368118286
1749919952480775700,6.418775634765625,1.8507499694824219,-0.36726251244544983,-1.2223750352859497
1749919952490789000,6.4287890625,1.3404874801635742,-0.34485000371932983,-1.0114500522613525
1749919952500802600,6.438802490234375,0.8302249908447266,-0.14781250059604645,-0.6386874914169312
1749919952510815700,6.448815673828125,0.4371125102043152,-0.015675000846385956,-0.24131250381469727
1749919952520829000,6.458828857421875,0.23691250383853912,0.030112499371170998,-0.04743750020861626
1749919952530842000,6.468842041015625,0.23691250383853912,0.07163749635219574,-0.17847499251365662
1749919952540855300,6.478855224609375,0.28476250171661377,0.20913749933242798,-0.5608624815940857
1749919952550868700,6.48886865234375,0.17297500371932983,0.3433375060558319,-1.019974946975708
1749919952560882200,6.498882080078125,0.048262499272823334,0.3049750030040741,-1.486649990081787
1749919952570895400,6.508895263671875,-0.09336250275373459,0.25066250562667847,-1.9009374380111694
1749919952580908500,6.518908447265625,-0.3480125069618225,0.28476250171661377,-2.214162588119507
1749919952590921700,6.528921630859375,-0.7793499827384949,0.25808748602867126,-2.4389750957489014
1749919952600935200,6.53893505859375,-1.4078625440597534,0.1036750003695488,-2.5081374645233154
1749919952610948600,6.548948486328125,-2.0938498973846436,-0.1200374960899353,-2.3377749919891357
1749919952620961800,6.5589619140625,-2.8448750972747803,-0.23512500524520874,-1.99361252784729
1749919952630975000,6.56897509765625,-3.460599899291992,-0.00494999997317791,-1.6708999872207642
1749919952640988200,6.57898828125,-3.7780873775482178,-0.1615625023841858,-1.191575050354004
1749919952651001900,6.589001953125,-3.8110873699188232,-0.2414499968290329,-1.028499960899353
1749919952661015000,6.59901513671875,-3.25819993019104,0.05884999781847,-0.8581374883651733
1749919952671028200,6.6090283203125,-2.5753750801086426,0.6991875171661377,-0.6140750050544739
1749919952681041400,6.61904150390625,-2.301612377166748,1.3277000188827515,-0.18906250596046448
1749919952691054600,6.6290546875,-2.4817373752593994,1.9944374561309814,0.40741249918937683
1749919952701068000,6.639068115234375,-2.5551624298095703,2.0211124420166016,0.9667624831199646
1749919952711081200,6.649081298828125,-1.6901500225067139,0.9526000022888184,1.3928749561309814
1749919952721094700,6.6590947265625,-0.5641624927520752,-0.29906249046325684,1.5322999954223633
1749919952731107800,6.66910791015625,0.04729999974370003,-0.40974998474121094,1.5291374921798706
1749919952741121300,6.679121337890625,0.0387750007212162,0.10903749614953995,1.4566749334335327
1749919952751134500,6.689134521484375,-0.16362500190734863,0.5713124871253967,1.3810499906539917
1749919952761147600,6.699147705078125,-0.025162499397993088,1.0005874633789062,1.3224749565124512
1749919952771161000,6.7091611328125,0.39022499322891235,1.0719499588012695,1.4471875429153442
1749919952781174500,6.719174560546875,0.7556999921798706,0.9101125001907349,1.5674999952316284
1749919952791187700,6.729187744140625,0.9421499967575073,0.6447374820709229,1.5578750371932983
1749919952801201000,6.739200927734375,1.0443124771118164,0.2623499929904938,1.5111249685287476
1749919952811214300,6.74921435546875,0.9953625202178955,-0.03478749841451645,1.6325374841690063
1749919952821227500,6.7592275390625,0.7950249910354614,-0.009212499484419823,1.6900124549865723
1749919952831240700,6.76924072265625,0.5245624780654907,0.1909874975681305,1.6132874488830566
1749919952841254100,6.779254150390625,0.22948749363422394,0.3913249969482422,1.5003999471664429
1749919952851267300,6.789267333984375,-0.04221250116825104,0.559624969959259,1.3810499906539917
1749919952861280800,6.79928076171875,-0.24255000054836273,0.6437749862670898,1.184012532234192
1749919952871294000,6.8092939453125,-0.3702875077724457,0.43174999952316284,0.9411875009536743
1749919952881307100,6.81930712890625,-0.47148749232292175,0.16005000472068787,0.7260000109672546
1749919952891320300,6.8293203125,-0.7261375188827515,0.10573749989271164,0.7781124711036682
1749919952901333800,6.839333740234375,-1.008424997329712,0.20487499237060547,0.7823749780654907
1749919952911347200,6.84934716796875,-1.167099952697754,0.07067500054836273,0.4170374870300293
1749919952921360400,6.8593603515625,-1.3259124755859375,-0.2297624945640564,0.04413750022649765
1749919952931373600,6.86937353515625,-1.4654749631881714,-0.5791500210762024,-0.030387500301003456
1749919952941386800,6.87938671875,-1.4909124374389648,-0.850849986076355,0.0037124999798834324
1749919952951400200,6.889400146484375,-1.486649990081787,-1.009524941444397,0.12306249886751175
1749919952961413600,6.89941357421875,-1.4942125082015991,-0.8167499899864197,0.3041499853134155
1749919952971426800,6.9094267578125,-1.4739999771118164,-0.731499969959259,0.46502500772476196
1749919952981440000,6.91943994140625,-1.4558500051498413,-0.8241750001907349,0.6290624737739563
1749919952991453200,6.929453125,-1.4078625440597534,-0.9488874673843384,0.7643625140190125
1749919953001466400,6.93946630859375,-1.3046000003814697,-1.099037528038025,0.8687250018119812
1749919953011479800,6.949479736328125,-1.1778249740600586,-1.3312749862670898,0.9283999800682068
1749919953021493000,6.959492919921875,-1.008424997329712,-1.8767374753952026,0.8920999765396118
1749919953031506200,6.969506103515625,-0.7357624769210815,-2.7427124977111816,0.8281624913215637
1749919953041519600,6.97951953125,-0.390500009059906,-3.4788875579833984,0.8485124707221985
1749919953051533000,6.989532958984375,-0.018837500363588333,-3.6673998832702637,0.9400874972343445
1749919953061546200,6.999546142578125,0.04729999974370003,-1.410062551498413,0.5810750126838684
1749919953071559400,7.009559326171875,-0.14451250433921814,1.2519375085830688,0.07727500051259995
1749919953081572600,7.019572509765625,-0.21587499976158142,1.7601374387741089,-0.016499999910593033
1749919953091586300,7.02958642578125,-0.16362500190734863,1.055999994277954,0.058024998754262924
1749919953101599500,7.039599609375,-0.09019999951124191,0.20377500355243683,0.09006249904632568
1749919953111612700,7.04961279296875,0.2475000023841858,-0.5717250108718872,-0.2381500005722046
1749919953121625900,7.0596259765625,0.7099124789237976,-0.8860499858856201,-0.7578999996185303
1749919953131639300,7.069639404296875,1.0433499813079834,-1.060675024986267,-1.191575050354004
1749919953141652500,7.079652587890625,0.09515000134706497,-1.3068000078201294,-1.5622749328613281
1749919953151666000,7.089666015625,-1.7008750438690186,-1.2599124908447266,-2.0021374225616455
1749919953161679000,7.09967919921875,-0.9050250053405762,-0.23086249828338623,-1.7465250492095947
1749919953171692300,7.1096923828125,-0.3480125069618225,0.5392749905586243,-1.1691625118255615
1749919953181705700,7.119705810546875,-0.9274374842643738,0.651199996471405,-0.6375874876976013
1749919953191719000,7.129718994140625,-1.136299967765808,0.2527250051498413,-0.09542500227689743
1749919953201732000,7.139732177734375,-1.0297374725341797,0.3081375062465668,0.4170374870300293
1749919953211745300,7.149745361328125,-1.2427250146865845,0.5766749978065491,0.5363875031471252
1749919953221758700,7.1597587890625,-1.485687494277954,0.717199981212616,0.24447499215602875
1749919953231772200,7.169772216796875,-1.6465624570846558,0.6565625071525574,-0.14217500388622284
1749919953241785300,7.179785400390625,-1.8797625303268433,0.6000499725341797,-0.32120001316070557
1749919953251798500,7.189798583984375,-2.2100374698638916,1.2732499837875366,-0.02722499892115593
1749919953261811700,7.199811767578125,-2.4135375022888184,0.6949250102043152,0.2092749923467636
1749919953271825200,7.2098251953125,-2.208937406539917,-0.6441875100135803,0.147537499666214
1749919953281838300,7.21983837890625,-1.7008750438690186,-1.842637538909912,-0.3104749917984009
1749919953291851800,7.229851806640625,-1.2076624631881714,-2.3506999015808105,-1.102062463760376
1749919953301864700,7.23986474609375,-0.7867749929428101,-2.212237596511841,-1.7135249376296997
1749919953311878000,7.2498779296875,-0.5248374938964844,-1.9373749494552612,-1.7806249856948853
1749919953321891000,7.25989111328125,-0.46626248955726624,-1.8617500066757202,-1.4162499904632568
1749919953331904500,7.269904541015625,-0.6004624962806702,-1.9629499912261963,-0.927299976348877
1749919953341918000,7.27991796875,-0.8998000025749207,-1.9470000267028809,-0.5554999709129333
1749919953351931100,7.28993115234375,-1.1618750095367432,-1.7562874555587769,-0.3564000129699707
1749919953361944600,7.299944580078125,-1.3396625518798828,-1.8137625455856323,-0.45649999380111694
1749919953371957800,7.309957763671875,-1.274762511253357,-2.1089749336242676,-0.8889374732971191
1749919953381971000,7.319970947265625,-0.9700624942779541,-2.726762533187866,-1.5281749963760376
1749919953391984400,7.329984375,-0.593999981880188,-3.5374624729156494,-2.038437604904175
1749919953401997600,7.33999755859375,-0.3255999982357025,-4.616562366485596,-2.1055374145507812
1749919953412010800,7.3500107421875,-0.116737499833107,-5.73182487487793,-1.6794250011444092
1749919953422024000,7.36002392578125,0.19002500176429749,-6.301762580871582,-1.2703624963760376
1749919953432037000,7.370037109375,0.46915000677108765,-6.102524757385254,-0.7601000070571899
1749919953442050600,7.380050537109375,0.5831375122070312,-5.675449848175049,-0.20295000076293945
1749919953452063700,7.390063720703125,0.6928625106811523,-5.084199905395508,0.32120001316070557
1749919953462077000,7.400076904296875,0.8089125156402588,-4.731649875640869,0.8911374807357788
1749919953472090000,7.410090087890625,0.9271624684333801,-4.208600044250488,1.3182125091552734
1749919953482103600,7.420103515625,0.8419125080108643,-3.061300039291382,1.6655374765396118
1749919953492116700,7.43011669921875,0.6693499684333801,-1.9597874879837036,1.441825032234192
1749919953502130200,7.440130126953125,0.44247499108314514,-0.5887749791145325,0.9411875009536743
1749919953512143400,7.450143310546875,0.27953749895095825,0.5468375086784363,0.4298250079154968
1749919953522156500,7.460156494140625,0.3679499924182892,0.8131750226020813,0.08153750002384186
1749919953532170000,7.470169921875,0.521262526512146,0.6543624997138977,0.04097500070929527
1749919953542183200,7.48018310546875,0.6886000037193298,0.5446375012397766,0.24557499587535858
1749919953552196400,7.4901962890625,0.724762499332428,0.5170000195503235,0.4553999900817871
1749919953562209800,7.500209716796875,0.5916625261306763,1.2285624742507935,0.8463125228881836
1749919953572223200,7.51022314453125,0.6810374855995178,3.57527494430542,1.72837495803833
1749919953582236400,7.520236328125,0.8355875015258789,7.912024974822998,3.1270248889923096
1749919953592249600,7.53024951171875,0.5330874919891357,9.894499778747559,3.405050039291382
1749919953602262800,7.5402626953125,0.20817500352859497,10.92134952545166,3.176112413406372
1749919953612276200,7.550276123046875,-0.19456249475479126,10.699837684631348,2.2471625804901123
1749919953622289700,7.56028955078125,-0.9413250088691711,8.788724899291992,0.043175000697374344
1749919953632302800,7.570302734375,-1.4951750040054321,7.175987243652344,-1.6933125257492065
1749919953642316000,7.58031591796875,-1.9468624591827393,6.7135748863220215,-2.6072750091552734
1749919953652329500,7.59032958984375,-2.4369125366210938,7.750050067901611,-2.794687509536743
1749919953662342700,7.6003427734375,-2.7777750492095947,9.421500205993652,-2.389887571334839
1749919953672355800,7.61035595703125,-2.656362533569336,10.09689998626709,-1.478124976158142
1749919953682369000,7.620369140625,-1.8563874959945679,6.618837356567383,-0.5545374751091003
1749919953692382200,7.63038232421875,-0.5758500099182129,0.6778749823570251,-0.15716250240802765
1749919953702395600,7.640395751953125,0.39668750762939453,-2.6181375980377197,0.4585624933242798
1749919953712409000,7.6504091796875,0.8003875017166138,-3.690774917602539,1.0082875490188599
1749919953722422000,7.660422119140625,0.9431124925613403,-3.639625072479248,1.2223750352859497
1749919953732435200,7.670435302734375,1.0187374353408813,-3.2583374977111816,1.1072875261306763
1749919953742448600,7.68044873046875,1.0922999382019043,-2.768287420272827,0.8111125230789185
1749919953752461800,7.6904619140625,1.0443124771118164,-1.967212438583374,0.5714499950408936
1749919953762475000,7.70047509765625,0.7642250061035156,-1.118149995803833,0.3488374948501587
1749919953772488200,7.71048828125,0.3881624937057495,-0.2063875049352646,0.22426250576972961
1749919953782501600,7.720501708984375,-0.016637500375509262,0.7396125197410583,0.2956250011920929
1749919953792514800,7.730514892578125,-0.3063499927520752,1.3180749416351318,0.4926624894142151
1749919953802528000,7.740528076171875,-0.36506250500679016,1.2732499837875366,0.5790125131607056
1749919953812541200,7.750541259765625,-0.2712875008583069,1.0421124696731567,0.5310249924659729
1749919953822554600,7.7605546875,-0.16472500562667847,1.295662522315979,0.43092501163482666
1749919953832567800,7.77056787109375,-0.1551000028848648,1.8730249404907227,0.3339875042438507
1749919953842581000,7.7805810546875,-0.20418749749660492,2.3832874298095703,0.23058749735355377
1749919953852594400,7.790594482421875,-0.21587499976158142,2.5100624561309814,0.09418749809265137
1749919953862607600,7.800607666015625,-0.1732500046491623,2.0179500579833984,-0.06655000150203705
1749919953872620800,7.810620849609375,-0.0752125009894371,1.0452749729156494,-0.17737500369548798
1749919953882634200,7.82063427734375,0.04729999974370003,0.050324998795986176,-0.13791249692440033
1749919953892647400,7.8306474609375,0.13461250066757202,-0.6078875064849854,0.0644875019788742
1749919953902660600,7.84066064453125,0.1835625022649765,-0.9307374954223633,0.3147374987602234
1749919953912673800,7.850673828125,0.24213749170303345,-1.0106250047683716,0.4969249963760376
1749919953922687200,7.860687255859375,0.34443750977516174,-0.9668999910354614,0.5543999671936035
1749919953932700400,7.870700439453125,0.45842498540878296,-0.896637499332428,0.45003750920295715
1749919953942713600,7.880713623046875,0.49994999170303345,-0.7783874869346619,0.20184999704360962
1749919953952726800,7.890726806640625,0.4487999975681305,-0.48221248388290405,-0.06764999777078629
1749919953962740200,7.900740234375,0.3221625089645386,-0.13708749413490295,-0.25189998745918274
1749919953972753700,7.910753662109375,0.19002500176429749,0.03753750026226044,-0.33082500100135803
1749919953982766800,7.920766845703125,0.09941250085830688,0.020487500354647636,-0.3137750029563904
1749919953992780000,7.930780029296875,0.08992499858140945,-0.18617500364780426,-0.2870999872684479
1749919954002793200,7.940793212890625,0.13255000114440918,-0.4609000086784363,-0.2689499855041504
1749919954012806400,7.950806396484375,0.17503750324249268,-0.6654999852180481,-0.24131250381469727
1749919954022819600,7.960819580078125,0.1868624985218048,-0.7783874869346619,-0.22426250576972961
1749919954032833000,7.9708330078125,0.15592500567436218,-0.5813499689102173,-0.14643749594688416
1749919954042846200,7.98084619140625,0.14423750340938568,-0.3778499960899353,-0.07301250100135803
1749919954052859400,7.990859375,0.16651250422000885,-0.260699987411499,-0.03244999796152115
1749919954062872600,8.00087255859375,0.16554999351501465,-0.10408750176429749,0.0057749999687075615
1749919954072885800,8.0108857421875,0.12718750536441803,-0.09336250275373459,-0.052799999713897705
1749919954082899200,8.020899169921876,0.07713750004768372,-0.2149125039577484,-0.1966249942779541
1749919954092912600,8.03091259765625,0.035612501204013824,-0.4449499845504761,-0.38403749465942383
1749919954102925800,8.04092578125,-0.014574999921023846,-0.5950999855995178,-0.5139750242233276
1749919954112938800,8.050938720703124,-0.05816249921917915,-0.5077875256538391,-0.521399974822998
1749919954122952200,8.0609521484375,-0.028324998915195465,-0.3011249899864197,-0.4703874886035919
1749919954132965400,8.07096533203125,0.142037495970726,-0.12319999933242798,-0.40755000710487366
1749919954142978800,8.080978759765625,0.3657499849796295,-0.015675000846385956,-0.29672500491142273
1749919954152992000,8.090991943359375,0.4499000012874603,0.13241249322891235,-0.0826374962925911
1749919954163005200,8.101005126953124,0.2582249939441681,0.5542625188827515,0.29026249051094055
1749919954173018400,8.111018310546875,-0.17957499623298645,0.8940249681472778,0.5821750164031982
1749919954183031800,8.12103173828125,-0.5471125245094299,0.6480374932289124,0.4329875111579895
1749919954193045000,8.131044921875,-0.677049994468689,0.7225624918937683,0.026124998927116394
1749919954203058200,8.14105810546875,-0.17861250042915344,0.48826250433921814,-0.4542999863624573
1749919954213071400,8.1510712890625,0.01952499896287918,0.5979874730110168,-0.5917999744415283
1749919954223084500,8.16108447265625,0.03231250122189522,0.172837495803833,-0.9849125146865845
1749919954233098000,8.171097900390626,0.01952499896287918,0.8973249793052673,-0.8931999802589417
1749919954243111200,8.181111083984375,-0.04867500066757202,1.3905375003814697,-0.852774977684021
1749919954253124400,8.191124267578125,-0.1775124967098236,1.5140124559402466,-0.7930999994277954
1749919954263137800,8.2011376953125,-0.30428749322891235,1.4926999807357788,-0.5725499987602234
1749919954273151000,8.21115087890625,-0.4512749910354614,1.5822124481201172,-0.3041499853134155
1749919954283164400,8.221164306640626,-0.37564998865127563,1.7803499698638916,-0.08896250277757645
1749919954293177600,8.231177490234375,-0.23498749732971191,2.1254749298095703,0.09844999760389328
1749919954303190800,8.241190673828125,-0.011274999938905239,2.233137369155884,0.15716250240802765
1749919954313204000,8.251203857421874,0.2667500078678131,1.6780500411987305,-0.05486249923706055
1749919954323217200,8.261217041015625,0.2124374955892563,1.1464749574661255,-0.21463750302791595
1749919954333230600,8.271230712890626,0.08992499858140945,0.42006251215934753,-0.42666250467300415
1749919954343243800,8.281243896484375,-0.09336250275373459,0.23361249268054962,-0.4692874848842621
1749919954353257000,8.291257080078125,-0.14231249690055847,0.47011250257492065,-0.28283751010894775
1749919954363270100,8.301270263671874,0.09418749809265137,0.929224967956543,-0.03355000168085098
1749919954373283300,8.311283447265625,0.37537500262260437,0.937749981880188,0.14011250436306
1749919954383296800,8.321296875,0.8163374662399292,0.6182000041007996,0.10807500034570694
1749919954393310000,8.33131005859375,0.9996249675750732,0.028049999848008156,0.0015124999918043613
1749919954403323100,8.3413232421875,0.982574999332428,-0.7027624845504761,-0.17847499251365662
1749919954413336300,8.35133642578125,0.8291249871253967,-1.191712498664856,-0.4320249855518341
1749919954423349500,8.361349609375,0.5979874730110168,-1.4399000406265259,-0.8112499713897705
1749919954433363000,8.371363037109376,0.5277249813079834,-1.4932500123977661,-1.2043625116348267
1749919954443376000,8.381376220703125,0.6107749938964844,-1.4069000482559204,-1.5003999471664429
1749919954453389600,8.3913896484375,0.7193999886512756,-1.4165250062942505,-1.6985374689102173
1749919954463402800,8.40140283203125,0.8461750149726868,-1.3068000078201294,-1.7113250494003296
1749919954473416000,8.411416015625,0.9505375027656555,-1.1991374492645264,-1.5589749813079834
1749919954483429000,8.42142919921875,0.9922000169754028,-1.3227499723434448,-1.342824935913086
1749919954493442300,8.4314423828125,1.002787470817566,-1.6732374429702759,-1.1882749795913696
1749919954503455500,8.44145556640625,1.1412500143051147,-1.8500624895095825,-1.045549988746643
1749919954513468700,8.45146875,1.4311000108718872,-1.726449966430664,-0.9102500081062317
1749919954523482000,8.461482177734375,1.7517499923706055,-1.4526875019073486,-0.8335250020027161
1749919954533495300,8.471495361328126,2.025512456893921,-1.2311749458312988,-0.8581374883651733
1749919954543508500,8.481508544921875,2.2609124183654785,-1.1863499879837036,-0.99013751745224
1749919954553522000,8.49152197265625,2.5122625827789307,-1.3472249507904053,-1.1723250150680542
1749919954563535000,8.50153515625,2.748762369155884,-1.5123624801635742,-1.3278374671936035
1749919954573548300,8.51154833984375,2.848862409591675,-1.567775011062622,-1.4290374517440796
1749919954583561500,8.5215615234375,2.797712564468384,-1.7616499662399292,-1.5333999395370483
1749919954593574700,8.53157470703125,2.6668124198913574,-2.3847999572753906,-1.675162434577942
1749919954603588000,8.541588134765625,2.593250036239624,-3.0271999835968018,-1.72837495803833
1749919954613601300,8.551601318359374,2.4803624153137207,-2.9525375366210938,-1.7146250009536743
1749919954623614500,8.561614501953125,2.1691999435424805,-2.3134374618530273,-1.6464250087738037
1749919954633627600,8.571627685546876,1.7432249784469604,-1.7925875186920166,-1.4449875354766846
1749919954643641000,8.58164111328125,1.3799500465393066,-1.3386999368667603,-1.1563750505447388
1749919954653654500,8.591654541015625,1.1998250484466553,-0.676087498664856,-0.8931999802589417
1749919954663667700,8.601667724609374,1.1412500143051147,0.055687498301267624,-0.695062518119812
1749919954673681000,8.611680908203125,1.1455124616622925,0.7129374742507935,-0.5715875029563904
1749919954683694000,8.621694091796876,1.213712453842163,1.1529375314712524,-0.5502749681472778
1749919954693707500,8.63170751953125,1.2744874954223633,1.3914999961853027,-0.6674249768257141
1749919954703720700,8.641720703125,1.3734874725341797,1.5523749589920044,-0.9241374731063843
1749919954713734000,8.65173388671875,1.5428874492645264,1.7260375022888184,-1.2979999780654907
1749919954723747000,8.6617470703125,1.8240749835968018,1.9997999668121338,-1.6623749732971191
1749919954733760300,8.67176025390625,2.080787420272827,2.242762565612793,-1.8957124948501587
1749919954743773400,8.6817734375,2.2481250762939453,2.5367374420166016,-1.950024962425232
1749919954753787000,8.691786865234375,2.2779624462127686,2.796612501144409,-1.9265124797821045
1749919954763800000,8.701800048828124,2.179924964904785,2.8221874237060547,-1.9830249547958374
1749919954773813200,8.711813232421875,2.049987554550171,2.537837505340576,-2.117224931716919
1749919954783826400,8.721826416015626,1.979587435722351,1.995537519454956,-2.1907875537872314
1749919954793839900,8.73183984375,1.8603750467300415,1.1583000421524048,-2.1279499530792236
1749919954803853000,8.74185302734375,1.6664999723434448,0.2975499927997589,-2.041599988937378
1749919954813866200,8.7518662109375,1.5290000438690186,-0.21271249651908875,-2.0054373741149902
1749919954823879400,8.76187939453125,1.5045249462127686,-0.34375,-1.9531874656677246
1749919954833892600,8.771892578125,1.5738250017166138,-0.39806249737739563,-1.891450047492981
1749919954843905800,8.78190576171875,1.6739250421524048,-0.5376250147819519,-1.8445625305175781
1749919954853919000,8.7919189453125,1.7836500406265259,-0.6399250030517578,-1.8221499919891357
1749919954863932400,8.801932373046874,1.9072624444961548,-0.5909749865531921,-1.8253124952316284
1749919954873945600,8.811945556640625,2.045725107192993,-0.43216249346733093,-1.8380999565124512
1749919954883958800,8.821958740234376,2.1586124897003174,-0.25107499957084656,-1.8530875444412231
1749919954893972000,8.831971923828124,2.2225499153137207,-0.11467500030994415,-1.8530875444412231
1749919954903985200,8.841985107421875,2.2470250129699707,-0.02199999988079071,-1.7763625383377075
1749919954913998600,8.85199853515625,2.259812593460083,0.09404999762773514,-1.6538499593734741
1749919954924011800,8.86201171875,2.2609124183654785,0.39765000343322754,-1.5461875200271606
1749919954934025000,8.87202490234375,2.21512508392334,0.9303249716758728,-1.4833500385284424
1749919954944038100,8.8820380859375,2.1170876026153564,1.5236375331878662,-1.4546124935150146
1749919954954051300,8.89205126953125,2.028675079345703,1.9667999744415283,-1.450350046157837
1749919954964064800,8.902064697265626,1.9658374786376953,2.153249979019165,-1.4386625289916992
1749919954974078000,8.912077880859375,1.8805874586105347,2.1489875316619873,-1.3811874389648438
1749919954984091100,8.922091064453125,1.767699956893921,2.0935750007629395,-1.2979999780654907
1749919954994104300,8.932104248046874,1.6548124551773071,2.014787435531616,-1.2479499578475952
1749919955004117800,8.94211767578125,1.5662624835968018,1.8624374866485596,-1.2330999374389648
1749919955014131000,8.952130859375,1.5034250020980835,1.6652624607086182,-1.2458875179290771
1749919955024144100,8.96214404296875,1.4555749893188477,1.4415500164031982,-1.2522125244140625
1749919955034157300,8.9721572265625,1.3766499757766724,1.2253999710083008,-1.2128875255584717
1749919955044170500,8.98217041015625,1.2744874954223633,1.0272624492645264,-1.1265374422073364
1749919955054184000,8.992183837890625,1.2105499505996704,0.8450750112533569,-1.0509124994277954
1749919955064197400,9.002197265625,1.2244374752044678,0.6767749786376953,-1.0157124996185303
1749919955074210600,9.01221044921875,1.2552374601364136,0.47753748297691345,-0.9741874933242798
1749919955084223700,9.0222236328125,1.2414875030517578,0.2441999912261963,-0.8772500157356262
1749919955094236700,9.032236572265624,1.169987440109253,0.05884999781847,-0.7547374963760376
1749919955104250000,9.04225,1.0837750434875488,0.025849999859929085,-0.6524375081062317
1749919955114263300,9.05226318359375,1.0144749879837036,0.10903749614953995,-0.5928999781608582
1749919955124276700,9.06227685546875,0.9218000173568726,0.195250004529953,-0.5480750203132629
1749919955134290000,9.0722900390625,0.7673875093460083,0.2441999912261963,-0.4809750020503998
1749919955144303000,9.08230322265625,0.5713124871253967,0.20377500355243683,-0.38513749837875366
1749919955154316000,9.09231591796875,0.3636874854564667,0.03753750026226044,-0.27541249990463257
1749919955164329500,9.10232958984375,0.19002500176429749,-0.13282500207424164,-0.16032500565052032
1749919955174342400,9.11234228515625,0.09308750182390213,-0.24681249260902405,-0.04207500070333481
1749919955184355800,9.12235595703125,0.048262499272823334,-0.30855000019073486,0.05912499874830246
1749919955194369000,9.132369140625,-0.00494999997317791,-0.33316248655319214,0.1592250019311905
1749919955204382200,9.14238232421875,-0.10821250081062317,-0.31817498803138733,0.2433750033378601
1749919955214395400,9.1523955078125,-0.22013749182224274,-0.36932501196861267,0.3051125109195709
1749919955224408600,9.16240869140625,-0.32243749499320984,-0.4769875109195709,0.3339875042438507
1749919955234421800,9.172421875,-0.38417500257492065,-0.6377249956130981,0.34031251072883606
1749919955244435000,9.18243505859375,-0.41401249170303345,-0.8028625249862671,0.3531000018119812
1749919955254448000,9.1924482421875,-0.4160749912261963,-0.9668999910354614,0.406312495470047
1749919955264461300,9.20246142578125,-0.43216249346733093,-1.119249939918518,0.4926624894142151
1749919955274474800,9.212474853515625,-0.4992625117301941,-1.1757625341415405,0.5501375198364258
1749919955284488000,9.222488037109375,-0.6249374747276306,-1.0756624937057495,0.5651249885559082
1749919955294501000,9.232501220703124,-0.7409874796867371,-0.9498500227928162,0.5651249885559082
1749919955304514600,9.2425146484375,-0.785812497138977,-0.8912749886512756,0.5821750164031982
1749919955314527500,9.252527587890626,-0.7623000144958496,-0.8625375032424927,0.6598625183105469
1749919955324540700,9.262540771484375,-0.6920375227928162,-0.8604750037193298,0.8047875165939331
1749919955334554000,9.27255419921875,-0.6056874990463257,-0.9020000100135803,0.9784500002861023
1749919955344567300,9.2825673828125,-0.5300624966621399,-0.9413250088691711,1.1222749948501587
1749919955354580500,9.29258056640625,-0.48963749408721924,-0.8721625208854675,1.1530749797821045
1749919955364593700,9.30259375,-0.5333625078201294,-0.6527125239372253,1.1317625045776367
1749919955374606800,9.31260693359375,-0.676087498664856,-0.5631999969482422,1.1360249519348145
1749919955384620300,9.322620361328125,-0.8634999990463257,-0.9020000100135803,1.1530749797821045
1749919955394633500,9.332633544921874,-1.025475025177002,-1.549625039100647,1.1829124689102173
1749919955404646700,9.342646728515625,-1.0797874927520752,-2.1610875129699707,1.1914374828338623
1749919955414659800,9.352659912109376,-0.9754250049591064,-2.4817373752593994,1.1243374347686768
1749919955424673000,9.362673095703125,-0.6696249842643738,-2.5766124725341797,0.9710249900817871
1749919955434686500,9.3726865234375,-0.20198750495910645,-2.5306875705718994,0.6726499795913696
1749919955444699600,9.38269970703125,0.29864999651908875,-2.2090749740600586,0.39998748898506165
1749919955454712800,9.392712890625,0.7258625030517578,-1.633774995803833,0.3392125070095062
1749919955464726000,9.40272607421875,1.0016875267028809,-0.8849499821662903,0.5875374674797058
1749919955474739200,9.4127392578125,1.0795124769210815,-0.19249999523162842,0.8590999841690063
1749919955484752400,9.42275244140625,1.1136125326156616,0.042899999767541885,0.768625020980835
1749919955494765800,9.432765869140624,1.2648625373840332,-0.08071249723434448,0.4713499844074249
1749919955504779000,9.442779052734375,1.5024625062942505,-0.381012499332428,0.3339875042438507
1749919955514792200,9.452792236328126,1.645187497138977,-0.720912516117096,0.4031499922275543
1749919955524805400,9.462805419921875,1.543987512588501,-0.9829875230789185,0.5927624702453613
1749919955534818600,9.472818603515625,1.2148125171661377,-0.989312469959259,0.7601000070571899
1749919955544832000,9.48283203125,0.7556999921798706,-0.5035250186920166,0.7387874722480774
1749919955554845200,9.49284521484375,0.40837499499320984,0.45196250081062317,0.5799750089645386
1749919955564858000,9.502858154296876,0.2656500041484833,1.2434124946594238,0.5330874919891357
1749919955574871300,9.512871337890624,0.19538749754428864,1.343649983406067,0.6439124941825867
1749919955584884500,9.522884521484375,0.062150001525878906,0.7214624881744385,0.7781124711036682
1749919955594898000,9.53289794921875,-0.1891999989748001,-0.09446249902248383,0.8431500196456909
1749919955604911000,9.5429111328125,-0.4768500030040741,-0.39489999413490295,0.8409500122070312
1749919955614924300,9.55292431640625,-0.7196750044822693,-0.06572499871253967,0.8324249982833862
1749919955624937500,9.5629375,-0.868862509727478,0.490325003862381,0.640749990940094
1749919955634951000,9.572950927734375,-1.0137875080108643,0.7001500129699707,0.13791249692440033
1749919955644964000,9.582964111328126,-1.0883125066757202,0.5244249701499939,-0.043175000697374344
1749919955654977300,9.592977294921875,-0.8262374997138977,0.035475000739097595,0.07933750003576279
1749919955664990500,9.602990478515625,-0.40232500433921814,-0.5898749828338623,0.13901250064373016
1749919955675003600,9.613003662109374,-0.10615000128746033,-0.7059249877929688,0.030387500301003456
1749919955685016800,9.623016845703125,-0.037950001657009125,-0.2447499930858612,-0.23594999313354492
1749919955695030000,9.633030029296876,-0.14231249690055847,0.2569875121116638,-0.5534374713897705
1749919955705043500,9.64304345703125,-0.30855000019073486,0.4647499918937683,-0.7739874720573425
1749919955715056600,9.653056640625,-0.49816250801086426,0.5148000121116638,-0.8496124744415283
1749919955725069800,9.66306982421875,-0.7016624808311462,0.5105375051498413,-0.8325625061988831
1749919955735083000,9.6730830078125,-0.868862509727478,0.47327500581741333,-0.7451124787330627
1749919955745096000,9.683095947265626,-0.9476500153541565,0.43174999952316284,-0.6301624774932861
1749919955755109000,9.693109130859375,-0.9689624905586243,0.35612499713897705,-0.5960624814033508
1749919955765122600,9.70312255859375,-0.9732249975204468,0.18562500178813934,-0.6045874953269958
1749919955775135700,9.7131357421875,-0.9700624942779541,-0.03698749840259552,-0.5715875029563904
1749919955785149000,9.72314892578125,-0.9637374877929688,-0.15839999914169312,-0.45223748683929443
1749919955795162000,9.733162109375,-0.9305999875068665,-0.17338749766349792,-0.3115749955177307
1749919955805175300,9.74317529296875,-0.7847124934196472,-0.2223374992609024,-0.27857500314712524
1749919955815188500,9.7531884765625,-0.5077875256538391,-0.3885749876499176,-0.428725004196167
1749919955825202000,9.763201904296874,-0.21367499232292175,-0.5696625113487244,-0.649275004863739
1749919955835214800,9.77321484375,-0.020899999886751175,-0.6612374782562256,-0.778249979019165
1749919955845228300,9.783228271484376,0.01746249943971634,-0.6516125202178955,-0.7558375000953674
1749919955855241500,9.793241455078125,-0.08910000324249268,-0.5163124799728394,-0.5810750126838684
1749919955865254700,9.803254638671875,-0.2798124849796295,-0.24365000426769257,-0.3265624940395355
1749919955875267800,9.813267822265624,-0.4353249967098236,0.08772499859333038,-0.11137499660253525
1749919955885280800,9.82328076171875,-0.4907374978065491,0.3166624903678894,0.006874999962747097
1749919955895294200,9.833294189453126,-0.45553749799728394,0.3539249897003174,0.06655000150203705
1749919955905307400,9.843307373046875,-0.367125004529953,0.18672500550746918,0.10175000131130219
1749919955915320600,9.853320556640625,-0.24461250007152557,-0.08910000324249268,0.14643749594688416
1749919955925333800,9.863333740234374,-0.17215000092983246,-0.28091248869895935,0.22316250205039978
1749919955935347200,9.87334716796875,-0.1891999989748001,-0.3778499960899353,0.32436248660087585
1749919955945360400,9.8833603515625,-0.29686251282691956,-0.5781875252723694,0.41593748331069946
1749919955955373600,9.89337353515625,-0.42570000886917114,-0.8210124969482422,0.5278624892234802
1749919955965386800,9.90338671875,-0.5035250186920166,-0.9935749769210815,0.6705874800682068
1749919955975400000,9.91339990234375,-0.47795000672340393,-1.2024375200271606,0.7269625067710876
1749919955985413000,9.9234130859375,-0.34375,-1.3088624477386475,0.7291625142097473
1749919955995426600,9.933426513671876,-0.1732500046491623,-1.2801250219345093,0.806850016117096
1749919956005439700,9.943439697265624,-0.04221250116825104,-1.3290749788284302,0.916575014591217
1749919956015453000,9.953452880859375,0.05156249925494194,-1.6295125484466553,0.9048874974250793
1749919956025466000,9.963466064453126,0.13887499272823334,-2.0268874168395996,0.761062502861023
1749919956035479000,9.97347900390625,0.22302499413490295,-2.217599868774414,0.6183375120162964
1749919956045492200,9.9834921875,0.31679999828338623,-2.263387441635132,0.511775016784668
1749919956055505400,9.99350537109375,0.4361499845981598,-2.3091750144958496,0.406312495470047
1749919956065518600,10.0035185546875,0.5863000154495239,-2.2580249309539795,0.369049996137619
1749919956075532000,10.013531982421876,0.7534999847412109,-2.005574941635132,0.4212999939918518
1749919956085545200,10.023545166015625,0.8984249830245972,-1.634874939918518,0.48730000853538513
1749919956095558400,10.033558349609375,0.9655249714851379,-1.2428624629974365,0.5086125135421753
1749919956105571600,10.043571533203124,0.9123125076293945,-0.7581750154495239,0.5501375198364258
1749919956115584800,10.053584716796875,0.7258625030517578,-0.2670249938964844,0.557699978351593
1749919956125598000,10.063597900390626,0.421162486076355,0.010999999940395355,0.414837509393692
1749919956135611000,10.07361083984375,0.028049999848008156,0.22082500159740448,0.32436248660087585
1749919956145624300,10.083624267578125,-0.28833749890327454,0.2932874858379364,0.3669874966144562
1749919956155637500,10.093637451171874,-0.4118124842643738,0.18988749384880066,0.3946250081062317
1749919956165650700,10.103650634765625,-0.3852750062942505,-0.010312499478459358,0.34251248836517334
1749919956175663900,10.113663818359376,-0.27761250734329224,-0.13928750157356262,0.27211248874664307
1749919956185677000,10.123677001953125,-0.14024999737739563,-0.18713749945163727,0.1975875049829483
1749919956195690200,10.133690185546875,-0.014574999921023846,-0.1498750001192093,0.11343749612569809
1749919956205703400,10.143703369140624,0.062150001525878906,-0.00494999997317791,0.05486249923706055
1749919956215716600,10.153716552734375,0.06324999779462814,0.08016250282526016,-0.02502499893307686
1749919956225729800,10.163729736328126,-0.0006874999962747097,0.03973750025033951,-0.11137499660253525
1749919956235743000,10.173742919921875,-0.07411249727010727,0.050324998795986176,-0.12622499465942383
1749919956245756200,10.183756103515625,-0.14767499268054962,0.1153625026345253,-0.09006249904632568
1749919956255769300,10.193769287109374,-0.21051250398159027,0.06737499684095383,-0.10807500034570694
1749919956265782500,10.203782470703125,-0.24461250007152557,-0.11041250079870224,-0.2083124965429306
1749919956275795700,10.213795654296876,-0.24681249260902405,-0.2532750070095062,-0.2839374840259552
1749919956285809000,10.223808837890624,-0.24351249635219574,-0.22550000250339508,-0.22536249458789825
1749919956295822300,10.233822265625,-0.2648249864578247,-0.11893749982118607,-0.1293874979019165
1749919956305835300,10.243835205078126,-0.27761250734329224,-0.13282500207424164,-0.11990000307559967
1749919956315848400,10.253848388671875,-0.27445000410079956,-0.14781250059604645,-0.14011250436306
1749919956325861600,10.263861572265625,-0.2872374951839447,0.0471624992787838,-0.06132499873638153
1749919956335875000,10.273875,-0.3128125071525574,0.31459999084472656,0.0611874982714653
1749919956345888300,10.28388818359375,-0.3106124997138977,0.37853750586509705,0.045237500220537186
1749919956355901400,10.2939013671875,-0.2829749882221222,0.171875,-0.11563749611377716
1749919956365914600,10.30391455078125,-0.22013749182224274,-0.007149999961256981,-0.1975875049829483
1749919956375927800,10.313927734375,-0.15729999542236328,0.05678749829530716,-0.08153750002384186
1749919956385941000,10.32394091796875,-0.13282500207424164,0.23787499964237213,0.1060125008225441
1749919956395954200,10.3339541015625,-0.1317249983549118,0.2975499927997589,0.17627499997615814
1749919956405967400,10.34396728515625,-0.11577499657869339,0.21449999511241913,0.08579999953508377
1749919956415980500,10.35398046875,-0.08799999952316284,0.2730749845504761,0.020762499421834946
1749919956425993700,10.36399365234375,-0.06462500244379044,0.6022499799728394,0.08153750002384186
1749919956436007000,10.3740068359375,-0.04221250116825104,0.9505375027656555,0.15812499821186066
1749919956446020000,10.38402001953125,-0.011274999938905239,1.0730500221252441,0.12828749418258667
1749919956456033300,10.394033203125,0.030249999836087227,1.0250624418258667,0.03987500071525574
1749919956466046700,10.404046630859375,0.05678749829530716,0.9803749918937683,0.03135000169277191
1749919956476059600,10.4140595703125,0.057887498289346695,0.9526000022888184,0.10917499661445618
1749919956486072800,10.42407275390625,0.014299999922513962,0.90048748254776,0.20391249656677246
1749919956496086000,10.4340859375,-0.06146249920129776,0.8194999694824219,0.24873749911785126
1749919956506099200,10.44409912109375,-0.13805000483989716,0.6523000001907349,0.21889999508857727
1749919956516112400,10.4541123046875,-0.17008750140666962,0.3581874966621399,0.141075000166893
1749919956526125600,10.46412548828125,-0.14024999737739563,0.0929500013589859,0.13048750162124634
1749919956536139000,10.474138916015624,-0.09226249903440475,0.018424998968839645,0.17737500369548798
1749919956546152000,10.48415185546875,-0.05926249921321869,0.09088750183582306,0.2274249941110611
1749919956556165000,10.4941650390625,-0.03478749841451645,0.15578749775886536,0.2700499892234802
1749919956566178300,10.50417822265625,0.010999999940395355,0.15908749401569366,0.29452499747276306
1749919956576191500,10.51419140625,0.07177499681711197,0.16651250422000885,0.33178749680519104
1749919956586205000,10.524204833984374,0.14630000293254852,0.2069374918937683,0.38609999418258667
1749919956596218000,10.534218017578125,0.23154999315738678,0.23993749916553497,0.40851250290870667
1749919956606231300,10.544231201171876,0.30937498807907104,0.2176624983549118,0.3669874966144562
1749919956616244200,10.554244140625,0.36258751153945923,0.17393749952316284,0.2689499855041504
1749919956626257400,10.56425732421875,0.3913249969482422,0.16651250422000885,0.16568750143051147
1749919956636270600,10.5742705078125,0.39448750019073486,0.17393749952316284,0.11343749612569809
1749919956646283800,10.58428369140625,0.38596248626708984,0.22618749737739563,0.12306249886751175
1749919956656297000,10.594296875,0.3689124882221222,0.35612499713897705,0.15386250615119934
1749919956666310400,10.604310302734374,0.3572250008583069,0.5425750017166138,0.17201249301433563
1749919956676323600,10.614323486328125,0.3497999906539917,0.7140374779701233,0.17943750321865082
1749919956686336800,10.624336669921876,0.3583250045776367,0.7970874905586243,0.20184999704360962
1749919956696349700,10.634349609375,0.37111249566078186,0.7768750190734863,0.2583625018596649
1749919956706363000,10.64436279296875,0.3540624976158142,0.7044125199317932,0.34347498416900635
1749919956716376300,10.654376220703124,0.2901250123977661,0.5713124871253967,0.4244624972343445
1749919956726389500,10.664389404296875,0.19538749754428864,0.3817000091075897,0.4437125027179718
1749919956736402700,10.674402587890626,0.11756250262260437,0.23045000433921814,0.3946250081062317
1749919956746415900,10.684415771484375,0.11756250262260437,0.19634999334812164,0.32436248660087585
1749919956756428800,10.6944287109375,0.1825999915599823,0.24639999866485596,0.2540999948978424
1749919956766442000,10.70444189453125,0.22728750109672546,0.26124998927116394,0.1634874939918518
1749919956776455200,10.714455078125,0.24860000610351562,0.19634999334812164,0.052662499248981476
1749919956786468400,10.72446826171875,0.24969999492168427,0.016224998980760574,-0.09116250276565552
1749919956796481800,10.734481689453125,0.2539624869823456,-0.24791249632835388,-0.2433750033378601
1749919956806495000,10.744494873046875,0.27623748779296875,-0.5739250183105469,-0.34677499532699585
1749919956816508000,10.7545078125,0.3316499888896942,-0.8710625171661377,-0.34251248836517334
1749919956826521000,10.76452099609375,0.3998500108718872,-1.0032000541687012,-0.2424124926328659
1749919956836534300,10.7745341796875,0.444537490606308,-0.9168499708175659,-0.12196250259876251
1749919956846547500,10.78454736328125,0.4222624897956848,-0.6569749712944031,-0.0719124972820282
1749919956856561000,10.794560791015625,0.36258751153945923,-0.3405874967575073,-0.09542500227689743
1749919956866574000,10.804573974609376,0.28476250171661377,-0.09129999577999115,-0.15399999916553497
1749919956876587000,10.8145869140625,0.22618749737739563,0.07273750007152557,-0.22316250205039978
1749919956886600200,10.82460009765625,0.2283875048160553,0.18466250598430634,-0.2796750068664551
1749919956896613400,10.83461328125,0.28806251287460327,0.26551249623298645,-0.2924624979496002
1749919956906626600,10.84462646484375,0.39352500438690186,0.33371248841285706,-0.26468750834465027
1749919956916640000,10.854639892578126,0.5160375237464905,0.34759998321533203,-0.1975875049829483
1749919956926653200,10.864653076171875,0.6374499797821045,0.3359124958515167,-0.10917499661445618
1749919956936666000,10.874666015625,0.7321875095367432,0.3422375023365021,-0.015399999916553497
1749919956946679300,10.88467919921875,0.7822374701499939,0.3667125105857849,0.05912499874830246
1749919956956692500,10.8946923828125,0.7790749669075012,0.42006251215934753,0.0952875018119812
1749919956966706000,10.904705810546876,0.7108749747276306,0.4977499842643738,0.10381250083446503
1749919956976719000,10.914718994140625,0.6150375008583069,0.5744749903678894,0.14217500388622284
1749919956986732300,10.924732177734375,0.5447750091552734,0.6523000001907349,0.2593249976634979
1749919956996745200,10.9347451171875,0.503250002861023,0.7396125197410583,0.4329875111579895
1749919957006758400,10.94475830078125,0.4862000048160553,0.8184000253677368,0.6003249883651733
1749919957016771600,10.954771484375,0.504212498664856,0.8578624725341797,0.7099124789237976
1749919957026784800,10.96478466796875,0.5638874769210815,0.8067125082015991,0.7345250248908997
1749919957036798200,10.974798095703125,0.6278250217437744,0.64267498254776,0.6726499795913696
1749919957046811100,10.98481103515625,0.67044997215271,0.40507498383522034,0.5725499987602234
1749919957056824300,10.99482421875,0.6991875171661377,0.1568875014781952,0.4937624931335449
1749919957066837500,11.00483740234375,0.7236624956130981,-0.06792499870061874,0.4437125027179718
1749919957076850700,11.0148505859375,0.7503374814987183,-0.22550000250339508,0.40851250290870667
1749919957086864100,11.024864013671875,0.7812749743461609,-0.28943750262260437,0.38609999418258667
1749919957096877000,11.034876953125,0.806850016117096,-0.26179999113082886,0.3936625123023987
1749919957106890200,11.04489013671875,0.8153749704360962,-0.15523749589920044,0.4351874887943268
1749919957116903400,11.0549033203125,0.7907624840736389,-0.009212499484419823,0.47561249136924744
1749919957126916600,11.06491650390625,0.7397499680519104,0.10999999940395355,0.4883999824523926
1749919957136929800,11.0749296875,0.7023500204086304,0.1494625061750412,0.4702500104904175
1749919957146943200,11.084943115234376,0.7236624956130981,0.09624999761581421,0.42762500047683716
1749919957156956200,11.0949560546875,0.7992874979972839,-0.018837500363588333,0.359562486410141
1749919957166969300,11.10496923828125,0.8824750185012817,-0.1317249983549118,0.2924624979496002
1749919957176982500,11.114982421875,0.9271624684333801,-0.20308749377727509,0.24873749911785126
1749919957186995700,11.12499560546875,0.9271624684333801,-0.22343750298023224,0.22948749363422394
1749919957197008600,11.135008544921876,0.9143750071525574,-0.19030000269412994,0.20611250400543213
1749919957207021800,11.145021728515625,0.9154750108718872,-0.1200374960899353,0.1592250019311905
1749919957217035300,11.15503515625,0.9240000247955322,-0.05939999967813492,0.09844999760389328
1749919957227048200,11.165048095703124,0.9293624758720398,-0.01677500084042549,0.052662499248981476
1749919957237061400,11.175061279296875,0.9186375141143799,0.04606249928474426,0.04097500070929527
1749919957247074600,11.185074462890626,0.8824750185012817,0.10051249712705612,0.06544999778270721
1749919957257087700,11.195087646484374,0.8238999843597412,0.06531249731779099,0.10381250083446503
1749919957267101000,11.205100830078125,0.7907624840736389,-0.05087500065565109,0.12086249887943268
1749919957277114000,11.215114013671876,0.8355875015258789,-0.1648624986410141,0.0719124972820282
1749919957287127300,11.225127197265625,0.9505375027656555,-0.25533750653266907,-0.04427500069141388
1749919957297140500,11.235140380859375,1.0848749876022339,-0.31075000762939453,-0.18906250596046448
1749919957307153400,11.2451533203125,1.155137538909912,-0.3405874967575073,-0.3063499927520752
1749919957317166600,11.25516650390625,1.146612524986267,-0.3246375024318695,-0.3573625087738037
1749919957327179800,11.2651796875,1.0965625047683716,-0.22550000250339508,-0.3499374985694885
1749919957337193200,11.275193115234375,1.0252000093460083,-0.047575000673532486,-0.3073124885559082
1749919957347206400,11.285206298828125,0.953837513923645,0.11646249890327454,-0.2583625018596649
1749919957357219300,11.29521923828125,0.9037874937057495,0.18672500550746918,-0.21779999136924744
1749919957367232500,11.305232421875,0.90048748254776,0.19744999706745148,-0.20295000076293945
1749919957377245700,11.31524560546875,0.9464125037193298,0.2059749960899353,-0.21683749556541443
1749919957387259000,11.3252587890625,1.0390875339508057,0.21656249463558197,-0.24447499215602875
1749919957397272300,11.335272216796875,1.1540374755859375,0.17710000276565552,-0.2807750105857849
1749919957407285200,11.34528515625,1.212612509727478,0.11852499842643738,-0.3063499927520752
1749919957417298400,11.35529833984375,1.1977624893188477,0.04936249926686287,-0.30841249227523804
1749919957427311600,11.3653115234375,1.1412500143051147,-0.02199999988079071,-0.2796750068664551
1749919957437324800,11.37532470703125,1.0709874629974365,-0.047575000673532486,-0.21463750302791595
1749919957447338000,11.385337890625,1.0496749877929688,-0.02199999988079071,-0.12622499465942383
1749919957457351200,11.39535107421875,1.102887511253357,0.06531249731779099,-0.06228749826550484
1749919957467364400,11.4053642578125,1.1593999862670898,0.25382500886917114,-0.03671250119805336
1749919957477377500,11.41537744140625,1.1614625453948975,0.444537490606308,0.0005499999970197678
1749919957487390500,11.425390380859374,1.1369874477386475,0.48922500014305115,0.08676250278949738
1749919957497404000,11.43540380859375,1.1402875185012817,0.466949999332428,0.18053749203681946
1749919957507417000,11.4454169921875,1.2020249366760254,0.45196250081062317,0.16568750143051147
1749919957517430300,11.45543017578125,1.2702250480651855,0.3891249895095825,0.002612499985843897
1749919957527443500,11.465443359375,1.2989624738693237,0.2730749845504761,-0.17627499997615814
1749919957537456400,11.475456298828124,1.3149124383926392,0.07699999958276749,-0.2807750105857849
1749919957547469600,11.485469482421875,1.3393875360488892,-0.12223749607801437,-0.3158375024795532
1749919957557482800,11.495482666015626,1.3234374523162842,-0.2223374992609024,-0.31693750619888306
1749919957567496000,11.505495849609375,1.2819124460220337,-0.21917499601840973,-0.28503748774528503
1749919957577509000,11.515509033203125,1.2509750127792358,-0.10188750177621841,-0.24131250381469727
1749919957587522300,11.525522216796874,1.2244374752044678,0.01732499897480011,-0.23485000431537628
1749919957597535500,11.535535400390625,1.178512454032898,0.11316250264644623,-0.2615250051021576
1749919957607548400,11.54554833984375,1.095462441444397,0.10683749616146088,-0.2583625018596649
1749919957617561900,11.555561767578125,0.9953625202178955,-0.2297624945640564,-0.22852499783039093
1749919957627575000,11.565574951171875,0.9132750034332275,-0.7464874982833862,-0.19236250221729279
1749919957637588000,11.575587890625,0.8163374662399292,-0.8284375071525574,-0.12196250259876251
1749919957647601200,11.58560107421875,0.6545000076293945,-0.38005000352859497,0.0005499999970197678
1749919957657614300,11.5956142578125,0.5053125023841858,0.08772499859333038,0.13791249692440033
1749919957667627500,11.60562744140625,0.4478375017642975,0.20487499237060547,0.2550624907016754
1749919957677640400,11.615640380859375,0.47341248393058777,-0.04331250116229057,0.3158375024795532
1749919957687654000,11.62565380859375,0.5979874730110168,-0.5046250224113464,0.2529999911785126
1749919957697666800,11.635666748046875,0.7875999808311462,-0.9190499782562256,0.12732499837875366
1749919957707680300,11.64568017578125,0.909012496471405,-1.1374000310897827,0.02928750030696392
1749919957717693200,11.655693115234374,0.8813750147819519,-1.257712483406067,-0.10284999758005142
1749919957727706400,11.665706298828125,0.7108749747276306,-1.2130249738693237,-0.21683749556541443
1749919957737719600,11.675719482421876,0.4265249967575073,-0.9094250202178955,-0.19016249477863312
1749919957747732700,11.685732666015625,0.10587500035762787,-0.3544749915599823,0.015399999916553497
1749919957757745700,11.69574560546875,-0.14767499268054962,0.20061250030994415,0.1742125004529953
1749919957767759000,11.705759033203124,-0.329862505197525,0.49348750710487366,0.14643749594688416
1749919957777772300,11.715772216796875,-0.4278999865055084,0.5181000232696533,0.06764999777078629
1749919957787785500,11.725785400390626,-0.4395875036716461,0.3581874966621399,-0.0037124999798834324
1749919957797798700,11.735798583984375,-0.381012499332428,-0.011412499472498894,-0.10175000131130219
1749919957807811600,11.7458115234375,-0.2989250123500824,-0.4844124913215637,-0.1699499934911728
1749919957817824800,11.75582470703125,-0.24461250007152557,-0.7453874945640564,-0.08689999580383301
1749919957827838000,11.765837890625,-0.1849374920129776,-0.767799973487854,0.07823749631643295
1749919957837851100,11.77585107421875,-0.10188750177621841,-0.6291999816894531,0.23278750479221344
1749919957847864300,11.7858642578125,-0.04867500066757202,-0.45237499475479126,0.3371500074863434
1749919957857877200,11.795877197265625,-0.07095000147819519,-0.35337498784065247,0.369049996137619
1749919957867890700,11.805890625,-0.18809999525547028,-0.22439999878406525,0.4170374870300293
1749919957877904000,11.81590380859375,-0.36079999804496765,-0.05403750017285347,0.5139750242233276
1749919957887916800,11.825916748046875,-0.5418875217437744,0.013062499463558197,0.5757125020027161
1749919957897930000,11.835929931640624,-0.7079874873161316,-0.03478749841451645,0.5821750164031982
1749919957907943200,11.845943115234375,-0.8347625136375427,-0.04977500066161156,0.6066499948501587
1749919957917956400,11.855956298828126,-0.9007624983787537,-0.09336250275373459,0.5906999707221985
1749919957927969500,11.865969482421875,-0.9040625095367432,-0.22769999504089355,0.5363875031471252
1749919957937982700,11.875982666015625,-0.860337495803833,-0.4054875075817108,0.521399974822998
1749919957947996000,11.885995849609374,-0.8113874793052673,-0.5440874695777893,0.5406500101089478
1749919957958009000,11.896009033203125,-0.8028625249862671,-0.6132500171661377,0.5682874917984009
1749919957968022000,11.90602197265625,-0.8305000066757202,-0.694237470626831,0.5373499989509583
1749919957978035200,11.91603515625,-0.8592374920845032,-0.7709624767303467,0.49912500381469727
1749919957988048400,11.92604833984375,-0.897599995136261,-0.822112500667572,0.4585624933242798
1749919957998061600,11.9360615234375,-0.9466875195503235,-0.8391624689102173,0.40851250290870667
1749919958008074800,11.94607470703125,-1.036062479019165,-0.7741249799728394,0.38609999418258667
1749919958018088000,11.956087890625,-1.1682000160217285,-0.6441875100135803,0.3755125105381012
1749919958028101000,11.96610107421875,-1.293874979019165,-0.48647499084472656,0.3531000018119812
1749919958038114300,11.9761142578125,-1.3695000410079956,-0.36932501196861267,0.3008500039577484
1749919958048127200,11.986127197265626,-1.402500033378601,-0.2180749922990799,0.3030500113964081
1749919958058140400,11.996140380859375,-1.4462250471115112,0.0056374999694526196,0.3988874852657318
1749919958068153600,12.006153564453125,-1.459012508392334,0.1387374997138977,0.4010874927043915
1749919958078166800,12.016166748046874,-1.411025047302246,0.19318750500679016,0.2998875081539154
1749919958088180000,12.026179931640625,-1.3429625034332275,0.23897500336170197,0.2956250011920929
1749919958098193200,12.036193115234376,-1.274762511253357,0.2176624983549118,0.3573625087738037
1749919958108206300,12.046206298828125,-1.2256749868392944,0.17077499628067017,0.44577500224113464
1749919958118219300,12.05621923828125,-1.2374999523162842,0.16335000097751617,0.5629249811172485
1749919958128232400,12.066232421875,-1.2864500284194946,0.16335000097751617,0.6737499833106995
1749919958138245600,12.07624560546875,-1.3183499574661255,0.03863750025629997,0.6833750009536743
1749919958148259000,12.086259033203126,-1.2960749864578247,-0.2180749922990799,0.5938624739646912
1749919958158272300,12.096272216796875,-1.2651374340057373,-0.3704249858856201,0.5981249809265137
1749919958168285200,12.10628515625,-1.2491874694824219,-0.44385001063346863,0.7184374928474426
1749919958178298400,12.11629833984375,-1.2150875329971313,-0.6217749714851379,0.7919999957084656
1749919958188311600,12.1263115234375,-1.1533499956130981,-0.8454874753952026,0.7462124824523926
1749919958198324500,12.136324462890625,-1.0872124433517456,-0.8806874752044678,0.6854375004768372
1749919958208338000,12.146337890625,-1.0499500036239624,-0.6654999852180481,0.6546375155448914
1749919958218350800,12.156350830078125,-1.0553125143051147,-0.3161124885082245,0.6183375120162964
1749919958228364300,12.1663642578125,-1.1127874851226807,0.040837500244379044,0.5554999709129333
1749919958238377200,12.176377197265625,-1.2171499729156494,0.26551249623298645,0.46502500772476196
1749919958248390400,12.186390380859375,-1.3162875175476074,0.30291250348091125,0.37757501006126404
1749919958258403600,12.196403564453124,-1.3600125312805176,0.2069374918937683,0.34031251072883606
1749919958268416500,12.20641650390625,-1.3259124755859375,0.10793749988079071,0.368087500333786
1749919958278429700,12.2164296875,-1.2449250221252441,0.0929500013589859,0.428725004196167
1749919958288443000,12.22644287109375,-1.1255749464035034,0.12498749792575836,0.4437125027179718
1749919958298456000,12.2364560546875,-0.9679999947547913,0.07919999957084656,0.3445749878883362
1749919958308469000,12.246468994140624,-0.8049250245094299,0.059950001537799835,0.20611250400543213
1749919958318482400,12.256482421875,-0.6866750121116638,0.21546250581741333,0.13901250064373016
1749919958328495400,12.266495361328126,-0.6164125204086304,0.4712125062942505,0.1368124932050705
1749919958338508500,12.276508544921874,-0.57378751039505,0.717199981212616,0.16032500565052032
1749919958348521700,12.286521728515625,-0.5546749830245972,0.9153375029563904,0.18479999899864197
1749919958358535000,12.296534912109376,-0.5493124723434448,1.0528374910354614,0.19868749380111694
1749919958368548000,12.306548095703125,-0.5257999897003174,1.0826749801635742,0.1975875049829483
1749919958378561300,12.316561279296875,-0.4811125099658966,1.0282249450683594,0.19868749380111694
1749919958388574200,12.32657421875,-0.4310624897480011,0.9143750071525574,0.20295000076293945
1749919958398587400,12.33658740234375,-0.38843750953674316,0.7492374777793884,0.19442500174045563
1749919958408600600,12.3466005859375,-0.3489750027656555,0.5616874694824219,0.1751749962568283
1749919958418613800,12.35661376953125,-0.3053874969482422,0.40727499127388,0.16458749771118164
1749919958428627000,12.366626953125,-0.2765125036239624,0.31033748388290405,0.15606249868869781
1749919958438640000,12.37664013671875,-0.2574000060558319,0.2634499967098236,0.12828749418258667
1749919958448653000,12.386653076171875,-0.24777500331401825,0.2730749845504761,0.09212499856948853
1749919958458666200,12.396666259765626,-0.22123749554157257,0.34113749861717224,0.06875000149011612
1749919958468679400,12.406679443359375,-0.15619999170303345,0.4573250114917755,0.058024998754262924
1749919958478692600,12.416692626953125,-0.052937500178813934,0.6000499725341797,0.052662499248981476
1749919958488705800,12.426705810546874,0.09088750183582306,0.7374125123023987,0.06875000149011612
1749919958498719000,12.436718994140625,0.23471249639987946,0.8237624764442444,0.09006249904632568
1749919958508732200,12.446732177734376,0.3423750102519989,0.8674874901771545,0.1060125008225441
1749919958518745000,12.4567451171875,0.41263750195503235,0.8525000214576721,0.09638749808073044
1749919958528758300,12.46675830078125,0.453062504529953,0.7416750192642212,0.07727500051259995
1749919958538771500,12.476771484375,0.46268749237060547,0.5350124835968018,0.10175000131130219
1749919958548784600,12.48678466796875,0.3987500071525574,0.2858625054359436,0.15716250240802765
1749919958558797800,12.4967978515625,0.254925012588501,0.0695749968290329,0.18369999527931213
1749919958568810800,12.506810791015624,0.1494625061750412,-0.11261250078678131,0.16885000467300415
1749919958578824200,12.51682421875,0.14093749225139618,-0.23828749358654022,0.14643749594688416
1749919958588837000,12.526837158203126,0.20281249284744263,-0.30758750438690186,0.1634874939918518
1749919958598850300,12.536850341796875,0.29548749327659607,-0.3096500039100647,0.23058749735355377
1749919958608863500,12.546863525390625,0.3722124993801117,-0.24365000426769257,0.2913624942302704
1749919958618876400,12.55687646484375,0.40521249175071716,-0.20212499797344208,0.28600001335144043
1749919958628889600,12.5668896484375,0.41690000891685486,-0.2670249938964844,0.19965000450611115
1749919958638903000,12.576903076171876,0.46158748865127563,-0.37674999237060547,0.052662499248981476
1749919958648916200,12.586916259765625,0.5319874882698059,-0.4278999865055084,-0.11769999563694
1749919958658929200,12.59692919921875,0.5809375047683716,-0.38747498393058777,-0.2807750105857849
1749919958668942300,12.6069423828125,0.5724124908447266,-0.31501248478889465,-0.40755000710487366
1749919958678955500,12.61695556640625,0.5170000195503235,-0.28943750262260437,-0.47244998812675476
1749919958688968400,12.626968505859375,0.4563624858856201,-0.3255999982357025,-0.4618625044822693
1749919958698982000,12.63698193359375,0.43188750743865967,-0.42157500982284546,-0.390500009059906
1749919958708995000,12.6469951171875,0.49472498893737793,-0.5674625039100647,-0.3020874857902527
