time,seconds_elapsed,z,y,x
1748143381567030500,0.058030517578125,-1.2082914113998413,-0.6414085030555725,1.4492777585983276
1748143381585381000,0.076381103515625,-1.3333661556243896,-0.6142250299453735,1.0714576244354248
1748143381603648000,0.09464794921875,-1.1239920854568481,-0.741895854473114,0.8006916046142578
1748143381621911600,0.11291162109375,-1.0971139669418335,-1.1088731288909912,0.5309945940971375
1748143381640173600,0.131173583984375,-1.3842206001281738,-1.1267409324645996,0.31581732630729675
1748143381658441500,0.14944140625,-1.5448782444000244,-0.9245445728302002,-0.2646573781967163
1748143381676705800,0.167705810546875,-1.472796082496643,-0.3061962127685547,-1.1198687553405762
1748143381694969000,0.185968994140625,-1.3600914478302002,0.5665774941444397,-1.737606167793274
1748143381713234700,0.204234619140625,-1.0894781351089478,1.006095051765442,-1.6548339128494263
1748143381731494400,0.222494384765625,-0.6669121384620667,1.204779028892517,-0.9714284539222717
1748143381749762600,0.240762451171875,-0.35292738676071167,0.9425650835037231,-0.36682456731796265
1748143381768028200,0.259028076171875,-0.13011430203914642,-1.6714800596237183,-0.2776382565498352
1748143381786292700,0.277292724609375,1.0109820365905762,-4.274987697601318,-0.451123982667923
1748143381804558300,0.295558349609375,1.0897835493087769,-5.474727153778076,-0.2802344262599945
1748143381822820600,0.313820556640625,0.13057245314121246,-5.316359996795654,-0.2701551616191864
1748143381841085000,0.3320849609375,-1.250899314880371,-2.9750664234161377,-0.039706241339445114
1748143381859350300,0.350350341796875,-1.2460123300552368,-0.5760459303855896,-0.00855211354792118
1748143381877616600,0.36861669921875,-0.3683517575263977,-0.38698312640190125,0.09575312584638596
1748143381895876600,0.386876708984375,0.11499538272619247,-0.18875735998153687,0.18875735998153687
1748143381914138600,0.405138671875,0.4280638098716736,-0.15363261103630066,0.02382374368607998
1748143381932408000,0.423407958984375,0.3865249752998352,-0.40622538328170776,-0.3199406862258911
1748143381950673000,0.4416728515625,0.2272418737411499,-0.1768454909324646,-0.6026185750961304
1748143381968937200,0.459937255859375,0.20845776796340942,-0.4960225820541382,-0.7118107080459595
1748143381987200500,0.478200439453125,0.21639901399612427,-0.5988006591796875,-0.6959282159805298
1748143382005465900,0.4964658203125,0.3474296033382416,-0.45921793580055237,-0.8405506014823914
1748143382023730400,0.51473046875,0.517861008644104,-0.25045475363731384,-0.9714284539222717
1748143382041995300,0.532995361328125,0.4541783034801483,-0.28695395588874817,-0.922711968421936
1748143382060258000,0.551258056640625,0.6855435371398926,-0.8310821652412415,-0.8162686824798584
1748143382078519000,0.56951904296875,1.1042916774749756,-1.5178474187850952,-0.5203045010566711
1748143382096787200,0.587787109375,1.050840973854065,-2.7319421768188477,-0.21991148591041565
1748143382115054000,0.60605419921875,0.6275113224983215,-3.0937271118164062,-0.27870726585388184
1748143382133304000,0.624303955078125,0.48655417561531067,-3.0378329753875732,-0.2675589919090271
1748143382151580200,0.642580078125,0.5975789427757263,-3.0699033737182617,-0.20112738013267517
1748143382169847300,0.660847412109375,0.8634580373764038,-3.5837936401367188,-0.23380866646766663
1748143382188110800,0.67911083984375,0.9173668622970581,-3.829972267150879,-0.26679539680480957
1748143382206374100,0.6973740234375,1.0465649366378784,-3.8770089149475098,-0.37430769205093384
1748143382224639700,0.7156396484375,1.3671164512634277,-4.143957138061523,-0.27000242471694946
1748143382242904000,0.733904052734375,1.705993890762329,-4.4819183349609375,0.27611109614372253
1748143382261167600,0.752167724609375,2.0505218505859375,-4.499480724334717,0.8486445546150208
1748143382279428900,0.770428955078125,2.5141687393188477,-4.7360382080078125,1.1688905954360962
1748143382297697300,0.788697265625,3.0253100395202637,-4.893030643463135,1.338711142539978
1748143382315959600,0.80695947265625,3.4077117443084717,-4.474740505218506,1.2855658531188965
1748143382334221600,0.8252216796875,3.7681221961975098,-3.955963373184204,1.1769846677780151
1748143382352489700,0.84348974609375,4.250247478485107,-3.5544722080230713,1.0948232412338257
1748143382370755300,0.86175537109375,4.605160236358643,-3.196352481842041,1.1649199724197388
1748143382389019600,0.88001953125,4.5937066078186035,-2.621070146560669,1.5987870693206787
1748143382407281200,0.89828125,4.559192657470703,-1.8988746404647827,1.8379408121109009
1748143382425550600,0.916550537109375,4.401589393615723,-1.2405146360397339,2.7878363132476807
1748143382443812900,0.934812744140625,3.86418080329895,-1.23394775390625,3.7696495056152344
1748143382462077700,0.95307763671875,3.4008395671844482,-1.4140002727508545,4.374864101409912
1748143382480337400,0.97133740234375,3.087007522583008,-1.455691933631897,4.8143815994262695
1748143382498604300,0.989604248046875,2.1933116912841797,-1.7085901498794556,4.684114933013916
1748143382516868900,1.007868896484375,1.543809175491333,-1.0946705341339111,3.7652206420898438
1748143382535133400,1.026133544921875,0.6905831694602966,-0.01817324012517929,2.2424862384796143
1748143382553400600,1.044400634765625,-0.3344487249851227,1.3096951246261597,0.8804095387458801
1748143382571662000,1.062662109375,-1.2596040964126587,2.233170509338379,-0.25473082065582275
1748143382589923800,1.080923828125,-1.4706580638885498,2.9350547790527344,-1.2348641157150269
1748143382608191500,1.09919140625,-1.3472633361816406,3.254689931869507,-2.1337523460388184
1748143382626459000,1.117458984375,-1.7137824296951294,2.956587791442871,-2.236224889755249
1748143382644721200,1.13572119140625,-2.004248857498169,2.5387558937072754,-1.5966490507125854
1748143382662986800,1.15398681640625,-2.3357958793640137,1.8425222635269165,-1.3457361459732056
1748143382681251300,1.172251220703125,-3.126866579055786,1.1157454252243042,-1.3371840715408325
1748143382699515600,1.190515625,-4.3340888023376465,0.12064588814973831,-1.0253373384475708
1748143382717778700,1.20877880859375,-4.643033981323242,-0.8127561807632446,-0.965319812297821
1748143382736043500,1.22704345703125,-4.153120040893555,-1.7901406288146973,-0.8187121152877808
1748143382754310100,1.24531005859375,-3.492163896560669,-2.554027557373047,-0.2269364446401596
1748143382772572200,1.263572265625,-3.2458324432373047,-2.814256191253662,0.36590829491615295
1748143382790837800,1.281837646484375,-2.4747679233551025,-2.48515248298645,0.20036379992961884
1748143382809102300,1.300102294921875,-1.8124371767044067,-1.6436856985092163,0.1339322030544281
1748143382827366700,1.31836669921875,-1.7861700057983398,-1.4230105876922607,0.5812382698059082
1748143382845633000,1.336633056640625,-1.4330898523330688,-1.727832317352295,1.1759155988693237
1748143382863891500,1.354891357421875,-0.7948883771896362,-2.348165988922119,1.326341152191162
1748143382882156500,1.373156494140625,-0.8193230032920837,-2.9103147983551025,0.9686795473098755
1748143382900420000,1.391420166015625,-0.29275718331336975,-2.6671903133392334,0.8527678847312927
1748143382918689000,1.40968896484375,0.0403171069920063,-2.0502164363861084,0.7392996549606323
1748143382936952600,1.42795263671875,-0.3956879675388336,-1.4063645601272583,0.7082982659339905
1748143382955218000,1.446218017578125,-0.8003861904144287,-1.3281737565994263,0.4996877610683441
1748143382973482200,1.464482177734375,-1.4844025373458862,-2.518444776535034,-0.23380866646766663
1748143382991746800,1.482746826171875,-1.378722906112671,-2.8930578231811523,-0.47968193888664246
1748143383010011000,1.501010986328125,-0.5884159207344055,-2.4575109481811523,-0.38347065448760986
1748143383028275000,1.51927490234375,-0.2736676335334778,-1.401172161102295,-0.13271047174930573
1748143383046542000,1.5375419921875,-0.30283644795417786,-1.0893254280090332,0.02229658141732216
1748143383064804400,1.555804443359375,-0.07788532227277756,-1.7466164827346802,-0.13775011897087097
1748143383092200700,1.58320068359375,0.5290092825889587,-4.617835998535156,-0.475253164768219
1748143383110457900,1.601457763671875,1.0743592977523804,-6.20425271987915,-0.5893322229385376
1748143383128728600,1.619728515625,1.5847371816635132,-5.867666244506836,-0.24266621470451355
1748143383146990800,1.637990966796875,1.5702290534973145,-3.386789560317993,0.5213735103607178
1748143383165259500,1.656259521484375,0.9950994849205017,-2.127490997314453,0.8558222055435181
1748143383183524000,1.674524169921875,-0.19349156320095062,-1.9234619140625,0.11636982858181
1748143383201787400,1.692787353515625,-1.2961033582687378,-1.2589932680130005,-0.7260133624076843
1748143383220052000,1.711052001953125,-1.3548991680145264,-0.37659841775894165,-0.6669121384620667
1748143383238317600,1.729317626953125,-0.983951210975647,-0.3147483170032501,-0.21914790570735931
1748143383274846500,1.765846435546875,-0.5522221922874451,0.01038470957428217,0.23457226157188416
1748143383293110000,1.784110107421875,-0.4534147381782532,0.43386703729629517,0.23915374279022217
1748143383311374000,1.8023740234375,-0.3602577745914459,0.4528038501739502,0.3257438838481903
1748143383329638700,1.820638671875,-0.22937989234924316,0.4092797040939331,0.4812090992927551
1748143383347903200,1.8389033203125,-0.06459899991750717,0.526107668876648,0.6038402915000916
1748143383366163700,1.857163818359375,0.17241671681404114,0.9246972799301147,0.6525567770004272
1748143383384431900,1.875431884765625,0.46990808844566345,1.3141238689422607,0.6104071140289307
1748143383402696400,1.893696533203125,0.7029531598091125,1.4107933044433594,0.35750889778137207
1748143383420959700,1.911959716796875,0.6960809230804443,1.5583171844482422,0.06872233748435974
1748143383439226600,1.9302265625,0.5838344693183899,1.7172949314117432,-0.13744467496871948
1748143383457490000,1.948489990234375,0.24984388053417206,1.7544050216674805,-0.03344487398862839
1748143383475753500,1.96675341796875,-0.15836681425571442,1.8170186281204224,0.21441370248794556
1748143383494020000,1.98502001953125,0.03940080851316452,1.3797918558120728,0.5054910182952881
1748143383512283400,2.003283447265625,0.593302845954895,1.479362964630127,0.77472984790802
1748143383530551000,2.021551025390625,0.969443142414093,1.296714186668396,1.2108876705169678
1748143383548812300,2.039812255859375,1.7052303552627563,0.4193589985370636,1.6042848825454712
1748143383567076900,2.058076904296875,3.0225613117218018,-0.3882048726081848,1.846492886543274
1748143383585341400,2.076341552734375,3.730095863342285,-0.3104722499847412,2.0728185176849365
1748143383603604700,2.094604736328125,3.997502088546753,0.5057964324951172,2.4550673961639404
1748143383621871000,2.11287109375,4.245819091796875,1.5303701162338257,2.5308146476745605
1748143383640130300,2.13113037109375,4.525595188140869,1.8203784227371216,2.342362880706787
1748143383658394600,2.14939453125,4.472449779510498,1.1053606271743774,2.1177170276641846
1748143383676662500,2.16766259765625,4.354705810546875,0.25564709305763245,2.071444034576416
1748143383694929400,2.185929443359375,4.3785295486450195,-0.4639521539211273,2.101529121398926
1748143383713192700,2.204192626953125,4.864319801330566,-0.8287914395332336,1.7380642890930176
1748143383731457300,2.222457275390625,4.772995471954346,-0.04642575979232788,1.0071641206741333
1748143383749721600,2.2407216796875,3.2681291103363037,1.5470162630081177,0.6061310172080994
1748143383767986200,2.258986083984375,0.9805914163589478,2.270128011703491,0.7896960377693176
1748143383786250500,2.27725048828125,-0.6687447428703308,1.8225164413452148,1.1855367422103882
1748143383804515000,2.29551513671875,-0.7790058851242065,0.42088615894317627,1.3854423761367798
1748143383822779600,2.313779541015625,-0.22678372263908386,-0.5948300361633301,1.2663236856460571
1748143383841044000,2.3320439453125,0.4401284158229828,-0.9857838153839111,1.0538952350616455
1748143383859308500,2.35030859375,0.8498662710189819,-1.0566442012786865,0.8617781400680542
1748143383877571800,2.36857177734375,1.004873275756836,-1.5372424125671387,0.7840455174446106
1748143383895837400,2.38683740234375,0.8100073337554932,-2.076941728591919,0.8376489877700806
1748143383914103600,2.405103515625,0.24572055041790009,-2.4529294967651367,0.9870055317878723
1748143383932365300,2.423365234375,-0.5048801302909851,-2.1682662963867188,1.0780243873596191
1748143383950625300,2.441625244140625,-0.5673410892486572,-1.7108808755874634,1.034194827079773
1748143383968897500,2.4598974609375,0.06276640295982361,-1.0015136003494263,0.8310821652412415
1748143383987153200,2.478153076171875,0.4300491213798523,-0.2942843437194824,0.6998988389968872
1748143384005421600,2.496421630859375,0.4277583956718445,-0.05604688450694084,0.6968445181846619
1748143384023685600,2.514685546875,0.21471913158893585,0.045204028487205505,0.6635523438453674
1748143384041956400,2.532956298828125,-0.16279558837413788,0.35246923565864563,0.5516113042831421
1748143384060217600,2.551217529296875,-0.4973970353603363,0.8460483551025391,0.5389358401298523
1748143384078482200,2.569482177734375,-0.7565566301345825,0.9379835724830627,0.5755877494812012
1748143384096746800,2.587746826171875,-0.887739896774292,0.7811439037322998,0.40301835536956787
1748143384115011300,2.60601123046875,-0.7400632500648499,0.8944594264030457,0.005497787147760391
1748143384133261600,2.624261474609375,-0.4317290186882019,1.1882855892181396,-0.3116939961910248
1748143384151540500,2.64254052734375,-0.14019356667995453,1.3907874822616577,-0.2565633952617645
1748143384169804500,2.660804443359375,0.04993823543190956,1.2177598476409912,0.06123924255371094
1748143384188069400,2.6790693359375,0.11163562536239624,0.651945948600769,0.3407101035118103
1748143384206333700,2.697333740234375,0.12339477986097336,-0.1010981947183609,0.4098905920982361
1748143384224597200,2.71559716796875,0.096211276948452,-0.8929322957992554,0.13469578325748444
1748143384242851600,2.7338515625,-0.04214970022439957,-1.3400856256484985,-0.235030397772789
1748143384261123000,2.752123046875,-0.15790866315364838,-1.1383473873138428,-0.489608496427536
1748143384279382300,2.77038232421875,-0.0809396430850029,-0.43539419770240784,-0.6690501570701599
1748143384297656000,2.788656005859375,0.14278975129127502,0.31612277030944824,-0.8127561807632446
1748143384315919600,2.806919677734375,0.260992169380188,0.5627595782279968,-1.0131200551986694
1748143384334187800,2.825187744140625,0.3068070709705353,0.33658674359321594,-1.3220651149749756
1748143384352449500,2.843449462890625,0.27809640765190125,-0.10323622822761536,-1.705383062362671
1748143384370714000,2.861714111328125,0.1459967941045761,0.052839845418930054,-1.9117027521133423
1748143384388978400,2.879978515625,0.0529925599694252,0.0025961773935705423,-1.8417587280273438
1748143384407243300,2.8982431640625,0.014202617108821869,-0.5534439086914062,-1.6670511960983276
1748143384425507600,2.916507568359375,-0.013897184282541275,-1.0771081447601318,-1.7563903331756592
1748143384443772200,2.934772216796875,-0.1385136991739273,-1.3704761266708374,-2.1739165782928467
1748143384462036500,2.953036376953125,-0.2353358417749405,-1.0256427526474,-2.481792688369751
1748143384480301000,2.971301025390625,-0.2405281960964203,-0.16859880089759827,-2.3605360984802246
1748143384498564400,2.989564453125,-0.19883663952350616,0.7305948138237,-1.9257526397705078
1748143384516826400,3.007826416015625,-0.10399980843067169,1.2483031749725342,-1.6412421464920044
1748143384535093200,3.02609326171875,0.08078692853450775,1.2554807662963867,-1.500285029411316
1748143384553360100,3.044360107421875,0.12767083942890167,0.46364670991897583,-1.3904820680618286
1748143384571623700,3.062623779296875,-0.05406157299876213,-1.2333369255065918,-1.396132469177246
1748143384589888000,3.080887939453125,-0.34834590554237366,-2.428800106048584,-1.2968668937683105
1748143384608147700,3.099147705078125,-0.48059824109077454,-1.903608798980713,-0.9836457371711731
1748143384626417000,3.1174169921875,-0.5842925906181335,-0.6582072973251343,-0.7406741380691528
1748143384644681500,3.135681396484375,-0.7050912380218506,-0.2816088795661926,-0.7295258045196533
1748143384662945800,3.15394580078125,-0.6288857460021973,-0.8193230032920837,-0.8006916046142578
1748143384681210400,3.17221044921875,-0.41004329919815063,-1.1838568449020386,-0.8434522151947021
1748143384699475000,3.190474853515625,-0.32498031854629517,-1.1969904899597168,-0.825584352016449
1748143384717739500,3.208739501953125,-0.11316278576850891,-0.7707592248916626,-0.5462662577629089
1748143384736002600,3.22700244140625,0.009010262787342072,-0.5047274231910706,-0.2993239760398865
1748143384754267400,3.245267333984375,0.09498954564332962,-0.4781547784805298,-0.2028072625398636
1748143384772525600,3.263525634765625,0.16264286637306213,-0.36422839760780334,-0.09208793938159943
1748143384790796000,3.281796142578125,0.17119498550891876,-0.12690725922584534,0.060322944074869156
1748143384809063200,3.300063232421875,0.09300423413515091,-0.0039706239476799965,0.14676037430763245
1748143384827326500,3.318326416015625,0.0065668015740811825,-0.11148291081190109,0.1492038369178772
1748143384845589800,3.33658984375,0.05726861581206322,-0.08720101416110992,0.19013181328773499
1748143384863856400,3.3548564453125,0.1108720451593399,0.39797869324684143,0.2269364446401596
1748143384882123500,3.37312353515625,-0.04596760869026184,0.8423831462860107,0.1186605766415596
1748143384900379600,3.391379638671875,-0.26603180170059204,0.6140722632408142,0.04046982154250145
1748143384918648800,3.40964892578125,-0.40225476026535034,0.0029016099870204926,0.06490442901849747
1748143384936913400,3.427913330078125,-0.4050036668777466,-0.5760459303855896,0.17256943881511688
1748143384955174100,3.446174072265625,-0.3196352422237396,-0.7675521969795227,0.2802344262599945
1748143384973442300,3.4644423828125,-0.11468994617462158,-0.5529857873916626,0.38240164518356323
1748143384991707000,3.482706787109375,0.07254024595022202,-0.3459024429321289,0.4366159439086914
1748143385009971500,3.500971435546875,0.25534167885780334,-0.3500257730484009,0.5348125100135803
1748143385028232400,3.519232421875,0.3767511546611786,-0.34895676374435425,0.6178901791572571
1748143385046497800,3.537497802734375,0.55069500207901,-0.10415252298116684,0.4053090810775757
1748143385064761600,3.55576171875,0.8275696635246277,0.13454307615756989,-0.009162978269159794
1748143385083033600,3.57403369140625,0.9152288436889648,-0.2871066629886627,-0.1849394589662552
1748143385101293000,3.59229296875,0.7496843934059143,-0.33796119689941406,0.2684752643108368
1748143385119559400,3.610559326171875,0.7050912380218506,0.47082439064979553,0.8561276197433472
1748143385137823000,3.628822998046875,0.6479753255844116,0.8584184050559998,1.1068878173828125
1748143385156086000,3.6470859375,0.6116288304328918,1.119410514831543,1.0305296182632446
1748143385174353200,3.665353271484375,0.5372560024261475,1.546558141708374,0.9005680680274963
1748143385192617500,3.683617431640625,0.5679519772529602,1.714240550994873,0.9689850211143494
1748143385210879700,3.701879638671875,0.5271766781806946,1.6847662925720215,1.4019356966018677
1748143385229140700,3.720140625,0.471129834651947,1.3959797620773315,1.7708983421325684
1748143385247410000,3.738409912109375,0.42180246114730835,1.207069754600525,1.6569719314575195
1748143385265674500,3.756674560546875,0.37980547547340393,1.0352638959884644,1.3185526132583618
1748143385283938800,3.774938720703125,0.39095374941825867,0.9149234294891357,1.1913399696350098
1748143385302202400,3.793202392578125,0.7067710757255554,0.7351763248443604,1.2764029502868652
1748143385320470300,3.81147021484375,1.0900890827178955,0.39156460762023926,1.433395266532898
1748143385338732300,3.829732177734375,1.207375168800354,0.05619960278272629,1.5402966737747192
1748143385356985300,3.8479853515625,0.8087855577468872,-0.08017606288194656,1.5722143650054932
1748143385375256600,3.866256591796875,0.9321803450584412,0.0809396430850029,1.4648548364639282
1748143385393525500,3.884525390625,1.1427761316299438,0.4282165467739105,1.342529058456421
1748143385411790600,3.90279052734375,1.0965031385421753,0.7205155491828918,1.2819007635116577
1748143385430054700,3.9210546875,0.8350527882575989,0.7211264371871948,1.2625057697296143
1748143385448319500,3.939319580078125,0.4795292317867279,0.4996877610683441,1.2618948221206665
1748143385466582500,3.95758251953125,0.08429940044879913,0.1921171247959137,1.252121090888977
1748143385484849700,3.975849609375,-0.38927388191223145,-0.01664607785642147,1.169806957244873
1748143385503113200,3.99411328125,-1.0729848146438599,-0.11682797968387604,1.0783299207687378
1748143385521377300,4.012377197265625,-2.143831491470337,-0.3700316250324249,0.9396634697914124
1748143385539641600,4.0306416015625,-3.338531255722046,-0.6582072973251343,0.7388415336608887
1748143385557905200,4.0489052734375,-3.50300669670105,-0.6953173875808716,0.4729624092578888
1748143385576168000,4.06716796875,-3.118161678314209,-0.00855211354792118,0.08109235763549805
1748143385594435300,4.085435302734375,-1.2388347387313843,1.337031364440918,-0.21670444309711456
1748143385612699600,4.10369970703125,-0.12110403180122375,1.1743884086608887,0.16233743727207184
1748143385630964200,4.121964111328125,-0.10033461451530457,-0.009162978269159794,0.4486805200576782
1748143385649229000,4.14022900390625,0.22540926933288574,-0.6533203721046448,0.2993239760398865
1748143385667493600,4.15849365234375,0.32940909266471863,-0.6007859706878662,0.13118331134319305
1748143385685756700,4.176756591796875,0.14844025671482086,-0.5010622143745422,0.18387043476104736
1748143385704023600,4.1950234375,0.07635815441608429,-0.19898934662342072,0.2912299931049347
1748143385722286600,4.21328662109375,0.09957103431224823,0.19517144560813904,0.337044894695282
1748143385740552400,4.231552490234375,0.23900102078914642,0.38896843791007996,0.3292563557624817
1748143385758815200,4.249815185546875,0.36300668120384216,0.1814269721508026,0.32879820466041565
1748143385777080300,4.268080322265625,0.5085453391075134,0.03695734590291977,0.260992169380188
1748143385795345000,4.286344970703125,0.7295258045196533,0.04703662544488907,0.16340644657611847
1748143385813608400,4.3046083984375,0.7437284588813782,0.14538592100143433,-0.036193765699863434
1748143385831874800,4.322874755859375,0.7136433124542236,0.18280142545700073,-0.12522737681865692
1748143385850133800,4.3411337890625,0.4434881806373596,0.1840231567621231,-0.055283304303884506
1748143385868403000,4.35940283203125,0.2047925740480423,0.1293507218360901,0.17867808043956757
1748143385886662700,4.37766259765625,0.18768835067749023,0.055894169956445694,0.40194934606552124
1748143385904931000,4.39593115234375,0.15286903083324432,-0.15577064454555511,0.4807509481906891
1748143385923197400,4.414197509765625,0.09468411654233932,-0.24098633229732513,0.1817324161529541
1748143385941461000,4.4324609375,0.002138028386980295,-0.30833423137664795,-0.15134187042713165
1748143385959725300,4.450725341796875,-0.10170906037092209,-0.5196936130523682,-0.3257438838481903
1748143385977990100,4.468990234375,-0.3104722499847412,-1.1814134120941162,-0.28298333287239075
1748143385996254700,4.487254638671875,-0.4453207552433014,-1.8923077583312988,-0.2952006161212921
1748143386014518800,4.505518798828125,-0.5201517343521118,-2.284177780151367,-0.5821545720100403
1748143386032783600,4.52378369140625,-0.5206099152565002,-1.7815884351730347,-1.3156510591506958
1748143386051048000,4.5420478515625,-0.4833471179008484,-0.30695977807044983,-2.239279270172119
1748143386069312500,4.5603125,-0.11285735666751862,1.0546588897705078,-2.5807528495788574
1748143386087575600,4.578575439453125,-0.22602014243602753,1.4129313230514526,-2.599231719970703
1748143386105841400,4.59684130859375,-0.683863639831543,1.3464996814727783,-2.845104932785034
1748143386124108000,4.61510791015625,-0.8852964639663696,1.3909401893615723,-2.970637798309326
1748143386142366000,4.633365966796875,-0.8332201838493347,1.3454307317733765,-2.7658450603485107
1748143386160633600,4.651633544921875,-0.7980954647064209,1.4428637027740479,-2.3625214099884033
1748143386178898400,4.6698984375,-0.6852380633354187,0.9392052888870239,-1.8428276777267456
1748143386197162000,4.688161865234375,-0.4524984359741211,-0.1290452778339386,-1.2716686725616455
1748143386215428400,4.706428466796875,-0.2909245789051056,-1.1339186429977417,-0.7544185519218445
1748143386233693000,4.72469287109375,-0.24098633229732513,-1.3956743478775024,-0.6061310172080994
1748143386251957500,4.74295751953125,-0.3321579694747925,-1.2075278759002686,-0.960280179977417
1748143386270222300,4.761222412109375,-0.5968153476715088,-0.9143125414848328,-1.4126259088516235
1748143386288486400,4.779486328125,-0.799011766910553,-0.5729916095733643,-1.1962268352508545
1748143386306751000,4.7977509765625,-0.8758280277252197,-0.6058256030082703,-0.806647539138794
1748143386325015800,4.816015869140625,-0.8914051055908203,-0.8436049222946167,-0.7215845584869385
1748143386343280000,4.834280029296875,-0.8100073337554932,-1.0577131509780884,-0.8106181621551514
1748143386361544700,4.852544677734375,-0.6235406994819641,-1.1549934148788452,-0.7463245987892151
1748143386379809300,4.870809326171875,-0.42119157314300537,-0.9259189963340759,-0.5648976564407349
1748143386398061600,4.8890615234375,-0.280539870262146,-0.6960809230804443,-0.4248567819595337
1748143386416337200,4.907337158203125,-0.15806138515472412,-0.6696610450744629,-0.3020728528499603
1748143386434589400,4.92558935546875,-0.07376197725534439,-0.5462662577629089,-0.19058994948863983
1748143386452868000,4.9438681640625,-0.10064005106687546,-0.2174680233001709,-0.04382958263158798
1748143386471127000,4.962126953125,-0.0933096632361412,0.15454891324043274,0.13057245314121246
1748143386489396200,4.980396240234375,0.033597588539123535,0.3549126982688904,0.18020524084568024
1748143386507660800,4.998660888671875,0.08338310569524765,0.6443101167678833,0.1996002197265625
1748143386525925000,5.016925048828125,0.07406741380691528,0.856433093547821,0.3436116874217987
1748143386544189400,5.035189453125,0.09376781433820724,0.7373143434524536,0.47189339995384216
1748143386562454300,5.053454345703125,0.25473082065582275,0.5390886068344116,0.47418415546417236
1748143386580718600,5.071718505859375,0.49205195903778076,0.3433062732219696,0.5621487498283386
1748143386598983200,5.089983154296875,0.656069278717041,0.5206099152565002,0.6672175526618958
1748143386617247700,5.108247802734375,0.8503243923187256,1.1016954183578491,0.8278751373291016
1748143386635512300,5.12651220703125,1.2496775388717651,1.1782063245773315,1.0320568084716797
1748143386653776600,5.144776611328125,1.4645494222640991,0.6007859706878662,0.7906123399734497
1748143386672040200,5.163040283203125,0.9541715383529663,0.5705481171607971,0.4862487316131592
1748143386690311200,5.181311279296875,0.256868839263916,1.500590443611145,0.7435756921768188
1748143386708569000,5.199569091796875,0.39095374941825867,1.3153456449508667,0.4726569950580597
1748143386726836200,5.217836181640625,0.7420485615730286,0.7072292566299438,0.4743368625640869
1748143386745099500,5.236099609375,1.1033753156661987,0.7619016766548157,0.6543893814086914
1748143386763363800,5.25436376953125,1.313665747642517,1.126588225364685,0.9130908250808716
1748143386781628200,5.272628173828125,1.173930287361145,1.2983940839767456,1.1905763149261475
1748143386799892700,5.290892822265625,0.7695375084877014,0.7809911966323853,1.2748757600784302
1748143386818152700,5.309152587890625,0.47601673007011414,0.0024434609804302454,0.9560040831565857
1748143386836422000,5.327421875,0.3790418803691864,-0.5742133259773254,0.7113525867462158
1748143386854686200,5.345686279296875,0.275958389043808,-0.9553932547569275,0.6913467645645142
1748143386872951000,5.363950927734375,0.13866640627384186,-1.1772900819778442,0.7011205554008484
1748143386891215400,5.38221533203125,0.032681290060281754,-1.1661417484283447,0.7319692969322205
1748143386909475000,5.40047509765625,0.02168571576476097,-0.698066234588623,0.8384125232696533
1748143386927743200,5.4187431640625,0.16783522069454193,0.247094988822937,0.8943067193031311
1748143386946010400,5.43701025390625,0.36621370911598206,1.088714599609375,0.8005388975143433
1748143386964273400,5.4552734375,0.4444044530391693,1.342529058456421,0.7305948138237
1748143386982538200,5.473538330078125,0.37400224804878235,1.4982997179031372,0.8107708692550659
1748143387000802300,5.49180224609375,0.23396138846874237,1.7724255323410034,0.9589056968688965
1748143387019067000,5.51006689453125,0.11545353382825851,1.702786922454834,0.8776606321334839
1748143387037332000,5.52833203125,0.021838432177901268,0.9567676782608032,0.5616905689239502
1748143387055595000,5.546594970703125,-0.052839845418930054,-0.060933809727430344,0.3602577745914459
1748143387073861600,5.564861572265625,-0.12889257073402405,-0.7018841505050659,0.4564690589904785
1748143387092122000,5.5831220703125,-0.1849394589662552,-0.8729264140129089,0.7092145681381226
1748143387110385000,5.601385009765625,-0.22296582162380219,-0.8746063113212585,0.8660541772842407
1748143387128652800,5.61965283203125,-0.23854288458824158,-0.813825249671936,0.8796459436416626
1748143387146920000,5.637919921875,-0.1788308024406433,-0.6872233748435974,0.7787004709243774
1748143387165178600,5.6561787109375,-0.09697485715150833,-0.44486260414123535,0.6195700764656067
1748143387183446500,5.674446533203125,0.0003054326225537807,-0.24007004499435425,0.4369213581085205
1748143387201713400,5.69271337890625,0.07330382615327835,-0.27000242471694946,0.2675589919090271
1748143387219976700,5.710976806640625,0.10537425428628922,-0.26404649019241333,0.15943582355976105
1748143387238241300,5.7292412109375,0.12140946835279465,-0.18295414745807648,0.16111570596694946
1748143387256499000,5.7474990234375,0.12324206531047821,-0.09269879758358002,0.24037547409534454
1748143387274771000,5.76577099609375,0.14385876059532166,0.0074830991216003895,0.3827070891857147
1748143387293035800,5.784035888671875,0.19043724238872528,-0.01710422709584236,0.4999932050704956
1748143387311299300,5.80229931640625,0.1699732542037964,-0.22968533635139465,0.5050328373908997
1748143387329563000,5.82056298828125,0.08949175477027893,-0.3130684494972229,0.5167919993400574
1748143387347829500,5.83882958984375,0.009621127508580685,-0.24404066801071167,0.4746423065662384
1748143387366092800,5.8570927734375,-0.04046982154250145,-0.3367394804954529,0.30863967537879944
1748143387384358000,5.87535791015625,-0.0039706239476799965,-0.34574973583221436,0.1915062516927719
1748143387402610000,5.89360986328125,-0.04398229718208313,-0.355981707572937,0.0754418596625328
1748143387420886500,5.911886474609375,-0.1281289905309677,-0.43539419770240784,-0.04612032696604729
1748143387439146000,5.93014599609375,-0.19013181328773499,-0.41661009192466736,0.036651913076639175
1748143387457415700,5.948415771484375,-0.23029619455337524,-0.2860376536846161,0.2474004179239273
1748143387475679700,5.9666796875,-0.18417587876319885,-0.3194825351238251,0.3507893681526184
1748143387493944600,5.984944580078125,-0.0529925599694252,-0.6044511795043945,0.10781771689653397
1748143387512204000,6.0032041015625,0.08597928285598755,-0.7215845584869385,-0.5288565754890442
1748143387530469400,6.021469482421875,0.19196440279483795,-0.49006664752960205,-1.1275044679641724
1748143387548734200,6.039734130859375,0.23151792585849762,-0.26282477378845215,-1.4874569177627563
1748143387567002600,6.058002685546875,0.18906278908252716,0.11804971098899841,-1.6273449659347534
1748143387585267200,6.07626708984375,0.04184427112340927,0.47800204157829285,-1.845118522644043
1748143387603531500,6.094531494140625,-0.34956762194633484,0.6427829265594482,-2.3996315002441406
1748143387621795800,6.1127958984375,-0.8242099285125732,1.052215337753296,-2.7965409755706787
1748143387640060400,6.131060302734375,-1.036943793296814,1.4677565097808838,-2.5691463947296143
1748143387658325000,6.149324951171875,-1.0155634880065918,1.6284140348434448,-2.0358612537384033
1748143387676588500,6.167588623046875,-1.0067058801651,1.3724614381790161,-1.4750868082046509
1748143387694855200,6.185855224609375,-0.9137017130851746,0.42500948905944824,-1.1916453838348389
1748143387713122000,6.2041220703125,-0.6892086863517761,-1.08718740940094,-1.1377365589141846
1748143387731383000,6.222383056640625,-0.5212207436561584,-2.060295820236206,-1.2180652618408203
1748143387749648000,6.24064794921875,-0.633009135723114,-2.328007459640503,-1.4414892196655273
1748143387767907600,6.258907470703125,-0.7698429226875305,-1.8571830987930298,-1.672243595123291
1748143387786171400,6.27717138671875,-0.7136433124542236,-1.3645201921463013,-1.3284791707992554
1748143387804442600,6.295442626953125,-0.6690501570701599,-1.303891897201538,-0.6550002694129944
1748143387822706000,6.313705810546875,-0.8668177723884583,-0.6759223937988281,-0.850171685218811
1748143387840970500,6.331970458984375,-0.8576548099517822,-0.868803083896637,-1.098183035850525
1748143387859234800,6.35023486328125,-0.6579018831253052,-1.516014814376831,-0.9986119866371155
1748143387877499400,6.36849951171875,-0.46868637204170227,-1.6143641471862793,-0.8655960559844971
1748143387895763000,6.386762939453125,-0.3404046595096588,-1.2389874458312988,-0.6528622508049011
1748143387914029800,6.40502978515625,-0.17806722223758698,-0.846659243106842,-0.39156460762023926
1748143387932292900,6.42329296875,0.007635815534740686,-0.5458080768585205,-0.194713294506073
1748143387950571500,6.441571533203125,0.16279558837413788,-0.25305092334747314,-0.012217304669320583
1748143387968824000,6.459823974609375,0.3153591752052307,0.1498146951198578,0.20952677726745605
1748143387987086600,6.478086669921875,0.47510045766830444,0.48609602451324463,0.43478333950042725
1748143388005351200,6.49635107421875,0.5815436840057373,0.7414376735687256,0.6760751008987427
1748143388023617300,6.5146171875,0.6459900140762329,1.06657075881958,0.9297369122505188
1748143388041877200,6.532877197265625,0.6808093190193176,1.5628987550735474,0.9805914163589478
1748143388060141000,6.55114111328125,0.6637051105499268,2.4802656173706055,0.8910996913909912
1748143388078409200,6.5694091796875,0.8904888033866882,3.1001410484313965,1.5149458646774292
1748143388096673500,6.587673583984375,1.4149166345596313,1.906663179397583,1.7718145847320557
1748143388114938400,6.6059384765625,0.837496280670166,-0.32299500703811646,0.1771509200334549
1748143388133203000,6.624202880859375,0.03375030308961868,-1.1314750909805298,-0.484416127204895
1748143388151467000,6.642467041015625,0.327729195356369,-0.3949243724346161,-0.1621847152709961
1748143388169731600,6.660731689453125,0.7293730974197388,0.4508185386657715,0.346818745136261
1748143388187996200,6.67899609375,0.9760099649429321,1.0068585872650146,1.0114401578903198
1748143388206260700,6.6972607421875,0.9859365224838257,1.0355693101882935,1.4596625566482544
1748143388224525300,6.715525390625,0.6348416805267334,0.5199990272521973,1.4656184911727905
1748143388242790000,6.733789794921875,0.20112738013267517,0.10583240538835526,1.1592695713043213
1748143388261054500,6.752054443359375,0.026114489883184433,0.12599095702171326,0.940121591091156
1748143388279314400,6.770314453125,-0.08078692853450775,0.12171489745378494,0.9230173826217651
1748143388297580000,6.788580078125,-0.060475658625364304,0.08017606288194656,1.002277135848999
1748143388315850000,6.80685009765625,0.029168816283345222,-0.08231408894062042,1.115287184715271
1748143388334111500,6.825111572265625,0.08109235763549805,-0.41111230850219727,1.1760683059692383
1748143388352379400,6.84337939453125,0.11942415684461594,-0.5175555944442749,1.2147055864334106
1748143388370641400,6.861641357421875,0.16752979159355164,-0.13286319375038147,1.226922869682312
1748143388388906200,6.87990625,0.17440202832221985,0.4219551682472229,1.111163854598999
1748143388407166500,6.89816650390625,0.12889257073402405,0.7945829629898071,0.941343367099762
1748143388425435100,6.91643505859375,0.076052725315094,0.8901833891868591,0.8103127479553223
1748143388443699500,6.934699462890625,0.04749477282166481,0.6893614530563354,0.7087563872337341
1748143388461964300,6.95296435546875,0.059864792972803116,0.38438695669174194,0.6627888083457947
1748143388480228400,6.971228271484375,0.10797043144702911,0.14676037430763245,0.7058547735214233
1748143388498493200,6.9894931640625,0.11255192011594772,-0.08643743395805359,0.7177666425704956
1748143388516757500,7.007757568359375,0.08261952549219131,-0.270766019821167,0.6933320760726929
1748143388535022300,7.026022216796875,0.056810468435287476,-0.3168863356113434,0.6765332818031311
1748143388553291800,7.044291748046875,0.005955935921519995,-0.2974913716316223,0.6104071140289307
1748143388571552000,7.062552001953125,-0.04153883829712868,-0.17440202832221985,0.5047274231910706
1748143388589814000,7.08081396484375,-0.026572637259960175,-0.02076941914856434,0.4337143301963806
1748143388608080400,7.099080322265625,0.003359758760780096,0.030237829312682152,0.3666718602180481
1748143388626335000,7.1173349609375,0.023060163483023643,-0.01863138936460018,0.2909245789051056
1748143388644608000,7.13560791015625,-0.0024434609804302454,-0.08414668589830399,0.26404649019241333
1748143388662875000,7.153875,-0.02626720629632473,-0.06475171446800232,0.3649919927120209
1748143388681133600,7.172133544921875,-0.014813481830060482,0.0377209298312664,0.5502368807792664
1748143388699402800,7.19040283203125,0.04795292019844055,-0.019394971430301666,0.6204863786697388
1748143388717667300,7.208667236328125,0.10384709388017654,-0.2860376536846161,0.5096143484115601
1748143388735930600,7.2269306640625,0.05345070734620094,-0.5781839489936829,0.3686571717262268
1748143388754197800,7.24519775390625,-0.062460970133543015,-0.7200574278831482,0.35323283076286316
1748143388772461000,7.2634609375,-0.19914206862449646,-0.607810914516449,0.47739118337631226
1748143388790720800,7.281720703125,-0.20570887625217438,-0.3194825351238251,0.5386304259300232
1748143388808988700,7.29998876953125,-0.11835514008998871,-0.10934487730264664,0.3854559659957886
1748143388827255600,7.318255615234375,-0.07223481684923172,-0.04459316283464432,0.11056660860776901
1748143388845519000,7.33651904296875,0,-0.01237002108246088,-0.11728613078594208
1748143388863783700,7.35478369140625,0.0981965884566307,0.03405573591589928,-0.13271047174930573
1748143388882043400,7.37304345703125,0.2399173229932785,0.10476338863372803,0.06215553730726242
1748143388900308200,7.39130810546875,0.3929390609264374,0.07483099400997162,0.07788532227277756
1748143388918575900,7.409575927734375,0.3856086730957031,-0.10125091671943665,-0.1036943718791008
1748143388936842800,7.4278427734375,0.2742784917354584,-0.26313021779060364,-0.2223549485206604
1748143388955107000,7.446107177734375,0.1088867336511612,-0.37980547547340393,-0.280539870262146
1748143388973370600,7.46437060546875,-0.04001167416572571,-0.3903428912162781,-0.260992169380188
1748143388991635000,7.482635009765625,-0.13255776464939117,-0.3150537610054016,-0.19532416760921478
1748143389009899800,7.500899658203125,-0.1085812970995903,-0.289244681596756,-0.1713477075099945
1748143389028160000,7.519159912109375,-0.0731511116027832,-0.4196644127368927,-0.3929390609264374
1748143389046428700,7.5374287109375,-0.10002918541431427,-0.5685628056526184,-0.8903360962867737
1748143389064693200,7.555693359375,-0.08261952549219131,-0.34636059403419495,-1.3869695663452148
1748143389082957800,7.573957763671875,0.0065668015740811825,0.2292271852493286,-1.6792685985565186
1748143389101222400,7.592222412109375,0.08720101416110992,0.7249443531036377,-1.7614299058914185
1748143389119487000,7.610487060546875,0.17287486791610718,0.9019425511360168,-1.7585283517837524
1748143389137746700,7.62874658203125,0.20402899384498596,0.7420485615730286,-1.8489364385604858
1748143389156014600,7.6470146484375,0.08292495459318161,0.46211954951286316,-2.0079140663146973
1748143389174281700,7.66528173828125,-0.2347249686717987,0.2658790946006775,-2.272724151611328
1748143389192545300,7.683545166015625,-0.5791002511978149,0.38576140999794006,-2.7537806034088135
1748143389210809600,7.7018095703125,-0.7044803500175476,1.388802170753479,-2.6720774173736572
1748143389229074000,7.720073974609375,-0.7221954464912415,2.007150411605835,-1.965153455734253
1748143389247338800,7.7383388671875,-0.6852380633354187,1.3871222734451294,-1.18660569190979
1748143389265602000,7.75660205078125,-0.6265950202941895,0.0555887371301651,-0.727082371711731
1748143389283868700,7.77486865234375,-0.6055201888084412,-1.1916453838348389,-0.79840087890625
1748143389302127400,7.79312744140625,-0.7029531598091125,-2.1736111640930176,-1.0595457553863525
1748143389320392000,7.811391845703125,-0.7625125646591187,-2.8684704303741455,-1.0648908615112305
1748143389338661400,7.829661376953125,-0.7675521969795227,-2.3131940364837646,-1.1023063659667969
1748143389356925700,7.84792578125,-0.8759807348251343,-1.0070114135742188,-1.1614075899124146
1748143389375187200,7.866187255859375,-0.8639161586761475,-0.6322455406188965,-0.813825249671936
1748143389393453000,7.884453125,-0.7964155673980713,-0.7883216142654419,-0.4395175576210022
1748143389411718000,7.9027177734375,-0.7648032903671265,-0.6299547553062439,-0.5148066878318787
1748143389429985300,7.9209853515625,-0.6669121384620667,-0.5135849714279175,-0.5283984541893005
1748143389448248300,7.939248291015625,-0.4369213581085205,-0.22082778811454773,-0.3065016269683838
1748143389466513000,7.957512939453125,-0.24113905429840088,0.25213462114334106,-0.03436116874217987
1748143389484777200,7.975777099609375,-0.11636982858181,0.47280970215797424,0.16814066469669342
1748143389503041800,7.994041748046875,-0.010995574295520782,0.6753115057945251,0.3407101035118103
1748143389521306400,8.012306396484375,0.12980885803699493,0.9069821834564209,0.41752639412879944
1748143389539569700,8.030569580078126,0.3173444867134094,1.1661417484283447,0.4833471179008484
1748143389557836500,8.04883642578125,0.3199406862258911,1.451874017715454,0.6927211880683899
1748143389576099800,8.067099853515625,0.34437528252601624,1.1879801750183105,0.9181304574012756
1748143389594364200,8.0853642578125,0.3065016269683838,0.41233405470848083,0.770301103591919
1748143389612629000,8.10362890625,0.47830748558044434,-0.35674530267715454,0.5700899958610535
1748143389630893300,8.121893310546875,0.9702067375183105,-0.0064140851609408855,0.5490151643753052
1748143389649153300,8.1401533203125,1.004873275756836,0.24144448339939117,0.7206682562828064
1748143389667409400,8.158409423828125,0.9983065128326416,0.8620835542678833,0.8355109095573425
1748143389685688300,8.176688232421874,1.3735305070877075,1.7182111740112305,0.65958172082901
1748143389703939000,8.19493896484375,1.1143709421157837,1.4752395153045654,0.408974289894104
1748143389722216200,8.21321630859375,0.783892810344696,1.0195341110229492,0.783892810344696
1748143389740489700,8.23148974609375,0.9697485566139221,0.9502009153366089,0.8662069439888
1748143389758745000,8.2497451171875,1.0870347023010254,0.5900958180427551,0.7544185519218445
1748143389777009700,8.268009765625,0.8735373020172119,0.13775011897087097,0.7663304209709167
1748143389795274200,8.286274169921874,0.46593746542930603,-0.18051068484783173,0.944855809211731
1748143389813538800,8.304538818359376,0.18585574626922607,-0.24877487123012543,1.064738154411316
1748143389831803100,8.32280322265625,0.096211276948452,-0.0607810914516449,1.0147998332977295
1748143389850067700,8.341067626953125,0.07147123664617538,0.07437284290790558,0.9034696817398071
1748143389868332500,8.35933251953125,0.10201449692249298,0.041233405470848083,0.8768970370292664
1748143389886595600,8.377595703125,0.15882496535778046,-0.11530081182718277,0.9488264322280884
1748143389904862500,8.395862548828125,0.15806138515472412,-0.39553526043891907,1.035416603088379
1748143389923122400,8.414122314453126,0.05665775015950203,-0.764345109462738,1.0699304342269897
1748143389941390300,8.432390380859376,-0.0679587572813034,-0.887739896774292,1.0826059579849243
1748143389959655000,8.450655029296875,-0.11820242553949356,-0.6366742849349976,1.051146388053894
1748143389977919700,8.468919677734375,-0.18112154304981232,-0.289702832698822,0.9743300676345825
1748143389996179500,8.487179443359375,-0.25106561183929443,-0.040164388716220856,0.8634580373764038
1748143390014448400,8.505448486328126,-0.26862800121307373,0.19089539349079132,0.7956519722938538
1748143390032713200,8.523713134765625,-0.22281309962272644,0.29367345571517944,0.7354817390441895
1748143390050977800,8.541977783203125,-0.11850785464048386,0.19028452038764954,0.6397286057472229
1748143390069242400,8.560242431640624,-0.02580905705690384,-0.03940080851316452,0.5366451144218445
1748143390087506400,8.57850634765625,0.022449297830462456,-0.2773328125476837,0.45814892649650574
1748143390105770200,8.596770263671875,0.036651913076639175,-0.2968805134296417,0.45326200127601624
1748143390124036900,8.615036865234375,0.053297992795705795,-0.09208793938159943,0.44226643443107605
1748143390142300400,8.633300537109376,0.06704246252775192,0.12980885803699493,0.3663664162158966
1748143390160558800,8.651558837890626,0.08414668589830399,0.19822576642036438,0.23426681756973267
1748143390178829000,8.6698291015625,0.07437284290790558,0.1290452778339386,0.10705413669347763
1748143390197095000,8.688094970703125,0.03741549700498581,0.058948494493961334,0.1007927656173706
1748143390215358200,8.706358154296876,0.009162978269159794,0.033597588539123535,0.20876319706439972
1748143390233622800,8.724622802734375,-0.005650503560900688,0.033139441162347794,0.3597996234893799
1748143390251882500,8.742882568359375,-0.003054326167330146,-0.006872233934700489,0.4729624092578888
1748143390270147300,8.761147216796875,-0.032070424407720566,-0.11010845750570297,0.5242751240730286
1748143390288416500,8.77941650390625,-0.08078692853450775,-0.1915062516927719,0.5305364727973938
1748143390306680800,8.797680908203125,-0.10873401165008545,-0.19104810059070587,0.5404630303382874
1748143390324945700,8.815945556640624,-0.11484266817569733,-0.21135938167572021,0.5154175758361816
1748143390343210000,8.8342099609375,-0.04917465150356293,-0.260992169380188,0.484416127204895
1748143390361474600,8.852474609375,0.08704829961061478,-0.2802344262599945,0.49586987495422363
1748143390379739100,8.8707392578125,0.251676470041275,-0.1736384481191635,0.3591887652873993
1748143390398003500,8.88900341796875,0.235030397772789,-0.1414152979850769,-0.26053401827812195
1748143390416279300,8.907279296875,-0.01725694350898266,-0.39935314655303955,-0.9783006906509399
1748143390434532900,8.925532958984375,-0.28466320037841797,-0.49464812874794006,-1.2084441184997559
1748143390452797000,8.943796875,-0.4579962193965912,-0.40622538328170776,-1.1242974996566772
1748143390471061800,8.962061767578126,-0.40744712948799133,-0.37568211555480957,-1.0905472040176392
1748143390489326000,8.980326171875,-0.22388210892677307,-0.34605515003204346,-1.140179991722107
1748143390507584800,8.998584716796875,-0.03130684420466423,-0.20784689486026764,-1.2383766174316406
1748143390525855200,9.016855224609374,0.07483099400997162,0.03375030308961868,-1.3947581052780151
1748143390544124400,9.03512451171875,0.044745877385139465,0.34086281061172485,-1.6606371402740479
1748143390562384100,9.053384033203125,-0.09651670604944229,0.6163630485534668,-2.0580050945281982
1748143390580649200,9.071649169921875,-0.3043636083602905,0.6800457239151001,-2.4943156242370605
1748143390598913300,9.089913330078126,-0.504574716091156,0.3462078869342804,-3.126255512237549
1748143390617173800,9.108173828125,-0.6443101167678833,0.09789115190505981,-3.4713945388793945
1748143390635442400,9.1264423828125,-0.6629415154457092,0.4340197443962097,-3.196352481842041
1748143390653707300,9.144707275390624,-0.6142250299453735,0.7580837607383728,-2.610379934310913
1748143390671971300,9.162971435546876,-0.5335907936096191,0.3959933817386627,-1.9454530477523804
1748143390690236000,9.18123583984375,-0.4671591818332672,-0.922711968421936,-0.9421069025993347
1748143390708500500,9.19950048828125,-0.42271876335144043,-2.3316726684570312,-0.08628471940755844
1748143390726765000,9.21776513671875,-0.7548767328262329,-2.07969069480896,-0.6737843751907349
1748143390745028900,9.23602880859375,-1.34283447265625,-1.521359920501709,-2.0786216259002686
1748143390763289000,9.2542890625,-1.261742115020752,-1.9750800132751465,-1.665218710899353
1748143390781559300,9.272559326171875,-0.954018771648407,-1.898416519165039,-0.9277516007423401
1748143390799824100,9.29082421875,-0.8820894360542297,-1.3194689750671387,-0.7310529947280884
1748143390818087400,9.30908740234375,-0.8817839622497559,-0.9752463698387146,-0.5274821519851685
1748143390836352000,9.32735205078125,-0.7852672934532166,-0.6004805564880371,-0.3830125033855438
1748143390854617900,9.345617919921875,-0.6485861539840698,-0.3390302062034607,-0.2816088795661926
1748143390872879900,9.3638798828125,-0.461355984210968,-0.38866302371025085,-0.1745547503232956
1748143390891140900,9.382140869140626,-0.2292271852493286,-0.36392298340797424,0.023976460099220276
1748143390909410000,9.40041015625,-0.06414084881544113,-0.1059851199388504,0.16783522069454193
1748143390927675000,9.4186748046875,0.15806138515472412,0.08628471940755844,0.38026362657546997
1748143390945938200,9.436938232421875,0.42989641427993774,0.5337435007095337,0.6615670323371887
1748143390964204800,9.455204833984375,0.607810914516449,1.0548115968704224,1.0039570331573486
1748143390982468400,9.47346826171875,0.8174903988838196,1.758375644683838,1.3214542865753174
1748143391000732700,9.491732666015626,1.1410962343215942,2.2149972915649414,1.4581353664398193
1748143391018992400,9.509992431640624,1.3561208248138428,2.4947736263275146,1.4065172672271729
1748143391037260800,9.5282607421875,1.1264355182647705,2.576935052871704,1.178053617477417
1748143391055527700,9.546527587890624,0.8061894178390503,1.6229162216186523,1.100015640258789
1748143391073790700,9.564790771484375,0.6870706677436829,0.1941024363040924,0.7225008606910706
1748143391092055300,9.58305517578125,0.031612277030944824,-0.9201157689094543,0.4343251883983612
1748143391110316000,9.60131591796875,-0.0607810914516449,-0.670577347278595,0.19257527589797974
1748143391128581600,9.61958154296875,0.3680463135242462,-0.27259862422943115,0.15317445993423462
1748143391146845200,9.63784521484375,0.8616254329681396,0.4193589985370636,0.66584312915802
1748143391165114400,9.6561142578125,1.6670511960983276,1.3168727159500122,1.228450059890747
1748143391183378200,9.674378173828124,1.9564486742019653,1.8683313131332397,1.7563903331756592
1748143391201642800,9.692642822265626,1.1464413404464722,1.789376974105835,1.7931948900222778
1748143391219907000,9.710906982421875,0.2454151064157486,0.7287622094154358,1.103833556175232
1748143391238167300,9.729167236328125,0.22892175614833832,-0.4150829315185547,0.6696610450744629
1748143391256436000,9.74743603515625,0.24556782841682434,-0.8294022679328918,0.7712173461914062
1748143391274700500,9.765700439453125,0.06582073122262955,-0.8414669036865234,0.9970847964286804
1748143391292966100,9.783966064453125,-0.010079276748001575,-0.6143777370452881,1.15178644657135
1748143391311228700,9.802228759765624,0.041691552847623825,-0.21242839097976685,1.223868489265442
1748143391329494000,9.820493896484376,0.12507465481758118,0.1866193264722824,1.278693675994873
1748143391347758800,9.8387587890625,0.24037547409534454,0.34544429183006287,1.3125966787338257
1748143391366023200,9.857023193359375,0.2565633952617645,0.13790282607078552,1.3055717945098877
1748143391384287700,9.875287841796874,0.1719585657119751,-0.16523905098438263,1.1913399696350098
1748143391402553300,9.89355322265625,0.06750060617923737,-0.37140607833862305,1.0013608932495117
1748143391420816100,9.911816162109375,-0.05803219974040985,-0.46211954951286316,0.7950411438941956
1748143391439081500,9.93008154296875,-0.15531249344348907,-0.37751471996307373,0.7011205554008484
1748143391457345800,9.948345703125,-0.1563815027475357,-0.1823432743549347,0.6914994716644287
1748143391475609300,9.966609375,-0.10552696883678436,-0.08597928285598755,0.6065891981124878
1748143391493876000,9.9848759765625,-0.054367005825042725,-0.15577064454555511,0.4349360466003418
1748143391512134400,10.003134521484375,-0.04444044828414917,-0.2203696370124817,0.34376442432403564
1748143391530397000,10.02139697265625,-0.04459316283464432,-0.13087788224220276,0.3257438838481903
1748143391548670500,10.03967041015625,-0.1108720451593399,-0.01160643994808197,0.3517056703567505
1748143391566931000,10.057930908203126,-0.12110403180122375,0.02474004216492176,0.41004329919815063
1748143391585200600,10.07620068359375,-0.1036943718791008,-0.01466076634824276,0.39064833521842957
1748143391603458800,10.094458740234375,-0.07223481684923172,-0.06994406878948212,0.31383201479911804
1748143391621724700,10.112724609375,-0.01664607785642147,-0.10476338863372803,0.26450464129447937
1748143391639991000,10.130990966796874,0.07192938029766083,-0.0328340083360672,0.2952006161212921
1748143391658256000,10.149255859375,0.1713477075099945,0.0529925599694252,0.328340083360672
1748143391676520000,10.16752001953125,0.20799961686134338,-0.027030786499381065,0.2932153046131134
1748143391694784800,10.18578466796875,0.17256943881511688,-0.13805554807186127,0.3171917796134949
1748143391713049000,10.204049072265626,0.08536841720342636,-0.17562375962734222,0.4593706727027893
1748143391731313700,10.222313720703125,-0.03420845419168472,-0.21899518370628357,0.6310238242149353
1748143391749577000,10.240576904296875,-0.13973543047904968,-0.3110831379890442,0.716697633266449
1748143391767844000,10.258843994140625,-0.13072516024112701,-0.37827831506729126,0.6858489513397217
1748143391786108000,10.27710791015625,-0.06475171446800232,-0.4121813178062439,0.5769622325897217
1748143391804370700,10.29537060546875,0.04245513305068016,-0.45891252160072327,0.6163630485534668
1748143391822625500,10.31362548828125,0.18478673696517944,-0.4340197443962097,0.6441574096679688
1748143391840901000,10.331901123046874,0.21960605680942535,-0.37339138984680176,0.13530665636062622
1748143391859152400,10.35015234375,0.046731192618608475,-0.22617286443710327,-0.6688974499702454
1748143391877425200,10.368425048828126,-0.20051652193069458,0.1085812970995903,-1.1432342529296875
1748143391895693000,10.386693115234374,-0.266184538602829,0.4066835343837738,-1.1749993562698364
1748143391913960000,10.4049599609375,-0.1716531366109848,0.5551238059997559,-1.0764973163604736
1748143391932223500,10.423223388671875,0.06948592513799667,0.46211954951286316,-1.0936014652252197
1748143391950492400,10.441492431640626,0.2724458873271942,0.244804248213768,-1.208902359008789
1748143391968752400,10.45975244140625,0.3723223805427551,0.10567969083786011,-1.3017538785934448
1748143391987017000,10.478016845703126,0.27488934993743896,0.1033889427781105,-1.6762142181396484
1748143392005281500,10.496281494140625,-0.26282477378845215,0.07788532227277756,-2.5509731769561768
1748143392023546400,10.51454638671875,-0.8958339095115662,0.6441574096679688,-3.2559118270874023
1748143392041810400,10.532810546875,-1.1916453838348389,1.3843733072280884,-2.9741501808166504
1748143392060075000,10.551074951171875,-1.2147055864334106,1.5320500135421753,-2.166738986968994
1748143392078339300,10.56933935546875,-1.190729022026062,0.9711230397224426,-1.4928019046783447
1748143392096603100,10.58760302734375,-1.0207557678222656,0.07712173461914062,-1.1357512474060059
1748143392114869800,10.605869873046874,-0.6582072973251343,-0.8225300312042236,-0.9205739498138428
1748143392133128400,10.62412841796875,-0.33826664090156555,-1.4734070301055908,-0.7877107262611389
1748143392151396400,10.642396240234374,-0.2767219543457031,-2.076483726501465,-1.0458012819290161
1748143392169663200,10.660663330078124,-0.5852088928222656,-2.342515468597412,-1.6546812057495117
1748143392187926800,10.6789267578125,-0.835969090461731,-1.0207557678222656,-1.496161699295044
1748143392206191400,10.69719140625,-0.9126327037811279,0.24678955972194672,-0.806647539138794
1748143392224456000,10.7154560546875,-0.9166033267974854,0.27550023794174194,-0.5807801485061646
1748143392242720300,10.73372021484375,-0.7962628602981567,-0.793666660785675,-0.8057312369346619
1748143392260984800,10.75198486328125,-0.6301075220108032,-1.4640913009643555,-0.9624181985855103
1748143392279249400,10.77024951171875,-0.4043927788734436,-1.1012372970581055,-0.7935139536857605
1748143392297513700,10.788513671875,-0.2695443034172058,-0.5403103232383728,-0.46853363513946533
1748143392315777300,10.80677734375,-0.1540907621383667,-0.3315471112728119,-0.2796235680580139
1748143392334043600,10.825043701171875,-0.001832595793530345,-0.2583959996700287,-0.1621847152709961
1748143392352307500,10.843307373046875,0.17791450023651123,-0.04535674303770065,0.004428773187100887
1748143392370570500,10.861570556640626,0.4086688458919525,0.3179553747177124,0.22128593921661377
1748143392388832800,10.879832763671875,0.541532039642334,0.8739954233169556,0.41951170563697815
1748143392407099400,10.898099365234375,0.5845980644226074,1.2486085891723633,0.6183483600616455
1748143392425366800,10.91636669921875,0.6091853380203247,1.1690434217453003,0.7544185519218445
1748143392443630000,10.934630126953126,0.7473936080932617,0.7481572031974792,0.9256135821342468
1748143392461894400,10.952894287109375,0.9928087592124939,0.17180584371089935,0.9280570149421692
1748143392480154400,10.971154296875,0.8724682927131653,-0.3937026560306549,0.32818734645843506
1748143392498423600,10.989423583984374,0.39446622133255005,0.24037547409534454,0.005497787147760391
1748143392516688000,11.00768798828125,0.3966042697429657,1.734704613685608,0.5189300179481506
1748143392534952700,11.02595263671875,0.5575672388076782,1.7989981174468994,0.660803496837616
1748143392553217000,11.044217041015624,0.7290676832199097,0.1420261710882187,0.5619960427284241
1748143392571481600,11.062481689453126,1.1157454252243042,-0.8739954233169556,0.206777885556221
1748143392589746200,11.08074609375,1.3584115505218506,-0.12950342893600464,0.3006984293460846
1748143392608010800,11.0990107421875,1.2948815822601318,1.2553280591964722,0.8217664957046509
1748143392626275000,11.117275146484374,1.0097602605819702,1.6882787942886353,1.3663527965545654
1748143392644535000,11.13553515625,0.6916521787643433,0.7961101531982422,1.5175420045852661
1748143392662803000,11.153802978515625,0.44913867115974426,0.10247264802455902,1.5045610666275024
1748143392681067300,11.1720673828125,0.21288654208183289,-0.0858265683054924,1.4540120363235474
1748143392699336000,11.1903359375,-0.08628471940755844,-0.46043968200683594,1.2583824396133423
1748143392717596700,11.2085966796875,-0.2571742534637451,-0.7628179788589478,1.0934487581253052
1748143392735862300,11.2268623046875,-0.24113905429840088,-0.7072292566299438,1.1994339227676392
1748143392754123500,11.24512353515625,-0.1537853181362152,-0.49205195903778076,1.4049900770187378
1748143392772391400,11.263391357421876,-0.023518312722444534,-0.3003929853439331,1.4220943450927734
1748143392790655700,11.28165576171875,0.11392636597156525,-0.03894266113638878,1.3666582107543945
1748143392808920600,11.299920654296875,0.12522737681865692,0.21059578657150269,1.3197743892669678
1748143392827186200,11.318186279296874,0.0981965884566307,0.4356996417045593,1.1882855892181396
1748143392845449500,11.336449462890625,0.04092797264456749,0.48640143871307373,0.8903360962867737
1748143392863713800,11.3547138671875,-0.03726277872920036,0.24098633229732513,0.6467535495758057
1748143392881978600,11.372978515625,-0.060322944074869156,-0.1270599663257599,0.6780604124069214
1748143392900242700,11.39124267578125,-0.08429940044879913,-0.4427245855331421,0.7875580191612244
1748143392918506200,11.40950634765625,-0.11743884533643723,-0.5535966157913208,0.7925976514816284
1748143392936768800,11.427768798828126,-0.12308934330940247,-0.422871470451355,0.6866125464439392
1748143392955036700,11.44603662109375,-0.10033461451530457,-0.24098633229732513,0.5632177591323853
1748143392973301000,11.464301025390625,-0.11285735666751862,-0.06780604273080826,0.3660610020160675
1748143392991559700,11.4825595703125,-0.11178833991289139,0.04505131021142006,0.11438451707363129
1748143393009831200,11.5008310546875,-0.07666359096765518,0.06551529467105865,-0.06017022579908371
1748143393028094500,11.519094482421876,-0.06276640295982361,0.06291911751031876,-0.1391245573759079
1748143393046358800,11.53735888671875,-0.07498370856046677,0.06704246252775192,-0.1189660057425499
1748143393064623900,11.555623779296875,-0.07131851464509964,0.0708603709936142,-0.01771509274840355
1748143393082888000,11.573887939453124,-0.037110064178705215,0.09392052888870239,0.17333301901817322
1748143393101148000,11.59214794921875,-0.007635815534740686,0.11759155988693237,0.40164390206336975
1748143393119417000,11.6104169921875,0.031612277030944824,0.13255776464939117,0.6108652353286743
1748143393137682000,11.628681884765625,0.07956519722938538,0.1459967941045761,0.7452555894851685
1748143393155945000,11.646945068359376,0.13927727937698364,0.09728029370307922,0.732122004032135
1748143393174211800,11.6652119140625,0.17058411240577698,-0.033597588539123535,0.5198463201522827
1748143393192475100,11.68347509765625,0.1791362315416336,-0.13897185027599335,0.25641068816185
1748143393210739700,11.70173974609375,0.18509216606616974,-0.20143280923366547,0.08704829961061478
1748143393229004300,11.72000439453125,0.1797471046447754,-0.16584990918636322,0.07116580009460449
1748143393247264000,11.738263916015624,0.25473082065582275,0.01114829070866108,0.011301007121801376
1748143393265533200,11.756533203125,0.2779437005519867,0.19364428520202637,-0.44623705744743347
1748143393283797800,11.7747978515625,0.13057245314121246,0.10842858254909515,-1.0236574411392212
1748143393302062300,11.793062255859375,0.04352414980530739,0.0019853119738399982,-1.144914150238037
1748143393320323300,11.8113232421875,0.03940080851316452,-0.014966198243200779,-0.9799805879592896
1748143393338590200,11.829590087890624,0.06459899991750717,-0.08735372871160507,-0.8691084980964661
1748143393356856800,11.84785693359375,0.06154467165470123,-0.10674870014190674,-0.7935139536857605
1748143393375124000,11.8661240234375,0.05696318298578262,0.07864890247583389,-0.6722571849822998
1748143393393384700,11.884384765625,0.011759156361222267,0.40973785519599915,-0.7183775305747986
1748143393411649300,11.902649169921874,-0.17241671681404114,0.7953465580940247,-1.1137601137161255
1748143393429912600,11.92091259765625,-0.4931209683418274,1.1627819538116455,-1.7666223049163818
1748143393448188000,11.93918798828125,-0.8984300494194031,1.5132659673690796,-2.163073778152466
1748143393466443000,11.957443115234375,-1.1896600723266602,1.6395623683929443,-2.2090413570404053
1748143393484707600,11.97570751953125,-1.2785409688949585,1.4285084009170532,-2.1762075424194336
1748143393502967300,11.99396728515625,-1.18660569190979,0.8897252082824707,-1.9856175184249878
1748143393521235500,12.0122353515625,-0.9130908250808716,0.044135015457868576,-1.714240550994873
1748143393539502000,12.030502197265625,-0.5609270334243774,-0.901637077331543,-1.4830280542373657
1748143393557765400,12.048765380859376,-0.3556762933731079,-1.3796391487121582,-1.2936599254608154
1748143393576030200,12.0670302734375,-0.29474249482154846,-1.4975361824035645,-1.13758385181427
1748143393594294800,12.085294677734375,-0.4795292317867279,-1.616654872894287,-1.1119275093078613
1748143393612558800,12.103558837890626,-0.9343183636665344,-0.9816604256629944,-1.5832099914550781
1748143393630823700,12.12182373046875,-1.0812314748764038,-0.4179845452308655,-1.760208249092102
1748143393649088300,12.140088134765625,-0.894001305103302,-1.1415544748306274,-1.2855658531188965
1748143393667352800,12.158352783203124,-0.7545713186264038,-1.6911804676055908,-0.9914342761039734
1748143393685615900,12.176615966796875,-0.7472409009933472,-1.6143641471862793,-0.9998337030410767
1748143393703882800,12.1948828125,-0.6398813724517822,-1.2823588848114014,-1.0216721296310425
1748143393722138400,12.213138427734375,-0.38866302371025085,-0.9740246534347534,-0.9353874325752258
1748143393740410000,12.23141015625,-0.13179416954517365,-0.8100073337554932,-0.7092145681381226
1748143393758670000,12.249670166015624,0.006261368747800589,-0.6111706495285034,-0.43997567892074585
1748143393776939000,12.26793896484375,0.11530081182718277,-0.3741549551486969,-0.22617286443710327
1748143393795205400,12.286205322265625,0.19868391752243042,-0.11804971098899841,-0.07223481684923172
1748143393813469000,12.304468994140626,0.23915374279022217,0.21639901399612427,0.09437867999076843
1748143393831733000,12.32273291015625,0.33276882767677307,0.5499314665794373,0.3393356502056122
1748143393849997800,12.340997802734375,0.4697553813457489,0.8388707041740417,0.5578727126121521
1748143393868262100,12.35926220703125,0.6546948552131653,1.0783299207687378,0.7913759350776672
1748143393886526700,12.377526611328125,0.8762862086296082,1.3267992734909058,1.0337367057800293
1748143393904791300,12.395791259765625,0.9720393419265747,1.666593074798584,1.098793864250183
1748143393923055600,12.4140556640625,0.8596401214599609,2.386955976486206,1.1178834438323975
1748143393941320200,12.4323203125,1.1297953128814697,2.328160047531128,1.5244141817092896
1748143393959583700,12.450583740234375,1.489442229270935,1.4805846214294434,1.0607675313949585
1748143393977843700,12.46884375,0.3674354553222656,-0.3674354553222656,0.25274550914764404
1748143393996114400,12.487114501953124,-0.256868839263916,-0.5041165351867676,0.2551889419555664
1748143394014373400,12.505373291015625,0.1595885455608368,-0.3173444867134094,0.15302173793315887
1748143394032641500,12.5236416015625,0.7087563872337341,-0.24007004499435425,0.45555275678634644
1748143394050908400,12.541908447265625,1.392925500869751,0.45662176609039307,0.7701483368873596
1748143394069167900,12.56016796875,1.4785993099212646,0.7771732807159424,1.1308642625808716
1748143394087436300,12.578436279296875,0.8455902338027954,0.17088955640792847,1.4072808027267456
1748143394105700900,12.596700927734375,0.30253100395202637,-0.206777885556221,1.275639295578003
1748143394123965200,12.614965087890624,0.13057245314121246,-0.4259257912635803,1.03037691116333
1748143394142230000,12.63322998046875,-0.024129176512360573,-0.7678576111793518,0.9677632451057434
1748143394160491000,12.651490966796874,-0.14752395451068878,-1.0245736837387085,0.9494373202323914
1748143394178754300,12.66975439453125,-0.1368338167667389,-1.0819950103759766,0.9387471675872803
1748143394197023500,12.6880234375,-0.08750644326210022,-0.9364564418792725,0.9592111706733704
1748143394215287800,12.706287841796875,-0.033597588539123535,-0.6466008424758911,1.0212140083312988
1748143394233555000,12.724554931640625,0.019853120669722557,-0.14004085958003998,1.1090258359909058
1748143394251816200,12.742816162109374,0.12095131725072861,0.3127630054950714,1.0978775024414062
1748143394270081500,12.76108154296875,0.23136521875858307,0.45204028487205505,0.9508117437362671
1748143394288344800,12.7793447265625,0.24068090319633484,0.29993483424186707,0.8058840036392212
1748143394306611000,12.79761083984375,0.12370020896196365,0.06261368840932846,0.7849618196487427
1748143394324883200,12.81588330078125,0.049785517156124115,0.005345070734620094,0.9225592613220215
1748143394343135700,12.8341357421875,-0.027183502912521362,-0.10690141469240189,1.0036516189575195
1748143394361399300,12.8523994140625,-0.11881329119205475,-0.35094207525253296,0.9254608750343323
1748143394379668700,12.870668701171875,-0.1840231567621231,-0.4813618063926697,0.8379544019699097
1748143394397933000,12.88893310546875,-0.20845776796340942,-0.4466952085494995,0.7661777138710022
1748143394416197600,12.90719775390625,-0.19898934662342072,-0.32070425152778625,0.6777549982070923
1748143394434462000,12.9254619140625,-0.15057829022407532,-0.13698652386665344,0.5416847467422485
1748143394452726500,12.9437265625,-0.10155634582042694,-0.03329215571284294,0.32940909266471863
1748143394470991400,12.961991455078126,-0.07864890247583389,-0.09773843735456467,0.166460782289505
1748143394489255700,12.980255615234375,-0.0328340083360672,-0.09926560521125793,0.16691893339157104
1748143394507520300,12.998520263671875,0.03527746722102165,-0.004428773187100887,0.24663683772087097
1748143394525783600,13.016783447265626,0.07727445662021637,-0.005039638374000788,0.3254384696483612
1748143394544050200,13.03505029296875,0.10980302840471268,-0.05971207842230797,0.4225660264492035
1748143394562313700,13.053313720703125,0.16401731967926025,-0.15531249344348907,0.5230533480644226
1748143394580577000,13.071576904296874,0.14813482761383057,-0.3188716471195221,0.6165157556533813
1748143394598844000,13.089843994140624,0.07941248267889023,-0.4360050559043884,0.6908885836601257
1748143394617107700,13.108107666015625,0.05146539583802223,-0.4720461070537567,0.6417139172554016
1748143394635371500,13.12637158203125,0.05803219974040985,-0.4743368625640869,0.44318273663520813
1748143394653636000,13.144635986328124,0.05192354694008827,-0.5458080768585205,0.12293662875890732
1748143394671901000,13.16290087890625,0.02367102913558483,-0.6120869517326355,-0.08979719132184982
1748143394690161400,13.181161376953124,-0.01924225501716137,-0.5262604355812073,-0.03344487398862839
1748143394708429800,13.199429931640625,-0.013591751456260681,-0.26450464129447937,0.18020524084568024
1748143394726694400,13.2176943359375,0.0981965884566307,0.03145955875515938,0.3136793076992035
1748143394744959000,13.235958984375,0.22602014243602753,0.08124507963657379,0.21991148591041565
1748143394763223000,13.25422314453125,0.23197607696056366,-0.07024950534105301,-0.016798794269561768
1748143394781487900,13.27248779296875,0.14492778480052948,-0.10476338863372803,-0.19028452038764954
1748143394799752200,13.290752197265626,0.17516560852527618,0.06200282275676727,-0.2961169183254242
1748143394818017000,13.30901708984375,0.2765692472457886,0.27519479393959045,-0.49785518646240234
1748143394836278800,13.32727880859375,0.3010038435459137,0.30604347586631775,-0.8335255980491638
1748143394854548500,13.345548583984375,0.2848159074783325,0.22663100063800812,-1.179580807685852
1748143394872805600,13.3638056640625,0.23716843128204346,0.23335053026676178,-1.3898711204528809
1748143394891073800,13.38207373046875,0.17669276893138885,0.4999932050704956,-1.5638149976730347
1748143394909340400,13.40034033203125,0.09789115190505981,0.9144652485847473,-1.96133553981781
1748143394927603200,13.418603271484375,-0.18066339194774628,1.1612548828125,-2.652529716491699
1748143394945868300,13.436868408203125,-0.7035640478134155,1.1957687139511108,-3.260798692703247
1748143394964129500,13.455129638671876,-1.0523680448532104,1.487609624862671,-3.3342552185058594
1748143394982397200,13.473397216796876,-1.072068452835083,1.9837849140167236,-2.8176159858703613
1748143395000662300,13.491662353515625,-0.8556694984436035,1.9485074281692505,-2.088090181350708
1748143395018926300,13.50992626953125,-0.5899431109428406,0.9963212013244629,-1.4301882982254028
1748143395037192000,13.52819189453125,-0.4421137273311615,-0.7283040881156921,-0.603076696395874
1748143395055455200,13.546455322265626,-0.3776674270629883,-2.032501459121704,-0.13668109476566315
1748143395073720000,13.564719970703125,-0.3747658133506775,-2.4132232666015625,-0.46273043751716614
1748143395091989000,13.582989013671876,-0.5655084848403931,-2.574186086654663,-1.6901113986968994
1748143395110249000,13.6012490234375,-0.7411322593688965,-1.689195156097412,-1.8150333166122437
1748143395128508400,13.61950830078125,-0.9472993016242981,-0.35155296325683594,-0.9295842051506042
1748143395146776600,13.637776611328125,-1.0626001358032227,0.1595885455608368,-0.2785545587539673
1748143395165043700,13.656043701171875,-1.116814374923706,0.006872233934700489,-0.3352122902870178
1748143395183306800,13.674306640625,-1.0039570331573486,-0.5009095072746277,-0.683863639831543
1748143395201570300,13.6925703125,-0.685390830039978,-0.6363688707351685,-0.6704245805740356
1748143395219837200,13.710837158203125,-0.47800204157829285,-0.2295326143503189,-0.3039054572582245
1748143395238100200,13.729100341796874,-0.328340083360672,0.08903361111879349,0.0007635815418325365
1748143395256365000,13.747364990234376,-0.043676864355802536,0.10445795953273773,0.1739438772201538
1748143395274629400,13.76562939453125,0.3225368559360504,0.15729780495166779,0.31749722361564636
1748143395292894000,13.78389404296875,0.6520986557006836,0.38117989897727966,0.5328271985054016
1748143395311154000,13.80215380859375,0.8866708874702454,0.7748825550079346,0.6908885836601257
1748143395329423000,13.820423095703125,0.997237503528595,1.18492591381073,0.6243042945861816
1748143395347687700,13.838687744140625,0.8979719281196594,1.9014707803726196,0.9900598526000977
1748143395365951000,13.856950927734376,1.362687587738037,2.107943296432495,1.7707456350326538
1748143395384212700,13.875212646484375,1.4101824760437012,1.3251193761825562,1.180649757385254
1748143395402480000,13.893480224609375,0.7506006956100464,0.6550002694129944,0.17379115521907806
1748143395420746500,13.91174658203125,0.6217080950737,0.39538252353668213,0.46929723024368286
1748143395439010000,13.930010009765626,0.5714644193649292,-0.12370020896196365,0.8443684577941895
1748143395457274600,13.948274658203125,0.5143485069274902,-0.3396410644054413,0.7509061098098755
1748143395475539200,13.966539306640625,0.5337435007095337,-0.3962988257408142,0.9040805697441101
1748143395493803300,13.98480322265625,0.6097962260246277,-0.2790127098560333,1.3277156352996826
1748143395512068000,14.003068115234376,0.489608496427536,-0.323147714138031,1.4537066221237183
1748143395530328300,14.021328369140624,0.2373211532831192,-0.6524040699005127,1.297019600868225
1748143395548596000,14.039595947265624,0.09437867999076843,-0.7046330571174622,1.2072224617004395
1748143395566862800,14.05786279296875,0.06933320313692093,-0.403323769569397,1.1942415237426758
1748143395585122300,14.076122314453125,-0.015271631069481373,-0.27290403842926025,1.1261301040649414
1748143395603390700,14.094390625,-0.12492194026708603,-0.33078351616859436,1.055269718170166
1748143395621655300,14.1126552734375,-0.18219055235385895,-0.1635591685771942,1.0598511695861816
1748143395639919600,14.130919677734376,-0.1362229436635971,0.10842858254909515,0.9418014883995056
1748143395658184700,14.149184814453125,-0.08964447677135468,0.2785545587539673,0.7626652717590332
1748143395676450000,14.167449951171875,-0.09728029370307922,0.4050036668777466,0.6910412907600403
1748143395694713000,14.185713134765624,-0.09941831976175308,0.4674646258354187,0.6530149579048157
1748143395712977700,14.203977783203126,-0.05253441259264946,0.5186246037483215,0.6368269920349121
1748143395731237400,14.2222373046875,0.038637228310108185,0.4934264123439789,0.6027712821960449
1748143395749506600,14.240506591796875,0.10766500234603882,0.35262197256088257,0.4677700698375702
1748143395767771100,14.258771240234376,0.1638645976781845,0.2756529450416565,0.3568980097770691
1748143395786035700,14.27703564453125,0.204487144947052,0.2658790946006775,0.3150537610054016
1748143395804300300,14.29530029296875,0.18127426505088806,0.10308351367712021,0.2883284091949463
1748143395822563600,14.3135634765625,0.09560041129589081,-0.08491026610136032,0.3271183371543884
1748143395840830200,14.331830322265626,0.007177666760981083,-0.20815233886241913,0.3698789179325104
1748143395859093800,14.35009375,-0.04306599870324135,-0.25335636734962463,0.31261029839515686
1748143395877356800,14.368356689453124,-0.034666601568460464,-0.2776382565498352,0.17776179313659668
1748143395895623200,14.386623046875,-0.031612277030944824,-0.3651446998119354,0.025045474991202354
1748143395913886700,14.40488671875,-0.06994406878948212,-0.4524984359741211,-0.01924225501716137
1748143395932148000,14.42314794921875,-0.12308934330940247,-0.3095559775829315,0.07452555745840073
1748143395950412500,14.44141259765625,-0.10613783448934555,0.07299839705228806,0.28649580478668213
1748143395968680700,14.4596806640625,0.03329215571284294,0.4251621961593628,0.5331326723098755
1748143395986945000,14.477945068359375,0.20693060755729675,0.34162637591362,0.5954409241676331
1748143396005209900,14.4962099609375,0.3147483170032501,-0.02825251780450344,0.4743368625640869
1748143396023474200,14.51447412109375,0.2837468981742859,-0.2785545587539673,0.31551191210746765
1748143396041739000,14.532739013671875,0.1944078654050827,-0.30695977807044983,0.15806138515472412
1748143396060003000,14.551003173828125,0.08949175477027893,-0.29993483424186707,-0.1033889427781105
1748143396078267600,14.569267578125,-0.029474247246980667,-0.34025195240974426,-0.3885102868080139
1748143396096532200,14.5875322265625,-0.04260785132646561,-0.3646865487098694,-0.5331326723098755
1748143396114796800,14.605796875,0.07956519722938538,-0.42898011207580566,-0.5441282391548157
1748143396133066000,14.62406591796875,0.20784689486026764,-0.45555275678634644,-0.6085745096206665
1748143396151325700,14.64232568359375,0.235030397772789,-0.30344730615615845,-0.8674286603927612
1748143396169588500,14.66058837890625,0.10903944820165634,-0.09972374886274338,-1.430799126625061
1748143396187856100,14.678856201171875,-0.156686931848526,0.17928895354270935,-2.1568124294281006
1748143396206113000,14.697113037109375,-0.49953505396842957,0.5923865437507629,-2.649780750274658
1748143396224383700,14.7153837890625,-0.7689266204833984,0.9766207933425903,-2.7875308990478516
1748143396242643500,14.7336435546875,-0.9030115604400635,1.2573133707046509,-2.690556049346924
1748143396260911400,14.751911376953124,-0.8710938692092896,1.298241376876831,-2.3348796367645264
1748143396279174100,14.770174072265625,-0.8659014701843262,1.024420976638794,-2.0253236293792725
1748143396297441500,14.788441650390626,-0.7350236177444458,0.3237585723400116,-1.8289304971694946
1748143396315706000,14.8067060546875,-0.4303545653820038,-0.44455718994140625,-1.5066990852355957
1748143396333970700,14.824970703125,-0.28527405858039856,-1.1853840351104736,-0.9088147878646851
1748143396352235000,14.843235107421876,-0.47189339995384216,-1.344056248664856,-0.7483099102973938
1748143396370495000,14.861494873046874,-0.8443684577941895,-1.3715451955795288,-0.9729556441307068
1748143396388764200,14.87976416015625,-1.2678507566452026,-1.5945110321044922,-1.0089967250823975
1748143396407029000,14.898029052734374,-1.2750284671783447,-1.5740469694137573,-1.1081095933914185
1748143396425293000,14.91629296875,-1.0636690855026245,-1.9285016059875488,-1.0363328456878662
1748143396443558100,14.93455810546875,-0.8718574047088623,-2.0705277919769287,-0.9518807530403137
1748143396461822000,14.952822021484375,-0.7780895829200745,-1.4795156717300415,-0.8767443299293518
1748143396480086800,14.971086669921876,-0.7409795522689819,-0.6148358583450317,-0.6287330389022827
1748143396498346500,14.989346435546874,-0.6363688707351685,-0.010231993161141872,-0.3543018400669098
1748143396516614700,15.00761474609375,-0.4155410826206207,0.19135354459285736,-0.16142113506793976
1748143396534881300,15.02588134765625,-0.10842858254909515,0.20586158335208893,0.04505131021142006
1748143396553140000,15.044139892578125,0.24755313992500305,0.17348572611808777,0.3130684494972229
1748143396571409400,15.062409423828125,0.5900958180427551,0.25274550914764404,0.6334672570228577
1748143396589673500,15.080673583984375,0.8969029188156128,0.4983133375644684,0.9007207751274109
1748143396607938000,15.09893798828125,1.144608736038208,0.8093964457511902,1.0462594032287598
1748143396626202400,15.117202392578125,1.347110629081726,1.401172161102295,0.8988882303237915
1748143396644467500,15.135467529296875,1.2883148193359375,2.269975185394287,1.173930287361145
1748143396662731800,15.153731689453124,1.433700680732727,2.850297212600708,1.6655241250991821
1748143396680996400,15.171996337890626,0.7110471725463867,2.6594018936157227,0.9601274728775024
1748143396699260700,15.1902607421875,-0.12034045159816742,1.5041029453277588,-0.10995574295520782
1748143396717525200,15.208525146484375,0.4440990388393402,-0.24190263450145721,-0.09896016865968704
1748143396735788300,15.226788330078126,1.063821792602539,-0.42210787534713745,0.35521814227104187
1748143396754050600,15.245050537109375,1.4648548364639282,-0.12186761945486069,0.7539604306221008
1748143396772317400,15.2633173828125,1.5140295028686523,0.2025018334388733,0.9799805879592896
1748143396790583000,15.2815830078125,0.9636399149894714,0.5018258094787598,1.004873275756836
1748143396808848600,15.2998486328125,0.35445454716682434,0.4314235746860504,1.0128145217895508
1748143396827113000,15.318113037109375,0.16661348938941956,0.41828998923301697,1.0144944190979004
1748143396845376500,15.33637646484375,0.14004085958003998,0.6046038866043091,1.1104003190994263
1748143396863640800,15.354640869140624,0.04505131021142006,0.7124215960502625,1.2592986822128296
1748143396881905400,15.372905517578126,0.012675453908741474,0.5001459121704102,1.2747230529785156
1748143396900166400,15.39116650390625,0.050243668258190155,-0.076052725315094,1.1331549882888794
1748143396918434600,15.4094345703125,0.09987647086381912,-0.6747006773948669,1.007927656173706
1748143396936699000,15.427698974609376,0.13087788224220276,-0.926224410533905,1.013272762298584
1748143396954960600,15.445960693359375,0.12263119965791702,-0.8229882121086121,1.0560332536697388
1748143396973231000,15.464231201171875,0.06887505948543549,-0.5742133259773254,1.0308351516723633
1748143396991490600,15.482490478515626,-0.03787364438176155,-0.28267788887023926,0.960280179977417
1748143397009759200,15.50075927734375,-0.11820242553949356,-0.06368270516395569,0.8629998564720154
1748143397028020500,15.5190205078125,-0.12461651116609573,0.10537425428628922,0.7490735054016113
1748143397046287400,15.537287353515625,-0.09514226019382477,0.21365012228488922,0.640644907951355
1748143397064551200,15.55555126953125,-0.03130684420466423,0.19226983189582825,0.5618433356285095
1748143397082814500,15.573814453125,0.039248090237379074,0.05971207842230797,0.5108360648155212
1748143397101079300,15.592079345703125,0.07116580009460449,-0.11911872029304504,0.46303585171699524
1748143397119344000,15.61034423828125,0.08185594528913498,-0.252287358045578,0.46181413531303406
1748143397137607400,15.628607421875,0.09865473955869675,-0.2554943859577179,0.5360342264175415
1748143397155873300,15.646873291015625,0.08750644326210022,-0.23319780826568604,0.5574145317077637
1748143397174133500,15.665133544921876,0.07177666574716568,-0.24694228172302246,0.5448917746543884
1748143397192402000,15.68340185546875,0.08460483700037003,-0.26419922709465027,0.5381723046302795
1748143397210666500,15.70166650390625,0.07590000331401825,-0.2736676335334778,0.5296201705932617
1748143397228931300,15.719931396484375,0.07895433157682419,-0.27030786871910095,0.5149593949317932
1748143397247198700,15.73819873046875,0.10522153973579407,-0.21074850857257843,0.483957976102829
1748143397265455000,15.756455078125,0.14156801998615265,-0.1966986060142517,0.3767511546611786
1748143397283720400,15.774720458984374,0.15546520054340363,-0.28527405858039856,0.2047925740480423
1748143397301990100,15.792990234375,0.11362093687057495,-0.43157628178596497,0.021532999351620674
1748143397320253200,15.811253173828124,0.02229658141732216,-0.49067750573158264,-0.1440114825963974
1748143397338518000,15.82951806640625,-0.06230825558304787,-0.4308127164840698,-0.23655757308006287
1748143397356782600,15.847782470703125,-0.15347988903522491,-0.24892759323120117,-0.23686300218105316
1748143397375047000,15.866046875,-0.21059578657150269,0.052381694316864014,-0.09269879758358002
1748143397393311200,15.884311279296876,-0.1569923609495163,0.294895201921463,0.07941248267889023
1748143397411574800,15.90257470703125,0.03955352306365967,0.27030786871910095,-0.0809396430850029
1748143397429841700,15.920841552734375,0.24113905429840088,0.4291328489780426,-0.5833762884140015
1748143397448105200,15.939105224609374,0.44180828332901,0.77472984790802,-1.0575604438781738
1748143397466369300,15.957369384765625,0.49144110083580017,0.8090910315513611,-1.3367258310317993
1748143397484633900,15.9756337890625,0.2993239760398865,0.5766568183898926,-1.6200146675109863
1748143397502895600,15.9938955078125,-0.14187344908714294,0.3914119005203247,-2.0108156204223633
1748143397521157000,16.0121572265625,-0.6235406994819641,0.7449501752853394,-2.1449005603790283
1748143397539427600,16.030427490234374,-1.1481212377548218,1.1594222784042358,-2.302656650543213
1748143397557691600,16.048691650390627,-1.4051427841186523,1.2855658531188965,-2.4966063499450684
1748143397575955200,16.066955078125,-1.3785701990127563,1.2767083644866943,-2.183079719543457
1748143397594222000,16.08522216796875,-1.316567301750183,0.646295428276062,-1.7661641836166382
1748143397612480500,16.10348046875,-1.0317513942718506,-0.45723262429237366,-1.3457361459732056
1748143397630748400,16.12174853515625,-0.7095199823379517,-1.373683214187622,-0.9094256162643433
1748143397649015800,16.140015869140626,-0.48319441080093384,-1.9121609926223755,-0.7073819637298584
1748143397667278800,16.15827880859375,-0.5114469528198242,-2.3107504844665527,-0.9775370955467224
1748143397685543400,16.17654345703125,-0.9998337030410767,-1.906968593597412,-1.5265522003173828
1748143397703807500,16.194807373046874,-1.398881435394287,-0.8150469660758972,-1.1982121467590332
1748143397722072300,16.213072265625,-1.5460999011993408,-0.4714352488517761,-0.5557346343994141
1748143397740332800,16.231332763671876,-1.4294246435165405,-0.6730207800865173,-0.531758189201355
1748143397758600400,16.249600341796874,-1.1484266519546509,-1.4159855842590332,-0.7822129726409912
1748143397776866800,16.26786669921875,-0.9103419184684753,-1.8275561332702637,-0.7973318696022034
1748143397795124200,16.286124267578124,-0.7020368576049805,-1.4205671548843384,-0.5207626223564148
1748143397813395700,16.304395751953123,-0.5012149214744568,-0.7257078886032104,-0.11178833991289139
1748143397831659300,16.3226591796875,-0.20525072515010834,-0.22647829353809357,0.27611109614372253
1748143397849923600,16.340923583984374,0.2041817009449005,0.04092797264456749,0.5815436840057373
1748143397868183300,16.359183349609374,0.6780604124069214,0.24862214922904968,0.7481572031974792
1748143397886452700,16.37745263671875,1.0882564783096313,0.6310238242149353,0.9425650835037231
1748143397904717000,16.395717041015626,1.4043792486190796,0.9955576062202454,0.9702067375183105
1748143397922982000,16.41398193359375,1.574657917022705,2.14902400970459,1.651321530342102
1748143397941246200,16.43224609375,1.9451476335525513,3.1082351207733154,2.6067147254943848
1748143397959510800,16.4505107421875,1.4477506875991821,3.3093624114990234,1.5581644773483276
1748143397977775000,16.468775146484376,-0.1238529309630394,2.0648772716522217,0.039095375686883926
1748143397996039400,16.487039306640625,0.0913243517279625,-0.23319780826568604,0.34208452701568604
1748143398014304300,16.50530419921875,0.718224823474884,-0.5010622143745422,0.5998696684837341
1748143398032568800,16.52356884765625,1.0044151544570923,-0.28649580478668213,0.6214026808738708
1748143398050833000,16.5418330078125,1.0444267988204956,-0.42699480056762695,0.640644907951355
1748143398069096400,16.560096435546875,0.959669291973114,-0.6556110978126526,0.7637342810630798
1748143398087363300,16.57836328125,0.627358615398407,-0.826195240020752,0.8936958312988281
1748143398105625300,16.596625244140625,0.3484986126422882,-0.70692378282547,0.9738719463348389
1748143398123887400,16.614887451171874,0.22861631214618683,-0.10170906037092209,1.0555751323699951
1748143398142149600,16.633149658203124,0.13515393435955048,0.3400992155075073,1.0772608518600464
1748143398160417000,16.6514169921875,0.008704829961061478,0.20922134816646576,1.0224356651306152
1748143398178684200,16.66968408203125,-0.08307767659425735,-0.23396138846874237,0.9370672702789307
1748143398196949000,16.687948974609377,-0.14355333149433136,-0.5810855627059937,0.8743008971214294
1748143398215213300,16.70621337890625,-0.22479841113090515,-0.7399105429649353,0.8303185701370239
1748143398233478000,16.724477783203124,-0.26893341541290283,-0.5681046843528748,0.7954992651939392
1748143398251742200,16.7427421875,-0.20861047506332397,-0.11591167747974396,0.8042041063308716
1748143398270007300,16.76100732421875,-0.1238529309630394,0.22510384023189545,0.8524624705314636
1748143398288271400,16.779271240234376,-0.029626963660120964,0.32070425152778625,0.9091202020645142
1748143398306536000,16.797535888671874,0.06444628536701202,0.1371392458677292,0.8767443299293518
1748143398324788200,16.815788330078124,0.11835514008998871,-0.26343563199043274,0.7154759168624878
1748143398343064800,16.83406494140625,0.09147707372903824,-0.5299255847930908,0.5763513445854187
1748143398361325800,16.852325927734373,0.01924225501716137,-0.5093088746070862,0.5867360830307007
1748143398379592700,16.8705927734375,-0.04734205827116966,-0.3625485301017761,0.655458390712738
1748143398397858000,16.888858154296877,-0.0835358202457428,-0.2509129047393799,0.6255260109901428
1748143398416125400,16.90712548828125,-0.06154467165470123,-0.1385136991739273,0.5287038683891296
1748143398434387500,16.925387451171876,0.016798794269561768,-0.04108068719506264,0.36102136969566345
1748143398452652000,16.943652099609373,0.09392052888870239,0.03649919852614403,0.19226983189582825
1748143398470916400,16.961916259765626,0.19456058740615845,0.10995574295520782,0.13775011897087097
1748143398489186300,16.980186279296873,0.2863430976867676,0.1459967941045761,0.18509216606616974
1748143398507445000,16.998445068359374,0.3433062732219696,0.156686931848526,0.26710084080696106
1748143398525709800,17.016709716796875,0.351400226354599,0.1270599663257599,0.31413745880126953
1748143398543974400,17.034974365234376,0.28206703066825867,0.039706241339445114,0.26771169900894165
1748143398562238700,17.05323876953125,0.1508837193250656,-0.08506298810243607,0.164170041680336
1748143398580498400,17.07149853515625,0.06383541971445084,-0.10170906037092209,0.0731511116027832
1748143398598767600,17.089767578125,0.06291911751031876,0.10980302840471268,0.01466076634824276
1748143398617032200,17.1080322265625,0.09086620807647705,0.2971859276294708,-0.17959438264369965
1748143398635291600,17.126291748046874,0.13179416954517365,0.39874228835105896,-0.4473060667514801
1748143398653560000,17.14456005859375,0.24434609711170197,0.432645320892334,-0.6805039048194885
1748143398671826700,17.16282666015625,0.24663683772087097,0.45692721009254456,-1.277166485786438
1748143398690090000,17.181090087890624,-0.13729196786880493,0.5786421298980713,-2.5218043327331543
1748143398708354600,17.1993544921875,-0.7498371005058289,1.190423607826233,-3.4547483921051025
1748143398726620400,17.217620361328127,-1.1520918607711792,2.0140228271484375,-3.5390477180480957
1748143398744882400,17.23588232421875,-1.2319624423980713,2.0534234046936035,-2.8849637508392334
1748143398763143400,17.254143310546876,-1.270447015762329,1.5795447826385498,-2.183385133743286
1748143398781412400,17.272412353515627,-1.1882855892181396,0.6516404747962952,-1.655444860458374
1748143398799677000,17.290677001953124,-0.8547531962394714,-0.5757405161857605,-1.112385630607605
1748143398817941500,17.30894140625,-0.45204028487205505,-1.885893702507019,-0.48090365529060364
1748143398836205800,17.327205810546875,-0.265573650598526,-2.897639274597168,-0.18738290667533875
1748143398854470400,17.345470458984376,-0.6514877676963806,-3.38297176361084,-1.5308283567428589
1748143398872735000,17.36373486328125,-1.1409435272216797,-2.1175644397735596,-2.3935227394104004
1748143398890999600,17.38199951171875,-1.3238977193832397,-0.8434522151947021,-1.3025174140930176
1748143398909264000,17.400263916015625,-1.36482572555542,-0.14355333149433136,-0.44715335965156555
1748143398927528200,17.418528076171874,-1.3684908151626587,-0.0503963828086853,-0.5314527750015259
1748143398945791500,17.43679150390625,-1.1242974996566772,-0.9958630800247192,-0.773202657699585
1748143398964058600,17.45505859375,-0.8055785298347473,-1.386053204536438,-0.769690215587616
1748143398982317000,17.473317138671874,-0.5606215596199036,-1.070694088935852,-0.5244278311729431
1748143399000585000,17.4915849609375,-0.3220787048339844,-0.8657487630844116,-0.18539759516716003
1748143399018852000,17.50985205078125,-0.050243668258190155,-0.7079927921295166,0.1508837193250656
1748143399037118000,17.528117919921876,0.24908030033111572,-0.40591996908187866,0.4645630121231079
1748143399055379700,17.546379638671876,0.6678284406661987,0.21762074530124664,0.6346889734268188
1748143399073644300,17.564644287109374,1.1456778049468994,1.0772608518600464,0.6354525685310364
1748143399091908600,17.58290869140625,1.2290608882904053,2.135737657546997,0.8668177723884583
1748143399110169600,17.601169677734376,0.9810495972633362,2.847395658493042,2.3243422508239746
1748143399128437800,17.619437744140626,1.5457944869995117,2.523942470550537,2.4407119750976562
1748143399146701800,17.637701904296875,1.1050552129745483,1.6517796516418457,0.17562375962734222
1748143399164967000,17.655966796875,0.7822129726409912,-0.6887505650520325,0.1840231567621231
1748143399183231200,17.674231201171875,1.0415252447128296,-0.9825767278671265,0.8145887851715088
1748143399201495600,17.69249560546875,0.9996809959411621,0.3459024429321289,0.755793035030365
1748143399219759900,17.710759765625,0.6624833345413208,1.2383766174316406,0.8471173644065857
1748143399238024400,17.7290244140625,0.6142250299453735,1.1226176023483276,0.9613491892814636
1748143399256288800,17.747288818359376,0.7002043128013611,0.5012149214744568,0.8743008971214294
1748143399274554400,17.765554443359374,0.6155994534492493,-0.11514809727668762,0.8306240439414978
1748143399292817000,17.78381689453125,0.42577308416366577,-0.49984049797058105,0.8814785480499268
1748143399311082800,17.802082763671876,0.28985556960105896,-0.3549126982688904,0.9416487812995911
1748143399329346800,17.820346923828126,0.2776382565498352,0.23716843128204346,0.9468411207199097
1748143399347610400,17.8386103515625,0.29016098380088806,0.5994115471839905,0.9185886383056641
1748143399365875700,17.856875732421877,0.2393064647912979,0.4870123267173767,0.9427177906036377
1748143399384136700,17.87513671875,0.1823432743549347,0.11743884533643723,0.9989174008369446
1748143399402404400,17.893404296875,0.1062905490398407,-0.2837468981742859,1.0430524349212646
1748143399420669400,17.91166943359375,0.02825251780450344,-0.5858197808265686,1.020603060722351
1748143399438929200,17.92992919921875,-0.009773843921720982,-0.6843217611312866,0.9207266569137573
1748143399457198300,17.9481982421875,-0.03649919852614403,-0.58062744140625,0.8135197758674622
1748143399475462700,17.966462646484374,-0.06750060617923737,-0.2768746614456177,0.7713701128959656
1748143399493722400,17.984722412109374,-0.1062905490398407,0.14813482761383057,0.7179193496704102
1748143399511990300,18.002990234375,-0.14645494520664215,0.46273043751716614,0.5913175344467163
1748143399530257200,18.021257080078126,-0.12889257073402405,0.5305364727973938,0.5028948187828064
1748143399548520400,18.0395205078125,-0.055741455405950546,0.3608686327934265,0.48640143871307373
1748143399566785300,18.057785400390625,0.0027488935738801956,0.05955936014652252,0.4944954216480255
1748143399585049300,18.07604931640625,0.009468411095440388,-0.16203200817108154,0.5329799056053162
1748143399603314200,18.094314208984375,-0.016951510682702065,-0.25076019763946533,0.5381723046302795
1748143399621577200,18.1125771484375,-0.03405573591589928,-0.2857322096824646,0.44974952936172485
1748143399639844400,18.13084423828125,-0.0328340083360672,-0.2620611786842346,0.3439171314239502
1748143399658108200,18.149108154296876,-0.021380282938480377,-0.2054034322500229,0.31871894001960754
1748143399676372000,18.1673720703125,0.00931569468230009,-0.2402227520942688,0.3101668357849121
1748143399694636300,18.18563623046875,0.035582900047302246,-0.29184088110923767,0.303600013256073
1748143399712900900,18.20390087890625,0.05345070734620094,-0.24129177629947662,0.34437528252601624
1748143399731161000,18.2221611328125,0.055741455405950546,-0.1408044397830963,0.3533855378627777
1748143399749425200,18.240425048828126,0.0328340083360672,-0.06963863968849182,0.23945917189121246
1748143399767693000,18.258693115234376,-0.0007635815418325365,-0.09773843735456467,0.017867809161543846
1748143399785959200,18.276959228515626,0.0009162978967651725,-0.2301434874534607,-0.23854288458824158
1748143399804224500,18.295224609375,-0.005345070734620094,-0.28038713335990906,-0.43799036741256714
1748143399822487800,18.31348779296875,-0.04764748737215996,-0.0936150997877121,-0.5461135506629944
1748143399840752000,18.331752197265626,-0.09178250283002853,0.19883663952350616,-0.6307183504104614
1748143399859016700,18.3500166015625,-0.06383541971445084,0.40714168548583984,-0.6916521787643433
1748143399877281300,18.36828125,0.08567385375499725,0.408974289894104,-0.7689266204833984
1748143399895545900,18.3865458984375,0.26282477378845215,0.3738495409488678,-0.9465357065200806
1748143399913810200,18.40481005859375,0.31902438402175903,0.3744603991508484,-1.3907874822616577
1748143399932074800,18.42307470703125,0.05360342562198639,0.49724429845809937,-2.06548810005188
1748143399950334500,18.44133447265625,-0.4282165467739105,0.9042332768440247,-2.5773932933807373
1748143399968602600,18.4596025390625,-0.7748825550079346,1.6688838005065918,-2.596024513244629
1748143399986869200,18.477869140625,-0.9370672702789307,2.031890630722046,-2.1908681392669678
1748143400005128000,18.4961279296875,-0.9297369122505188,1.5309810638427734,-1.5584700107574463
1748143400023395800,18.514395751953124,-0.760832667350769,0.39797869324684143,-1.1450668573379517
1748143400041662700,18.532662841796874,-0.5093088746070862,-0.7667886018753052,-0.9466884136199951
1748143400059925800,18.55092578125,-0.31642818450927734,-1.3935363292694092,-0.8266534209251404
1748143400078190600,18.569190673828125,-0.22418753802776337,-1.2173017263412476,-0.9297369122505188
1748143400096455000,18.587454833984374,-0.4190535545349121,-0.4170682430267334,-1.273043155670166
1748143400114719200,18.60571923828125,-0.6430884003639221,0.37079519033432007,-1.2479976415634155
1748143400132983800,18.62398388671875,-0.707534670829773,0.36392298340797424,-0.6788240075111389
1748143400151248400,18.642248291015626,-0.6786713004112244,-0.32757648825645447,-0.32100969552993774
1748143400169512700,18.6605126953125,-0.6884451508522034,-0.897513747215271,-0.5789475440979004
1748143400187778600,18.678778564453125,-0.7586946487426758,-1.17545747756958,-0.8078693151473999
1748143400206040600,18.69704052734375,-0.6782131195068359,-0.9317222237586975,-0.7515169382095337
1748143400224305000,18.715304931640624,-0.5054910182952881,-0.5393940210342407,-0.4764748811721802
1748143400242571000,18.733571044921874,-0.35582900047302246,-0.33918291330337524,-0.23090706765651703
1748143400260834800,18.751834716796875,-0.22831088304519653,-0.2952006161212921,-0.09636399149894714
1748143400279101200,18.77010107421875,-0.10781771689653397,-0.20693060755729675,0.0012217304902151227
1748143400297364000,18.788364013671874,0.03649919852614403,-0.152105450630188,0.1866193264722824
1748143400315630300,18.80663037109375,0.2116648107767105,-0.03695734590291977,0.3982841372489929
1748143400333891600,18.8248916015625,0.4066835343837738,0.19226983189582825,0.5887213945388794
1748143400352153000,18.843153076171873,0.5777258276939392,0.3865249752998352,0.7509061098098755
1748143400370418000,18.86141796875,0.7857254147529602,0.7318165898323059,0.8891143798828125
1748143400388686600,18.8796865234375,0.9404270648956299,1.330464482307434,0.9947940707206726
1748143400406951000,18.897950927734374,1.059698462486267,1.895667552947998,1.205847978591919
1748143400425215500,18.916215576171876,1.574352502822876,1.7369953393936157,1.6340645551681519
1748143400443479800,18.934479736328125,1.4094188213348389,0.7104362845420837,1.2880094051361084
1748143400461744400,18.952744384765627,0.3718642294406891,0.24037547409534454,0.25595253705978394
1748143400479998000,18.970998046875,0.37171149253845215,0.039095375686883926,0.23900102078914642
1748143400498273500,18.9892734375,0.6824892163276672,-0.2376265823841095,0.31031954288482666
1748143400516531200,19.00753125,0.7522805333137512,-0.11560624837875366,0.24404066801071167
1748143400534801000,19.02580078125,0.7646505832672119,-0.15393804013729095,0.47830748558044434
1748143400553067800,19.04406787109375,0.7324274182319641,-0.19715675711631775,0.8758280277252197
1748143400571331300,19.062331298828123,0.5071708559989929,-0.4612032473087311,1.0601565837860107
1748143400589594600,19.0805947265625,0.23594669997692108,-0.5775730609893799,1.0566442012786865
1748143400607856400,19.0988564453125,0.07254024595022202,-0.08368854224681854,1.0180069208145142
1748143400626122500,19.11712255859375,-0.013897184282541275,0.32971450686454773,0.9199630618095398
1748143400644388900,19.135388916015625,-0.01725694350898266,0.289244681596756,0.8014551997184753
1748143400662653400,19.1536533203125,0.03176499158143997,-0.030237829312682152,0.775340735912323
1748143400680918000,19.17191796875,0.004428773187100887,-0.43127086758613586,0.8565858006477356
1748143400699194400,19.1901943359375,-0.05619960278272629,-0.7170031070709229,0.9682214260101318
1748143400717449500,19.208449462890623,-0.0809396430850029,-0.7785477638244629,1.0267117023468018
1748143400735711500,19.22671142578125,-0.1215621829032898,-0.6954700946807861,1.0311405658721924
1748143400753976000,19.24497607421875,-0.10797043144702911,-0.4356996417045593,1.0403034687042236
1748143400772240400,19.263240478515623,-0.05864306539297104,-0.1160643994808197,0.9870055317878723
1748143400790500400,19.281500244140624,-0.005497787147760391,-0.04138612002134323,0.7525860071182251
1748143400808769300,19.299769287109374,-0.015577063895761967,-0.24419337511062622,0.47051894664764404
1748143400827033900,19.318033935546875,0.00015271631127689034,-0.40973785519599915,0.37369680404663086
1748143400845298000,19.3362978515625,0.014202617108821869,-0.4248567819595337,0.41340306401252747
1748143400863556900,19.354556884765625,0.003359758760780096,-0.37048977613449097,0.4216497242450714
1748143400881827000,19.3728271484375,-0.0003054326225537807,-0.29535335302352905,0.39095374941825867
1748143400900092700,19.3910927734375,0.004428773187100887,-0.182648703455925,0.33536502718925476
1748143400918356000,19.40935595703125,0.02275473065674305,-0.11301007121801376,0.2704605758190155
1748143400936621000,19.42762109375,0.08597928285598755,-0.08933904021978378,0.3153591752052307
1748143400954884400,19.44588427734375,0.16798794269561768,-0.09605856239795685,0.4495968222618103
1748143400973144800,19.464144775390626,0.16401731967926025,-0.19654589891433716,0.5342016816139221
1748143400991414000,19.4824140625,0.09697485715150833,-0.28985556960105896,0.5375614166259766
1748143401009678300,19.50067822265625,-0.006719517521560192,-0.22815817594528198,0.4763221740722656
1748143401027943000,19.51894287109375,-0.11545353382825851,-0.09544769674539566,0.29367345571517944
1748143401046207500,19.53720751953125,-0.20112738013267517,-0.11056660860776901,-0.05619960278272629
1748143401064471600,19.555471435546874,-0.3176499307155609,-0.13973543047904968,-0.31261029839515686
1748143401082736400,19.573736328125,-0.21700987219810486,0.0734565481543541,-0.4433354437351227
1748143401101001000,19.5920009765625,-0.02733621932566166,0.23747386038303375,-1.0436632633209229
1748143401119260400,19.610260498046873,0.04153883829712868,0.46181413531303406,-2.0615174770355225
1748143401137529600,19.628529541015624,-0.22892175614833832,0.827722430229187,-2.716212272644043
1748143401155793000,19.64679296875,-0.7536550164222717,1.439351201057434,-2.705674886703491
1748143401174059800,19.665059814453127,-1.2654073238372803,1.751808762550354,-2.7009406089782715
1748143401192323300,19.6833232421875,-1.525483250617981,1.4141530990600586,-2.6334400177001953
1748143401210586400,19.70158642578125,-1.3643674850463867,0.7542658448219299,-2.4072673320770264
1748143401228853200,19.719853271484375,-1.0671815872192383,0.046273041516542435,-1.9320141077041626
1748143401247119600,19.73811962890625,-0.7728972434997559,-1.0963504314422607,-1.3744467496871948
1748143401265380900,19.756380859375,-0.6123924255371094,-2.19163179397583,-1.1004737615585327
1748143401283645400,19.7746455078125,-0.5285511612892151,-2.844799518585205,-1.3883439302444458
1748143401301909800,19.79290966796875,-0.5053382515907288,-3.117703437805176,-1.6836973428726196
1748143401320170800,19.811170654296873,-0.8020660877227783,-2.7933340072631836,-1.4897476434707642
1748143401338435000,19.82943505859375,-1.079246163368225,-1.9040669202804565,-1.2286027669906616
1748143401356707300,19.847707275390626,-1.162629246711731,-0.9506590366363525,-1.1148290634155273
1748143401374962700,19.865962646484373,-1.0528262853622437,-1.0841331481933594,-1.1166616678237915
1748143401393231000,19.884231201171875,-0.8623890280723572,-1.7800613641738892,-1.1172724962234497
1748143401411497700,19.902497802734374,-0.6575964093208313,-1.6198619604110718,-0.9779952764511108
1748143401429761300,19.92076123046875,-0.43447789549827576,-0.8313875794410706,-0.6369797587394714
1748143401448025600,19.939025634765624,-0.21700987219810486,-0.2632829248905182,-0.2822197377681732
1748143401466290200,19.957290283203125,-0.004734205547720194,0.023976460099220276,0.056352317333221436
1748143401484555500,19.975555419921875,0.2054034322500229,0.34437528252601624,0.44715335965156555
1748143401502818000,19.993818115234376,0.4196644127368927,0.59803706407547,0.8089383244514465
1748143401521083400,20.01208349609375,0.5829181671142578,0.566730260848999,1.006095051765442
1748143401539348000,20.030347900390623,0.68325275182724,0.6400340795516968,1.18660569190979
1748143401557599700,20.048599853515626,0.8910996913909912,1.2154691219329834,1.5416711568832397
1748143401575877400,20.06687744140625,1.0790934562683105,1.6655241250991821,2.2256875038146973
1748143401594125000,20.085125,1.1627819538116455,1.9653061628341675,2.5166120529174805
1748143401621539600,20.11253955078125,1.5001323223114014,1.891544222831726,-0.655458390712738
1748143401639802400,20.13080224609375,1.443474531173706,-0.19776763021945953,0.3507893681526184
1748143401658068000,20.14906787109375,0.7525860071182251,-0.42119157314300537,0.8904888033866882
1748143401676327700,20.16732763671875,0.016493361443281174,1.0106765031814575,0.9967793822288513
1748143401694595800,20.185595947265625,-0.22602014243602753,1.8474092483520508,1.3028228282928467
1748143401712861400,20.203861328125,-0.14706580340862274,1.4146112203598022,1.5212072134017944
1748143401731122200,20.2221220703125,0.13087788224220276,0.4634940028190613,1.4140002727508545
1748143401749390300,20.240390380859374,-0.019089538604021072,-0.8225300312042236,0.9405797719955444
1748143401767655000,20.258655029296875,-0.13408492505550385,-1.3405437469482422,0.720820963382721
1748143401785919700,20.276919677734377,-0.07757988572120667,-0.9767735004425049,0.7745771408081055
1748143401804184300,20.295184326171874,-0.04932736977934837,-0.2817615866661072,0.9450085163116455
1748143401822448000,20.3134482421875,0.10033461451530457,0.182648703455925,0.9517280459403992
1748143401840709600,20.331709716796876,0.2519819140434265,-0.008857546374201775,0.8440630435943604
1748143401858979300,20.349979248046875,0.3039054572582245,-0.4815145432949066,0.8575021028518677
1748143401877240300,20.368240234375,0.19288070499897003,-0.9683741331100464,1.0389291048049927
1748143401895507200,20.386507080078125,-0.04092797264456749,-1.4298827648162842,1.1349875926971436
1748143401913770500,20.4047705078125,-0.3269656300544739,-1.8067866563796997,1.0433578491210938
1748143401932029200,20.423029296875,-0.5245805382728577,-1.751808762550354,0.8970556259155273
1748143401950298400,20.44129833984375,-0.48685958981513977,-1.295186996459961,0.8084801435470581
1748143401968564200,20.459564208984375,-0.32559117674827576,-1.1340713500976562,0.7289149761199951
1748143401986829300,20.477829345703125,-0.26939156651496887,-1.221272349357605,0.779464066028595
1748143402005092400,20.49609228515625,-0.2422080636024475,-1.3287845849990845,0.9250026941299438
1748143402023357200,20.514357177734375,-0.19043724238872528,-1.3936890363693237,1.0416779518127441
1748143402041621800,20.532621826171876,-0.1310305893421173,-1.3361150026321411,1.117730736732483
1748143402059886000,20.550885986328126,-0.05925392732024193,-1.1525499820709229,1.215621829032898
1748143402078144800,20.569144775390626,0.027030786499381065,-0.9616546034812927,1.260367751121521
1748143402096406500,20.587406494140627,0.11560624837875366,-0.9108000993728638,1.2544118165969849
1748143402114679600,20.605679443359374,0.17928895354270935,-1.0219775438308716,1.2041680812835693
1748143402132938500,20.6239384765625,0.1690569519996643,-1.070694088935852,1.0674870014190674
1748143402151207200,20.642207275390625,0.08185594528913498,-1.0713049173355103,0.9534079432487488
1748143402169473000,20.66047314453125,0.014202617108821869,-1.0949759483337402,0.9332493543624878
1748143402187737300,20.6787373046875,-0.017562376335263252,-1.1986702680587769,0.9433286786079407
1748143402206000400,20.69700048828125,-0.06704246252775192,-1.266018271446228,1.0276280641555786
1748143402224266500,20.7152666015625,-0.08704829961061478,-1.1930198669433594,1.1888965368270874
1748143402242530600,20.733530517578124,-0.09957103431224823,-1.0151053667068481,1.288162112236023
1748143402260795100,20.751795166015626,-0.0936150997877121,-0.8721628785133362,1.2466232776641846
1748143402279059500,20.7700595703125,-0.029016099870204926,-0.8778133392333984,1.1359039545059204
1748143402297323000,20.788322998046876,0.035124752670526505,-0.9491318464279175,1.0314459800720215
1748143402315587300,20.80658740234375,0.0832303911447525,-0.9202684760093689,0.9779952764511108
1748143402333854200,20.824854248046876,0.20234911143779755,-0.7281513810157776,0.9138544201850891
1748143402352121000,20.84312109375,0.3523165285587311,-0.6378960609436035,0.5393940210342407
1748143402370376200,20.861376220703125,0.42210787534713745,-0.7533495426177979,0.06215553730726242
1748143402388646400,20.879646484375,0.3758348524570465,-1.0343475341796875,-0.1368338167667389
1748143402406910700,20.89791064453125,0.2588541507720947,-1.3683381080627441,0.0022907445672899485
1748143402425171500,20.91617138671875,0.12522737681865692,-1.4764612913131714,0.31841349601745605
1748143402443434000,20.93443408203125,0.028099801391363144,-1.3003793954849243,0.5920811295509338
1748143402461703000,20.952702880859373,-0.02825251780450344,-0.9005680680274963,0.735634446144104
1748143402479970000,20.970969970703123,0.04459316283464432,-0.36132678389549255,0.7376197576522827
1748143402498233300,20.9892333984375,0.17516560852527618,-0.13545936346054077,0.566119372844696
1748143402516496600,21.00749658203125,0.2819143235683441,-0.45875978469848633,0.37598755955696106
1748143402534762200,21.02576220703125,0.4092797040939331,-0.7680103182792664,0.3387247920036316
1748143402553026600,21.044026611328125,0.485027015209198,-0.7226535677909851,0.26862800121307373
1748143402571291100,21.062291015625,0.48059824109077454,-0.6160575747489929,0.04046982154250145
1748143402589555200,21.08055517578125,0.39217549562454224,-0.6250678896903992,-0.05696318298578262
1748143402607819000,21.098819091796877,0.22800545394420624,0.8428413271903992,-0.5737552046775818
1748143402626084600,21.117084716796874,-0.0032070425804704428,4.290717601776123,-0.737772524356842
1748143402644349000,21.135348876953124,-0.3280346393585205,1.052215337753296,0.022143865004181862
1748143402662611200,21.153611083984377,-0.2643519341945648,-1.8947513103485107,-0.33200526237487793
1748143402680878600,21.171878662109375,-0.14034628868103027,-2.763859748840332,-0.16111570596694946
1748143402699137500,21.190137451171875,0.04886921867728233,-2.538145065307617,-0.026419922709465027
1748143402717406700,21.20840673828125,0.10048733651638031,-2.5926647186279297,-0.24892759323120117
1748143402735669800,21.226669677734375,0.1440114825963974,-2.894584894180298,-0.5862779021263123
1748143402753935600,21.244935546875,0.15836681425571442,-2.83074951171875,-0.9053022861480713
1748143402772200200,21.2632001953125,0.08216137439012527,-2.250732898712158,-1.3753631114959717
1748143402790460700,21.281460693359374,-0.07925976812839508,-1.7304285764694214,-1.758375644683838
1748143402808726500,21.2997265625,-0.23487769067287445,-1.4521794319152832,-1.877036213874817
1748143402826994700,21.31799462890625,-0.4161519408226013,-1.3434454202651978,-1.8209892511367798
1748143402845257700,21.3362578125,-0.5473352670669556,-1.289536476135254,-1.629024863243103
1748143402863522300,21.354522216796877,-0.6397286057472229,-1.1607966423034668,-1.4115568399429321
1748143402881785600,21.37278564453125,-0.698677122592926,-0.9892962574958801,-1.226922869682312
1748143402900051000,21.391051025390624,-0.7376197576522827,-0.9592111706733704,-1.0280861854553223
1748143402918312200,21.409312255859376,-0.7787004709243774,-0.9995282292366028,-0.797789990901947
1748143402936582700,21.427582763671875,-0.851393461227417,-1.0261008739471436,-0.5778785347938538
1748143402954843000,21.4458427734375,-0.8988882303237915,-1.0242682695388794,-0.40362921357154846
1748143402973110000,21.464110107421874,-0.8914051055908203,-0.9969320893287659,-0.28420504927635193
1748143402991374800,21.482374755859375,-0.8810204267501831,-0.9834930300712585,-0.1823432743549347
1748143403009638000,21.500637939453124,-0.9068294763565063,-0.9395107626914978,-0.02672535367310047
1748143403027901200,21.518901123046874,-0.9266825914382935,-0.8830057382583618,0.21624629199504852
1748143403046162400,21.537162353515626,-0.8862127661705017,-0.879493236541748,0.5484042763710022
1748143403064431000,21.55543115234375,-0.8153523802757263,-1.0824532508850098,1.0114401578903198
1748143403082695700,21.57369580078125,-0.7483099102973938,-1.2403619289398193,1.4746286869049072
1748143403100959200,21.591959228515623,-0.6479753255844116,-1.2492194175720215,1.9091066122055054
1748143403119224800,21.610224853515625,-0.6403394937515259,-1.2637274265289307,2.110539436340332
1748143403137489200,21.6284892578125,-0.8426886200904846,-1.5347989797592163,1.7664695978164673
1748143403155752400,21.64675244140625,-1.0542006492614746,-2.0309741497039795,1.0882564783096313
1748143403174017500,21.665017578125,-1.1779009103775024,-2.1893410682678223,0.5265658497810364
1748143403192282400,21.683282470703126,-1.3054190874099731,-1.8266397714614868,0.23289237916469574
1748143403210542300,21.701542236328127,-1.4818063974380493,-1.432326316833496,-0.03940080851316452
1748143403228811300,21.719811279296874,-1.5758795738220215,-1.4456125497817993,-0.5105306506156921
1748143403247074600,21.738074462890626,-1.4899003505706787,-1.8865046501159668,-0.613461434841156
1748143403265340200,21.756340087890624,-1.3019065856933594,-2.9458975791931152,0.01160643994808197
1748143403283603500,21.774603515625,-1.178359031677246,-3.1357240676879883,0.4190535545349121
1748143403301865200,21.792865234375,-1.088714599609375,-2.358245372772217,0.5838344693183899
1748143403320127000,21.811126953125,-0.9402743577957153,-1.2455542087554932,0.9862419366836548
1748143403338399500,21.8293994140625,-0.8216137290000916,0.12003502249717712,1.2044734954833984
1748143403356662300,21.847662353515624,-1.006400465965271,0.36651915311813354,1.079246163368225
1748143403374927000,21.865927001953125,-1.2739595174789429,-0.8799513578414917,0.7591527700424194
1748143403393190100,21.884190185546874,-1.4530956745147705,-2.358550786972046,0.6331618428230286
1748143403411455700,21.902455810546876,-1.471268892288208,-3.1644346714019775,0.6638578176498413
1748143403429720000,21.920719970703125,-1.2386820316314697,-3.0750956535339355,0.7147123217582703
1748143403447984600,21.938984619140626,-0.9695958495140076,-2.6369526386260986,0.8547531962394714
1748143403466247700,21.95724755859375,-0.7521278262138367,-2.0134117603302,1.0422887802124023
1748143403484513800,21.975513671875,-0.5571091175079346,-1.4692835807800293,1.1217013597488403
1748143403502777900,21.99377783203125,-0.36789360642433167,-1.218676209449768,1.1339186429977417
1748143403521042400,22.01204248046875,-0.11010845750570297,-1.1087204217910767,1.1876747608184814
1748143403539305700,22.0303056640625,0.20234911143779755,-1.0433578491210938,1.2469286918640137
1748143403557570000,22.048570068359375,0.5123631954193115,-0.9850202202796936,1.2980886697769165
1748143403575836000,22.0668359375,0.8454375267028809,-0.7941248416900635,1.2996158599853516
1748143403594101500,22.0851015625,1.10139000415802,-0.4518875777721405,1.2873984575271606
1748143403612363500,22.103363525390623,1.1328495740890503,-0.16294831037521362,1.2932016849517822
1748143403630629400,22.12162939453125,1.0216721296310425,0.005955935921519995,1.2994630336761475
1748143403648893700,22.139893798828126,0.925308108329773,0.08292495459318161,1.222494125366211
1748143403667153200,22.158153076171875,0.7470881938934326,0.1647808998823166,1.0395399332046509
1748143403685421600,22.176421630859377,0.6540839672088623,-0.1342376321554184,0.8258898258209229
1748143403712817000,22.20381689453125,0.43799036741256714,-1.1533136367797852,0.7728972434997559
1748143403731082500,22.22208251953125,0.3263547718524933,-1.4428637027740479,0.8885034918785095
1748143403749346800,22.240346923828124,0.21334469318389893,-1.340238332748413,0.9013316631317139
1748143403767610400,22.2586103515625,0.16752979159355164,-1.2835805416107178,0.7525860071182251
1748143403785875700,22.276875732421875,0.18784105777740479,-1.4335479736328125,0.5575672388076782
1748143403804136400,22.295136474609375,0.17119498550891876,-1.7232508659362793,0.4512766897678375
1748143403822404400,22.313404296875,0.11255192011594772,-1.9518672227859497,0.3956879675388336
1748143403840669200,22.331669189453127,-0.060322944074869156,-1.9034560918807983,0.3712533414363861
1748143403858928600,22.3499287109375,-0.35750889778137207,-1.4164438247680664,0.4992296099662781
1748143403877195000,22.368195068359373,-0.49296826124191284,-0.5525276064872742,0.7437284588813782
1748143403895454500,22.386454345703125,-0.379652738571167,0.014813481830060482,0.8387179970741272
1748143403913727000,22.40472705078125,-0.28985556960105896,-0.12538009881973267,0.6973026990890503
1748143403931991300,22.4229912109375,-0.1797471046447754,-0.5852088928222656,0.3836233615875244
1748143403950256000,22.441256103515624,-0.0354301854968071,-0.7550294399261475,0.2015855312347412
1748143403968520200,22.459520263671877,0.06108652427792549,-0.5578727126121521,0.22937989234924316
1748143403986784800,22.47778466796875,0.07254024595022202,-0.242513507604599,0.35262197256088257
1748143404005049000,22.496049072265624,0.025961773470044136,-0.03848451003432274,0.4473060667514801
1748143404023313700,22.514313720703125,-0.018325956538319588,-0.09483683109283447,0.4509712755680084
1748143404041577000,22.532576904296874,-0.058337632566690445,-0.39324450492858887,0.4053090810775757
1748143404059844000,22.550843994140624,-0.12461651116609573,-0.7026477456092834,0.3692680299282074
1748143404078107600,22.569107666015626,-0.2093740701675415,-0.8684976696968079,0.3165809214115143
1748143404096371200,22.58737109375,-0.2750420868396759,-0.8153523802757263,0.23197607696056366
1748143404114631200,22.605631103515623,-0.30863967537879944,-0.5641340613365173,0.14737124741077423
1748143404132899000,22.623899169921874,-0.30772337317466736,-0.3323107063770294,0.08384125679731369
1748143404151162400,22.642162353515626,-0.27382034063339233,-0.25793784856796265,0.09300423413515091
1748143404169429200,22.66042919921875,-0.23671028017997742,-0.2970332205295563,0.1765400618314743
1748143404187693800,22.67869384765625,-0.21074850857257843,-0.3813326358795166,0.2643519341945648
1748143404205956900,22.696956787109375,-0.17516560852527618,-0.45173484086990356,0.33826664090156555
1748143404224223700,22.7152236328125,-0.13866640627384186,-0.46929723024368286,0.40225476026535034
1748143404242486800,22.73348681640625,-0.1186605766415596,-0.4795292317867279,0.4447098970413208
