time,seconds_elapsed,z,y,x
1748008212918900200,0.110900146484375,9.369806289672852,2.8866991996765137,-0.2099512368440628
1748008212934677800,0.126677734375,9.371177673339844,2.883260726928711,-0.19554708898067474
1748008212950455300,0.142455322265625,9.376424789428711,2.8673460483551025,-0.1770840585231781
1748008212966324500,0.158324462890625,9.388225555419922,2.829429864883423,-0.1610708236694336
1748008212982102000,0.17410205078125,9.400416374206543,2.7890079021453857,-0.1548915058374405
1748008212997940700,0.189940673828125,9.407702445983887,2.763674259185791,-0.16625680029392242
1748008213021652700,0.21365283203125,9.407721519470215,2.761617660522461,-0.1965440958738327
1748008213037491500,0.229491455078125,9.41675090789795,2.730722427368164,-0.19580423831939697
1748008213053360600,0.245360595703125,9.446816444396973,2.6285972595214844,-0.13608889281749725
1748008213069199000,0.26119921875,9.486376762390137,2.4855754375457764,0.031037675216794014
1748008213085007400,0.27700732421875,9.515779495239258,2.358563184738159,0.23981764912605286
1748008213108719600,0.3007197265625,9.544147491455078,2.203399658203125,0.47398531436920166
1748008213124497200,0.3164970703125,9.565832138061523,2.102311849594116,0.49550607800483704
1748008213140244200,0.332244140625,9.59703254699707,1.9667630195617676,0.4463205337524414
1748008213156021800,0.348021728515625,9.632431983947754,1.8059496879577637,0.353833943605423
1748008213171860500,0.363860595703125,9.658939361572266,1.6781303882598877,0.24319441616535187
1748008213187638000,0.379637939453125,9.675524711608887,1.5896382331848145,0.16633391380310059
1748008213203476500,0.3954765625,9.686481475830078,1.5233656167984009,0.1476970911026001
1748008213219254300,0.411254150390625,9.689620971679688,1.5011478662490845,0.16793861985206604
1748008213235123200,0.427123291015625,9.693718910217285,1.4730571508407593,0.17969273030757904
1748008213250962000,0.4429619140625,9.70120620727539,1.423628807067871,0.17398475110530853
1748008213266709000,0.458708984375,9.70971965789795,1.3676583766937256,0.14573796093463898
1748008213282517000,0.47451708984375,9.710886001586914,1.361777424812317,0.121048703789711
1748008213298294800,0.490294677734375,9.705055236816406,1.407621145248413,0.02984512224793434
1748008213314102800,0.506102783203125,9.6934232711792,1.4819989204406738,-0.10777774453163147
1748008213329880300,0.52188037109375,9.677389144897461,1.5673670768737793,-0.24875575304031372
1748008213345719000,0.537718994140625,9.655820846557617,1.6697275638580322,-0.38408976793289185
1748008213361496600,0.55349658203125,9.623970031738281,1.8160297870635986,-0.5016207098960876
1748008213377335300,0.569335205078125,9.583904266357422,1.9969496726989746,-0.5756413340568542
1748008213393112800,0.58511279296875,9.548213005065918,2.153841257095337,-0.6024958491325378
1748008213408890400,0.600890380859375,9.528045654296875,2.236996650695801,-0.6185315847396851
1748008213424729000,0.61672900390625,9.519881248474121,2.2685599327087402,-0.6292089819908142
1748008213440506600,0.632506591796875,9.515244483947754,2.2878024578094482,-0.6296506524085999
1748008213456345300,0.648345458984375,9.507158279418945,2.3243751525878906,-0.6177385449409485
1748008213472123000,0.664122802734375,9.506036758422852,2.3422999382019043,-0.5650495290756226
1748008213487961300,0.67996142578125,9.505785942077637,2.3706538677215576,-0.43638405203819275
1748008213503769600,0.69576953125,9.501533508300781,2.4001498222351074,-0.36130616068840027
1748008213519608000,0.711608154296875,9.519170761108398,2.337130546569824,-0.3059302270412445
1748008213535385900,0.7273857421875,9.568519592285156,2.1472718715667725,-0.05526760593056679
1748008213559128300,0.75112841796875,9.642801284790039,1.7851519584655762,0.0006358502432703972
1748008213574936600,0.7669365234375,9.667591094970703,1.6420350074768066,-0.10854420065879822
1748008213590744600,0.78274462890625,9.687446594238281,1.516916275024414,-0.15078787505626678
1748008213622360800,0.81436083984375,9.708587646484375,1.3831373453140259,-0.025327205657958984
1748008213638168800,0.8301689453125,9.712323188781738,1.3457484245300293,0.17356479167938232
1748008213653977000,0.84597705078125,9.688482284545898,1.4647905826568604,0.39759376645088196
1748008213669815800,0.86181591796875,9.635054588317871,1.7185404300689697,0.618652880191803
1748008213685684700,0.877684814453125,9.553179740905762,2.033989429473877,0.8775188326835632
1748008213701493000,0.893492919921875,9.465139389038086,2.3249855041503906,1.0844182968139648
1748008213717301000,0.909301025390625,9.386977195739746,2.5523390769958496,1.2412127256393433
1748008213733109200,0.925109130859375,9.318586349487305,2.7392494678497314,1.3530899286270142
1748008213748886800,0.94088671875,9.252191543579102,2.917715549468994,1.4332714080810547
1748008213772568300,0.964568359375,9.14554500579834,3.196328639984131,1.5208110809326172
1748008213796280600,0.988280517578125,9.055130004882812,3.400137186050415,1.6168088912963867
1748008213812088600,1.004088623046875,9.022106170654297,3.4625930786132812,1.6680666208267212
1748008213827927300,1.01992724609375,9.00028133392334,3.4794564247131348,1.7489157915115356
1748008213843704800,1.035704833984375,8.97854995727539,3.47686767578125,1.8620973825454712
1748008213859543600,1.05154345703125,8.976344108581543,3.4285366535186768,1.9597879648208618
1748008213875351600,1.0673515625,8.99030876159668,3.357866048812866,2.0172932147979736
1748008213906998300,1.098998291015625,9.00329875946045,3.2762014865875244,2.092252254486084
1748008213922837000,1.1148369140625,8.98595905303955,3.305497169494629,2.1205227375030518
1748008213946518500,1.1385185546875,8.923670768737793,3.4326047897338867,2.180760383605957
1748008213962326800,1.154326904296875,8.866965293884277,3.543139696121216,2.2346079349517822
1748008213978134800,1.170134765625,8.805005073547363,3.658289670944214,2.293292284011841
1748008213993973500,1.185973388671875,8.746216773986816,3.7733168601989746,2.331559419631958
1748008214009781500,1.201781494140625,8.691597938537598,3.8815457820892334,2.3579914569854736
1748008214025589500,1.217589599609375,8.64110279083252,3.969845771789551,2.3962576389312744
1748008214041428200,1.23342822265625,8.603290557861328,4.029082298278809,2.4331612586975098
1748008214057205800,1.249205810546875,8.585789680480957,4.051206588745117,2.4581151008605957
1748008214073014000,1.265013916015625,8.580370903015137,4.046684265136719,2.4843437671661377
1748008214088791600,1.28079150390625,8.582609176635742,4.031662464141846,2.500981569290161
1748008214104569000,1.296569091796875,8.582527160644531,4.025958061218262,2.510432243347168
1748008214120377000,1.312377197265625,8.576140403747559,4.050304889678955,2.4930381774902344
1748008214136155000,1.32815478515625,8.555723190307617,4.1121392250061035,2.4617698192596436
1748008214151963000,1.343962890625,8.515006065368652,4.213361740112305,2.4315948486328125
1748008214167771100,1.359771240234375,8.456380844116211,4.344328880310059,2.4055817127227783
1748008214183548700,1.375548583984375,8.375876426696777,4.500385284423828,2.400336503982544
1748008214199356700,1.391356689453125,8.270830154418945,4.671870708465576,2.4366726875305176
1748008214215134200,1.40713427734375,8.14731502532959,4.864230632781982,2.4760637283325195
1748008214230942500,1.4229423828125,8.008052825927734,5.077723026275635,2.5016391277313232
1748008214246750500,1.43875048828125,7.856687545776367,5.300449848175049,2.5195395946502686
1748008214262528000,1.454528076171875,7.700309753417969,5.522340297698975,2.525743007659912
1748008214278336300,1.470336181640625,7.559543609619141,5.702059268951416,2.55151104927063
1748008214294174700,1.4861748046875,7.459770202636719,5.818645477294922,2.5817809104919434
1748008214309921800,1.501921875,7.444543838500977,5.821956157684326,2.618011236190796
1748008214325760500,1.517760498046875,7.516543865203857,5.737703323364258,2.5982143878936768
1748008214341568500,1.533568603515625,7.648381233215332,5.60907506942749,2.4921743869781494
1748008214357407200,1.5494072265625,7.817126274108887,5.456592082977295,2.2996809482574463
1748008214373184800,1.565184814453125,7.998990058898926,5.284185886383057,2.0649306774139404
1748008214389023500,1.5810234375,8.162775993347168,5.105888366699219,1.8626288175582886
1748008214404831500,1.59683154296875,8.28774642944336,4.947489261627197,1.7337822914123535
1748008214420578600,1.61257861328125,8.349241256713867,4.854053497314453,1.7025623321533203
1748008214436386800,1.62838671875,8.359575271606445,4.828488826751709,1.7244082689285278
1748008214452164400,1.644164306640625,8.330552101135254,4.86168098449707,1.7709763050079346
1748008214468002800,1.6600029296875,8.282559394836426,4.92390251159668,1.8233973979949951
1748008214483811000,1.67581103515625,8.222938537597656,5.006651401519775,1.86737859249115
1748008214499588600,1.691588623046875,8.160186767578125,5.09591007232666,1.9009099006652832
1748008214515427300,1.70742724609375,8.095293045043945,5.191680431365967,1.9191347360610962
1748008214531204900,1.723204833984375,8.030413627624512,5.287652492523193,1.9296557903289795
1748008214546952000,1.738951904296875,7.959463119506836,5.386638641357422,1.9497320652008057
1748008214562790700,1.754790771484375,7.866343021392822,5.508342266082764,1.9872583150863647
1748008214578537700,1.770537841796875,7.75712776184082,5.654609680175781,2.0056772232055664
1748008214594284800,1.786284912109375,7.645443439483643,5.80857515335083,1.9945032596588135
1748008214610153700,1.80215380859375,7.529359340667725,5.969377517700195,1.96104097366333
1748008214625931500,1.817931640625,7.403611660003662,6.13330078125,1.933789849281311
1748008214641739500,1.833739501953125,7.280316352844238,6.283729553222656,1.9188876152038574
1748008214657547500,1.849547607421875,7.162505626678467,6.410943031311035,1.9413177967071533
1748008214673325300,1.8653251953125,7.037997245788574,6.545299530029297,1.948341965675354
1748008214689133300,1.88113330078125,6.925684452056885,6.6833882331848145,1.8808507919311523
1748008214704941300,1.89694140625,6.879795074462891,6.749557971954346,1.8117011785507202
1748008214720719000,1.912718994140625,6.95709228515625,6.686748027801514,1.7483291625976562
1748008214736527000,1.928527099609375,7.110230922698975,6.543091773986816,1.6742042303085327
1748008214752335000,1.944335205078125,7.269230842590332,6.386107921600342,1.5957106351852417
1748008214768143400,1.960143310546875,7.371002197265625,6.293642520904541,1.4929119348526
1748008214783951400,1.975951416015625,7.414684772491455,6.273634433746338,1.3543810844421387
1748008214799790000,1.9917900390625,7.445526123046875,6.267375946044922,1.2060422897338867
1748008214815598000,2.00759814453125,7.494259357452393,6.230720043182373,1.088390588760376
1748008214831436800,2.023436767578125,7.5636773109436035,6.155716896057129,1.033597707748413
1748008214847244800,2.039244873046875,7.628215789794922,6.069843769073486,1.0666265487670898
1748008214862992000,2.054991943359375,7.655187129974365,6.01371955871582,1.1847703456878662
1748008214878800100,2.070800048828125,7.630720615386963,6.008418560028076,1.3569797277450562
1748008214894608100,2.086608154296875,7.560516834259033,6.056063175201416,1.5274417400360107
1748008214910385700,2.1023857421875,7.4769110679626465,6.1296916007995605,1.641056776046753
1748008214926224400,2.118224365234375,7.408902168273926,6.196377754211426,1.6980805397033691
1748008214942032400,2.134032470703125,7.387455940246582,6.227073669433594,1.6791144609451294
1748008214957810200,2.14981005859375,7.450954437255859,6.201462745666504,1.4817265272140503
1748008214973618200,2.1656181640625,7.585751533508301,6.102322101593018,1.1783145666122437
1748008214989395700,2.181395751953125,7.745980262756348,5.9526848793029785,0.8577374219894409
1748008215005234400,2.197234375,7.864558219909668,5.811948776245117,0.7350929975509644
1748008215021042400,2.21304248046875,7.890355110168457,5.760152816772461,0.8563418984413147
1748008215036850700,2.2288505859375,7.831088542938232,5.797255039215088,1.1118783950805664
1748008215052628200,2.244628173828125,7.727710723876953,5.86806583404541,1.4208003282546997
1748008215068466700,2.260466796875,7.635255813598633,5.907602787017822,1.7243810892105103
1748008215084275000,2.27627490234375,7.561586380004883,5.9203691482543945,1.9854532480239868
1748008215100083000,2.2920830078125,7.483650207519531,5.939278602600098,2.211409330368042
1748008215115860500,2.307860595703125,7.378688335418701,5.999399662017822,2.394275188446045
1748008215131668700,2.323668701171875,7.2580060958862305,6.103142738342285,2.498676300048828
1748008215147476700,2.339476806640625,7.148124694824219,6.217499732971191,2.533257484436035
1748008215163285000,2.355284912109375,7.067117214202881,6.316789150238037,2.5148417949676514
1748008215179093000,2.371093017578125,7.022093772888184,6.380863666534424,2.478945016860962
1748008215194901200,2.3869013671875,7.002440452575684,6.40772819519043,2.4652044773101807
1748008215210739700,2.40273974609375,6.966751575469971,6.4252610206604,2.5200796127319336
1748008215234482400,2.426482421875,6.893341541290283,6.446727275848389,2.663072109222412
1748008215250321200,2.442321044921875,6.837188720703125,6.472140312194824,2.7449309825897217
1748008215266159600,2.45815966796875,6.794318675994873,6.496614456176758,2.793137311935425
1748008215281967900,2.4739677734375,6.791543483734131,6.500777244567871,2.7902021408081055
1748008215297745400,2.489745361328125,6.817687511444092,6.486647129058838,2.759155511856079
1748008215313523000,2.50552294921875,6.859804630279541,6.462967872619629,2.7098920345306396
1748008215329331000,2.5213310546875,6.9027180671691895,6.4414873123168945,2.651435375213623
1748008215345139200,2.53713916015625,6.939349174499512,6.4286909103393555,2.586068868637085
1748008215360916700,2.552916748046875,6.970518112182617,6.425861358642578,2.5081028938293457
1748008215376725000,2.56872509765625,7.00025749206543,6.429105281829834,2.41524076461792
1748008215392533000,2.584532958984375,7.035625457763672,6.431361198425293,2.3039019107818604
1748008215408371700,2.600371826171875,7.080283164978027,6.4261794090271,2.1781184673309326
1748008215432053200,2.62405322265625,7.154955863952637,6.410566329956055,1.9701900482177734
1748008215447830800,2.639830810546875,7.200532913208008,6.401918411254883,1.827059268951416
1748008215463700000,2.655699951171875,7.2338104248046875,6.396111011505127,1.7123510837554932
1748008215479508000,2.671508056640625,7.252612590789795,6.392179012298584,1.6462215185165405
1748008215495316200,2.687316162109375,7.258660316467285,6.389988899230957,1.6279711723327637
1748008215511124200,2.703124267578125,7.258716106414795,6.38534688949585,1.6458297967910767
1748008215526963000,2.718962890625,7.258352279663086,6.373329162597656,1.6933380365371704
1748008215542771000,2.73477099609375,7.2597270011901855,6.353692054748535,1.7599300146102905
1748008215574356700,2.766356689453125,7.264261245727539,6.309782981872559,1.8940818309783936
1748008215590134300,2.78213427734375,7.2695231437683105,6.291236877441406,1.9351425170898438
1748008215605973000,2.797972900390625,7.2847747802734375,6.2690653800964355,1.9496831893920898
1748008215621842200,2.81384228515625,7.308247089385986,6.240556716918945,1.9532973766326904
1748008215637650200,2.829650146484375,7.3343095779418945,6.208254337310791,1.9585403203964233
1748008215653458200,2.845458251953125,7.35367488861084,6.183250904083252,1.9650094509124756
1748008215669266400,2.861266357421875,7.35882568359375,6.1761674880981445,1.9679986238479614
1748008215685074400,2.877074462890625,7.558747291564941,5.894454002380371,2.0715081691741943
1748008215700882700,2.892882568359375,7.552193641662598,5.904608249664307,2.066484212875366
1748008215716721200,2.90872119140625,7.544229507446289,5.908473968505859,2.0844480991363525
1748008215732498700,2.924498779296875,7.528738975524902,5.907509803771973,2.142383575439453
1748008215748307000,2.940306884765625,7.496482849121094,5.917472839355469,2.2263529300689697
1748008215764054000,2.956053955078125,7.450170993804932,5.94468879699707,2.3078153133392334
1748008215779862000,2.971862060546875,7.413827419281006,5.9651103019714355,2.3712899684906006
1748008215795670300,2.987670166015625,7.419065952301025,5.938007354736328,2.4223780632019043
1748008215811447800,3.00344775390625,7.482263088226318,5.835334777832031,2.4768929481506348
1748008215827255800,3.019255859375,7.583000659942627,5.669828414916992,2.5537288188934326
1748008215843064000,3.03506396484375,7.706406116485596,5.4526686668396,2.655200958251953
1748008215858902500,3.050902587890625,7.817963600158691,5.247676849365234,2.7407541275024414
1748008215874710800,3.066710693359375,7.90874719619751,5.098939895629883,2.7609643936157227
1748008215890518800,3.082518798828125,8.00845718383789,4.971445083618164,2.70550274848938
1748008215906327000,3.0983271484375,8.145501136779785,4.806735992431641,2.5916173458099365
1748008215922104600,3.1141044921875,8.306005477905273,4.608130931854248,2.438399076461792
1748008215937973800,3.129973876953125,8.462838172912598,4.412211894989014,2.254582166671753
1748008215953781800,3.14578173828125,8.601751327514648,4.244683265686035,2.0403261184692383
1748008215969589800,3.16158984375,8.72453784942627,4.097677707672119,1.806064486503601
1748008215985398000,3.17739794921875,8.830404281616211,3.9589715003967285,1.587731122970581
1748008216001206000,3.1932060546875,8.919055938720703,3.8131589889526367,1.4424476623535156
1748008216017014300,3.20901416015625,8.991281509399414,3.6485533714294434,1.4196147918701172
1748008216032822300,3.224822265625,9.047344207763672,3.485452890396118,1.4722663164138794
1748008216048691500,3.24069140625,9.07557487487793,3.3736412525177,1.5565592050552368
1748008216064469000,3.256468994140625,9.084449768066406,3.321298360824585,1.6162090301513672
1748008216080277000,3.272277099609375,9.087507247924805,3.3058059215545654,1.6307214498519897
1748008216096115700,3.28811572265625,9.098489761352539,3.284203290939331,1.6130340099334717
1748008216111893200,3.303893310546875,9.120532035827637,3.2414956092834473,1.5744777917861938
1748008216127762400,3.319762451171875,9.140572547912598,3.201983690261841,1.5387097597122192
1748008216143570700,3.33557080078125,9.14755630493164,3.1944172382354736,1.5127140283584595
1748008216159378700,3.351378662109375,9.138956069946289,3.2331719398498535,1.482050895690918
1748008216175217400,3.367217529296875,9.12370777130127,3.2957706451416016,1.4374433755874634
1748008216191025400,3.383025390625,9.114208221435547,3.3436193466186523,1.3862918615341187
1748008216206803000,3.398802978515625,9.111923217773438,3.3698339462280273,1.3369542360305786
1748008216222611200,3.414611083984375,9.109670639038086,3.3950095176696777,1.2877072095870972
1748008216238419200,3.430419189453125,9.08599853515625,3.424588680267334,1.3737576007843018
1748008216254196700,3.44619677734375,9.089679718017578,3.4336583614349365,1.3259340524673462
1748008216270005000,3.4620048828125,9.101755142211914,3.4229772090911865,1.2695192098617554
1748008216285813000,3.47781298828125,9.117212295532227,3.40434193611145,1.2071822881698608
1748008216301590500,3.493590576171875,9.135003089904785,3.3755054473876953,1.1524126529693604
1748008216314469000,3.50646923828125,9.151700019836426,3.3432233333587646,1.1133878231048584
1748008216330277000,3.522277099609375,9.17302131652832,3.2980833053588867,1.071779489517212
1748008216346085000,3.538085205078125,9.19267749786377,3.2495381832122803,1.0514603853225708
1748008216361893400,3.553893310546875,9.209892272949219,3.2013418674468994,1.048662543296814
1748008216377671000,3.5696708984375,9.226181030273438,3.156407356262207,1.0416643619537354
1748008216393448400,3.585448486328125,9.243191719055176,3.113445997238159,1.0199304819107056
1748008216409226000,3.60122607421875,9.256299018859863,3.0960474014282227,0.9517328143119812
1748008216425064700,3.617064697265625,9.2330961227417,3.219848871231079,0.7435685396194458
1748008216440903400,3.6329033203125,9.182408332824707,3.39947509765625,0.5452876091003418
1748008216456742000,3.648741943359375,9.132973670959473,3.5439412593841553,0.4468175172805786
1748008216472519400,3.66451953125,9.154605865478516,3.4870707988739014,0.45156756043434143
1748008216488297200,3.680297119140625,9.173688888549805,3.437866687774658,0.4414595067501068
1748008216504074800,3.69607470703125,9.096348762512207,3.6477932929992676,0.3470177948474884
1748008216519852300,3.711852294921875,9.094036102294922,3.659151554107666,0.28196993470191956
1748008216535660300,3.727660400390625,9.10594367980957,3.632904052734375,0.2327854037284851
1748008216551468500,3.743468505859375,9.125646591186523,3.5843517780303955,0.21306706964969635
1748008216567246000,3.75924609375,9.147883415222168,3.527174472808838,0.21366357803344727
1748008216583084800,3.775084716796875,9.15965747833252,3.4949748516082764,0.23711305856704712
1748008216598923300,3.79092333984375,9.168257713317871,3.4711647033691406,0.2538788318634033
1748008216614762000,3.806761962890625,9.175631523132324,3.4506072998046875,0.26734912395477295
1748008216630600700,3.8226005859375,9.180807113647461,3.4339113235473633,0.3023665249347687
1748008216646439200,3.838439208984375,9.178943634033203,3.431759834289551,0.3746986389160156
1748008216662247400,3.854247314453125,9.175087928771973,3.432318925857544,0.45534059405326843
1748008216678086000,3.8700859375,9.175177574157715,3.4214916229248047,0.5290574431419373
1748008216693924600,3.885924560546875,9.18127155303955,3.3968186378479004,0.5798784494400024
1748008216709671700,3.901671630859375,9.186388969421387,3.375032424926758,0.6243386268615723
1748008216725479700,3.917479736328125,9.189488410949707,3.3575682640075684,0.6711359024047852
1748008216741288000,3.933287841796875,9.185029029846191,3.354635000228882,0.7430002689361572
1748008216757096000,3.949095947265625,9.175816535949707,3.3582956790924072,0.8346388339996338
1748008216772904200,3.964904296875,9.164179801940918,3.3612263202667236,0.94359290599823
1748008216788742700,3.98074267578125,9.14729118347168,3.371198892593384,1.0641779899597168
1748008216804551000,3.996551025390625,9.125874519348145,3.3914921283721924,1.1775323152542114
1748008216820359000,4.01235888671875,9.103379249572754,3.419302225112915,1.2677676677703857
1748008216836228000,4.02822802734375,9.08430004119873,3.4436395168304443,1.3368723392486572
1748008216852005600,4.044005615234375,9.072028160095215,3.4564907550811768,1.3861360549926758
1748008216867813600,4.059813720703125,9.064833641052246,3.458259344100952,1.4281563758850098
1748008216883652400,4.07565234375,9.058418273925781,3.4569201469421387,1.4714429378509521
1748008216899460400,4.09146044921875,9.047555923461914,3.4649710655212402,1.5185816287994385
1748008216915268600,4.1072685546875,9.063987731933594,3.3174972534179688,1.7345647811889648
1748008216931076600,4.12307666015625,9.044646263122559,3.319913625717163,1.828370213508606
1748008216946854100,4.138854248046875,9.018531799316406,3.358560800552368,1.885877013206482
1748008216962632000,4.1546318359375,8.990484237670898,3.3813443183898926,1.9768913984298706
1748008216978440000,4.17043994140625,8.963946342468262,3.388376235961914,2.082538366317749
1748008216994248000,4.186248046875,8.939169883728027,3.4048540592193604,2.160695791244507
1748008217010056200,4.20205615234375,8.905652046203613,3.4614226818084717,2.2086875438690186
1748008217025864200,4.2178642578125,8.866012573242188,3.5285987854003906,2.2612392902374268
1748008217041672400,4.23367236328125,8.827805519104004,3.5799715518951416,2.328958034515381
1748008217057480400,4.24948046875,8.791512489318848,3.6114320755004883,2.416041374206543
1748008217073288700,4.265288818359375,8.754753112792969,3.6353859901428223,2.511704444885254
1748008217089127200,4.281127197265625,8.716760635375977,3.665959119796753,2.597923994064331
1748008217104966000,4.2969658203125,8.67998218536377,3.7061734199523926,2.663191318511963
1748008217120743400,4.312743408203125,8.647273063659668,3.746455669403076,2.712770700454712
1748008217136551400,4.328551513671875,8.619455337524414,3.7752468585968018,2.760957956314087
1748008217152359700,4.344359619140625,8.594334602355957,3.7939445972442627,2.8131444454193115
1748008217168137200,4.36013720703125,8.621551513671875,3.691805362701416,2.865278482437134
1748008217183914800,4.375914794921875,8.6707124710083,3.5122554302215576,2.9416306018829346
1748008217199692300,4.3916923828125,8.693146705627441,3.4087975025177,2.996612071990967
1748008217215531000,4.407531005859375,8.68505573272705,3.4476571083068848,2.9755444526672363
1748008217231400200,4.423400146484375,8.683475494384766,3.4886608123779297,2.9320433139801025
1748008217247177700,4.439177734375,8.68265151977539,3.5340943336486816,2.8796050548553467
1748008217262955300,4.454955322265625,8.677008628845215,3.5894925594329834,2.827622413635254
1748008217278763500,4.470763427734375,8.665205955505371,3.656947612762451,2.776930332183838
1748008217294602000,4.48660205078125,8.64751148223877,3.7421412467956543,2.7179601192474365
1748008217310440700,4.502440673828125,8.626580238342285,3.844928741455078,2.6398911476135254
1748008217326218200,4.51821826171875,8.603557586669922,3.951355218887329,2.556556463241577
1748008217342026500,4.534026611328125,8.586182594299316,4.0351057052612305,2.4831016063690186
1748008217365708000,4.5577080078125,8.573431968688965,4.103801250457764,2.4135985374450684
1748008217381516000,4.57351611328125,8.571747779846191,4.108807563781738,2.411064624786377
1748008217397354800,4.589354736328125,8.580785751342773,4.088968276977539,2.412642240524292
1748008217413132300,4.60513232421875,8.612679481506348,4.047892093658447,2.3678500652313232
1748008217428940500,4.6209404296875,8.666763305664062,3.9885201454162598,2.269207239151001
1748008217444748500,4.63674853515625,8.744084358215332,3.8661375045776367,2.182739734649658
1748008217460526000,4.652526123046875,8.84230899810791,3.643732786178589,2.169602155685425
1748008217476303600,4.6683037109375,8.946977615356445,3.348088026046753,2.216365337371826
1748008217492142300,4.684142333984375,9.03084945678711,3.0617189407348633,2.28910756111145
1748008217507981000,4.69998095703125,9.084176063537598,2.8536853790283203,2.3461878299713135
1748008217523789000,4.7157890625,9.112412452697754,2.742971897125244,2.3686344623565674
1748008217539566600,4.731566650390625,9.126897811889648,2.6983070373535156,2.364161252975464
1748008217555405300,4.7474052734375,9.137126922607422,2.67995023727417,2.345456123352051
1748008217571182800,4.763182861328125,9.142930030822754,2.6801822185516357,2.322463274002075
1748008217586960400,4.77896044921875,9.138364791870117,2.7080698013305664,2.308037519454956
1748008217602768600,4.7947685546875,9.125816345214844,2.758849620819092,2.2975237369537354
1748008217618546200,4.810546142578125,9.109806060791016,2.823920965194702,2.2819464206695557
1748008217634385000,4.826385009765625,9.094428062438965,2.891206979751587,2.25891375541687
1748008217650162400,4.842162353515625,9.079455375671387,2.9540696144104004,2.237708568572998
1748008217666001000,4.8580009765625,9.063414573669434,3.008226156234741,2.2305774688720703
1748008217681778700,4.87377880859375,9.045248031616211,3.0489251613616943,2.2489824295043945
1748008217697586700,4.889586669921875,9.026268005371094,3.0772593021392822,2.2863407135009766
1748008217713455900,4.905455810546875,9.007895469665527,3.1021742820739746,2.3248038291931152
1748008217729233400,4.9212333984375,8.994993209838867,3.1281979084014893,2.3398420810699463
1748008217745011000,4.937010986328125,8.990519523620605,3.153954029083252,2.322396993637085
1748008217760819200,4.952819091796875,8.991419792175293,3.18161678314209,2.280806303024292
1748008217776657700,4.96865771484375,8.991583824157715,3.2138328552246094,2.2345197200775146
1748008217792466000,4.9844658203125,8.98559856414795,3.2559444904327393,2.197324752807617
1748008217808274000,5.00027392578125,8.97182846069336,3.3122646808624268,2.1692376136779785
1748008217824051500,5.016051513671875,8.955582618713379,3.376692056655884,2.136791706085205
1748008217839859700,5.031859619140625,8.942632675170898,3.436652898788452,2.0950236320495605
1748008217855667700,5.047667724609375,8.93442440032959,3.484851837158203,2.049940824508667
1748008217871537000,5.063536865234375,9.038176536560059,3.151160955429077,2.133528232574463
1748008217887436500,5.0794365234375,9.049335479736328,3.1222124099731445,2.1287806034088135
1748008217903214000,5.095214111328125,9.041504859924316,3.1396889686584473,2.136336088180542
1748008217926926300,5.11892626953125,9.027310371398926,3.1617469787597656,2.1636579036712646
1748008217942734300,5.134734375,9.023256301879883,3.1701157093048096,2.168318271636963
1748008217958542600,5.15054248046875,9.025528907775879,3.1692678928375244,2.160081624984741
1748008217974381000,5.166381103515625,8.994206428527832,3.294858455657959,2.1020348072052
1748008217990250200,5.182250244140625,9.00110149383545,3.2847421169281006,2.088308334350586
1748008218006058200,5.198058349609375,8.964365005493164,3.4116344451904297,2.042377471923828
1748008218021836000,5.2138359375,8.907029151916504,3.6001601219177246,1.968264102935791
1748008218037674500,5.229674560546875,8.885951042175293,3.6766152381896973,1.921656608581543
1748008218053421600,5.245421630859375,8.874581336975098,3.7155940532684326,1.899093508720398
1748008218069229800,5.261229736328125,8.860311508178711,3.752117156982422,1.8939082622528076
1748008218085007400,5.27700732421875,8.840290069580078,3.795044422149658,1.9019182920455933
1748008218100815400,5.2928154296875,8.82652759552002,3.823418140411377,1.908996820449829
1748008218116623600,5.30862353515625,8.821589469909668,3.8349297046661377,1.9087327718734741
1748008218132401200,5.324401123046875,8.818084716796875,3.8438868522644043,1.9069106578826904
1748008218148209200,5.340209228515625,8.817025184631348,3.8471004962921143,1.9053294658660889
1748008218164078300,5.356078369140625,8.81982135772705,3.843243360519409,1.9001606702804565
1748008218179825400,5.371825439453125,8.819282531738281,3.848369836807251,1.8922724723815918
1748008218195633700,5.387633544921875,8.815828323364258,3.852494955062866,1.8999577760696411
1748008218211472100,5.40347216796875,8.820469856262207,3.82146954536438,1.9406378269195557
1748008218227280400,5.4192802734375,8.82578182220459,3.7839648723602295,1.989367961883545
1748008218243180000,5.435179931640625,8.833436965942383,3.753753423690796,2.0124876499176025
1748008218258927000,5.450927001953125,8.839252471923828,3.7501163482666016,1.9936494827270508
1748008218274704600,5.46670458984375,8.841286659240723,3.7680587768554688,1.9503253698349
1748008218290512600,5.4825126953125,8.845978736877441,3.7710134983062744,1.9231512546539307
1748008218306321000,5.49832080078125,8.852998733520508,3.745678663253784,1.940280795097351
1748008218322098400,5.514098388671875,8.851034164428711,3.711956739425659,2.012699842453003
1748008218337906400,5.529906494140625,8.839893341064453,3.6825599670410156,2.113157033920288
1748008218353714700,5.545714599609375,8.829256057739258,3.658013105392456,2.198537826538086
1748008218369522700,5.561522705078125,8.829940795898438,3.627391815185547,2.2460122108459473
1748008218385361400,5.577361328125,8.841736793518066,3.592284917831421,2.2560064792633057
1748008218401169400,5.59316943359375,8.85383129119873,3.5681967735290527,2.2467808723449707
1748008218417008000,5.609008056640625,8.85772705078125,3.5732898712158203,2.2232112884521484
1748008218432785700,5.62478564453125,8.85290241241455,3.6051347255706787,2.190778970718384
1748008218448624400,5.640624267578125,8.843498229980469,3.6544349193573,2.146629571914673
1748008218464371500,5.656371337890625,8.837621688842773,3.7011215686798096,2.0901033878326416
1748008218480179500,5.672179443359375,8.83768081665039,3.73437762260437,2.0298311710357666
1748008218496048600,5.688048583984375,8.841548919677734,3.7508721351623535,1.9820078611373901
1748008218511856600,5.703856689453125,8.844160079956055,3.7543859481811523,1.963620662689209
1748008218527725800,5.719725830078125,8.840246200561523,3.7575271129608154,1.9752004146575928
1748008218543564500,5.735564453125,8.8285551071167,3.76971173286438,2.004063844680786
1748008218559342000,5.751342041015625,8.811497688293457,3.7915306091308594,2.0376932621002197
1748008218575089200,5.767089111328125,8.792684555053711,3.8173775672912598,2.070441246032715
1748008218590897200,5.782897216796875,8.778058052062988,3.8353304862976074,2.0991275310516357
1748008218606675000,5.798675048828125,8.79607105255127,3.7948577404022217,2.0972771644592285
1748008218622483000,5.81448291015625,8.81645393371582,3.7509243488311768,2.0907182693481445
1748008218638352100,5.83035205078125,8.813461303710938,3.7669460773468018,2.074465751647949
1748008218654160100,5.84616015625,8.805619239807129,3.8083410263061523,2.0317459106445312
1748008218669968400,5.861968505859375,8.799256324768066,3.8528401851654053,1.9746156930923462
1748008218685806800,5.877806884765625,8.795785903930664,3.889925956726074,1.916508674621582
1748008218701554000,5.893553955078125,8.792829513549805,3.920060873031616,1.8680623769760132
1748008218717362200,5.909362060546875,8.787226676940918,3.948793411254883,1.8335918188095093
1748008218733170200,5.925170166015625,8.795578956604004,3.9462807178497314,1.7986242771148682
1748008218748978200,5.940978271484375,8.790335655212402,3.968161106109619,1.775973916053772
1748008218764786400,5.956786376953125,8.786505699157715,3.988518476486206,1.7491205930709839
1748008218780594400,5.972594482421875,8.784684181213379,4.006300926208496,1.7173442840576172
1748008218796341500,5.988341552734375,8.780616760253906,4.0298614501953125,1.6826705932617188
1748008218812180200,6.00418017578125,8.767433166503906,4.071950912475586,1.649765133857727
1748008218827988200,6.01998828125,8.750843048095703,4.10206937789917,1.6631776094436646
1748008218843827000,6.035826904296875,8.74467945098877,4.102407455444336,1.6944665908813477
1748008218859604500,6.0516044921875,8.756391525268555,4.069934368133545,1.712199330329895
1748008218875412700,6.067412841796875,8.782000541687012,4.024509906768799,1.6882481575012207
1748008218891281700,6.08328173828125,8.810730934143066,3.991758108139038,1.6147041320800781
1748008218907090000,6.09908984375,8.831639289855957,3.9785451889038086,1.530922293663025
1748008218922867500,6.114867431640625,8.841590881347656,3.9770641326904297,1.4763555526733398
1748008218938706200,6.1307060546875,8.841617584228516,3.981018304824829,1.4654994010925293
1748008218954514200,6.14651416015625,8.836039543151855,3.987652540206909,1.4810184240341187
1748008218970353000,6.162352783203125,8.829489707946777,3.998269557952881,1.4914233684539795
1748008218986191400,6.17819140625,8.826038360595703,4.009273529052734,1.48227858543396
1748008219001999600,6.19399951171875,8.825560569763184,4.017776012420654,1.4619662761688232
1748008219017807600,6.2098076171875,8.947026252746582,3.7851054668426514,1.3394359350204468
1748008219033585200,6.225585205078125,9.059415817260742,3.5282540321350098,1.2840540409088135
1748008219049393400,6.241393310546875,9.066543579101562,3.4967029094696045,1.3195629119873047
1748008219065201400,6.257201416015625,9.039872169494629,3.5582892894744873,1.33778977394104
1748008219080948500,6.272948486328125,9.014995574951172,3.6174609661102295,1.3469308614730835
1748008219096817700,6.288817626953125,8.99808406829834,3.660855293273926,1.342760682106018
1748008219120499200,6.312499267578125,8.947787284851074,3.7193007469177246,1.508076548576355
1748008219136307500,6.328307373046875,8.945340156555176,3.730130910873413,1.495793104171753
1748008219152115500,6.344115478515625,8.94395637512207,3.7355947494506836,1.4904232025146484
1748008219167862500,6.359862548828125,8.944812774658203,3.733989715576172,1.4893064498901367
1748008219183640000,6.37564013671875,8.951970100402832,3.717834949493408,1.4867150783538818
1748008219199448300,6.3914482421875,8.966559410095215,3.6850802898406982,1.4803308248519897
1748008219215317500,6.4073173828125,8.988536834716797,3.6354658603668213,1.46968674659729
1748008219231095000,6.423094970703125,9.014375686645508,3.5771617889404297,1.4544163942337036
1748008219246933500,6.43893359375,9.038069725036621,3.5248677730560303,1.4349191188812256
1748008219262741800,6.45474169921875,9.053784370422363,3.491117000579834,1.418270468711853
1748008219278549800,6.4705498046875,9.06067180633545,3.4757654666900635,1.4119737148284912
1748008219294327300,6.486327392578125,9.062102317810059,3.4687047004699707,1.420137882232666
1748008219310105000,6.50210498046875,9.061095237731934,3.4635887145996094,1.4389197826385498
1748008219325913000,6.5179130859375,9.05879020690918,3.4613828659057617,1.4586066007614136
1748008219341721000,6.53372119140625,9.001729011535645,3.581184148788452,1.5213103294372559
1748008219357559800,6.549559814453125,8.929425239562988,3.741000175476074,1.5622689723968506
1748008219373337300,6.56533740234375,8.878880500793457,3.8489255905151367,1.587968111038208
1748008219389176000,6.581176025390625,8.839569091796875,3.9233028888702393,1.6248364448547363
1748008219404984000,6.596984130859375,8.818239212036133,3.95310115814209,1.6679446697235107
1748008219420792300,6.612792236328125,8.81572151184082,3.9446282386779785,1.7009847164154053
1748008219436600300,6.628600341796875,8.819427490234375,3.925935983657837,1.7248520851135254
1748008219452377900,6.6443779296875,8.826377868652344,3.90476655960083,1.737309217453003
1748008219468186000,6.66018603515625,8.837828636169434,3.8790600299835205,1.7366825342178345
1748008219483994000,6.675994140625,8.847001075744629,3.861788034439087,1.72845458984375
1748008219499802400,6.69180224609375,8.850398063659668,3.85813045501709,1.7192074060440063
1748008219515610400,6.7076103515625,8.849958419799805,3.8622536659240723,1.712196946144104
1748008219531388000,6.723387939453125,8.892151832580566,3.802018880844116,1.626243233680725
1748008219547196200,6.739196044921875,8.973616600036621,3.6776299476623535,1.4558964967727661
1748008219563065000,6.755065185546875,9.0433349609375,3.563235282897949,1.3007071018218994
1748008219578873300,6.770873291015625,9.102150917053223,3.464097499847412,1.1494684219360352
1748008219591721200,6.78372119140625,9.106101036071777,3.462538242340088,1.1225653886795044
1748008219607560000,6.799559814453125,9.141645431518555,3.4091405868530273,0.9891723990440369
1748008219623368000,6.815367919921875,9.140738487243652,3.4216301441192627,0.9537951350212097
1748008219639145500,6.8311455078125,9.134318351745605,3.4472970962524414,0.9223742485046387
1748008219654984200,6.846984130859375,9.120965003967285,3.488729953765869,0.8984137177467346
1748008219670792200,6.862792236328125,9.102972030639648,3.5409910678863525,0.8761658668518066
1748008219686569700,6.87856982421875,9.083959579467773,3.5956501960754395,0.850506603717804
1748008219702347500,6.894347412109375,9.062411308288574,3.6559367179870605,0.8229325413703918
1748008219718155500,6.910155517578125,9.032222747802734,3.734961748123169,0.7996296286582947
1748008219733994200,6.925994140625,8.989548683166504,3.836390733718872,0.8003142476081848
1748008219749771800,6.941771728515625,8.941825866699219,3.948202610015869,0.7911019921302795
1748008219765579800,6.957579833984375,8.897221565246582,4.053304672241211,0.761949896812439
1748008219781357300,6.973357421875,8.859119415283203,4.145813465118408,0.7061263918876648
1748008219797165600,6.98916552734375,8.826169967651367,4.224645614624023,0.6492198705673218
1748008219812943000,7.004943115234375,8.799359321594238,4.28737735748291,0.6000406742095947
1748008219828751400,7.02075146484375,8.776395797729492,4.3400044441223145,0.5564444065093994
1748008219844620300,7.036620361328125,8.750407218933105,4.3968682289123535,0.5179901719093323
1748008219860459000,7.052458984375,8.717350006103516,4.465303897857666,0.48913729190826416
1748008219876236500,7.068236572265625,8.673416137695312,4.551548480987549,0.4750216603279114
1748008219907852800,7.099852783203125,8.544525146484375,4.787433624267578,0.4919022023677826
1748008219923660800,7.115660888671875,8.471298217773438,4.914453029632568,0.5056201815605164
1748008219939469000,7.131468994140625,8.400365829467773,5.034826278686523,0.5047491192817688
1748008219955216100,7.147216064453125,8.334497451782227,5.14493465423584,0.4859985411167145
1748008219971024100,7.163024169921875,8.272364616394043,5.247010707855225,0.45526131987571716
1748008219986832400,7.178832275390625,8.213480949401855,5.341928005218506,0.4158332645893097
1748008220002579500,7.194579345703125,8.15965461730957,5.427056789398193,0.37077978253364563
1748008220018387500,7.210387451171875,8.112396240234375,5.500640869140625,0.31993746757507324
1748008220034165000,7.2261650390625,8.068567276000977,5.5673418045043945,0.27077481150627136
1748008220050003700,7.242003662109375,8.03050708770752,5.623730659484863,0.2345028817653656
1748008220065811700,7.257811767578125,7.994147300720215,5.675739288330078,0.22359569370746613
1748008220081620000,7.273619873046875,7.95419979095459,5.730931282043457,0.2398240715265274
1748008220097397500,7.2893974609375,7.9114227294921875,5.78824520111084,0.27567923069000244
1748008220113236000,7.305236083984375,7.870657444000244,5.841667652130127,0.3131549656391144
1748008220129013800,7.321013671875,7.839848041534424,5.881481170654297,0.3396487236022949
1748008220144821800,7.33682177734375,7.822573661804199,5.903669357299805,0.35272127389907837
1748008220160630000,7.352630126953125,7.816867828369141,5.910614490509033,0.362777978181839
1748008220176438000,7.36843798828125,7.818647861480713,5.907022953033447,0.3823724389076233
1748008220192246000,7.38424609375,7.8194708824157715,5.903278827667236,0.4213866591453552
1748008220208054300,7.40005419921875,7.811169624328613,5.910803318023682,0.4673502445220947
1748008220223801300,7.41580126953125,7.793962478637695,5.9295525550842285,0.5147210955619812
1748008220239579000,7.431578857421875,7.775747299194336,5.94996976852417,0.5531656742095947
1748008220255356400,7.4473564453125,7.762899875640869,5.964543342590332,0.5761885046958923
1748008220271164700,7.46316455078125,7.878404140472412,5.729434490203857,1.1290291547775269
1748008220287003100,7.479003173828125,7.9047417640686035,5.658592224121094,1.2906508445739746
1748008220302780700,7.49478076171875,7.914276123046875,5.6411237716674805,1.3085626363754272
1748008220318619400,7.510619384765625,7.917975902557373,5.628710746765137,1.3392800092697144
1748008220334427400,7.526427490234375,7.911981582641602,5.628539085388184,1.3749510049819946
1748008220350235600,7.542235595703125,7.9008307456970215,5.63584566116333,1.4087265729904175
1748008220366074000,7.55807421875,7.891481876373291,5.642922878265381,1.4325952529907227
1748008220381852000,7.573851806640625,7.915273666381836,5.611380577087402,1.425217866897583
1748008220397690400,7.5896904296875,7.961980819702148,5.55226469039917,1.3962831497192383
1748008220413498600,7.60549853515625,7.998291015625,5.506193161010742,1.3709769248962402
1748008220429306600,7.621306640625,8.038044929504395,5.462965488433838,1.3100513219833374
1748008220445145300,7.637145263671875,8.068120956420898,5.441136837005615,1.212372064590454
1748008220460953300,7.652953369140625,8.061116218566895,5.461080074310303,1.1685047149658203
1748008220476761600,7.66876171875,8.036261558532715,5.49445915222168,1.1831409931182861
1748008220492569600,7.684569580078125,8.004839897155762,5.5292439460754395,1.2330323457717896
1748008220508377600,7.700377685546875,7.9714226722717285,5.562036037445068,1.3002182245254517
1748008220524185900,7.716185791015625,7.935811996459961,5.595232963562012,1.3735519647598267
1748008220539933000,7.731932861328125,7.899848937988281,5.629549026489258,1.4390804767608643
1748008220555802000,7.747802001953125,7.863709926605225,5.666553974151611,1.4908438920974731
1748008220571610000,7.763610107421875,7.82641077041626,5.706854343414307,1.5328062772750854
1748008220587387600,7.7793876953125,7.788377285003662,5.7475361824035645,1.5739741325378418
1748008220603226400,7.795226318359375,7.751225471496582,5.78502893447876,1.6193615198135376
1748008220619064800,7.81106494140625,7.716285705566406,5.818411827087402,1.6659538745880127
1748008220634903600,7.826903564453125,7.684378147125244,5.849974155426025,1.7025072574615479
1748008220650711800,7.8427119140625,7.6580891609191895,5.878692150115967,1.7219328880310059
1748008220666458600,7.858458740234375,7.64091157913208,5.899118900299072,1.728369116783142
1748008220682236400,7.874236328125,7.631877899169922,5.910013198852539,1.7310601472854614
1748008220698014000,7.890013916015625,7.6300249099731445,5.910520076751709,1.7374868392944336
1748008220713822000,7.905822021484375,7.6333088874816895,5.902778148651123,1.7493418455123901
1748008220729599700,7.921599853515625,7.647697448730469,5.878419876098633,1.7684139013290405
1748008220745438200,7.937438232421875,7.680580139160156,5.826966762542725,1.7959750890731812
1748008220761246500,7.95324658203125,7.741836071014404,5.735743522644043,1.8263657093048096
1748008220777024000,7.96902392578125,7.827988147735596,5.610010147094727,1.8495334386825562
1748008220792832000,7.98483203125,7.93817663192749,5.447023868560791,1.8669936656951904
1748008220808609500,8.000609619140626,8.06002140045166,5.25931453704834,1.8830968141555786
1748008220824417800,8.016417724609376,8.149422645568848,5.110185623168945,1.9087427854537964
1748008220840225800,8.032225830078126,8.198799133300781,5.028880596160889,1.9132283926010132
1748008220856064500,8.048064453125,8.232391357421875,4.989262580871582,1.8722660541534424
1748008220871933700,8.06393359375,8.26616382598877,4.966716289520264,1.7811957597732544
1748008220887741700,8.07974169921875,8.298871040344238,4.953876495361328,1.66079580783844
1748008220903580400,8.095580322265626,8.31647777557373,4.9633660316467285,1.5399987697601318
1748008220919358000,8.11135791015625,8.316041946411133,4.996915340423584,1.429922103881836
1748008220943131100,8.135131103515626,8.294668197631836,5.0700154304504395,1.2898852825164795
1748008220958939100,8.150939208984376,8.280990600585938,5.109868049621582,1.2185381650924683
1748008220974717000,8.166717041015625,8.275568962097168,5.129970550537109,1.1699374914169312
1748008220990525000,8.18252490234375,8.282116889953613,5.126664638519287,1.137648344039917
1748008221014237200,8.2062373046875,8.315232276916504,5.081075668334961,1.099992275238037
1748008221030045200,8.222045166015626,8.354962348937988,5.021332263946533,1.072952151298523
1748008221045822700,8.23782275390625,8.406159400939941,4.942914962768555,1.0365636348724365
1748008221061631000,8.253630859375,8.46430778503418,4.85165548324585,0.9936423897743225
1748008221077408500,8.269408447265626,8.52515697479248,4.7525315284729,0.951597273349762
1748008221093186000,8.28518603515625,8.585015296936035,4.650134563446045,0.9187677502632141
1748008221108994000,8.300994140625,8.643426895141602,4.544859409332275,0.8976698517799377
1748008221124832800,8.316832763671876,8.708108901977539,4.410943508148193,0.9395774602890015
1748008221140610300,8.3326103515625,8.770888328552246,4.2736616134643555,0.9888026714324951
1748008221156449000,8.348448974609376,8.82510757446289,4.162309646606445,0.9813511967658997
1748008221172257000,8.364257080078126,8.889281272888184,4.043622970581055,0.8945302367210388
1748008221188065300,8.380065185546876,8.96003532409668,3.920581340789795,0.7191674113273621
1748008221203903700,8.39590380859375,9.028449058532715,3.79744291305542,0.4867570996284485
1748008221219650800,8.41165087890625,9.070688247680664,3.6992690563201904,0.45651933550834656
1748008221235489500,8.427489501953126,9.1101655960083,3.6058270931243896,0.4162662625312805
1748008221251267000,8.44326708984375,9.147067070007324,3.5156986713409424,0.3760607838630676
1748008221267044600,8.459044677734376,9.179798126220703,3.432619094848633,0.3447083532810211
1748008221282913800,8.474913818359376,9.205802917480469,3.363753080368042,0.3297567069530487
1748008221298660900,8.490660888671876,9.224574089050293,3.31194806098938,0.32956790924072266
1748008221314469000,8.50646923828125,9.237106323242188,3.2759032249450684,0.33869171142578125
1748008221330307600,8.5223076171875,9.24425983428955,3.2538034915924072,0.35612407326698303
1748008221346115800,8.53811572265625,9.246678352355957,3.2437257766723633,0.3841556906700134
1748008221361893400,8.553893310546876,9.245206832885742,3.243696451187134,0.41830140352249146
1748008221377731800,8.56973193359375,9.241207122802734,3.251204252243042,0.4473915994167328
1748008221393540000,8.5855400390625,9.236127853393555,3.26273512840271,0.46785295009613037
1748008221409317600,8.601317626953126,9.236739158630371,3.234712600708008,0.6242339015007019
1748008221425095200,8.61709521484375,9.2268705368042,3.2459630966186523,0.7063823938369751
1748008221440903400,8.6329033203125,9.20811939239502,3.2837297916412354,0.7733373641967773
1748008221456681000,8.648680908203126,9.182984352111816,3.336577892303467,0.8428722620010376
1748008221472489000,8.664489013671876,9.154868125915527,3.3866348266601562,0.9431195259094238
1748008221488266500,8.6802666015625,9.12228012084961,3.440147638320923,1.058193325996399
1748008221504105200,8.696105224609376,9.082003593444824,3.5077085494995117,1.1762555837631226
1748008221519882800,8.7118828125,9.035816192626953,3.586195945739746,1.2898074388504028
1748008221535721500,8.727721435546876,8.989801406860352,3.6623694896698,1.3931626081466675
1748008221551529500,8.743529541015626,9.008121490478516,3.700652837753296,1.1529583930969238
1748008221567337700,8.759337646484376,8.968623161315918,3.7600674629211426,1.263359785079956
1748008221583176200,8.77517626953125,8.925149917602539,3.820871114730835,1.383122444152832
1748008221598984400,8.790984375,8.874897956848145,3.8865296840667725,1.5170563459396362
1748008221614792400,8.80679248046875,8.817303657531738,3.9576122760772705,1.6621840000152588
1748008221630570000,8.822570068359376,8.755489349365234,4.029510498046875,1.8096531629562378
1748008221646347800,8.83834765625,8.694554328918457,4.093173027038574,1.9547511339187622
1748008221662216700,8.854216796875,8.636869430541992,4.146430969238281,2.0933141708374023
1748008221678025000,8.87002490234375,8.584360122680664,4.192121982574463,2.214783191680908
1748008221693802500,8.885802490234376,8.53551197052002,4.235503673553467,2.318605661392212
1748008221709610500,8.901610595703126,8.489912033081055,4.277782917022705,2.406733274459839
1748008221725418800,8.917418701171876,8.446429252624512,4.319756984710693,2.4835264682769775
1748008221741196300,8.9331962890625,8.403279304504395,4.3641839027404785,2.5513100624084473
1748008221757004300,8.94900439453125,8.36090087890625,4.411189079284668,2.609046697616577
1748008221772812500,8.9648125,8.320054054260254,4.4621663093566895,2.6525766849517822
1748008221788651000,8.980651123046876,8.279182434082031,4.520500183105469,2.681532382965088
1748008221804459300,8.996459228515626,8.238855361938477,4.583602428436279,2.6985626220703125
1748008221820298000,9.012298095703125,8.20077896118164,4.644148349761963,2.710996150970459
1748008221836106000,9.02810595703125,8.163603782653809,4.699793815612793,2.727250576019287
1748008221851914000,9.0439140625,8.058093070983887,5.078114032745361,2.334583282470703
1748008221867722200,9.05972216796875,8.015434265136719,5.130525588989258,2.366623878479004
1748008221883530200,9.0755302734375,7.968091011047363,5.18992280960083,2.3967950344085693
1748008221899307800,9.091307861328126,7.918665409088135,5.251346111297607,2.4266197681427
1748008221915146500,9.107146484375,7.869988441467285,5.307554721832275,2.4624264240264893
1748008221930954500,9.12295458984375,7.8203911781311035,5.358319282531738,2.510038375854492
1748008221946762800,9.1387626953125,7.764377593994141,5.409433364868164,2.5734922885894775
1748008221962540300,9.154540283203126,7.697116851806641,5.469319820404053,2.647890090942383
1748008221978317800,9.17031787109375,7.6213459968566895,5.53841495513916,2.722395658493042
1748008221994126000,9.1861259765625,7.543763160705566,5.607011795043945,2.7970428466796875
1748008222009934000,9.20193408203125,7.46755313873291,5.668699741363525,2.8760886192321777
1748008222025742000,9.2177421875,7.391088485717773,5.724262237548828,2.962268114089966
1748008222041519900,9.233519775390626,7.337926387786865,5.961195945739746,2.605642795562744
1748008222057327900,9.249327880859376,7.307895660400391,6.189592361450195,2.1104495525360107
1748008222073105400,9.26510546875,7.236164093017578,6.258454322814941,2.154080867767334
1748008222088883000,9.280883056640626,7.171408176422119,6.318950176239014,2.1936686038970947
1748008222104691200,9.296691162109376,7.113047122955322,6.369287490844727,2.2376620769500732
1748008222120499200,9.312499267578126,7.072184085845947,6.400062561035156,2.278991222381592
1748008222136277000,9.328277099609375,7.050782680511475,6.413576126098633,2.3071393966674805
1748008222152085000,9.3440849609375,7.050240516662598,6.412815093994141,2.3109073638916016
1748008222167893000,9.35989306640625,7.0684919357299805,6.403552055358887,2.2806458473205566
1748008222183701200,9.375701171875,7.114455223083496,6.379116058349609,2.204948663711548
1748008222199539700,9.391539794921876,7.186117649078369,6.33249044418335,2.1046793460845947
1748008222215317500,9.4073173828125,7.271958827972412,6.265140533447266,2.0092368125915527
1748008222231095000,9.423094970703126,7.351354598999023,6.195940971374512,1.9334650039672852
1748008222246903000,9.438903076171876,7.408381938934326,6.14301872253418,1.8840370178222656
1748008222262711300,9.454711181640626,7.444599628448486,6.106232166290283,1.8607144355773926
1748008222278519300,9.470519287109376,7.468100070953369,6.075207710266113,1.8680782318115234
1748008222294327300,9.486327392578126,7.483100891113281,6.0437164306640625,1.909735083580017
1748008222310196500,9.502196533203126,7.486507892608643,6.0173163414001465,1.978508710861206
1748008222325943600,9.517943603515626,7.474300384521484,6.004812240600586,2.0609371662139893
1748008222341782300,9.5337822265625,7.452866554260254,6.006423473358154,2.1326146125793457
1748008222357590300,9.54959033203125,7.430710792541504,6.019712924957275,2.1720924377441406
1748008222373459500,9.56545947265625,7.4112749099731445,6.038114547729492,2.1873645782470703
1748008222389237000,9.581237060546876,7.3938140869140625,6.060810089111328,2.1836860179901123
1748008222405014800,9.597014892578125,7.380764484405518,6.081019878387451,2.1716108322143555
1748008222420822800,9.61282275390625,7.37358283996582,6.096012592315674,2.153902530670166
1748008222436569900,9.62856982421875,7.3700480461120605,6.108129501342773,2.1315596103668213
1748008222452439000,9.64443896484375,7.372811794281006,6.11560583114624,2.1003341674804688
1748008222468247000,9.6602470703125,7.387391090393066,6.113065242767334,2.0560333728790283
1748008222484024600,9.676024658203126,7.415549278259277,6.096734523773193,2.002462387084961
1748008222499832800,9.691832763671876,7.454965591430664,6.06495475769043,1.9519751071929932
1748008222515580000,9.707579833984376,7.49910306930542,6.018887042999268,1.9253177642822266
1748008222531388000,9.723387939453126,7.534907341003418,5.9702043533325195,1.937063217163086
1748008222547165400,9.73916552734375,7.5523362159729,5.939945220947266,1.962052822113037
1748008222562973700,9.7549736328125,7.534538269042969,5.950399398803711,1.9984641075134277
1748008222578812200,9.770812255859376,7.492648601531982,5.996448993682861,2.018221616744995
1748008222594651000,9.78665087890625,7.4305009841918945,6.078862190246582,2.0013692378997803
1748008222610459000,9.802458984375,7.356682300567627,6.183752059936523,1.9521338939666748
1748008222626267100,9.81826708984375,7.274607181549072,6.299811840057373,1.887552261352539
1748008222642044700,9.834044677734376,7.180294513702393,6.421004772186279,1.8396888971328735
1748008222657852700,9.849852783203126,7.082211017608643,6.537232875823975,1.8103209733963013
1748008222673661000,9.865660888671876,6.998100280761719,6.634274005889893,1.7842046022415161
1748008222689499600,9.881499755859375,6.941017150878906,6.711722373962402,1.7162328958511353
1748008222705307600,9.8973076171875,6.9326090812683105,6.750771999359131,1.592607021331787
1748008222721146400,9.913146484375,7.006954669952393,6.701774597167969,1.4694230556488037
1748008222736954400,9.928954345703126,7.1984663009643555,6.514878273010254,1.381604790687561
1748008222752732000,9.94473193359375,7.496984958648682,6.178920269012451,1.3366203308105469
1748008222768540200,9.9605400390625,7.834660530090332,5.751758098602295,1.306049108505249
1748008222784348200,9.97634814453125,8.116050720214844,5.363082408905029,1.2399394512176514
1748008222800125700,9.992125732421876,8.303281784057617,5.099203109741211,1.106356143951416
1748008222815903200,10.0079033203125,8.432480812072754,4.914719581604004,0.9535145163536072
1748008222831742000,10.023741943359376,8.531074523925781,4.763794422149658,0.8351163864135742
1748008222847580700,10.03958056640625,8.61530590057373,4.619535446166992,0.7789598703384399
1748008222863358200,10.055358154296876,8.673625946044922,4.5053324699401855,0.8003572821617126
1748008222879196700,10.07119677734375,8.696784019470215,4.449085712432861,0.8613821864128113
1748008222895005000,10.0870048828125,8.685790061950684,4.457547664642334,0.9261263608932495
1748008222910813000,10.10281298828125,8.650217056274414,4.517813205718994,0.9661802649497986
1748008222926651600,10.118651611328126,8.6028470993042,4.60589075088501,0.9732320308685303
1748008222942429200,10.13442919921875,8.554364204406738,4.700317859649658,0.9488177299499512
1748008222958237400,10.150237548828125,8.50963020324707,4.790853977203369,0.8968244791030884
1748008222974045400,10.16604541015625,8.465808868408203,4.8787455558776855,0.8356499075889587
1748008222989792500,10.18179248046875,8.423125267028809,4.961160659790039,0.779900074005127
1748008223005570000,10.197570068359376,8.386553764343262,5.030497074127197,0.7281514406204224
1748008223021408800,10.21340869140625,8.35574722290039,5.088257789611816,0.6793427467346191
1748008223037216800,10.229216796875,8.327340126037598,5.140049457550049,0.6369426846504211
1748008223053025000,10.24502490234375,8.299422264099121,5.189333915710449,0.6006535291671753
1748008223068863500,10.260863525390626,8.273751258850098,5.2334065437316895,0.5717491507530212
1748008223084671700,10.276671630859376,8.257719993591309,5.258729457855225,0.5711580514907837
1748008223100510200,10.29251025390625,8.259159088134766,5.249560356140137,0.6315012574195862
1748008223116318500,10.308318359375,8.268232345581055,5.222041130065918,0.7328137755393982
1748008223132126500,10.32412646484375,8.278311729431152,5.1898417472839355,0.8399296402931213
1748008223147965200,10.339965087890626,8.286057472229004,5.166985988616943,0.9021559953689575
1748008223163742700,10.35574267578125,8.28722095489502,5.165153503417969,0.9019644856452942
1748008223179550700,10.37155078125,8.287843704223633,5.164829254150391,0.8980963230133057
1748008223195297800,10.3872978515625,8.27703857421875,5.179779529571533,0.9115341305732727
1748008223211136500,10.403136474609376,8.258769035339355,5.203911304473877,0.9393819570541382
1748008223226914000,10.4189140625,8.23832893371582,5.232359886169434,0.9605888724327087
1748008223242752800,10.434752685546876,8.221850395202637,5.259088039398193,0.9558075070381165
1748008223258530300,10.4505302734375,8.215106964111328,5.273414134979248,0.9346172213554382
1748008223274369000,10.466369140625,8.218050003051758,5.273401737213135,0.9084520936012268
1748008223290207500,10.48220751953125,8.223228454589844,5.267979621887207,0.8929086327552795
1748008223306015700,10.498015625,8.226362228393555,5.262993812561035,0.8934434056282043
1748008223321793300,10.513793212890626,8.218626976013184,4.973541736602783,1.9719141721725464
1748008223337601300,10.529601318359376,8.181751251220703,4.88220739364624,2.3223657608032227
1748008223353409500,10.545409423828126,8.178787231445312,4.888278961181641,2.3200321197509766
1748008223369248000,10.561248046875,8.172856330871582,4.900938034057617,2.314220666885376
1748008223385025500,10.577025634765626,8.16569709777832,4.860395908355713,2.422464609146118
1748008223408768300,10.600768310546876,8.154997825622559,4.873153209686279,2.4328505992889404
1748008223424545800,10.6165458984375,8.145844459533691,4.8761115074157715,2.4574663639068604
1748008223440384500,10.632384521484376,8.12882137298584,4.887304306030273,2.4913690090179443
1748008223456192500,10.648192626953126,8.102192878723145,4.910858631134033,2.5314691066741943
1748008223471970300,10.66397021484375,8.069389343261719,4.945845127105713,2.567870855331421
1748008223487778300,10.6797783203125,8.036498069763184,4.98535680770874,2.5944769382476807
1748008223503555800,10.695555908203126,8.008581161499023,5.02317476272583,2.607820987701416
1748008223519333600,10.711333740234375,8.007013320922852,5.03032922744751,2.598830223083496
1748008223535080700,10.727080810546875,7.998147010803223,5.057115077972412,2.5740277767181396
1748008223550919200,10.742919189453126,7.996933460235596,5.080316543579102,2.5317635536193848
1748008223566727400,10.7587275390625,7.997426986694336,5.103466033935547,2.4831812381744385
1748008223582566000,10.77456591796875,7.99580192565918,5.127683162689209,2.4381155967712402
1748008223598404600,10.790404541015626,7.991647243499756,5.151801109313965,2.400604248046875
1748008223614182100,10.80618212890625,8.285512924194336,4.895437717437744,1.8855624198913574
1748008223629959700,10.821959716796876,8.356559753417969,4.845202445983887,1.69183349609375
1748008223645768000,10.837767822265626,8.362377166748047,4.870913982391357,1.5859477519989014
1748008223661545500,10.85354541015625,8.357773780822754,4.9038848876953125,1.506628394126892
1748008223677353500,10.869353515625,8.345794677734375,4.935147762298584,1.4705133438110352
1748008223693131000,10.885131103515626,8.318397521972656,4.976711750030518,1.4855929613113403
1748008223708939300,10.900939208984376,8.268177032470703,5.036190032958984,1.5634655952453613
1748008223724777700,10.91677783203125,8.254834175109863,5.060653209686279,1.5549540519714355
1748008223740616400,10.932616455078126,8.24954891204834,5.072351932525635,1.544852375984192
1748008223756455200,10.948455078125,8.18496036529541,5.116288185119629,1.7321655750274658
1748008223772263200,10.96426318359375,8.200597763061523,5.097447872161865,1.7136569023132324
1748008223788040700,10.980040771484376,8.212505340576172,5.086178779602051,1.6899489164352417
1748008223803818500,10.995818603515625,8.214475631713867,5.098423957824707,1.6428166627883911
1748008223819657000,11.011656982421876,8.210254669189453,5.120039939880371,1.5960267782211304
1748008223835465200,11.02746533203125,8.20462417602539,5.141550064086914,1.555313229560852
1748008223851273200,11.043273193359376,8.20952320098877,5.144314289093018,1.519911527633667
1748008223867081200,11.059081298828126,8.2358980178833,5.11253023147583,1.4840469360351562
1748008223882889500,11.074889404296876,8.278623580932617,5.053817272186279,1.4469716548919678
1748008223898667000,11.0906669921875,8.33107852935791,4.976532459259033,1.4133838415145874
1748008223914475000,11.10647509765625,8.383635520935059,4.895801544189453,1.384257197380066
1748008223930283300,11.122283203125,8.435090065002441,4.816620826721191,1.349005103111267
1748008223946121700,11.138121826171876,8.483386993408203,4.744574546813965,1.3005990982055664
1748008223961930000,11.153929931640626,8.523311614990234,4.688264846801758,1.2424707412719727
1748008223977707500,11.16970751953125,8.549694061279297,4.654444694519043,1.1871248483657837
1748008223993485000,11.185485107421876,8.563992500305176,4.6414971351623535,1.1335490942001343
1748008224009323800,11.20132373046875,8.57047176361084,4.642698287963867,1.078311800956726
1748008224025162200,11.217162353515626,8.572661399841309,4.6519083976745605,1.0196163654327393
1748008224040940000,11.23293994140625,8.57180118560791,4.665998935699463,0.9607611894607544
1748008224056717600,11.248717529296876,8.568205833435059,4.683707237243652,0.9050548672676086
1748008224072496600,11.26449658203125,8.566296577453613,4.697644233703613,0.8491612672805786
1748008224088335000,11.280335205078124,8.569818496704102,4.702625751495361,0.7835277915000916
1748008224104143400,11.296143310546874,8.58409595489502,4.690052509307861,0.6979271173477173
1748008224119981800,11.31198193359375,8.609429359436035,4.657786846160889,0.5942513942718506
1748008224135820500,11.327820556640624,8.646096229553223,4.6024885177612305,0.4821963310241699
1748008224151628500,11.343628662109374,8.68653678894043,4.535883903503418,0.37446802854537964
1748008224167406300,11.35940625,8.722464561462402,4.473185062408447,0.2821674942970276
1748008224183275300,11.375275146484375,8.74665355682373,4.429783821105957,0.20845578610897064
1748008224199083500,11.39108349609375,8.75977897644043,4.406235218048096,0.14745602011680603
1748008224214830600,11.40683056640625,8.767206192016602,4.39296817779541,0.09114713221788406
1748008224230577700,11.42257763671875,8.778400421142578,4.371318817138672,0.040530238300561905
1748008224246385700,11.4383857421875,8.805362701416016,4.316939830780029,0.0008517945534549654
1748008224262163200,11.4541630859375,8.85476016998291,4.214604377746582,-0.02693915367126465
1748008224277971500,11.469971435546874,8.92680835723877,4.059609889984131,-0.04520999267697334
1748008224293840600,11.485840576171874,9.009684562683105,3.871999979019165,-0.0599248930811882
1748008224309648600,11.501648681640624,9.086751937866211,3.6870241165161133,-0.084722138941288
1748008224325426200,11.51742626953125,9.144128799438477,3.54072642326355,-0.13625790178775787
1748008224341234400,11.533234375,9.173578262329102,3.461357831954956,-0.1867036670446396
1748008224357012000,11.549011962890624,9.188288688659668,3.420711040496826,-0.21087029576301575
1748008224372789500,11.56478955078125,9.192586898803711,3.4096932411193848,-0.2017890214920044
1748008224388658700,11.58065869140625,9.188697814941406,3.4217753410339355,-0.17225618660449982
1748008224404466700,11.596466796875,9.181570053100586,3.4430627822875977,-0.12032777816057205
1748008224420275000,11.61227490234375,9.169588088989258,3.476487159729004,-0.05543510615825653
1748008224436083000,11.6280830078125,9.151847839355469,3.523341655731201,0.010717063210904598
1748008224451921700,11.643921630859374,9.132441520690918,3.5727453231811523,0.06627579778432846
1748008224467729700,11.659729736328124,9.11685562133789,3.6113147735595703,0.1083252802491188
1748008224483538000,11.675537841796874,9.107568740844727,3.63350510597229,0.14221906661987305
1748008224499315500,11.6913154296875,9.102410316467285,3.645176410675049,0.17092449963092804
1748008224515154000,11.70715380859375,9.098121643066406,3.6545498371124268,0.19708141684532166
1748008224530931700,11.722931640625,9.091876983642578,3.6687333583831787,0.220341295003891
1748008224546739700,11.73873974609375,9.086031913757324,3.6823103427886963,0.23451216518878937
1748008224562517200,11.754517333984374,8.806918144226074,4.312838554382324,0.08944331854581833
1748008224578325500,11.770325439453124,8.738836288452148,4.450069427490234,-0.0032496494241058826
1748008224594164000,11.7861640625,8.765318870544434,4.39731502532959,-0.05656740069389343
1748008224609941500,11.80194140625,8.794732093811035,4.337027072906494,-0.11516915261745453
1748008224625810700,11.817810791015624,8.815858840942383,4.29262113571167,-0.15626323223114014
1748008224641619000,11.833618896484374,8.820484161376953,4.282628059387207,-0.16895268857479095
1748008224657427000,11.849427001953124,8.809385299682617,4.305698871612549,-0.1614925116300583
1748008224673204500,11.86520458984375,8.793580055236816,4.338494777679443,-0.14423581957817078
1748008224689043200,11.881043212890624,8.78126049041748,4.363739967346191,-0.13269458711147308
1748008224704851200,11.896851318359374,8.773094177246094,4.380387783050537,-0.1241355761885643
1748008224720659500,11.912659423828124,8.76217269897461,4.402645111083984,-0.10692724585533142
1748008224736498000,11.928497802734375,8.70044231414795,4.5234808921813965,0.10396905988454819
1748008224752306200,11.94430615234375,8.665083885192871,4.589004993438721,0.16659671068191528
1748008224768114200,11.9601142578125,8.620474815368652,4.6688079833984375,0.24501053988933563
1748008224783922400,11.97592236328125,8.573051452636719,4.75002908706665,0.33227455615997314
1748008224799730400,11.99173046875,8.527961730957031,4.823225975036621,0.4251403212547302
1748008224815538400,12.007538330078125,8.485343933105469,4.887801170349121,0.5279518961906433
1748008224831377200,12.023377197265624,8.437686920166016,4.955307960510254,0.6486585736274719
1748008224847154700,12.03915478515625,8.378374099731445,5.0348405838012695,0.7896963357925415
1748008224862993400,12.054993408203124,8.304840087890625,5.12802267074585,0.9504751563072205
1748008224878801400,12.070801513671874,8.221991539001465,5.226166248321533,1.1209101676940918
1748008224894548500,12.086548583984374,8.142048835754395,5.315053462982178,1.2757861614227295
1748008224910356700,12.102356689453124,8.07275104522705,5.388776779174805,1.4007716178894043
1748008224926134300,12.11813427734375,8.017824172973633,5.4444122314453125,1.4977518320083618
1748008224941973000,12.133972900390624,7.9709906578063965,5.489800930023193,1.5798050165176392
1748008224957842000,12.149842041015624,7.921359062194824,5.536025047302246,1.6657992601394653
1748008224973619700,12.16561962890625,7.867211818695068,5.5868000984191895,1.7507236003875732
1748008224989458200,12.181458251953124,7.812673091888428,5.638225555419922,1.828371524810791
1748008225005235700,12.197235595703125,7.765080451965332,5.681271553039551,1.8965951204299927
1748008225028917500,12.22091748046875,7.710262298583984,5.726274490356445,1.9829323291778564
1748008225044786700,12.23678662109375,7.683809757232666,5.746547698974609,2.0264883041381836
1748008225060594700,12.2525947265625,7.67288875579834,5.752098083496094,2.05195951461792
1748008225076402700,12.268402587890625,7.689487457275391,5.734753608703613,2.0383267402648926
1748008225092241400,12.284241455078124,7.726415634155273,5.71289587020874,1.9584975242614746
1748008225108049400,12.30004931640625,7.77014684677124,5.713596820831299,1.774830937385559
1748008225123857700,12.315857666015624,7.817539691925049,5.72084903717041,1.5258926153182983
1748008225139665700,12.331665771484374,7.876315116882324,5.703185558319092,1.2679574489593506
1748008225155474000,12.347473876953124,7.9507269859313965,5.6419291496276855,1.0606390237808228
1748008225171282000,12.363281982421874,8.03462028503418,5.548608779907227,0.9100555777549744
1748008225187120600,12.37912060546875,8.11748218536377,5.442889213562012,0.8073628544807434
1748008225202898200,12.394898193359374,8.185464859008789,5.350060939788818,0.7385194301605225
1748008225218737000,12.41073681640625,8.243338584899902,5.267020225524902,0.6901096701622009
1748008225234514400,12.426514404296874,8.305943489074707,5.172595500946045,0.6526540517807007
1748008225250322400,12.442322509765624,8.382960319519043,5.050635814666748,0.6224595904350281
1748008225266130700,12.458130615234374,8.465129852294922,4.90474271774292,0.6748802065849304
1748008225281938700,12.473938720703124,8.527173042297363,4.785049915313721,0.7490086555480957
1748008225297746700,12.48974658203125,8.559429168701172,4.718347072601318,0.8023436665534973
1748008225313524500,12.5055244140625,8.568303108215332,4.694085121154785,0.8486109972000122
1748008225329332500,12.52133251953125,8.572912216186523,4.67128849029541,0.9244585633277893
1748008225345110000,12.537110107421874,8.579996109008789,4.639880657196045,1.0126988887786865
1748008225360918300,12.552918212890624,8.582712173461914,4.616505146026611,1.0933053493499756
1748008225376726300,12.568726318359374,8.57689094543457,4.612611770629883,1.1537572145462036
1748008225392503800,12.58450390625,8.564704895019531,4.625586986541748,1.191707730293274
1748008225408312000,12.60031201171875,8.546575546264648,4.655055522918701,1.2070229053497314
1748008225424120000,12.6161201171875,8.535221099853516,4.678946018218994,1.1949247121810913
1748008225439958800,12.631958740234374,8.536279678344727,4.688889503479004,1.1474436521530151
1748008225455766800,12.647766845703124,8.541521072387695,4.683776378631592,1.1291837692260742
1748008225471575000,12.663574951171874,8.52873420715332,4.705661773681641,1.134822130203247
1748008225487383000,12.679383056640624,8.489184379577637,4.76899528503418,1.1665407419204712
1748008225503160600,12.69516064453125,8.428193092346191,4.8651299476623535,1.2109802961349487
1748008225518968800,12.71096875,8.362569808959961,4.970178604125977,1.2390096187591553
1748008225534746400,12.726746337890624,8.3117036819458,5.054656505584717,1.2395200729370117
1748008225550524000,12.74252392578125,8.268404006958008,5.126336574554443,1.2347323894500732
1748008225566301400,12.758301513671874,8.227814674377441,5.189846992492676,1.240541934967041
1748008225582140200,12.77414013671875,8.181093215942383,5.255962371826172,1.2708110809326172
1748008225597948200,12.7899482421875,8.129295349121094,5.322579860687256,1.3247967958450317
1748008225613756400,12.80575634765625,8.077835083007812,5.380754470825195,1.4022985696792603
1748008225629564400,12.821564453125,8.029322624206543,5.426132678985596,1.5024784803390503
1748008225645372400,12.837372314453125,7.97260046005249,5.474395751953125,1.6245040893554688
1748008225661150200,12.853150146484374,7.901696681976318,5.531980037689209,1.7694001197814941
1748008225676927700,12.868927734375,7.8180389404296875,5.595555782318115,1.9334993362426758
1748008225692705300,12.884705322265624,7.727384090423584,5.657983303070068,2.1083531379699707
1748008225708513300,12.90051318359375,7.640755653381348,5.711119174957275,2.274282455444336
1748008225724291000,12.916291015625,7.572227478027344,5.747883319854736,2.4069907665252686
1748008225740099000,12.93209912109375,7.523001194000244,5.772295951843262,2.501089334487915
1748008225755937800,12.947937744140624,7.485645771026611,5.799248695373535,2.550337553024292
1748008225771715300,12.96371533203125,7.448707103729248,5.831297874450684,2.5851728916168213
1748008225787492900,12.979492919921874,7.423574447631836,5.851442337036133,2.6118104457855225
1748008225803270400,12.9952705078125,7.42899227142334,5.841348171234131,2.618988275527954
1748008225819078700,13.01107861328125,7.474114418029785,5.798367977142334,2.585911750793457
1748008225834917000,13.026917236328124,7.541281223297119,5.73541784286499,2.5307018756866455
1748008225850725400,13.042725341796874,7.618221282958984,5.653563976287842,2.4840078353881836
1748008225866503000,13.0585029296875,7.695331573486328,5.556229114532471,2.4658844470977783
1748008225882280400,13.074280517578124,7.770144939422607,5.443596363067627,2.4824373722076416
1748008225898119200,13.090119140625,7.843554973602295,5.32448148727417,2.5097663402557373
1748008225913866200,13.1058662109375,7.917843818664551,5.206664562225342,2.523646354675293
1748008225929643800,13.121643798828124,7.998781681060791,5.090676784515381,2.5049731731414795
1748008225945482500,13.137482421875,8.08759593963623,4.972145080566406,2.457428216934204
1748008225961321000,13.153321044921874,8.176506996154785,4.853603839874268,2.39951229095459
1748008225977098500,13.169098388671875,8.257028579711914,4.735754489898682,2.3589184284210205
1748008225992906800,13.18490673828125,8.320549011230469,4.6251726150512695,2.355130434036255
1748008226008776000,13.20077587890625,8.365019798278809,4.532938003540039,2.3768277168273926
1748008226024584000,13.216583984375,8.397090911865234,4.458022117614746,2.4052634239196777
1748008226040392000,13.232391845703125,8.424886703491211,4.389230251312256,2.434406280517578
1748008226056200200,13.2482001953125,8.45312213897705,4.318355083465576,2.4631130695343018
1748008226071977700,13.263977783203124,8.484526634216309,4.23598575592041,2.4979238510131836
1748008226095659500,13.287659423828124,8.541813850402832,4.070866107940674,2.5760138034820557
1748008226111437000,13.30343701171875,8.584809303283691,3.941540002822876,2.6335744857788086
1748008226127275500,13.319275634765624,8.622689247131348,3.7967827320098877,2.721038818359375
1748008226143083800,13.335083740234374,8.645143508911133,3.6336023807525635,2.868591785430908
1748008226158861300,13.350861328125,8.645970344543457,3.4652652740478516,3.067492961883545
1748008226174638800,13.366638916015624,8.61971664428711,3.2752530574798584,3.3382010459899902
1748008226190447000,13.382447021484374,8.583500862121582,3.0777432918548584,3.60851788520813
1748008226206255000,13.398255126953124,8.55815601348877,2.902086019515991,3.8087055683135986
1748008226222063000,13.41406298828125,8.556170463562012,2.7574732303619385,3.9190144538879395
1748008226237841000,13.4298408203125,8.588345527648926,2.6437628269195557,3.926985502243042
1748008226253679400,13.445679443359374,8.627202987670898,2.5465574264526367,3.9059956073760986
1748008226269426400,13.461426513671874,8.630584716796875,2.473411798477173,3.945329427719116
1748008226285265200,13.47726513671875,8.593175888061523,2.418968915939331,4.0591020584106445
1748008226301103600,13.493103515625,8.533004760742188,2.3804123401641846,4.206167697906494
1748008226324816000,13.51681591796875,8.444246292114258,2.3824448585510254,4.380530834197998
1748008226340685000,13.53268505859375,8.392295837402344,2.417119264602661,4.46063756942749
1748008226356493000,13.5484931640625,8.333525657653809,2.47122859954834,4.540459632873535
1748008226372270600,13.5642705078125,8.275612831115723,2.5206263065338135,4.618556499481201
1748008226388109300,13.580109375,8.222433090209961,2.5541815757751465,4.694479465484619
1748008226403917600,13.59591748046875,8.168706893920898,2.569962978363037,4.77890157699585
1748008226419695000,13.611695068359374,8.101228713989258,2.590366840362549,4.881648063659668
1748008226435503000,13.627503173828124,8.009355545043945,2.629246234893799,5.01075553894043
1748008226451341800,13.643341796875,7.904414176940918,2.696246862411499,5.140124797821045
1748008226467119400,13.659119384765624,7.803430080413818,2.7828903198242188,5.24713134765625
1748008226482958000,13.6749580078125,7.711652755737305,2.8653132915496826,5.337675094604492
1748008226498735600,13.690735595703124,7.6157708168029785,2.9347825050354004,5.436680316925049
1748008226514574000,13.706573974609375,7.498531818389893,2.9931375980377197,5.566286087036133
1748008226530351900,13.722351806640624,7.353951930999756,3.0418202877044678,5.730367660522461
1748008226546159900,13.738159912109374,7.211461544036865,3.0729429721832275,5.892557144165039
1748008226561998600,13.75399853515625,7.120971202850342,3.1032629013061523,5.985976696014404
1748008226577776000,13.769776123046874,7.105093002319336,3.120422124862671,5.995914936065674
1748008226593584000,13.785584228515624,7.1461992263793945,3.138775110244751,5.937197685241699
1748008226609361700,13.801361572265625,7.213973045349121,3.1318297386169434,5.858381271362305
1748008226625139500,13.817139404296874,7.276937961578369,3.140423059463501,5.775318145751953
1748008226640947500,13.832947509765624,7.338091850280762,3.1640071868896484,5.684350967407227
1748008226656725000,13.84872509765625,7.404078006744385,3.2041049003601074,5.575279235839844
1748008226672533200,13.864533203125,7.486546039581299,3.2490551471710205,5.437431812286377
1748008226688310800,13.880310791015624,7.596108913421631,3.272693634033203,5.268680572509766
1748008226704149500,13.8961494140625,7.711304187774658,3.2888667583465576,5.088176727294922
1748008226719957500,13.91195751953125,7.809947967529297,3.3100454807281494,4.921249866485596
1748008226735704600,13.92770458984375,7.8866753578186035,3.336517095565796,4.778953552246094
1748008226751482000,13.943482177734374,7.949761390686035,3.360605001449585,4.655966281890869
1748008226767320800,13.95932080078125,8.004544258117676,3.374074935913086,4.551182270050049
1748008226783128800,13.97512890625,8.051543235778809,3.380798101425171,4.462425708770752
1748008226798967600,13.990967529296874,8.086962699890137,3.3897347450256348,4.391026496887207
1748008226814745000,14.0067451171875,8.108953475952148,3.4129388332366943,4.332103252410889
1748008226830553000,14.022552978515625,8.113293647766113,3.4647576808929443,4.282559394836426
1748008226846331000,14.038330810546874,8.109169006347656,3.5343027114868164,4.2332587242126465
1748008226862108400,14.0541083984375,8.106779098510742,3.6040546894073486,4.178674221038818
1748008226877947000,14.06994677734375,8.113012313842773,3.6589648723602295,4.118422508239746
1748008226893816000,14.085816162109374,8.129388809204102,3.706671953201294,4.042770862579346
1748008226909624300,14.101624267578124,8.147994041442871,3.7688827514648438,3.9466588497161865
1748008226925401900,14.11740185546875,8.164473533630371,3.8459746837615967,3.836698293685913
1748008226941240300,14.133240234375,8.198298454284668,3.918504476547241,3.6883087158203125
1748008226957018000,14.14901806640625,8.255206108093262,3.9583117961883545,3.5147860050201416
1748008226972795600,14.164795654296874,8.304823875427246,3.8990232944488525,3.463798999786377
1748008226988603600,14.180603759765624,8.302352905273438,3.798383951187134,3.579608201980591
1748008227004442400,14.1964423828125,8.207894325256348,3.74277925491333,3.8460986614227295
1748008227020220000,14.212219970703124,8.073710441589355,3.742910861968994,4.1202192306518555
1748008227036089000,14.228089111328124,7.970773220062256,3.8174102306365967,4.250239372253418
1748008227051897000,14.24389697265625,7.935109615325928,3.906691074371338,4.2358222007751465
1748008227067675000,14.2596748046875,7.969933986663818,3.9623117446899414,4.117114543914795
1748008227083483000,14.27548291015625,8.014878273010254,4.006078720092773,3.9854049682617188
1748008227099291000,14.291290771484375,8.021834373474121,4.072195053100586,3.903562307357788
1748008227115068700,14.307068603515624,7.979043483734131,4.170956611633301,3.8869495391845703
1748008227130876700,14.322876708984374,7.904943943023682,4.284817695617676,3.9144086837768555
1748008227146623700,14.338623779296874,7.825806617736816,4.392051696777344,3.9543681144714355
1748008227162493000,14.354492919921874,7.757880210876465,4.479291915893555,3.99019193649292
1748008227178331400,14.370331298828125,7.700726509094238,4.550201892852783,4.020555019378662
1748008227194170000,14.386170166015624,7.644741058349609,4.617541790008545,4.050511360168457
1748008227209978000,14.40197802734375,7.582322597503662,4.687286853790283,4.0875563621521
1748008227225786400,14.417786376953124,7.520988464355469,4.75955057144165,4.1172566413879395
1748008227241564000,14.43356396484375,7.467227458953857,4.837728500366211,4.123990535736084
1748008227257341400,14.449341552734374,7.419754981994629,4.926002025604248,4.105134963989258
1748008227273119200,14.465119140625,7.370261192321777,5.033630847930908,4.063520431518555
1748008227288896800,14.480896728515624,7.303891181945801,5.165286540985107,4.017882347106934
1748008227304674300,14.49667431640625,7.231191635131836,5.320583820343018,3.946092367172241
1748008227320482300,14.512482421875,7.184458255767822,5.479791641235352,3.8112785816192627
1748008227336290600,14.52829052734375,7.181089878082275,5.623324394226074,3.6028544902801514
1748008227352129000,14.54412890625,7.2237348556518555,5.734559059143066,3.3320956230163574
1748008227367937300,14.559937255859374,7.298389434814453,5.807483196258545,3.0293619632720947
1748008227383745300,14.575745361328124,7.399302959442139,5.833526611328125,2.7185792922973633
1748008227399522800,14.591522705078125,7.540947914123535,5.7704854011535645,2.4507124423980713
1748008227415331000,14.6073310546875,7.728904724121094,5.57249641418457,2.319849729537964
1748008227431169500,14.62316943359375,7.9184770584106445,5.278813362121582,2.3669042587280273
1748008227446977800,14.638977783203124,8.05185604095459,4.986202239990234,2.54475736618042
1748008227462755300,14.65475537109375,8.1371488571167,4.7473015785217285,2.7240281105041504
1748008227478594000,14.670593994140624,8.208508491516113,4.5777082443237305,2.799170732498169
1748008227494371600,14.68637158203125,8.291119575500488,4.434735298156738,2.785830020904541
1748008227510149000,14.702149169921874,8.363877296447754,4.319397449493408,2.749318838119507
1748008227525957000,14.71795703125,8.389760971069336,4.252890586853027,2.774026870727539
1748008227557543000,14.74954296875,8.292548179626465,4.263689041137695,3.0372655391693115
1748008227573320400,14.765320556640624,8.250022888183594,4.26833438873291,3.144650459289551
1748008227589098000,14.781097900390625,8.249417304992676,4.250704765319824,3.170017957687378
1748008227604936700,14.796936767578124,8.284565925598145,4.217451572418213,3.1224122047424316
1748008227620745000,14.812744873046874,8.335539817810059,4.180975914001465,3.03456974029541
1748008227636583400,14.82858349609375,8.383399963378906,4.1559739112854,2.9354517459869385
1748008227652361000,14.84436083984375,8.41045093536377,4.167762756347656,2.8397984504699707
1748008227668138800,14.860138671875,8.417875289916992,4.192876815795898,2.780207633972168
1748008227683946800,14.87594677734375,8.413272857666016,4.228214740753174,2.740333080291748
1748008227699724300,14.891724365234374,8.40444564819336,4.274425506591797,2.6953611373901367
1748008227715501800,14.907501708984375,8.405535697937012,4.314733028411865,2.6268677711486816
1748008227731310000,14.92331005859375,8.418200492858887,4.345383167266846,2.534154176712036
1748008227747118000,14.9391181640625,8.442965507507324,4.373833656311035,2.3992300033569336
1748008227762865200,14.954865234375,8.47368335723877,4.404073238372803,2.229623317718506
1748008227778673400,14.97067333984375,8.510294914245605,4.431410312652588,2.026789903640747
1748008227794512000,14.986511962890624,8.553525924682617,4.444736003875732,1.803300380706787
1748008227810289400,15.002289306640625,8.621808052062988,4.388457298278809,1.6050727367401123
1748008227826128100,15.018128173828124,8.686363220214844,4.306382179260254,1.4739519357681274
1748008227841905700,15.03390576171875,8.730198860168457,4.217660903930664,1.4715137481689453
1748008227857714000,15.0497138671875,8.77271556854248,4.106983184814453,1.5305404663085938
1748008227873491500,15.065491455078124,8.826416969299316,3.9520788192749023,1.6266019344329834
1748008227889269000,15.08126904296875,8.88392162322998,3.7737717628479004,1.7334849834442139
1748008227905107700,15.097107666015624,8.932159423828125,3.6280910968780518,1.7955138683319092
1748008227920915700,15.112915771484374,8.949080467224121,3.583879232406616,1.8000438213348389
1748008227936724000,15.128723876953124,8.915324211120605,3.6789605617523193,1.7755699157714844
1748008227952562400,15.1445625,8.813426971435547,3.9096076488494873,1.7913298606872559
1748008227968370700,15.16037060546875,8.652822494506836,4.208794593811035,1.8934369087219238
1748008227984178700,15.1761787109375,8.447098731994629,4.5257697105407715,2.0819029808044434
1748008227999986700,15.191986572265625,8.24061107635498,4.790067672729492,2.306072235107422
1748008228015764500,15.207764404296874,8.061028480529785,4.976441383361816,2.534806966781616
1748008228031572500,15.223572509765624,7.910460948944092,5.108645915985107,2.7380142211914062
1748008228047380500,15.23938037109375,7.784952163696289,5.218037128448486,2.8873863220214844
1748008228063158300,15.255158203125,7.664839267730713,5.328553199768066,3.004521369934082
1748008228078966300,15.27096630859375,7.543650150299072,5.45200252532959,3.0885915756225586
1748008228094713300,15.28671337890625,7.439664363861084,5.571497440338135,3.1273322105407715
1748008228110491000,15.302490966796874,7.3612799644470215,5.67925500869751,3.118976593017578
1748008228126329600,15.31832958984375,7.313056468963623,5.776727199554443,3.052706480026245
1748008228142168000,15.33416796875,7.279199600219727,5.876135349273682,2.9418835639953613
1748008228157976300,15.349976318359374,7.233811378479004,5.993529319763184,2.814243793487549
1748008228173784300,15.365784423828124,7.16706657409668,6.129276752471924,2.6898880004882812
1748008228189623000,15.381623046875,7.112845420837402,6.2428741455078125,2.5698935985565186
1748008228205431000,15.39743115234375,7.120996952056885,6.278342247009277,2.4584972858428955
1748008228237108500,15.4291083984375,7.433703899383545,5.959765911102295,2.3219897747039795
1748008228252886000,15.444885986328124,7.715640544891357,5.596141815185547,2.307049512863159
1748008228268663600,15.46066357421875,8.02474594116211,5.09916877746582,2.4025652408599854
1748008228284471600,15.476471435546875,8.287875175476074,4.5553154945373535,2.59434175491333
1748008228300249300,15.492249267578124,8.456391334533691,4.120070457458496,2.772158145904541
1748008228316027000,15.50802685546875,8.572592735290527,3.821709632873535,2.8417561054229736
1748008228331835000,15.5238349609375,8.687559127807617,3.569579601287842,2.8204262256622314
1748008228347643100,15.53964306640625,8.801139831542969,3.3007090091705322,2.795647144317627
1748008228363481600,15.555481689453124,8.879799842834473,3.0347208976745605,2.8478081226348877
1748008228379289900,15.571289794921874,8.896615982055664,2.844993829727173,2.9877476692199707
1748008228403032300,15.5950322265625,8.845376968383789,2.7384653091430664,3.2296290397644043
1748008228418840600,15.610840576171874,8.809779167175293,2.7156553268432617,3.3441593647003174
1748008228434679000,15.626678955078125,8.790642738342285,2.675806760787964,3.4256460666656494
1748008228450487300,15.6424873046875,8.779117584228516,2.614506483078003,3.5016908645629883
1748008228466326000,15.658325927734374,8.758095741271973,2.558572292327881,3.594419002532959
1748008228482164500,15.67416455078125,8.721126556396484,2.5378434658050537,3.697525978088379
1748008228498003200,15.690003173828124,8.676462173461914,2.5560762882232666,3.788912773132324
1748008228513811200,15.705811279296874,8.635727882385254,2.601334571838379,3.8506686687469482
1748008228529619500,15.721619384765624,8.604147911071777,2.6577398777008057,3.882711172103882
1748008228545397000,15.73739697265625,8.579442977905273,2.7310428619384766,3.8865082263946533
1748008228561174500,15.753174560546874,8.551576614379883,2.8336641788482666,3.8744373321533203
1748008228576921600,15.768921630859374,8.509146690368652,2.994257926940918,3.846977472305298
1748008228592729600,15.7847294921875,8.449728012084961,3.2100679874420166,3.8036751747131348
1748008228608537900,15.800537841796874,8.370034217834473,3.4739348888397217,3.747623920440674
1748008228624315400,15.8163154296875,8.288515090942383,3.752910852432251,3.6587681770324707
1748008228640123400,15.832123291015625,8.230141639709473,3.993196487426758,3.5340538024902344
1748008228655901200,15.847901123046874,8.21412467956543,4.1657023429870605,3.36830472946167
1748008228671739600,15.86373974609375,8.232576370239258,4.279307842254639,3.1753129959106445
1748008228687517200,15.87951708984375,8.265388488769531,4.332174301147461,3.01430082321167
1748008228703356000,15.89535595703125,8.298498153686523,4.330795764923096,2.9239585399627686
1748008228719164000,15.911163818359375,8.34378433227539,4.254242897033691,2.9074153900146484
1748008228734972200,15.92697216796875,8.377412796020508,4.132874965667725,2.984741449356079
1748008228750749700,15.942749755859374,8.3973970413208,4.054332256317139,3.0358693599700928
1748008228766619000,15.958618896484374,8.440863609313965,3.9673871994018555,3.0301907062530518
1748008228782427000,15.974427001953124,8.557405471801758,3.7875359058380127,2.931854486465454
1748008228798204700,15.99020458984375,8.713111877441406,3.5462448596954346,2.770597457885742
1748008228814012700,16.0060126953125,8.84288501739502,3.360985040664673,2.5840976238250732
1748008228829790200,16.021790283203124,8.913124084472656,3.2960002422332764,2.421360969543457
1748008228845598500,16.037598388671874,8.920294761657715,3.349717855453491,2.319074869155884
1748008228861376000,16.0533759765625,8.885375022888184,3.4462151527404785,2.3117318153381348
1748008228877184000,16.06918408203125,8.821455001831055,3.535633087158203,2.419011354446411
1748008228893053200,16.08505322265625,8.740375518798828,3.605564832687378,2.603099822998047
1748008228908830700,16.100830810546874,8.656147956848145,3.66597580909729,2.7932262420654297
1748008228924639000,16.116638916015624,8.58754825592041,3.7194106578826904,2.9309375286102295
1748008228940447000,16.132447021484374,8.54431438446045,3.7647135257720947,2.9986703395843506
1748008228956255000,16.1482548828125,8.5254545211792,3.7924857139587402,3.0172958374023438
1748008228972124200,16.164124267578124,8.519926071166992,3.7968525886535645,3.027400493621826
1748008228987963000,16.179962890625,8.50512981414795,3.7842445373535156,3.0842580795288086
1748008229003771000,16.19577099609375,8.466303825378418,3.7822766304016113,3.191627025604248
1748008229019579100,16.2115791015625,8.394308090209961,3.8225691318511963,3.3307578563690186
1748008229035326200,16.227326171875,8.300734519958496,3.8982882499694824,3.4744131565093994
1748008229051164700,16.24316455078125,8.182780265808105,4.011988639831543,3.6216628551483154
1748008229066973000,16.258972900390624,8.0342378616333,4.169168472290039,3.7735178470611572
1748008229082781000,16.274781005859374,7.843677520751953,4.3828535079956055,3.9290833473205566
1748008229098589200,16.290589111328124,7.624691963195801,4.618092060089111,4.087503433227539
1748008229114366700,16.30636669921875,7.406093120574951,4.841381072998047,4.2286176681518555
1748008229130144300,16.322144287109374,7.215182781219482,5.04681921005249,4.317537784576416
1748008229145921800,16.337921875,7.0653839111328125,5.243137359619141,4.331310749053955
1748008229161730000,16.35372998046875,6.9753804206848145,5.425020217895508,4.252481460571289
1748008229177538000,16.3695380859375,6.954834938049316,5.577231407165527,4.085968017578125
1748008229193346000,16.385345947265623,7.0033369064331055,5.666633605957031,3.8746516704559326
1748008229209154300,16.401154296875,7.113030433654785,5.658247947692871,3.6823108196258545
1748008229224931800,16.416931884765624,7.252678394317627,5.531463623046875,3.601661443710327
1748008229240709400,16.43270947265625,7.382837295532227,5.336947441101074,3.6305785179138184
1748008229256487000,16.44848681640625,7.505418300628662,5.1129326820373535,3.7009453773498535
1748008229272295200,16.464295166015624,7.665842056274414,4.8879876136779785,3.675980567932129
1748008229288133600,16.480133544921873,7.916784286499023,4.6415839195251465,3.456965684890747
1748008229303880700,16.495880615234373,8.196557998657227,4.366696834564209,3.149409532546997
1748008229319689000,16.51168896484375,8.410009384155273,4.127651214599609,2.899074077606201
1748008229335527700,16.527527587890624,8.506301879882812,3.996431827545166,2.800312042236328
1748008229351335700,16.543335693359374,8.504977226257324,3.97904896736145,2.828944206237793
1748008229375017200,16.567017333984374,8.46227741241455,4.005869388580322,2.9177467823028564
1748008229390795000,16.582794921875,8.467065811157227,3.9973864555358887,2.9154889583587646
1748008229414476500,16.6064765625,8.530889511108398,3.9416987895965576,2.803091049194336
1748008229430315300,16.622315185546874,8.576373100280762,3.8986103534698486,2.723426342010498
1748008229446123300,16.638123291015624,8.608770370483398,3.851914167404175,2.6874194145202637
1748008229461931300,16.65393115234375,8.625839233398438,3.7984108924865723,2.7087581157684326
1748008229477739500,16.669739501953124,8.631864547729492,3.742509603500366,2.7667551040649414
1748008229493547500,16.685547607421874,8.634753227233887,3.6736061573028564,2.8488667011260986
1748008229509325000,16.701324951171873,8.653032302856445,3.558908462524414,2.937617778778076
1748008229525163800,16.717163818359374,8.701349258422852,3.4020326137542725,2.980451822280884
1748008229540971800,16.7329716796875,8.764469146728516,3.2500202655792236,2.9651026725769043
1748008229556749600,16.74874951171875,8.816421508789062,3.155428647994995,2.9127936363220215
1748008229572557600,16.7645576171875,8.844367980957031,3.109200954437256,2.877570390701294
1748008229588365600,16.780365478515623,8.837027549743652,3.122345209121704,2.8858795166015625
1748008229604204300,16.796204345703124,8.800232887268066,3.1928443908691406,2.920963764190674
1748008229620012500,16.812012451171874,8.74451732635498,3.3090250492095947,2.9587438106536865
1748008229635851000,16.82785107421875,8.675558090209961,3.4733002185821533,2.973426580429077
1748008229651689700,16.843689697265624,8.59165096282959,3.663400411605835,2.988882541656494
1748008229667467300,16.85946728515625,8.48884391784668,3.86911678314209,3.0232183933258057
1748008229683244800,16.875244873046874,8.36624813079834,4.0946455001831055,3.0675976276397705
1748008229699053000,16.891052978515624,8.228242874145508,4.333771228790283,3.112046241760254
1748008229714861000,16.906861083984374,8.098108291625977,4.55595064163208,3.135977268218994
1748008229730699800,16.92269970703125,8.006914138793945,4.7233967781066895,3.122377395629883
1748008229746507800,16.9385078125,7.962006568908691,4.820208549499512,3.0890815258026123
1748008229762346500,16.954346435546874,7.952636241912842,4.823310852050781,3.1083176136016846
1748008229778154500,16.970154541015624,7.923130989074707,4.785539627075195,3.239287853240967
1748008229793932000,16.98593212890625,7.843430519104004,4.772663116455078,3.445675849914551
1748008229809770800,17.001770751953124,7.755379676818848,4.778090953826904,3.632398843765259
1748008229825578800,17.017578857421874,7.7108306884765625,4.769999027252197,3.7363884449005127
1748008229849321500,17.041321533203124,7.749600887298584,4.692646503448486,3.7540841102600098
1748008229865190700,17.057190673828124,7.7864484786987305,4.646231174468994,3.7355268001556396
1748008229881029400,17.073029296875,7.795080661773682,4.659616947174072,3.7006871700286865
1748008229896837400,17.08883740234375,7.785145282745361,4.723239421844482,3.6404550075531006
1748008229912676000,17.104676025390624,7.774600028991699,4.808341026306152,3.5504698753356934
1748008229928514600,17.1205146484375,7.765739917755127,4.896163463592529,3.4483695030212402
1748008229944292000,17.1362919921875,7.745338439941406,4.987711429595947,3.361971855163574
1748008229960070000,17.15206982421875,7.700175762176514,5.090047836303711,3.311962127685547
1748008229975938800,17.167938720703123,7.627738952636719,5.211030960083008,3.291372776031494
1748008229991747000,17.1837470703125,7.538108825683594,5.3515777587890625,3.272296190261841
1748008230007585500,17.19958544921875,7.447580337524414,5.501194953918457,3.2312216758728027
1748008230023363300,17.21536328125,7.381284236907959,5.633180141448975,3.155045986175537
1748008230039201800,17.231201904296874,7.33887243270874,5.739588260650635,3.0607962608337402
1748008230055010000,17.247010009765624,7.302666664123535,5.833082675933838,2.969275951385498
1748008230070818000,17.262818115234374,7.256020545959473,5.9327073097229,2.8850550651550293
1748008230086626300,17.278626220703124,7.195368766784668,6.048551559448242,2.795011281967163
1748008230102434300,17.294434326171874,7.118795871734619,6.17580509185791,2.7115602493286133
1748008230118242300,17.3102421875,7.031332015991211,6.307918548583984,2.6345653533935547
1748008230134081000,17.3260810546875,6.938055515289307,6.437972068786621,2.566378116607666
1748008230149889000,17.341888916015623,6.849217891693115,6.555211067199707,2.5075531005859375
1748008230165697300,17.357697265625,6.777085781097412,6.650642395019531,2.45162296295166
1748008230181505300,17.37350537109375,6.724316596984863,6.725017547607422,2.3933470249176025
1748008230197344000,17.389343994140624,6.671647071838379,6.797718524932861,2.334639310836792
1748008230213121500,17.40512158203125,6.620417594909668,6.866904258728027,2.277298927307129
1748008230228929500,17.420929443359373,6.585348129272461,6.9154863357543945,2.231511354446411
1748008230244768300,17.436768310546874,6.558870315551758,6.948099136352539,2.208059549331665
1748008230260545800,17.4525458984375,6.521076679229736,6.981186866760254,2.2156245708465576
1748008230276384500,17.468384521484374,6.452942371368408,7.034955024719238,2.244847059249878
1748008230292192500,17.484192626953124,6.346241474151611,7.119908332824707,2.280907392501831
1748008230308031200,17.50003125,6.2187910079956055,7.219717979431152,2.3179073333740234
1748008230323870000,17.515869873046874,6.073271751403809,7.327779769897461,2.364192247390747
1748008230339678000,17.531677978515624,5.898681163787842,7.447518825531006,2.4311349391937256
1748008230355547100,17.547547119140624,5.690229415893555,7.582942008972168,2.5081231594085693
1748008230371294200,17.563294189453124,5.476893424987793,7.721114635467529,2.5609402656555176
1748008230387071700,17.57907177734375,5.309445858001709,7.832808017730713,2.5743536949157715
1748008230402910500,17.594910400390624,5.233652591705322,7.892337322235107,2.547602415084839
1748008230418749000,17.6107490234375,5.249270439147949,7.895096302032471,2.5065929889678955
1748008230434587600,17.626587646484374,5.350530624389648,7.8275957107543945,2.504188299179077
1748008230450365200,17.642365234375,5.497950077056885,7.692226409912109,2.602421283721924
1748008230466204000,17.658203857421874,5.633848667144775,7.5160980224609375,2.817519426345825
1748008230482012000,17.674011962890624,5.719387054443359,7.357253074645996,3.0544755458831787
1748008230497850600,17.6898505859375,5.805744647979736,7.226274013519287,3.2007343769073486
1748008230513658600,17.70565869140625,5.997683525085449,7.074375152587891,3.186126470565796
1748008230529467000,17.721466796875,6.295843124389648,6.8766398429870605,3.040489435195923
1748008230545244400,17.737244384765624,6.584996700286865,6.683591842651367,2.852684259414673
1748008230561052400,17.753052490234374,6.76911735534668,6.5567216873168945,2.712717294692993
1748008230576830000,17.768829833984373,6.826611518859863,6.5169453620910645,2.6640546321868896
1748008230592638200,17.78463818359375,6.8047051429748535,6.533115863800049,2.680441379547119
1748008230608446200,17.8004462890625,6.7595953941345215,6.563249588012695,2.7206623554229736
1748008230624254500,17.81625439453125,6.718700885772705,6.591127872467041,2.7543575763702393
1748008230640062500,17.8320625,6.694670677185059,6.609321594238281,2.7692298889160156
1748008230655870500,17.847870361328123,6.683547496795654,6.620419502258301,2.769592761993408
1748008230671648300,17.863648193359374,6.683742046356201,6.627100467681885,2.7530925273895264
1748008230687486700,17.87948681640625,6.697315216064453,6.627893447875977,2.717974901199341
1748008230703325400,17.895325439453124,6.71956205368042,6.623161315917969,2.6742496490478516
1748008230719103000,17.91110302734375,6.734198570251465,6.622089385986328,2.6398656368255615
1748008230734911000,17.926910888671873,6.732429504394531,6.628859996795654,2.627354145050049
1748008230750749700,17.942749755859374,6.723442077636719,6.633928298950195,2.637558937072754
1748008230766527200,17.95852734375,6.713688373565674,6.631661415100098,2.6679282188415527
1748008230782305000,17.974304931640624,6.698511123657227,6.629237651824951,2.711742639541626
1748008230798143500,17.9901435546875,6.679223537445068,6.62985897064209,2.757413148880005
1748008230813890600,18.005890625,6.666805267333984,6.630200386047363,2.786491632461548
1748008230829698800,18.02169873046875,6.671748161315918,6.626286029815674,2.7839720249176025
1748008230845476400,18.037476318359374,6.695654392242432,6.611798286437988,2.760924816131592
1748008230861254000,18.05325390625,6.73375129699707,6.585470199584961,2.7310385704040527
1748008230877092600,18.069092529296874,6.777285575866699,6.548826217651367,2.711397886276245
1748008230892870100,18.0848701171875,6.812557697296143,6.508242130279541,2.720705509185791
1748008230908678100,18.10067822265625,6.828088283538818,6.476038932800293,2.7583529949188232
1748008230924455700,18.11645556640625,6.827935695648193,6.465702056884766,2.782870292663574
1748008230940233500,18.1322333984375,6.8182597160339355,6.471354961395264,2.7934372425079346
1748008230956011000,18.148010986328124,6.804239273071289,6.486169338226318,2.7932653427124023
1748008230971758000,18.163758056640624,6.78057336807251,6.510833263397217,2.7934319972991943
1748008230987566000,18.179566162109374,6.748974800109863,6.541418552398682,2.798496723175049
1748008231003374300,18.195374267578124,6.703970432281494,6.574422836303711,2.8291566371917725
1748008231019182300,18.211182373046874,6.644743919372559,6.614698886871338,2.874635934829712
1748008231034990300,18.226990234375,6.574624061584473,6.666910171508789,2.9149651527404785
1748008231050768100,18.24276806640625,6.506763935089111,6.724555015563965,2.9347517490386963
1748008231066576100,18.258576171875,6.449309349060059,6.780746936798096,2.9322798252105713
1748008231082323200,18.2743232421875,6.404355525970459,6.830725193023682,2.914757251739502
1748008231098100700,18.290100830078124,6.380729675292969,6.862895488739014,2.8909080028533936
1748008231113878300,18.305878173828123,6.384472370147705,6.8610520362854,2.8870179653167725
1748008231129656000,18.321656005859374,6.400949001312256,6.8112921714782715,2.96724534034729
1748008231145494500,18.33749462890625,6.374006271362305,6.7522101402282715,3.1543772220611572
1748008231161272000,18.35327197265625,6.285706520080566,6.723690986633301,3.3841192722320557
1748008231177080300,18.369080322265624,6.203408718109131,6.729547500610352,3.5215468406677246
1748008231192919000,18.3849189453125,6.228764533996582,6.715802192687988,3.5029807090759277
1748008231208757500,18.400757568359374,6.39201021194458,6.62433385848999,3.3809471130371094
1748008231224596200,18.41659619140625,6.572458267211914,6.4917073249816895,3.2910377979278564
1748008231240404200,18.432404296875,6.644444942474365,6.399442672729492,3.326991081237793
1748008231256212500,18.44821240234375,6.618579387664795,6.366356372833252,3.440103769302368
1748008231271990000,18.463989990234374,6.577686309814453,6.355370044708252,3.537471294403076
1748008231287828500,18.479828369140623,6.579744338989258,6.3387017250061035,3.563455581665039
1748008231303667200,18.495667236328124,6.627792835235596,6.312806606292725,3.520115375518799
1748008231319506000,18.511505859375,6.688690662384033,6.289332866668701,3.4461708068847656
1748008231335283500,18.527283447265624,6.729265213012695,6.275806903839111,3.391406297683716
1748008231351091500,18.543091552734374,6.73193359375,6.272162437438965,3.392850637435913
1748008231366930200,18.55893017578125,6.686108112335205,6.284775733947754,3.459472417831421
1748008231382768600,18.5747685546875,6.606062889099121,6.313937664031982,3.558722496032715
1748008231398546400,18.59054638671875,6.525523662567139,6.342733860015869,3.654813766479492
1748008231414324000,18.606323974609374,6.46476936340332,6.360305309295654,3.731442451477051
1748008231430101500,18.6221015625,6.427201271057129,6.364009857177734,3.789571762084961
1748008231445940200,18.637940185546874,6.406766414642334,6.360620498657227,3.829651117324829
1748008231461809400,18.653809326171874,6.393168926239014,6.356292247772217,3.8594446182250977
1748008231477617400,18.669617431640624,6.385900497436523,6.3523430824279785,3.877939224243164
1748008231493456100,18.6854560546875,6.388429641723633,6.3452863693237305,3.8853182792663574
1748008231509233700,18.701233642578124,6.400292873382568,6.336409091949463,3.880280017852783
1748008231525011200,18.71701123046875,6.419239521026611,6.328330039978027,3.862124443054199
1748008231540850000,18.732849853515624,6.442028522491455,6.321477890014648,3.835305690765381
1748008231556658000,18.748657958984374,6.464887619018555,6.31545352935791,3.8066608905792236
1748008231572466000,18.7644658203125,6.483156681060791,6.310121059417725,3.7843689918518066
1748008231588243700,18.78024365234375,6.488959789276123,6.310974597930908,3.7729809284210205
1748008231604082200,18.796082275390624,6.482107639312744,6.319509506225586,3.7704732418060303
1748008231619921000,18.8119208984375,6.4663405418396,6.331396102905273,3.7775990962982178
1748008231635759600,18.827759521484374,6.4458088874816895,6.342138767242432,3.7946293354034424
1748008231651537200,18.843537109375,6.422073841094971,6.3517866134643555,3.8186604976654053
1748008231667314700,18.859314697265624,6.397500514984131,6.360208034515381,3.8457958698272705
1748008231683122700,18.875122802734374,6.371649265289307,6.369993209838867,3.872424840927124
1748008231698961400,18.89096142578125,6.361141204833984,6.375912189483643,3.8799493312835693
1748008231714769400,18.906769287109373,6.415632724761963,6.3477559089660645,3.8361504077911377
1748008231730516500,18.9225166015625,6.457642555236816,6.332231044769287,3.7910544872283936
1748008231746324700,18.93832470703125,6.438044548034668,6.365379333496094,3.768808364868164
1748008231762071800,18.95407177734375,6.406713008880615,6.411705017089844,3.7435901165008545
1748008231777879800,18.9698798828125,6.362476348876953,6.4677300453186035,3.7225990295410156
1748008231793657300,18.9856572265625,6.307628631591797,6.529896259307861,3.7073781490325928
1748008231809435100,19.00143505859375,6.271041393280029,6.577830791473389,3.6846389770507812
1748008231825304000,19.017303955078123,6.230044364929199,6.620830059051514,3.6771652698516846
1748008231841112300,19.0331123046875,6.164401054382324,6.679090976715088,3.68243145942688
1748008231856920300,19.04892041015625,6.095303058624268,6.735143184661865,3.6953377723693848
1748008231872728600,19.064728515625,6.025021553039551,6.788219451904297,3.713432550430298
1748008231888506000,19.080506103515624,5.954447269439697,6.837789058685303,3.7362537384033203
1748008231904344600,19.096344482421873,5.879737377166748,6.888118267059326,3.762035369873047
1748008231920183300,19.112183349609374,5.800984859466553,6.940821170806885,3.787343978881836
1748008231936022000,19.12802197265625,5.718299388885498,6.991557598114014,3.8196301460266113
1748008231951830000,19.143830078125,5.6291961669921875,7.032605171203613,3.8762102127075195
1748008231967638300,19.15963818359375,5.523350238800049,7.058506965637207,3.9800095558166504
1748008231983446300,19.1754462890625,5.385554313659668,7.068202018737793,4.148098468780518
1748008231999254300,19.191254150390623,5.1972503662109375,7.070239067077637,4.378437042236328
1748008232015032000,19.207031982421874,4.953851222991943,7.0714430809021,4.650210380554199
1748008232030809600,19.2228095703125,4.681809425354004,7.066838264465332,4.930603981018066
1748008232046648000,19.23864794921875,4.427860736846924,7.046637535095215,5.1874213218688965
1748008232062456300,19.254456298828124,4.2436933517456055,7.0118088722229,5.384792804718018
1748008232078294800,19.270294677734373,4.14846658706665,6.961813449859619,5.5221171379089355
1748008232094103000,19.28610302734375,4.1544599533081055,6.911144256591797,5.580945014953613
1748008232109911000,19.3019111328125,4.211854457855225,6.882625102996826,5.57316255569458
1748008232125719300,19.31771923828125,4.279468059539795,6.892757415771484,5.508761405944824
1748008232141496800,19.333496826171874,4.369804382324219,6.934072017669678,5.384592533111572
1748008232157304800,19.349304931640624,4.475285053253174,7.000284671783447,5.209437370300293
1748008232173082400,19.365082275390623,4.601277828216553,7.0700812339782715,5.001258373260498
1748008232188890600,19.380890625,4.7374372482299805,7.136528968811035,4.774624824523926
1748008232204668200,19.396668212890624,4.860926628112793,7.202225685119629,4.546397686004639
1748008232220476200,19.41247607421875,4.966822147369385,7.27400541305542,4.3116021156311035
1748008232236254000,19.42825390625,5.058804512023926,7.3529839515686035,4.063559532165527
1748008232252062000,19.44406201171875,5.1481242179870605,7.435410022735596,3.7923436164855957
1748008232267870200,19.4598701171875,5.237329006195068,7.516560077667236,3.4988701343536377
1748008232283647700,19.475647705078124,5.322412014007568,7.581563472747803,3.2190380096435547
1748008232307390500,19.499390380859374,5.465997695922852,7.607301235198975,2.902107000350952
1748008232323198500,19.515198486328124,5.621144771575928,7.522583961486816,2.825572967529297
1748008232339037200,19.531037109375,5.801302909851074,7.37814998626709,2.8422129154205322
1748008232354845200,19.54684521484375,5.983973026275635,7.212894916534424,2.887315273284912
1748008232370653200,19.562653076171873,6.203208923339844,7.0239973068237305,2.8903374671936035
1748008232386431000,19.578430908203124,6.477001190185547,6.794436931610107,2.8380396366119385
1748008232402239000,19.594239013671874,6.770431041717529,6.533635139465332,2.764643669128418
1748008232418047000,19.610046875,7.002600193023682,6.302444934844971,2.7227115631103516
1748008232433855200,19.625855224609374,7.127260684967041,6.151259899139404,2.74491286277771
1748008232449693700,19.641693603515623,7.1378679275512695,6.097289562225342,2.83624529838562
1748008232465502000,19.657501953125,7.101021766662598,6.081875324249268,2.959167003631592
1748008232481310000,19.67331005859375,7.070033073425293,6.053894519805908,3.087942123413086
1748008232497118200,19.6891181640625,7.071218967437744,5.992860317230225,3.202165365219116
1748008232512865300,19.704865234375,7.092275619506836,5.92302131652832,3.2844858169555664
1748008232528734500,19.720734375,7.09532356262207,5.889856815338135,3.337118148803711
1748008232544542500,19.73654248046875,7.069811820983887,5.901495456695557,3.370534658432007
1748008232560350500,19.7523505859375,7.02673864364624,5.940649032592773,3.3917579650878906
1748008232576158700,19.76815869140625,6.981579780578613,5.986799716949463,3.4038474559783936
1748008232591997200,19.7839970703125,6.943399906158447,6.02505350112915,3.414428472518921
1748008232607805400,19.799805419921874,6.907743453979492,6.058473587036133,3.4275896549224854
1748008232623613400,19.815613525390624,6.86558198928833,6.094116687774658,3.4490468502044678
1748008232639421700,19.831421630859374,6.8165998458862305,6.133997917175293,3.4754035472869873
1748008232655199200,19.84719921875,6.764491558074951,6.178895473480225,3.4976112842559814
1748008232670976800,19.862976806640624,6.718346118927002,6.220125675201416,3.5134377479553223
1748008232686815500,19.8788154296875,6.689846038818359,6.244751453399658,3.5241217613220215
1748008232702654000,19.894654052734374,6.684353351593018,6.245752811431885,3.532759189605713
1748008232718462200,19.910462158203124,6.701870918273926,6.217409610748291,3.549525022506714
1748008232734239700,19.92623974609375,6.731178283691406,6.168618679046631,3.579075813293457
1748008232750017300,19.942017333984374,6.754886627197266,6.113171577453613,3.629192352294922
1748008232765856000,19.95785595703125,6.75881290435791,6.062379360198975,3.7062642574310303
1748008232781633500,19.973633544921874,6.737834930419922,6.018659591674805,3.8141438961029053
1748008232797411000,19.9894111328125,6.6957855224609375,5.980184555053711,3.9464218616485596
1748008232813188600,20.005188720703124,6.64603853225708,5.939850330352783,4.0888566970825195
1748008232829027300,20.02102734375,6.601405143737793,5.884541988372803,4.238397121429443
1748008232844866000,20.036865966796874,6.565584182739258,5.808494567871094,4.396008014678955
1748008232860674000,20.052674072265624,6.542355060577393,5.71025276184082,4.556424140930176
1748008232876512800,20.0685126953125,6.514678955078125,5.614490509033203,4.7124128341674805
1748008232892320800,20.08432080078125,6.453865051269531,5.565451145172119,4.852193355560303
1748008232908098300,20.100098388671874,6.354926109313965,5.578678607940674,4.966249465942383
1748008232923937000,20.11593701171875,6.24200963973999,5.647424221038818,5.031332969665527
1748008232939714600,20.131714599609374,6.170557975769043,5.720372200012207,5.037058353424072
1748008232955522600,20.1475224609375,6.176624774932861,5.74523401260376,5.001197814941406
1748008232971300400,20.16330029296875,6.217440128326416,5.731227397918701,4.966573715209961
1748008232987138800,20.179138916015624,6.241692066192627,5.725376605987549,4.942847728729248
1748008233002977500,20.1949775390625,6.257569313049316,5.750187397003174,4.8937273025512695
1748008233018785500,20.21078564453125,6.307271480560303,5.782039165496826,4.791318893432617
1748008233034624300,20.226624267578124,6.392157077789307,5.772994518280029,4.6886305809021
1748008233050401800,20.24240185546875,6.481591701507568,5.712364673614502,4.639854907989502
1748008233066240500,20.258240478515624,6.558327674865723,5.616849899291992,4.648627281188965
1748008233082109700,20.274109619140624,6.659524440765381,5.49570894241333,4.6495490074157715
1748008233097948200,20.2899482421875,6.818235397338867,5.351809501647949,4.586958885192871
1748008233113756400,20.30575634765625,6.998204231262207,5.205930709838867,4.482612133026123
1748008233129534000,20.321533935546874,7.145644664764404,5.089707374572754,4.382355213165283
1748008233145342000,20.337342041015624,7.22879695892334,5.0203938484191895,4.32556676864624
1748008233161180700,20.3531806640625,7.236917495727539,4.999598026275635,4.336061954498291
1748008233176927700,20.368927734375,7.207731246948242,4.996459484100342,4.387983798980713
1748008233192705300,20.384705322265624,7.171878337860107,4.989097595214844,4.454598903656006
1748008233208544000,20.4005439453125,7.142870903015137,4.975899696350098,4.5155510902404785
1748008233224352000,20.41635205078125,7.113980293273926,4.970009803771973,4.567349433898926
1748008233240160000,20.432159912109373,7.08025598526001,4.977741718292236,4.611123561859131
1748008233255937800,20.447937744140624,7.045803546905518,4.992318630218506,4.647988796234131
1748008233271745800,20.463745849609374,7.009947299957275,5.002233028411865,4.691342830657959
1748008233287523300,20.4795234375,6.9756293296813965,4.99906587600708,4.7455596923828125
1748008233303331600,20.49533154296875,6.949748516082764,4.981292247772217,4.801886081695557
1748008233319139600,20.5111396484375,6.928512096405029,4.95767879486084,4.8566999435424805
1748008233334917000,20.526917236328124,6.910416126251221,4.928561210632324,4.911805152893066
1748008233350755800,20.542755859375,6.887002468109131,4.897213459014893,4.975629806518555
1748008233366594600,20.558594482421874,7.287161350250244,4.52147912979126,4.756458759307861
1748008233382372000,20.5743720703125,7.25067138671875,4.492722034454346,4.838759899139404
1748008233398180000,20.59018017578125,7.217252254486084,4.4686126708984375,4.910515785217285
1748008233413957600,20.60595751953125,7.194267272949219,4.458558082580566,4.953197479248047
1748008233429766000,20.621765869140624,7.190319538116455,4.452817440032959,4.964083194732666
1748008233445543400,20.63754345703125,7.204324722290039,4.43912935256958,4.956029891967773
1748008233461321000,20.653321044921874,7.226944446563721,4.419240474700928,4.9408488273620605
1748008233477129200,20.669129150390624,7.249581336975098,4.393238067626953,4.930863857269287
1748008233492937200,20.684937255859374,7.269867897033691,4.358179569244385,4.9321088790893555
1748008233508714800,20.70071484375,7.2882280349731445,4.313763618469238,4.944042682647705
1748008233524553500,20.716553466796874,7.302173137664795,4.267092704772949,4.963927745819092
1748008233540331000,20.7323310546875,7.310958385467529,4.223720073699951,4.988030910491943
1748008233556139000,20.748138916015623,7.318233489990234,4.182464122772217,5.012070178985596
1748008233571947300,20.763947265625,7.327785491943359,4.145831108093262,5.028521537780762
1748008233587755300,20.77975537109375,7.342875003814697,4.112618923187256,5.033779621124268
1748008233603594000,20.795593994140624,7.365169048309326,4.079789161682129,5.0279221534729
1748008233619402000,20.811402099609374,7.390356063842773,4.045444488525391,5.01870584487915
1748008233635210200,20.827210205078124,7.410486698150635,4.0131025314331055,5.014986991882324
1748008233651018200,20.843018310546874,7.420060157775879,3.985530138015747,5.02281379699707
1748008233666795800,20.858795654296873,7.42165470123291,3.9587631225585938,5.041589736938477
1748008233682634500,20.874634521484374,7.4212327003479,3.9274959564208984,5.066604137420654
1748008233698442500,20.8904423828125,7.421809673309326,3.8892009258270264,5.095217704772949
