time,seconds_elapsed,z,y,x
1748008212911087600,0.103087646484375,-0.024434609338641167,0.5955936312675476,0.675616979598999
1748008212926834700,0.118834716796875,-0.024434609338641167,0.5955936312675476,0.675616979598999
1748008212942612200,0.1346123046875,-0.024434609338641167,0.5955936312675476,0.675616979598999
1748008212958420500,0.15042041015625,-0.024434609338641167,0.5955936312675476,0.675616979598999
1748008212974259000,0.166259033203125,-0.024434609338641167,0.5955936312675476,0.675616979598999
1748008212990067200,0.182067138671875,-0.024434609338641167,0.5955936312675476,0.675616979598999
1748008213005905700,0.19790576171875,-0.024434609338641167,0.5955936312675476,0.675616979598999
1748008213021744400,0.213744384765625,-0.024434609338641167,0.5955936312675476,0.675616979598999
1748008213037522000,0.22952197265625,0.50335294008255,-0.6884451508522034,-0.9584475755691528
1748008213053391000,0.24539111328125,0.6096435189247131,-0.6377432942390442,-1.1062769889831543
1748008213069229800,0.261229736328125,0.6151412725448608,-0.42210787534713745,-1.1020009517669678
1748008213085068300,0.277068359375,0.513737678527832,-0.00427605677396059,-0.9841039180755615
1748008213108780500,0.300780517578125,0.303600013256073,0.34697145223617554,-0.8069530129432678
1748008213124527600,0.316527587890625,0.2278527319431305,0.34208452701568604,-0.6835582256317139
1748008213140305200,0.33230517578125,0.22479841113090515,0.3078760802745819,-0.50335294008255
1748008213156082700,0.348082763671875,0.24373523890972137,0.21074850857257843,-0.35552358627319336
1748008213171891000,0.363890869140625,0.2638937830924988,0.04337143152952194,-0.23029619455337524
1748008213187668500,0.37966845703125,0.2840523421764374,-0.08979719132184982,-0.1667662113904953
1748008213203507200,0.395507080078125,0.2779437005519867,-0.10812314599752426,-0.13927727937698364
1748008213219345700,0.411345703125,0.2321287989616394,-0.04581489413976669,-0.15882496535778046
1748008213235154000,0.42715380859375,0.19914206862449646,-0.04703662544488907,-0.22479841113090515
1748008213250992400,0.442992431640625,0.28466320037841797,0.039095375686883926,-0.23945917189121246
1748008213266770000,0.45877001953125,0.45814892649650574,0.1612684279680252,-0.1014036312699318
1748008213282578200,0.474578125,0.675006091594696,0.5894849896430969,0.24129177629947662
1748008213298355700,0.490355712890625,0.7874053120613098,0.9743300676345825,0.45875978469848633
1748008213314133200,0.50613330078125,0.8668177723884583,1.0684033632278442,0.5320636034011841
1748008213329941500,0.52194140625,0.93095862865448,1.0415252447128296,0.5968153476715088
1748008213345749500,0.53774951171875,0.9669997096061707,0.9841039180755615,0.8472700715065002
1748008213361527000,0.553527099609375,0.8429940342903137,0.7812966704368591,1.1172724962234497
1748008213377396200,0.569396240234375,0.5766568183898926,0.3274237811565399,1.0977247953414917
1748008213393173800,0.585173828125,0.3280346393585205,0.2577851414680481,0.6719517707824707
1748008213408951600,0.60095166015625,0.35185837745666504,0.17592918872833252,0.23090706765651703
1748008213424759600,0.616759521484375,0.2076941877603531,0.1722639948129654,0.0861319974064827
1748008213440567600,0.632567626953125,-0.11911872029304504,-0.00855211354792118,0.2376265823841095
1748008213456406300,0.64840625,-0.3891211748123169,-0.17837265133857727,0.18997909128665924
1748008213472153300,0.6641533203125,-0.6768386960029602,-1.0018190145492554,0.17898350954055786
1748008213495957000,0.68795703125,-1.5949691534042358,-0.7678576111793518,0.18936823308467865
1748008213511704000,0.7037041015625,-1.9914207458496094,-1.004873275756836,-0.5760459303855896
1748008213527542800,0.719542724609375,-2.0665571689605713,-2.476447820663452,-1.3182471990585327
1748008213543350800,0.735350830078125,-2.070833206176758,-0.7751879692077637,-1.7165313959121704
1748008213559159000,0.751158935546875,-1.9016234874725342,0.6395758986473083,-1.0922271013259888
1748008213574997500,0.76699755859375,-1.4587461948394775,-0.1258382350206375,-0.5155702829360962
1748008213590775000,0.782775146484375,-1.2559388875961304,-0.03176499158143997,-0.5503895878791809
1748008213622391300,0.814391357421875,-0.9731083512306213,-1.3225232362747192,-0.41722095012664795
1748008213638230000,0.83022998046875,-0.7434229850769043,-1.585806131362915,0.5076290369033813
1748008213654068700,0.84606884765625,-0.5583308339118958,-1.50211763381958,1.4611896276474
1748008213669846300,0.86184619140625,-0.38728857040405273,-1.7299703359603882,2.0360138416290283
1748008213685715500,0.877715576171875,-0.2590068578720093,-1.6022995710372925,2.0030272006988525
1748008213701523500,0.8935234375,-0.24129177629947662,-1.2064588069915771,1.5968017578125
1748008213717331500,0.90933154296875,-0.3029891550540924,-0.9205739498138428,1.2919800281524658
1748008213733170200,0.925170166015625,-0.3628539443016052,-0.7275404930114746,1.168585181236267
1748008213748947700,0.94094775390625,-0.3689626157283783,-0.5760459303855896,1.2510520219802856
1748008213764725200,0.956725341796875,-0.35185837745666504,-0.5638286471366882,1.208902359008789
1748008213796341500,0.988341552734375,-0.23640485107898712,-0.43249258399009705,0.4899139404296875
1748008213812149800,1.004149658203125,-0.03481931984424591,-0.5290092825889587,0.15332718193531036
1748008213827957800,1.019957763671875,0.036041051149368286,-0.8093964457511902,0.04764748737215996
1748008213843765800,1.035765869140625,0.1466076523065567,-0.7104362845420837,-0.24190263450145721
1748008213859574000,1.051573974609375,0.2028072625398636,-0.36102136969566345,-0.44593164324760437
1748008213875382000,1.067382080078125,0.33292156457901,-0.22663100063800812,-0.3793473243713379
1748008213907028700,1.09902880859375,0.6872233748435974,0.03848451003432274,0.2871066629886627
1748008213922867500,1.114867431640625,0.7910705208778381,0.051312681287527084,0.6377432942390442
1748008213946549000,1.138549072265625,1.036027431488037,0.013439035043120384,1.0415252447128296
1748008213962357200,1.154357177734375,1.1826350688934326,-0.039095375686883926,1.1557570695877075
1748008213978165200,1.170165283203125,1.1679743528366089,0.05253441259264946,1.197906732559204
1748008213994004000,1.18600390625,0.9761626720428467,0.13561208546161652,1.131933331489563
1748008214009873200,1.201873046875,0.7379252314567566,0.031154127791523933,0.9266825914382935
1748008214025650700,1.217650634765625,0.7513642311096191,0.042760565876960754,0.6982190012931824
1748008214041458700,1.233458740234375,0.9474520087242126,0.2577851414680481,0.5143485069274902
1748008214057267000,1.249266845703125,1.141707181930542,0.3188716471195221,0.3225368559360504
1748008214073044500,1.26504443359375,1.2541064023971558,0.47708576917648315,0.2583959996700287
1748008214088852500,1.2808525390625,1.3994922637939453,0.5400048494338989,0.3280346393585205
1748008214104599600,1.296599609375,1.4801265001296997,0.778853178024292,0.5320636034011841
1748008214120407800,1.31240771484375,1.474017858505249,0.9150761365890503,0.816726803779602
1748008214136185300,1.328185302734375,1.3756685256958008,0.8973610401153564,1.0885618925094604
1748008214151993300,1.343993408203125,1.2626584768295288,0.8362745046615601,1.2870930433273315
1748008214167832000,1.35983203125,1.1465940475463867,0.7012733221054077,1.46424400806427
1748008214183609600,1.375609619140625,1.0684033632278442,0.3695734739303589,1.5809192657470703
1748008214199387100,1.39138720703125,0.9566149711608887,0.21807889640331268,1.718363881111145
1748008214215195400,1.4071953125,0.8436049222946167,0.29077184200286865,1.890017032623291
1748008214231003400,1.42300341796875,0.4899139404296875,0.1612684279680252,1.9156733751296997
1748008214246811600,1.438811767578125,0.3084869384765625,0.19120082259178162,1.9529361724853516
1748008214262558700,1.454558837890625,0.02382374368607998,-0.21319197118282318,1.5809192657470703
1748008214278397200,1.470397216796875,-0.4331034719944,-0.5180137157440186,1.06657075881958
1748008214294205400,1.486205322265625,-0.7580837607383728,-0.940121591091156,-0.031154127791523933
1748008214309983000,1.50198291015625,-0.8515461683273315,-0.694553792476654,-0.8533787727355957
1748008214325821400,1.517821533203125,-0.788016140460968,0.10873401165008545,-1.291369080543518
1748008214341599200,1.53359912109375,-0.6811147332191467,0.9095783233642578,-1.4147639274597168
1748008214357437700,1.549437744140625,-0.513126790523529,1.5173892974853516,-1.4984524250030518
1748008214373246000,1.565245849609375,-0.32131510972976685,1.4984524250030518,-1.4941763877868652
1748008214389054000,1.581053955078125,-0.21441370248794556,1.0299187898635864,-1.3420709371566772
1748008214404892700,1.596892578125,-0.0507018156349659,0.34208452701568604,-0.8527678847312927
1748008214420639700,1.6126396484375,0.12095131725072861,-0.02932153269648552,-0.29138273000717163
1748008214436447700,1.62844775390625,0.4092797040939331,-0.0959058403968811,0.2681698501110077
1748008214452194800,1.64419482421875,0.6609562039375305,-0.014049900695681572,0.5717698931694031
1748008214468033500,1.660033447265625,0.7177666425704956,0.07147123664617538,0.7684684991836548
1748008214483872000,1.6758720703125,0.5913175344467163,0.08246681094169617,0.817948579788208
1748008214499649800,1.69164990234375,0.34147366881370544,0.042760565876960754,0.7843509912490845
1748008214515457800,1.707457763671875,0.152105450630188,0.01038470957428217,0.7525860071182251
1748008214531265800,1.723265869140625,0.07696902006864548,-0.07696902006864548,0.778853178024292
1748008214547012900,1.739012939453125,0.06963863968849182,-0.18936823308467865,0.9132435321807861
1748008214562851600,1.7548515625,0.06108652427792549,-0.19120082259178162,1.1856894493103027
1748008214578568200,1.770568115234375,-0.0354301854968071,0.03420845419168472,1.2302825450897217
1748008214594345700,1.786345703125,-0.1007927656173706,0.16004669666290283,1.2986994981765747
1748008214610215000,1.80221484375,-0.1264491081237793,0.2028072625398636,1.3445143699645996
1748008214625962000,1.8179619140625,-0.02321287989616394,0.1612684279680252,1.3536773920059204
1748008214641831200,1.8338310546875,0.16982053220272064,-0.003054326167330146,1.156978726387024
1748008214657578200,1.849578125,0.10567969083786011,-0.08796459436416626,1.189354658126831
1748008214673355800,1.865355712890625,-0.19303341209888458,0.3280346393585205,1.2559388875961304
1748008214689163800,1.881163818359375,-0.49296826124191284,0.21074850857257843,0.7220427393913269
1748008214704972000,1.896971923828125,-0.7299839854240417,-0.1612684279680252,-0.5338962078094482
1748008214720810500,1.912810546875,-0.7073819637298584,-0.012217304669320583,-1.350012183189392
1748008214736557600,1.9285576171875,-0.47342056035995483,0.24556782841682434,-1.570534586906433
1748008214752365800,1.94436572265625,-0.14905111491680145,0.6621779203414917,-1.0586295127868652
1748008214768204300,1.960204345703125,0.182648703455925,1.2846496105194092,-0.23151792585849762
1748008214783981800,1.97598193359375,0.3646865487098694,1.6041321754455566,0.0507018156349659
1748008214807755300,1.99975537109375,0.5283984541893005,1.3420709371566772,-0.3139847218990326
1748008214823563300,2.015563232421875,0.6133087277412415,0.759916365146637,-0.6218608021736145
1748008214839402000,2.031402099609375,0.7586946487426758,0.152105450630188,-0.5858197808265686
1748008214855149000,2.047149169921875,0.9480628371238708,-0.42210787534713745,-0.2119702398777008
1748008214870926600,2.062926513671875,1.0751228332519531,-0.6432411074638367,0.2474004179239273
1748008214886734600,2.078734619140625,1.0519099235534668,-0.4996877610683441,0.6768386960029602
1748008214902512000,2.09451220703125,0.7574729323387146,-0.21380282938480377,0.8216137290000916
1748008214918381300,2.11038134765625,0.22052235901355743,-0.19853121042251587,0.5516113042831421
1748008214934158800,2.126158935546875,-0.4288274049758911,0.04948008432984352,0.0861319974064827
1748008214949967000,2.141967041015625,-1.2986994981765747,0.9395107626914978,-0.6291912198066711
1748008214965744600,2.15774462890625,-1.4269812107086182,1.4672982692718506,-1.214400053024292
1748008214981552600,2.173552734375,-0.7305948138237,1.9333884716033936,-1.3738359212875366
1748008214997391400,2.189391357421875,0.7953465580940247,0.8998045325279236,-0.9181304574012756
1748008215013169000,2.2051689453125,1.568701982498169,-0.17898350954055786,-0.05314527451992035
1748008215028977200,2.22097705078125,1.3897184133529663,-1.2498302459716797,0.6499606370925903
1748008215044785200,2.23678515625,0.8197811841964722,-1.940108060836792,0.7153232097625732
1748008215060593200,2.25259326171875,0.29138273000717163,-2.1728477478027344,0.33292156457901
1748008215076432000,2.268431884765625,0.11301007121801376,-2.0085248947143555,0.1007927656173706
1748008215092209400,2.28420947265625,0.07208210229873657,-1.7708983421325684,0.252287358045578
1748008215108017700,2.300017578125,0.029932396486401558,-1.4190399646759033,0.6206390857696533
1748008215123825700,2.31582568359375,-0.08979719132184982,-0.817948579788208,0.9230173826217651
1748008215139603200,2.331603271484375,-0.1918116807937622,-0.33658674359321594,0.9395107626914978
1748008215155442000,2.34744189453125,-0.2070833146572113,0.0403171069920063,0.7556403279304504
1748008215171219500,2.363219482421875,-0.09896016865968704,0.14538592100143433,0.5277875661849976
1748008215187058200,2.37905810546875,0.09957103431224823,-0.05619960278272629,0.29993483424186707
1748008215202896600,2.394896728515625,0.2474004179239273,-0.3830125033855438,0.22357667982578278
1748008215218735400,2.4107353515625,0.30970868468284607,-0.6725626587867737,0.2675589919090271
1748008215234574000,2.426573974609375,0.2571742534637451,-0.6304129362106323,0.34697145223617554
1748008215250351600,2.4423515625,0.18570303916931152,-0.3933972120285034,0.3384193480014801
1748008215266190000,2.458190185546875,0.1362229436635971,0.0024434609804302454,0.1612684279680252
1748008215281998300,2.473998291015625,0.12522737681865692,0.29626965522766113,-0.03726277872920036
1748008215297806300,2.489806396484375,0.09896016865968704,0.4801400899887085,-0.17043140530586243
1748008215313614600,2.505614501953125,0.0555887371301651,0.5552765130996704,-0.19058994948863983
1748008215329361700,2.521361572265625,-0.00427605677396059,0.5748242139816284,-0.14233160018920898
1748008215345200000,2.5372001953125,-0.07880161702632904,0.59803706407547,-0.07757988572120667
1748008215360978000,2.55297802734375,-0.1765400618314743,0.645684540271759,-0.03848451003432274
1748008215376786000,2.568785888671875,-0.24617868661880493,0.720820963382721,-0.04214970022439957
1748008215392624600,2.584624755859375,-0.3017674386501312,0.8100073337554932,-0.1014036312699318
1748008215408432600,2.6004326171875,-0.30115658044815063,0.8772025108337402,-0.14538592100143433
1748008215432114200,2.6241142578125,-0.22418753802776337,1.0213667154312134,-0.08796459436416626
1748008215447892000,2.63989208984375,-0.06475171446800232,0.9358455538749695,-0.006719517521560192
1748008215463730400,2.65573046875,0.10384709388017654,0.6969972252845764,0.05253441259264946
1748008215479538700,2.67153857421875,0.24068090319633484,0.3579670190811157,0.09773843735456467
1748008215495377200,2.687377197265625,0.303600013256073,0.11301007121801376,0.10018189996480942
1748008215511215900,2.7032158203125,0.3683517575263977,-0.11545353382825851,0.05497787147760391
1748008215526993400,2.718993408203125,0.423329621553421,-0.2480112910270691,0.013439035043120384
1748008215542801400,2.734801513671875,0.4740314185619354,-0.2919935882091522,0.006719517521560192
1748008215574387200,2.76638720703125,0.4086688458919525,-0.0861319974064827,0.07147123664617538
1748008215590226000,2.782225830078125,0.3585779070854187,0.12889257073402405,0.0403171069920063
1748008215606003500,2.79800341796875,0.33597588539123535,0.24190263450145721,-0.03176499158143997
1748008215621872600,2.81387255859375,0.323147714138031,0.23884831368923187,-0.08124507963657379
1748008215637711000,2.829711181640625,0.29504790902137756,0.20402899384498596,-0.04764748737215996
1748008215653489000,2.845489013671875,0.2687807083129883,0.2168571650981903,0.08796459436416626
1748008215669327400,2.861327392578125,0.27061331272125244,0.2742784917354584,0.1966986060142517
1748008215685105000,2.87710498046875,0.28038713335990906,0.32070425152778625,0.21868975460529327
1748008215700943600,2.892943603515625,0.2987131178379059,0.22479841113090515,0.16982053220272064
1748008215716751600,2.908751708984375,0.2968805134296417,-0.10751228034496307,0.1014036312699318
1748008215732529400,2.924529296875,0.2528982162475586,-0.4153883755207062,0.13927727937698364
1748008215748368000,2.940367919921875,0.14477506279945374,-0.5510004758834839,0.27611109614372253
1748008215764084500,2.95608447265625,0.06352998316287994,-0.4948008358478546,0.2785545587539673
1748008215779892500,2.971892578125,0.0806342139840126,-0.3488040566444397,-0.07147123664617538
1748008215795700700,2.98770068359375,0.21135938167572021,-0.26572638750076294,-0.6725626587867737
1748008215811508700,3.0035087890625,0.29565876722335815,-0.36102136969566345,-1.166752576828003
1748008215827317000,3.01931689453125,0.28649580478668213,-0.6145304441452026,-1.6713273525238037
1748008215843094500,3.035094482421875,0.12522737681865692,-0.6933320760726929,-1.7104226350784302
1748008215858933000,3.05093310546875,-0.14905111491680145,-0.4178318381309509,-1.3445143699645996
1748008215874741200,3.0667412109375,-0.22968533635139465,0.1667662113904953,-1.0806206464767456
1748008215890549200,3.08254931640625,-0.027488935738801956,0.7910705208778381,-1.218676209449768
1748008215906388000,3.098387939453125,0.2528982162475586,1.2589932680130005,-1.415374755859375
1748008215922165500,3.11416552734375,0.4691445231437683,1.5925257205963135,-1.3915510177612305
1748008215938004200,3.130004150390625,0.4386012554168701,1.7525724172592163,-1.1942415237426758
1748008215953842700,3.1458427734375,0.1722639948129654,1.7873916625976562,-1.0586295127868652
1748008215969620500,3.161620361328125,-0.06352998316287994,1.6377297639846802,-1.0231993198394775
1748008215985459000,3.177458984375,-0.17837265133857727,1.1374311447143555,-1.0427470207214355
1748008216001267200,3.19326708984375,-0.10018189996480942,0.29077184200286865,-1.1594222784042358
1748008216017075200,3.2090751953125,0.09224065393209457,-0.23640485107898712,-1.1661417484283447
1748008216032852700,3.224852783203125,0.32681289315223694,-0.47219884395599365,-0.8326093554496765
1748008216048722000,3.240721923828125,0.43615779280662537,-0.3182607889175415,-0.3805690407752991
1748008216064560600,3.256560546875,0.40256020426750183,-0.018936822190880775,-0.05314527451992035
1748008216080307700,3.2723076171875,0.24373523890972137,0.16493362188339233,-0.07391469180583954
1748008216096146200,3.288146240234375,0.01771509274840355,0.25961771607398987,-0.2724458873271942
1748008216111954400,3.303954345703125,-0.13255776464939117,0.2272418737411499,-0.33597588539123535
1748008216127793000,3.31979296875,-0.23579397797584534,0.1014036312699318,-0.1661553531885147
1748008216143631600,3.335631591796875,-0.28955012559890747,0.0910189226269722,0.13255776464939117
1748008216159409200,3.3514091796875,-0.34208452701568604,0.16493362188339233,0.37262779474258423
1748008216175248000,3.367247802734375,-0.31031954288482666,0.24129177629947662,0.3378084897994995
1748008216191056000,3.383055908203125,-0.24373523890972137,0.25473082065582275,0.16737708449363708
1748008216206864100,3.398864013671875,-0.21991148591041565,0.26633724570274353,0.13255776464939117
1748008216222702600,3.41470263671875,-0.2480112910270691,0.26572638750076294,0.16004669666290283
1748008216238449700,3.43044970703125,-0.2767219543457031,0.26083946228027344,0.06230825558304787
1748008216254227200,3.446227294921875,-0.3243694305419922,0.2773328125476837,-0.09468411654233932
1748008216270035500,3.462035400390625,-0.38606682419776917,0.3023782968521118,-0.1667662113904953
1748008216285843500,3.477843505859375,-0.43188172578811646,0.23640485107898712,-0.23396138846874237
1748008216301682200,3.49368212890625,-0.4282165467739105,0.1771509200334549,-0.32070425152778625
1748008216314499600,3.50649951171875,-0.40622538328170776,0.15943582355976105,-0.3530801236629486
1748008216330307600,3.5223076171875,-0.34758231043815613,0.0555887371301651,-0.3732386529445648
1748008216346115800,3.53811572265625,-0.2718350291252136,-0.06108652427792549,-0.36529740691185
1748008216361923800,3.553923828125,-0.21563543379306793,-0.04886921867728233,-0.34025195240974426
1748008216377731800,3.56973193359375,-0.192422553896904,0.059864792972803116,-0.31581732630729675
1748008216393509600,3.585509521484375,-0.17348572611808777,0.1472185254096985,-0.34208452701568604
1748008216409287200,3.601287109375,-0.13316862285137177,0.13500121235847473,-0.4141666293144226
1748008216425095200,3.61709521484375,-0.08735372871160507,0.021991148591041565,-0.48197266459465027
1748008216440964400,3.63296435546875,-0.08857546001672745,-0.09529497474431992,-0.49357911944389343
1748008216456803000,3.648802978515625,-0.15393804013729095,-0.12217304855585098,-0.44226643443107605
1748008216472550100,3.664550048828125,-0.22663100063800812,-0.04886921867728233,-0.39156460762023926
1748008216488327700,3.68032763671875,-0.26022860407829285,0.025045474991202354,-0.39217549562454224
1748008216504105200,3.696105224609375,-0.24495697021484375,0.04948008432984352,-0.4147774875164032
1748008216519913200,3.711913330078125,-0.19914206862449646,-0.016493361443281174,-0.4245513379573822
1748008216535752000,3.727751953125,-0.16554448008537292,-0.1264491081237793,-0.4105014503002167
1748008216551499000,3.7434990234375,-0.12522737681865692,-0.21868975460529327,-0.34147366881370544
1748008216567307300,3.759307373046875,-0.09285151958465576,-0.21013765037059784,-0.23945917189121246
1748008216583115300,3.775115234375,-0.042760565876960754,-0.1459967941045761,-0.17287486791610718
1748008216598984400,3.790984375,0.00855211354792118,-0.08796459436416626,-0.13927727937698364
1748008216614823000,3.806822998046875,0.02687807008624077,-0.08857546001672745,-0.14966198801994324
1748008216630631200,3.822631103515625,0.01466076634824276,-0.12889257073402405,-0.17287486791610718
1748008216646469600,3.8384697265625,-0.0006108652451075613,-0.17531833052635193,-0.19608774781227112
1748008216662278000,3.85427783203125,-0.01466076634824276,-0.22540926933288574,-0.21991148591041565
1748008216678147000,3.87014697265625,-0.009773843921720982,-0.23640485107898712,-0.21319197118282318
1748008216694016000,3.88601611328125,0.013439035043120384,-0.29138273000717163,-0.14477506279945374
1748008216709732600,3.901732666015625,0.06658431142568588,-0.37140607833862305,-0.056810468435287476
1748008216725540900,3.917540771484375,0.13866640627384186,-0.4605923891067505,0.007941247895359993
1748008216741348900,3.933348876953125,0.2015855312347412,-0.543059229850769,0.059864792972803116
1748008216757157000,3.9491572265625,0.2278527319431305,-0.6633996367454529,0.07452555745840073
1748008216772995600,3.96499560546875,0.2431243658065796,-0.7568620443344116,0.12095131725072861
1748008216788773000,3.980773193359375,0.2632829248905182,-0.7293730974197388,0.19975294172763824
1748008216804611800,3.99661181640625,0.2993239760398865,-0.5632177591323853,0.2816088795661926
1748008216820389400,4.012389404296875,0.3225368559360504,-0.40072759985923767,0.2791654169559479
1748008216836258600,4.028258544921875,0.31154128909111023,-0.23457226157188416,0.19608774781227112
1748008216852097300,4.04409716796875,0.2840523421764374,-0.1722639948129654,0.10201449692249298
1748008216867905300,4.0599052734375,0.2565633952617645,-0.1722639948129654,0.05375614017248154
1748008216883682800,4.075682861328125,0.23335053026676178,-0.20525072515010834,0.09224065393209457
1748008216899491000,4.091490966796875,0.2125810980796814,-0.23396138846874237,0.21380282938480377
1748008216915299000,4.107299072265625,0.20525072515010834,-0.26145032048225403,0.3066543638706207
1748008216931137800,4.1231376953125,0.2070833146572113,-0.3072652220726013,0.32559117674827576
1748008216946884900,4.138884765625,0.20525072515010834,-0.36102136969566345,0.27611109614372253
1748008216962692900,4.15469287109375,0.18387043476104736,-0.38606682419776917,0.2321287989616394
1748008216978470400,4.170470458984375,0.1661553531885147,-0.3695734739303589,0.3127630054950714
1748008216994309000,4.18630908203125,0.1459967941045761,-0.3066543638706207,0.47708576917648315
1748008217010147800,4.20214794921875,0.1472185254096985,-0.29993483424186707,0.5320636034011841
1748008217025895000,4.21789501953125,0.17409659922122955,-0.38179078698158264,0.4440990388393402
1748008217041703000,4.233702880859375,0.1771509200334549,-0.5302310585975647,0.29626965522766113
1748008217057511000,4.249510986328125,0.14049901068210602,-0.6291912198066711,0.2119702398777008
1748008217073349600,4.265349609375,0.05803219974040985,-0.6304129362106323,0.21930062770843506
1748008217089218800,4.28121875,-0.04092797264456749,-0.5363397002220154,0.26633724570274353
1748008217104996400,4.296996337890625,-0.14049901068210602,-0.43676865100860596,0.2681698501110077
1748008217120804400,4.312804443359375,-0.17104226350784302,-0.42210787534713745,0.19303341209888458
1748008217136582100,4.32858203125,-0.18020524084568024,-0.46364670991897583,0.10323622822761536
1748008217152390100,4.34439013671875,-0.20402899384498596,-0.4795292317867279,0.08185594528913498
1748008217168198100,4.3601982421875,-0.29626965522766113,-0.4184426963329315,0.10995574295520782
1748008217183976000,4.375975830078125,-0.39706242084503174,-0.2889392673969269,0.12400564551353455
1748008217199753500,4.39175341796875,-0.4893030524253845,-0.08307767659425735,0.1264491081237793
1748008217215561500,4.4075615234375,-0.5210680365562439,0.07757988572120667,0.1362229436635971
1748008217231430700,4.4234306640625,-0.5302310585975647,0.16798794269561768,0.16432274878025055
1748008217247269400,4.439269287109375,-0.5723807215690613,0.15393804013729095,0.21624629199504852
1748008217263016400,4.455016357421875,-0.6163630485534668,0.11850785464048386,0.2834414839744568
1748008217278824400,4.470824462890625,-0.656069278717041,0.12095131725072861,0.38728857040405273
1748008217294632700,4.4866328125,-0.6640105247497559,0.2541199326515198,0.5198463201522827
1748008217310471200,4.50247119140625,-0.6450737118721008,0.33047810196876526,0.6023131608963013
1748008217326310000,4.518309814453125,-0.5925393104553223,0.294437050819397,0.5082398653030396
1748008217342057000,4.534056884765625,-0.5186246037483215,0.2064724564552307,0.29565876722335815
1748008217365799700,4.557799560546875,-0.4544837474822998,-0.1569923609495163,-0.039706241339445114
1748008217381546800,4.573546630859375,-0.4245513379573822,-0.2541199326515198,-0.2168571650981903
1748008217397385200,4.58938525390625,-0.3927863538265228,-0.01466076634824276,-0.3579670190811157
1748008217413193500,4.605193359375,-0.303600013256073,0.45631635189056396,-0.4648684561252594
1748008217428971000,4.620970947265625,-0.12217304855585098,0.6737843751907349,-0.7751879692077637
1748008217444809500,4.6368095703125,0.03298672288656235,0.27000242471694946,-1.3756685256958008
1748008217460587300,4.652587158203125,0.17043140530586243,-0.18875735998153687,-2.004859685897827
1748008217476364800,4.66836474609375,0.26511552929878235,-0.4147774875164032,-2.065946340560913
1748008217492172800,4.6841728515625,0.4349360466003418,-0.30543261766433716,-1.508837103843689
1748008217508011500,4.700011474609375,0.6487388610839844,-0.02626720629632473,-0.7904596328735352
1748008217523850000,4.71585009765625,0.8753699064254761,0.26145032048225403,-0.1466076523065567
1748008217539597000,4.73159716796875,1.0299187898635864,0.41172316670417786,0.1014036312699318
1748008217555435800,4.747435791015625,1.0800096988677979,0.48197266459465027,0.2431243658065796
1748008217571244000,4.763244140625,0.9431759119033813,0.3903428912162781,0.38728857040405273
1748008217587021600,4.779021484375,0.7165449261665344,0.28466320037841797,0.4996877610683441
1748008217602829600,4.79482958984375,0.4245513379573822,0.22357667982578278,0.5467243790626526
1748008217618576600,4.81057666015625,0.22663100063800812,0.22052235901355743,0.5253441333770752
1748008217634415400,4.826415283203125,0.07452555745840073,0.21380282938480377,0.4453207552433014
1748008217650223400,4.842223388671875,0.029932396486401558,0.13927727937698364,0.3530801236629486
1748008217666031600,4.858031494140625,0.031154127791523933,-0.039095375686883926,0.25961771607398987
1748008217681870000,4.8738701171875,0.02382374368607998,-0.1966986060142517,0.18936823308467865
1748008217697647600,4.889647705078125,-0.03726277872920036,-0.2840523421764374,0.15577064454555511
1748008217713516800,4.905516845703125,-0.10690141469240189,-0.19914206862449646,0.1612684279680252
1748008217729294300,4.92129443359375,-0.16859880089759827,0.01466076634824276,0.14294247329235077
1748008217745041400,4.93704150390625,-0.2070833146572113,0.18631389737129211,0.13439035415649414
1748008217760910600,4.95291064453125,-0.19975294172763824,0.2632829248905182,0.1667662113904953
1748008217776718800,4.96871875,-0.1313360333442688,0.2382374405860901,0.23335053026676178
1748008217792526800,4.98452685546875,-0.059864792972803116,0.18387043476104736,0.3604104816913605
1748008217808334800,5.0003349609375,-0.06291911751031876,0.19303341209888458,0.4642575979232788
1748008217824082000,5.01608203125,-0.10506882518529892,0.2620611786842346,0.494189977645874
1748008217839920600,5.031920654296875,-0.15882496535778046,0.3023782968521118,0.4440990388393402
1748008217855729000,5.04772900390625,-0.1722639948129654,0.2583959996700287,0.34513887763023376
1748008217871597800,5.063597900390625,-0.14049901068210602,0.10384709388017654,0.21807889640331268
1748008217887497500,5.07949755859375,-0.07696902006864548,-0.039706241339445114,0.12522737681865692
1748008217903275300,5.095275146484375,-0.02015855349600315,-0.13866640627384186,0.10201449692249298
1748008217926987300,5.1189873046875,-0.003054326167330146,-0.06169738993048668,0.07269296050071716
1748008217942795500,5.13479541015625,0.022602014243602753,0.04153883829712868,0.009773843921720982
1748008217958634000,5.150634033203125,0.0555887371301651,0.1215621829032898,-0.06108652427792549
1748008217974411500,5.16641162109375,0.0659734457731247,0.12339477986097336,-0.07757988572120667
1748008217990280700,5.18228076171875,0.0708603709936142,0.07880161702632904,-0.08674286305904388
1748008218006119400,5.198119384765625,0.08674286305904388,0.02626720629632473,-0.0757472887635231
1748008218021866500,5.213866455078125,0.11423180252313614,-0.003054326167330146,-0.039095375686883926
1748008218037735700,5.229735595703125,0.15821409225463867,0.006719517521560192,0.02321287989616394
1748008218053452300,5.245452392578125,0.192422553896904,0.021991148591041565,0.11178833991289139
1748008218069260300,5.26126025390625,0.2064724564552307,0.029932396486401558,0.16493362188339233
1748008218085068300,5.277068359375,0.2070833146572113,0.05619960278272629,0.15577064454555511
1748008218100846000,5.29284619140625,0.21502456068992615,0.08796459436416626,0.12828169763088226
1748008218116684500,5.3086845703125,0.24373523890972137,0.11789698898792267,0.12034045159816742
1748008218132462000,5.324462158203125,0.29138273000717163,0.1160643994808197,0.1264491081237793
1748008218148240000,5.340239990234375,0.33719760179519653,0.11484266817569733,0.15515977144241333
1748008218164108800,5.35610888671875,0.3738495409488678,0.12950342893600464,0.23090706765651703
1748008218179856000,5.37185595703125,0.3878994286060333,0.08796459436416626,0.21074850857257843
1748008218195694600,5.387694580078125,0.4184426963329315,-0.07269296050071716,0.02076941914856434
1748008218211502600,5.403502685546875,0.3891211748123169,-0.17898350954055786,-0.1472185254096985
1748008218227341300,5.41934130859375,0.29077184200286865,-0.09651670604944229,-0.15027284622192383
1748008218243241000,5.435240966796875,0.24068090319633484,0.1563815027475357,0.004886921960860491
1748008218258957600,5.45095751953125,0.3170390725135803,0.4404338300228119,0.19608774781227112
1748008218274796000,5.466796142578125,0.44593164324760437,0.44654250144958496,0.19303341209888458
1748008218290573800,5.48257373046875,0.5522221922874451,0.16798794269561768,0.02015855349600315
1748008218306351400,5.498351318359375,0.5283984541893005,-0.19547687470912933,-0.12034045159816742
1748008218322159400,5.514159423828125,0.3628539443016052,-0.5534439086914062,-0.13377949595451355
1748008218337937000,5.52993701171875,0.16982053220272064,-0.607200026512146,-0.11972958594560623
1748008218353775600,5.545775634765625,0.04459316283464432,-0.3885102868080139,-0.192422553896904
1748008218369553200,5.56155322265625,0.07819075137376785,-0.08307767659425735,-0.23640485107898712
1748008218385391900,5.577391845703125,0.1667662113904953,0.10567969083786011,-0.1618792861700058
1748008218401230600,5.593230712890625,0.21563543379306793,0.2376265823841095,0.039095375686883926
1748008218417069000,5.609069091796875,0.16310101747512817,0.2828305959701538,0.2278527319431305
1748008218432877300,5.624877197265625,0.05375614017248154,0.3170390725135803,0.3543018400669098
1748008218448654800,5.64065478515625,-0.02626720629632473,0.3683517575263977,0.35124751925468445
1748008218464432400,5.656432373046875,-0.07391469180583954,0.4202753007411957,0.24190263450145721
1748008218480240400,5.672240478515625,-0.06352998316287994,0.3677408695220947,0.12400564551353455
1748008218496079000,5.6880791015625,0.006719517521560192,0.17470745742321014,0.02015855349600315
1748008218511917800,5.703917724609375,0.09346238523721695,-0.019547687843441963,0.00855211354792118
1748008218527786800,5.719786865234375,0.16493362188339233,-0.16982053220272064,0.08002334833145142
1748008218543595000,5.735594970703125,0.1722639948129654,-0.2223549485206604,0.152105450630188
1748008218559403000,5.751403076171875,0.10690141469240189,-0.22663100063800812,0.20341812074184418
1748008218575119600,5.76711962890625,0.010995574295520782,-0.2223549485206604,0.1514945775270462
1748008218590958300,5.782958251953125,-0.04948008432984352,-0.19120082259178162,0.0708603709936142
1748008218606736000,5.79873583984375,-0.07819075137376785,-0.10262536257505417,0.04948008432984352
1748008218622544000,5.8145439453125,-0.07391469180583954,0.03298672288656235,0.12522737681865692
1748008218638382600,5.830382568359375,-0.04459316283464432,0.24862214922904968,0.26939156651496887
1748008218654221300,5.84622119140625,-0.014049900695681572,0.38728857040405273,0.33475416898727417
1748008218670059800,5.862059814453125,0.036041051149368286,0.4343251883983612,0.31642818450927734
1748008218685868000,5.877867919921875,0.059864792972803116,0.39584067463874817,0.2742784917354584
1748008218701615000,5.893614990234375,0.06108652427792549,0.2926044464111328,0.23884831368923187
1748008218717392600,5.909392578125,0.051312681287527084,0.20463985204696655,0.22479841113090515
1748008218733231000,5.925231201171875,0.04214970022439957,0.16554448008537292,0.19608774781227112
1748008218749069800,5.94106982421875,0.03848451003432274,0.19608774781227112,0.16432274878025055
1748008218764817000,5.95681689453125,0.028099801391363144,0.23945917189121246,0.13072516024112701
1748008218780655600,5.972655517578125,0.01160643994808197,0.24617868661880493,0.14233160018920898
1748008218796402700,5.988402587890625,0.0012217304902151227,0.15027284622192383,0.17959438264369965
1748008218812241200,6.0042412109375,-0.0006108652451075613,-0.07330382615327835,0.1765400618314743
1748008218828079900,6.020079833984375,-0.04764748737215996,-0.23029619455337524,0.04153883829712868
1748008218843857400,6.035857421875,-0.14477506279945374,-0.20830504596233368,-0.21624629199504852
1748008218859665700,6.051665771484375,-0.22846360504627228,0.016493361443281174,-0.3433062732219696
1748008218875473700,6.0674736328125,-0.26022860407829285,0.3695734739303589,-0.29993483424186707
1748008218891312400,6.0833125,-0.1716531366109848,0.5467243790626526,-0.14966198801994324
1748008218907150800,6.09915087890625,-0.013439035043120384,0.4398229718208313,0.01038470957428217
1748008218922928400,6.114928466796875,0.08307767659425735,0.17409659922122955,0.0806342139840126
1748008218938767000,6.13076708984375,0.10690141469240189,-0.07819075137376785,0.10445795953273773
1748008218954544600,6.146544677734375,0.06352998316287994,-0.1111774742603302,0.12767083942890167
1748008218970383400,6.16238330078125,0.018936822190880775,0.009773843921720982,0.1411098688840866
1748008218986252500,6.17825244140625,0.03298672288656235,0.11850785464048386,0.13439035415649414
1748008219002060500,6.194060546875,0.11056660860776901,0.12889257073402405,0.152105450630188
1748008219017838000,6.209838134765625,0.16859880089759827,0.030543262138962746,0.25595253705978394
1748008219033646300,6.225646240234375,0.16065755486488342,-0.04398229718208313,0.3732386529445648
1748008219049424000,6.241423828125,0.12034045159816742,-0.06902777403593063,0.46303585171699524
1748008219065262300,6.257262451171875,0.0708603709936142,-0.022602014243602753,0.45204028487205505
1748008219081009400,6.273009521484375,0.05009094998240471,0.06475171446800232,0.34636059403419495
1748008219096848100,6.28884814453125,0.05375614017248154,0.1215621829032898,0.21807889640331268
1748008219120560400,6.312560302734375,0.07941248267889023,0.1472185254096985,0.09346238523721695
1748008219136338000,6.328337890625,0.08918632566928864,0.11362093687057495,0.051312681287527084
1748008219152176600,6.3441767578125,0.0959058403968811,0.08674286305904388,0.00366519158706069
1748008219167893000,6.35989306640625,0.0910189226269722,0.0959058403968811,-0.09529497474431992
1748008219183731700,6.375731689453125,0.06780604273080826,0.1215621829032898,-0.21868975460529327
1748008219199509200,6.39150927734375,0.0403171069920063,0.15027284622192383,-0.34513887763023376
1748008219215348000,6.407347900390625,0.04092797264456749,0.16859880089759827,-0.4092797040939331
1748008219231156000,6.423156005859375,0.08429940044879913,0.19914206862449646,-0.3787364661693573
1748008219246994700,6.43899462890625,0.14844025671482086,0.20341812074184418,-0.25595253705978394
1748008219262833200,6.454833251953125,0.21074850857257843,0.15760323405265808,-0.09468411654233932
1748008219278580200,6.470580322265625,0.24434609711170197,0.07391469180583954,-0.019547687843441963
1748008219294388500,6.486388427734375,0.2626720666885376,-0.00366519158706069,-0.001832595793530345
1748008219310166000,6.502166015625,0.27061331272125244,-0.024434609338641167,0.001832595793530345
1748008219325974000,6.51797412109375,0.29138273000717163,0.010995574295520782,0.0354301854968071
1748008219341812700,6.533812744140625,0.3243694305419922,0.04581489413976669,0.06169738993048668
1748008219357590300,6.54959033203125,0.3536909818649292,0.03298672288656235,0.04581489413976669
1748008219373398500,6.5653984375,0.3530801236629486,-0.027488935738801956,-0.010995574295520782
1748008219389206500,6.58120654296875,0.33658674359321594,-0.0757472887635231,-0.06414084881544113
1748008219405014800,6.597014892578125,0.2968805134296417,-0.10567969083786011,-0.08735372871160507
1748008219420853200,6.612853271484375,0.2736676335334778,-0.09224065393209457,-0.07819075137376785
1748008219436630800,6.628630859375,0.29016098380088806,-0.019547687843441963,-0.05925392732024193
1748008219452439000,6.64443896484375,0.3280346393585205,0.05619960278272629,-0.04886921867728233
1748008219468216600,6.660216552734375,0.3836233615875244,0.16859880089759827,-0.016493361443281174
1748008219484055300,6.67605517578125,0.43799036741256714,0.24007004499435425,0.05009094998240471
1748008219499863300,6.69186328125,0.49724429845809937,0.25961771607398987,0.13072516024112701
1748008219515640800,6.707640869140625,0.5393940210342407,0.2431243658065796,0.15882496535778046
1748008219531449000,6.723448974609375,0.5564982295036316,0.23945917189121246,0.1417207419872284
1748008219547226600,6.7392265625,0.578489363193512,0.2822197377681732,0.09346238523721695
1748008219563095800,6.755095703125,0.6188064813613892,0.37629300355911255,0.05864306539297104
1748008219578934300,6.770934326171875,0.6731734871864319,0.45875978469848633,0.07941248267889023
1748008219591782100,6.7837822265625,0.7476990818977356,0.504574716091156,0.11728613078594208
1748008219607620900,6.799620849609375,0.826500654220581,0.5265658497810364,0.16982053220272064
1748008219623398400,6.8153984375,0.9101892113685608,0.5229006409645081,0.27000242471694946
1748008219639206700,6.83120654296875,0.9724974632263184,0.4893030524253845,0.3805690407752991
1748008219655075600,6.84707568359375,1.0476338863372803,0.4966334402561188,0.47708576917648315
1748008219670822700,6.86282275390625,1.1661417484283447,0.5687155723571777,0.5106833577156067
1748008219686631000,6.878630859375,1.4031574726104736,0.66584312915802,0.5522221922874451
1748008219702408400,6.894408447265625,1.6829338073730469,0.7525860071182251,0.6921103000640869
1748008219718186000,6.91018603515625,1.8442021608352661,0.7684684991836548,0.8460483551025391
1748008219734055200,6.92605517578125,1.7049249410629272,0.7641924023628235,0.9352346658706665
1748008219749802200,6.94180224609375,1.3530665636062622,0.7959573864936829,0.901637077331543
1748008219765610200,6.9576103515625,1.0085384845733643,0.8387179970741272,0.769079327583313
1748008219781418500,6.97341845703125,0.9364564418792725,0.8619308471679688,0.6609562039375305
1748008219797226500,6.9892265625,1.0848966836929321,0.8662069439888,0.5736024379730225
1748008219813034800,7.00503466796875,1.2693779468536377,0.8839219808578491,0.5400048494338989
1748008219828812300,7.020812255859375,1.3921618461608887,0.9260717034339905,0.5442809462547302
1748008219844651000,7.036651123046875,1.4440854787826538,0.9468411207199097,0.5723807215690613
1748008219860489500,7.052489501953125,1.510058879852295,0.9071348905563354,0.6743952035903931
1748008219876267000,7.06826708984375,1.642616629600525,0.8875871896743774,0.8423831462860107
1748008219907883300,7.09988330078125,2.026850938796997,1.016479730606079,1.0684033632278442
1748008219923691500,7.11569140625,2.1197023391723633,1.2198978662490845,1.0427470207214355
1748008219939499500,7.13149951171875,2.121535062789917,1.3933836221694946,0.9822713136672974
1748008219955277000,7.147277099609375,2.104430675506592,1.5125023126602173,0.9523389339447021
1748008219971115800,7.16311572265625,2.107485055923462,1.6102408170700073,0.9382890462875366
1748008219986893300,7.178893310546875,2.129476308822632,1.7037031650543213,0.9187413454055786
1748008220002640400,7.194640380859375,2.1679606437683105,1.82404363155365,0.8448266386985779
1748008220018418000,7.21041796875,2.166738986968994,1.8796323537826538,0.7428121566772461
1748008220034195500,7.226195556640625,2.1319196224212646,1.825876235961914,0.6200281977653503
1748008220050064600,7.242064697265625,2.071444034576416,1.652390480041504,0.5632177591323853
1748008220065842200,7.25784228515625,1.9987510442733765,1.4196507930755615,0.5968153476715088
1748008220081650400,7.273650390625,1.9517145156860352,1.2418889999389648,0.6255260109901428
1748008220097458400,7.28945849609375,1.8973474502563477,1.1850786209106445,0.6102544069290161
1748008220113266700,7.3052666015625,1.8374826908111572,1.2321151494979858,0.5167919993400574
1748008220129105200,7.321105224609375,1.7287486791610718,1.3048081398010254,0.3549126982688904
1748008220144852200,7.336852294921875,1.6090190410614014,1.2962560653686523,0.2278527319431305
1748008220160660500,7.352660400390625,1.4758504629135132,1.1704177856445312,0.1264491081237793
1748008220176468500,7.368468505859375,1.4001030921936035,0.9804387092590332,0.1215621829032898
1748008220192276700,7.38427685546875,1.3634512424468994,0.827111542224884,0.19914206862449646
1748008220208115200,7.400115234375,1.340238332748413,0.7440338730812073,0.2981022298336029
1748008220223831800,7.415831787109375,1.3158037662506104,0.7751879692077637,0.3274237811565399
1748008220239639800,7.431639892578125,1.2541064023971558,0.8594874143600464,0.2828305959701538
1748008220255417600,7.44741748046875,1.1789699792861938,0.8802568316459656,0.20097467303276062
1748008220271195100,7.463195068359375,1.0812314748764038,0.7825183868408203,0.10262536257505417
1748008220287064300,7.479064208984375,0.99876469373703,0.6194173693656921,0.03787364438176155
1748008220302841900,7.494841796875,0.9175195693969727,0.4300491213798523,0.04092797264456749
1748008220318649900,7.51064990234375,0.8875871896743774,0.35063666105270386,0.12217304855585098
1748008220334458000,7.5264580078125,0.9034696817398071,0.3604104816913605,0.2119702398777008
1748008220350296600,7.542296630859375,0.949895441532135,0.45692721009254456,0.2370157092809677
1748008220366135300,7.55813525390625,0.9724974632263184,0.5632177591323853,0.22479841113090515
1748008220381882400,7.57388232421875,0.9523389339447021,0.5503895878791809,0.2064724564552307
1748008220397720800,7.589720947265625,0.9028588533401489,0.4447098970413208,0.24007004499435425
1748008220413529000,7.605529052734375,0.8546004891395569,0.4105014503002167,0.33536502718925476
1748008220429367800,7.621367919921875,0.8588765263557434,0.4349360466003418,0.3695734739303589
1748008220445236700,7.63723681640625,0.8936958312988281,0.4508185386657715,0.35185837745666504
1748008220460983800,7.65298388671875,0.8924741148948669,0.38179078698158264,0.3439171314239502
1748008220476792000,7.6687919921875,0.8533787727355957,0.21319197118282318,0.3604104816913605
1748008220492630500,7.684630615234375,0.8026769161224365,0.04764748737215996,0.3701843321323395
1748008220508408300,7.700408203125,0.7305948138237,-0.06841690838336945,0.36224308609962463
1748008220524246800,7.716246826171875,0.6481280326843262,-0.0861319974064827,0.35674530267715454
1748008220539993900,7.731993896484375,0.5699372887611389,-0.01710422709584236,0.3646865487098694
1748008220555832600,7.74783251953125,0.5119050741195679,0.039095375686883926,0.38117989897727966
1748008220571640600,7.763640625,0.4184426963329315,0.009773843921720982,0.36529740691185
1748008220587448800,7.77944873046875,0.3139847218990326,-0.08429940044879913,0.31520646810531616
1748008220603317800,7.79531787109375,0.14844025671482086,-0.22357667982578278,0.242513507604599
1748008220619095600,7.811095458984375,-0.02382374368607998,-0.30115658044815063,0.19792033731937408
1748008220634934000,7.82693408203125,-0.2272418737411499,-0.3139847218990326,0.14416420459747314
1748008220650742300,7.8427421875,-0.38240164518356323,-0.3194825351238251,0.060475658625364304
1748008220666489300,7.8584892578125,-0.47280970215797424,-0.36224308609962463,-0.02687807008624077
1748008220682297300,7.87429736328125,-0.5766568183898926,-0.4715879559516907,-0.12889257073402405
1748008220698075000,7.890074951171875,-0.6835582256317139,-0.6108652353286743,-0.2125810980796814
1748008220713852700,7.905852783203125,-0.8350527882575989,-0.7819074988365173,-0.3549126982688904
1748008220729660700,7.92166064453125,-0.9718865752220154,-0.9572258591651917,-0.588263213634491
1748008220745468700,7.93746875,-1.1594222784042358,-1.1215485334396362,-0.9657779335975647
1748008220761307400,7.953307373046875,-1.3396275043487549,-1.1753047704696655,-1.2858713865280151
1748008220777085000,7.9690849609375,-1.521665334701538,-1.1612548828125,-1.6487252712249756
1748008220792893200,7.98489306640625,-1.6236798763275146,-1.1936306953430176,-1.8875735998153687
1748008220808670700,8.000670654296876,-1.7702875137329102,-1.3451253175735474,-1.7055357694625854
1748008220824478700,8.016478759765626,-1.9034560918807983,-1.3078625202178955,-1.217454433441162
1748008220840317400,8.0323173828125,-1.9712620973587036,-0.9853256344795227,-0.8087855577468872
1748008220856125400,8.04812548828125,-1.9223929643630981,-0.5668829679489136,-0.6298020482063293
1748008220871964200,8.063964111328126,-1.797776460647583,-0.18448130786418915,-0.5002986192703247
1748008220887802600,8.079802734375,-1.739133358001709,-0.10018189996480942,-0.3188716471195221
1748008220911515000,8.103514892578126,-1.8319848775863647,-0.2834414839744568,-0.02626720629632473
1748008220927353600,8.119353515625,-1.9315558671951294,-0.45753806829452515,0.06352998316287994
1748008220943161600,8.13516162109375,-1.9816468954086304,-0.616973876953125,0.039706241339445114
1748008220959000300,8.151000244140626,-2.0030272006988525,-0.8295549750328064,-0.09834930300712585
1748008220974747400,8.166747314453126,-2.020742177963257,-0.979216992855072,-0.26511552929878235
1748008220990555400,8.182555419921876,-2.0610592365264893,-1.0085384845733643,-0.384845107793808
1748008221014267600,8.206267578125,-2.109928607940674,-0.8808676600456238,-0.5827654600143433
1748008221030106000,8.222106201171876,-2.1032090187072754,-0.789237916469574,-0.7067710757255554
1748008221045884000,8.2378837890625,-2.0732767581939697,-0.7336491346359253,-0.8399397134780884
1748008221061661400,8.253661376953126,-2.052507162094116,-0.7434229850769043,-0.911410927772522
1748008221077469400,8.269469482421876,-2.040900707244873,-0.8032878041267395,-0.9517280459403992
1748008221093216500,8.285216552734376,-2.0427334308624268,-0.8839219808578491,-0.9669997096061707
1748008221109024800,8.301024658203126,-2.0482311248779297,-0.9553932547569275,-0.9877691268920898
1748008221124863200,8.31686328125,-2.0451767444610596,-0.9761626720428467,-0.9877691268920898
1748008221140640800,8.332640869140626,-2.0451767444610596,-0.9737191796302795,-0.9828822016716003
1748008221156510000,8.348510009765626,-2.0115792751312256,-0.9279043078422546,-0.9822713136672974
1748008221172287500,8.36428759765625,-1.9810359477996826,-0.8625417351722717,-0.9443976879119873
1748008221188095700,8.380095703125,-1.9517145156860352,-0.7617489695549011,-0.8662069439888
1748008221203934500,8.3959345703125,-1.9181169271469116,-0.6542366743087769,-0.8020660877227783
1748008221219681500,8.411681640625,-1.8515325784683228,-0.5180137157440186,-0.7440338730812073
1748008221235550500,8.427550537109376,-1.7788395881652832,-0.46853363513946533,-0.7110471725463867
1748008221251297500,8.443297607421876,-1.6853772401809692,-0.47708576917648315,-0.6572909951210022
1748008221267075300,8.459075439453125,-1.6071864366531372,-0.5534439086914062,-0.5601634383201599
1748008221282944300,8.4749443359375,-1.539380431175232,-0.637132465839386,-0.4190535545349121
1748008221298722000,8.49072216796875,-1.5204435586929321,-0.6707300543785095,-0.313373863697052
1748008221314560500,8.506560546875,-1.5180001258850098,-0.694553792476654,-0.2070833146572113
1748008221330338000,8.522338134765626,-1.522887110710144,-0.7385360598564148,-0.12950342893600464
1748008221346176800,8.5381767578125,-1.5241087675094604,-0.7721336483955383,-0.07024950534105301
1748008221361954300,8.553954345703126,-1.492343783378601,-0.7367035150527954,-0.018936822190880775
1748008221377762600,8.569762451171876,-1.4679092168807983,-0.6572909951210022,0.005497787147760391
1748008221393601000,8.58560107421875,-1.4495831727981567,-0.5894849896430969,0.051312681287527084
1748008221409378600,8.601378662109376,-1.4190399646759033,-0.5937610268592834,0.11850785464048386
1748008221425156400,8.61715625,-1.3628404140472412,-0.7141014933586121,0.2119702398777008
1748008221440934000,8.632933837890626,-1.3078625202178955,-0.8949176073074341,0.2528982162475586
1748008221456711400,8.64871142578125,-1.2492194175720215,-1.112385630607605,0.23273965716362
1748008221472550100,8.664550048828126,-1.2302825450897217,-1.2357803583145142,0.21991148591041565
1748008221488327700,8.68032763671875,-1.2229522466659546,-1.2968668937683105,0.3078760802745819
1748008221504135700,8.6961357421875,-1.1789699792861938,-1.2986994981765747,0.3982841372489929
1748008221519944000,8.71194384765625,-1.0696250200271606,-1.2406673431396484,0.4056145250797272
1748008221535752000,8.727751953125,-0.960280179977417,-1.197906732559204,0.35735616087913513
1748008221551590700,8.743590576171876,-0.8710938692092896,-1.2119566202163696,0.3017674386501312
1748008221567368200,8.7593681640625,-0.8008443117141724,-1.2663236856460571,0.2926044464111328
1748008221583207000,8.77520703125,-0.6890559792518616,-1.3811663389205933,0.3188716471195221
1748008221599015000,8.791014892578126,-0.5528330206871033,-1.4697418212890625,0.36102136969566345
1748008221614823000,8.806822998046876,-0.4453207552433014,-1.4697418212890625,0.38179078698158264
1748008221630631200,8.822631103515626,-0.33658674359321594,-1.4074335098266602,0.34513887763023376
1748008221646408700,8.83840869140625,-0.29504790902137756,-1.338405728340149,0.2687807083129883
1748008221662247400,8.854247314453126,-0.3384193480014801,-1.2388347387313843,0.182648703455925
1748008221678055400,8.870055419921876,-0.40194934606552124,-1.1533136367797852,0.13927727937698364
1748008221693863400,8.885863525390626,-0.4355469346046448,-1.0384708642959595,0.1160643994808197
1748008221709702100,8.9017021484375,-0.4294382631778717,-0.9541715383529663,0.1062905490398407
1748008221725479700,8.917479736328126,-0.40256020426750183,-0.8717046976089478,0.13072516024112701
1748008221741257200,8.93325732421875,-0.3701843321323395,-0.7922922372817993,0.15332718193531036
1748008221757035000,8.949034912109376,-0.36224308609962463,-0.6860016584396362,0.17409659922122955
1748008221772873500,8.96487353515625,-0.3781255781650543,-0.5925393104553223,0.20891591906547546
1748008221788712200,8.980712158203126,-0.394008070230484,-0.49785518646240234,0.25106561183929443
1748008221804489700,8.99648974609375,-0.3646865487098694,-0.4239404797554016,0.25106561183929443
1748008221820328400,9.012328369140626,-0.28099802136421204,-0.39706242084503174,0.24068090319633484
1748008221836167000,9.0281669921875,-0.1716531366109848,-0.4098905920982361,0.252287358045578
1748008221851944700,9.04394482421875,-0.08735372871160507,-0.3995058834552765,0.3023782968521118
1748008221867783200,9.059783203125,0.004886921960860491,-0.33475416898727417,0.3854559659957886
1748008221883560700,9.075560791015626,0.07696902006864548,-0.26450464129447937,0.44226643443107605
1748008221899369000,9.091368896484376,0.13988813757896423,-0.24678955972194672,0.4355469346046448
1748008221915177000,9.107177001953126,0.1966986060142517,-0.2742784917354584,0.42210787534713745
1748008221930985200,9.122985107421876,0.31642818450927734,-0.35735616087913513,0.4440990388393402
1748008221946823700,9.13882373046875,0.4691445231437683,-0.39584067463874817,0.5406157374382019
1748008221962601200,9.154601318359376,0.6389650702476501,-0.37140607833862305,0.6597344875335693
1748008221978379000,9.17037890625,0.7226535677909851,-0.31031954288482666,0.7073819637298584
1748008221994187000,9.18618701171875,0.7672467231750488,-0.2828305959701538,0.7037167549133301
1748008222009964500,9.201964599609376,0.7678576111793518,-0.31642818450927734,0.6768386960029602
1748008222025803300,9.21780322265625,0.6994407176971436,-0.3396410644054413,0.6743952035903931
1748008222041550300,9.23355029296875,0.6053674817085266,-0.18936823308467865,0.7281513810157776
1748008222057358300,9.2493583984375,0.588874101638794,0.029932396486401558,0.7654141783714294
1748008222073166600,9.26516650390625,0.6120869517326355,0.16737708449363708,0.7360926270484924
1748008222088913700,9.28091357421875,0.5290092825889587,0.07757988572120667,0.6340781450271606
1748008222104752000,9.296752197265626,0.304210901260376,-0.06902777403593063,0.4294382631778717
1748008222120530000,9.312530029296875,0.12828169763088226,-0.07269296050071716,0.23518311977386475
1748008222136368400,9.328368408203126,-0.02076941914856434,0.06841690838336945,0.08246681094169617
1748008222152115500,9.344115478515626,-0.11301007121801376,0.2730567753314972,-0.02382374368607998
1748008222167954200,9.3599541015625,-0.18936823308467865,0.5320636034011841,-0.20463985204696655
1748008222183792600,9.375792724609376,-0.21380282938480377,0.6878342628479004,-0.4086688458919525
1748008222199570400,9.3915703125,-0.16065755486488342,0.7257078886032104,-0.6126978397369385
1748008222215378400,9.40737841796875,-0.08429940044879913,0.6505714654922485,-0.6481280326843262
1748008222231156000,9.423156005859376,-0.02932153269648552,0.45265114307403564,-0.50335294008255
1748008222246933500,9.43893359375,-0.003054326167330146,0.2681698501110077,-0.34636059403419495
1748008222262772200,9.454772216796876,0.04337143152952194,0.039095375686883926,-0.2528982162475586
1748008222278549800,9.4705498046875,0.1062905490398407,-0.17837265133857727,-0.2431243658065796
1748008222294358000,9.48635791015625,0.10812314599752426,-0.45814892649650574,-0.21502456068992615
1748008222310227000,9.50222705078125,0.001832595793530345,-0.6377432942390442,-0.11911872029304504
1748008222325974000,9.51797412109375,-0.1472185254096985,-0.626747727394104,-0.010995574295520782
1748008222341843200,9.53384326171875,-0.29993483424186707,-0.43676865100860596,0.0757472887635231
1748008222357620700,9.549620849609376,-0.37140607833862305,-0.2376265823841095,0.11239920556545258
1748008222373490000,9.565489990234376,-0.45204028487205505,-0.10384709388017654,0.1319468915462494
1748008222389267700,9.581267822265625,-0.5363397002220154,-0.08674286305904388,0.09712757170200348
1748008222405045200,9.597045166015626,-0.6646214127540588,-0.11972958594560623,0.00427605677396059
1748008222420883700,9.6128837890625,-0.770301103591919,-0.16004669666290283,-0.05375614017248154
1748008222436630800,9.628630859375,-0.8539896011352539,-0.1814269721508026,-0.12767083942890167
1748008222452469500,9.644469482421876,-0.8869763612747192,-0.14966198801994324,-0.22418753802776337
1748008222468277500,9.660277587890626,-0.8814785480499268,-0.10445795953273773,-0.3604104816913605
1748008222484085800,9.676085693359376,-0.8356636762619019,-0.1014036312699318,-0.47708576917648315
1748008222499893800,9.691893798828126,-0.7024950385093689,-0.19547687470912933,-0.5772676467895508
1748008222515610400,9.7076103515625,-0.5693264007568359,-0.3683517575263977,-0.6017022728919983
1748008222531418400,9.72341845703125,-0.5167919993400574,-0.598647952079773,-0.45326200127601624
1748008222547196200,9.739196044921876,-0.6133087277412415,-0.6725626587867737,-0.11484266817569733
1748008222563034600,9.75503466796875,-0.7238753437995911,-0.6114761233329773,0.2076941877603531
1748008222578903800,9.77090380859375,-0.8118399381637573,-0.45142942667007446,0.5009095072746277
1748008222594681300,9.786681396484376,-0.8356636762619019,-0.2932153046131134,0.6603453159332275
1748008222610489600,9.802489501953126,-0.7812966704368591,-0.1062905490398407,0.7782423496246338
1748008222626328000,9.818328125,-0.645684540271759,-0.07880161702632904,0.8814785480499268
1748008222642075100,9.8340751953125,-0.5448917746543884,-0.20463985204696655,0.921795666217804
1748008222657913900,9.849913818359376,-0.5833762884140015,-0.33292156457901,0.7806857824325562
1748008222673691400,9.86569140625,-0.8301658630371094,-0.33475416898727417,0.5290092825889587
1748008222689530000,9.881530029296876,-0.9615018963813782,0.11789698898792267,0.2993239760398865
1748008222705338000,9.897338134765626,-0.8912523984909058,0.30970868468284607,-0.4050036668777466
1748008222721176800,9.9131767578125,-0.7678576111793518,0.1869247704744339,-1.4074335098266602
1748008222737015300,9.929015380859376,-0.5534439086914062,-0.03298672288656235,-2.7598891258239746
1748008222752762400,9.944762451171876,-0.44654250144958496,-0.11850785464048386,-3.6059374809265137
1748008222768601000,9.96060107421875,-0.4740314185619354,0.06841690838336945,-3.355482816696167
1748008222784378600,9.976378662109376,-0.46242499351501465,0.6591235995292664,-2.320066213607788
1748008222800156200,9.99215625,-0.24068090319633484,1.018923282623291,-1.5338826179504395
1748008222815995000,10.007994873046876,0.13988813757896423,1.0659598112106323,-1.130711555480957
1748008222831772400,10.0237724609375,0.34636059403419495,0.7342600226402283,-1.0500773191452026
1748008222847611100,10.039611083984376,0.3341432809829712,0.12339477986097336,-0.8827002644538879
1748008222863419100,10.055419189453126,0.1716531366109848,-0.3090978264808655,-0.5424483418464661
1748008222879227400,10.071227294921876,-0.02626720629632473,-0.5082398653030396,-0.045204028487205505
1748008222895065900,10.08706591796875,-0.06902777403593063,-0.40072759985923767,0.34025195240974426
1748008222910843400,10.102843505859376,-0.004886921960860491,-0.10934487730264664,0.6212499737739563
1748008222926682000,10.11868212890625,0.05864306539297104,0.14233160018920898,0.6988298296928406
1748008222942459600,10.134459716796876,0.013439035043120384,0.35246923565864563,0.6835582256317139
1748008222958268000,10.150267822265626,-0.11789698898792267,0.43188172578811646,0.6328563690185547
1748008222974106400,10.1661064453125,-0.2919935882091522,0.41233405470848083,0.5320636034011841
1748008222989823000,10.181822998046876,-0.3897320330142975,0.32009339332580566,0.4355469346046448
1748008223005631200,10.19763134765625,-0.3952298164367676,0.22296582162380219,0.3744603991508484
1748008223021469700,10.2134697265625,-0.3335324227809906,0.1618792861700058,0.3579670190811157
1748008223037247200,10.229247314453126,-0.23151792585849762,0.1466076523065567,0.36102136969566345
1748008223053086000,10.2450859375,-0.04642575979232788,0.21441370248794556,0.35246923565864563
1748008223068894000,10.26089404296875,0.20830504596233368,0.22113321721553802,0.26022860407829285
1748008223084702200,10.2767021484375,0.5119050741195679,-0.03237585723400116,0.018936822190880775
1748008223100540700,10.292540771484376,0.617584764957428,-0.3323107063770294,-0.1466076523065567
1748008223116379400,10.30837939453125,0.5210680365562439,-0.47342056035995483,-0.1612684279680252
1748008223132218000,10.324218017578126,0.3744603991508484,-0.27550023794174194,-0.0757472887635231
1748008223148026000,10.340026123046876,0.3689626157283783,0.1765400618314743,0.018325956538319588
1748008223163803600,10.3558037109375,0.5296201705932617,0.42149701714515686,0.07024950534105301
1748008223179581200,10.371581298828126,0.646906316280365,0.36529740691185,0.18387043476104736
1748008223195328300,10.387328369140626,0.5949827432632446,0.17592918872833252,0.24373523890972137
1748008223211197400,10.403197509765626,0.4294382631778717,0.0757472887635231,0.26022860407829285
1748008223226975200,10.418975341796875,0.21074850857257843,0.12278391420841217,0.24434609711170197
1748008223242783200,10.434783203125,0.09346238523721695,0.22540926933288574,0.15882496535778046
1748008223258591200,10.45059130859375,0.0659734457731247,0.33169981837272644,0.0555887371301651
1748008223274399500,10.4663994140625,0.08918632566928864,0.32559117674827576,0.013439035043120384
1748008223290268700,10.4822685546875,0.09040805697441101,0.2376265823841095,0.01710422709584236
1748008223306046200,10.498046142578126,0.039706241339445114,0.1362229436635971,0.02076941914856434
1748008223321823700,10.51382373046875,-0.04642575979232788,0.03726277872920036,0.02076941914856434
1748008223337662500,10.529662353515626,-0.11056660860776901,0.01160643994808197,0.02076941914856434
1748008223353440000,10.54543994140625,-0.14477506279945374,0.012217304669320583,0.06841690838336945
1748008223369309200,10.56130908203125,-0.11667526513338089,-0.00366519158706069,0.09162978827953339
1748008223385086700,10.577086669921876,-0.059864792972803116,-0.0354301854968071,0.07819075137376785
1748008223408829400,10.600829345703126,-0.06780604273080826,-0.19058994948863983,0.03176499158143997
1748008223424576500,10.616576416015626,-0.13377949595451355,-0.3182607889175415,0.02626720629632473
1748008223440415000,10.6324150390625,-0.26450464129447937,-0.4660901725292206,0.08368854224681854
1748008223456284200,10.6482841796875,-0.36224308609962463,-0.5241223573684692,0.14477506279945374
1748008223472000800,10.664000732421876,-0.4098905920982361,-0.48258355259895325,0.18081611394882202
1748008223487870000,10.679869873046876,-0.413555771112442,-0.40072759985923767,0.17043140530586243
1748008223503586600,10.695586669921875,-0.4386012554168701,-0.2767219543457031,0.1362229436635971
1748008223519394600,10.71139453125,-0.4807509481906891,-0.1569923609495163,0.07941248267889023
1748008223535141600,10.7271416015625,-0.5198463201522827,-0.02687807008624077,0.04092797264456749
1748008223550980400,10.74298046875,-0.5174028873443604,0.036041051149368286,0.04642575979232788
1748008223566818800,10.75881884765625,-0.4648684561252594,0.031154127791523933,0.08429940044879913
1748008223582596400,10.774596435546876,-0.37629300355911255,-0.004886921960860491,0.1258382350206375
1748008223598435000,10.79043505859375,-0.30543261766433716,0.009162978269159794,0.1466076523065567
1748008223614243000,10.8062431640625,-0.2638937830924988,0.06780604273080826,0.1569923609495163
1748008223629990100,10.821990234375,-0.24678955972194672,0.13072516024112701,0.1264491081237793
1748008223645828900,10.837828857421876,-0.23029619455337524,0.18020524084568024,0.05497787147760391
1748008223661606400,10.8536064453125,-0.22663100063800812,0.15821409225463867,0.015882495790719986
1748008223677384000,10.869384033203126,-0.24190263450145721,0.031154127791523933,0.05192354694008827
1748008223693192200,10.885192138671876,-0.2785545587539673,-0.07269296050071716,0.11239920556545258
1748008223709000200,10.901000244140626,-0.3378084897994995,-0.11911872029304504,0.12217304855585098
1748008223724839000,10.9168388671875,-0.37690386176109314,-0.12339477986097336,0.045204028487205505
1748008223740647000,10.93264697265625,-0.38728857040405273,-0.09957103431224823,-0.1270599663257599
1748008223756485600,10.948485595703126,-0.39156460762023926,-0.08002334833145142,-0.2217440903186798
1748008223772293600,10.964293701171876,-0.40744712948799133,-0.06475171446800232,-0.20097467303276062
1748008223788102000,10.980101806640626,-0.4184426963329315,0.1062905490398407,-0.012828170321881771
1748008223803910000,10.995909912109376,-0.3591887652873993,0.17043140530586243,0.0861319974064827
1748008223819687400,11.0116875,-0.29626965522766113,0.14355333149433136,0.09224065393209457
1748008223835495700,11.02749560546875,-0.2583959996700287,0.12217304855585098,-0.021991148591041565
1748008223851303700,11.0433037109375,-0.2015855312347412,0.14049901068210602,-0.2669481039047241
1748008223867112000,11.05911181640625,-0.12889257073402405,0.2028072625398636,-0.4746423065662384
1748008223882950400,11.074950439453126,0.018936822190880775,0.26511552929878235,-0.6249151229858398
1748008223898697500,11.090697509765626,0.16920967400074005,0.31520646810531616,-0.6585127115249634
1748008223914505700,11.106505615234376,0.2785545587539673,0.41661009192466736,-0.6389650702476501
1748008223930313700,11.122313720703126,0.29565876722335815,0.5247332453727722,-0.5815436840057373
1748008223946183000,11.138182861328126,0.2590068578720093,0.5998696684837341,-0.4593706727027893
1748008223962021400,11.154021484375,0.23884831368923187,0.5766568183898926,-0.3029891550540924
1748008223977768400,11.1697685546875,0.22540926933288574,0.5400048494338989,-0.12767083942890167
1748008223993546200,11.185546142578126,0.19303341209888458,0.53328537940979,-0.02687807008624077
1748008224009354200,11.201354248046876,0.10018189996480942,0.5167919993400574,0.027488935738801956
1748008224025193000,11.21719287109375,-0.05253441259264946,0.44287729263305664,0.04337143152952194
1748008224041031400,11.233031494140626,-0.15882496535778046,0.3683517575263977,0.06475171446800232
1748008224056748000,11.248748046875,-0.2168571650981903,0.32620203495025635,0.036041051149368286
1748008224072557600,11.2645576171875,-0.24678955972194672,0.37140607833862305,-0.03237585723400116
1748008224088365600,11.280365478515625,-0.28527405858039856,0.4960225820541382,-0.1618792861700058
1748008224104204300,11.296204345703124,-0.3182607889175415,0.6243042945861816,-0.3017674386501312
1748008224120043000,11.31204296875,-0.32620203495025635,0.6951646208763123,-0.46181413531303406
1748008224135851000,11.32785107421875,-0.2981022298336029,0.6866125464439392,-0.5308418869972229
1748008224151689700,11.343689697265624,-0.23273965716362,0.5968153476715088,-0.4948008358478546
1748008224167467300,11.35946728515625,-0.15332718193531036,0.4960225820541382,-0.3689626157283783
1748008224183306000,11.375305908203124,-0.03848451003432274,0.43676865100860596,-0.19486601650714874
1748008224199144400,11.39114453125,0.05864306539297104,0.4404338300228119,-0.1014036312699318
1748008224214861000,11.406861083984374,0.15393804013729095,0.4593706727027893,-0.11850785464048386
1748008224230638600,11.422638671875,0.2217440903186798,0.41599923372268677,-0.30970868468284607
1748008224246416100,11.438416015625,0.304210901260376,0.3396410644054413,-0.7049384713172913
1748008224262194000,11.45419384765625,0.3738495409488678,0.30115658044815063,-1.0458012819290161
1748008224278062800,11.470062744140625,0.45814892649650574,0.28955012559890747,-1.3048081398010254
1748008224293871000,11.48587109375,0.5864306092262268,0.40683624148368835,-1.33168625831604
1748008224309679000,11.50167919921875,0.5222898125648499,0.5112941861152649,-1.1129964590072632
1748008224325487400,11.5174873046875,0.5491678714752197,0.5907067060470581,-0.6542366743087769
1748008224341265000,11.533264892578124,0.5558874011039734,0.4355469346046448,-0.34147366881370544
1748008224357103400,11.549103271484375,0.5467243790626526,0.17470745742321014,-0.152105450630188
1748008224372850400,11.564850341796875,0.5864306092262268,0.042760565876960754,-0.0659734457731247
1748008224388689200,11.580689208984374,0.6316346526145935,-0.10262536257505417,-0.006719517521560192
1748008224404497400,11.596497314453124,0.5919284224510193,-0.21074850857257843,0.045204028487205505
1748008224420305400,11.612305419921874,0.4758640229701996,-0.26511552929878235,0.13744467496871948
1748008224436174600,11.628174560546874,0.33292156457901,-0.2590068578720093,0.17776179313659668
1748008224451952000,11.6439521484375,0.17531833052635193,-0.21868975460529327,0.13866640627384186
1748008224467760000,11.659760009765625,0.08796459436416626,-0.19547687470912933,0.04337143152952194
1748008224483568400,11.675568359375,0.01771509274840355,-0.1918116807937622,-0.04948008432984352
1748008224499376400,11.69137646484375,-0.03420845419168472,-0.19853121042251587,-0.08429940044879913
1748008224515215000,11.707215087890624,-0.0757472887635231,-0.20402899384498596,-0.056810468435287476
1748008224530992600,11.72299267578125,-0.14416420459747314,-0.19608774781227112,-0.03420845419168472
1748008224546800600,11.738800537109375,-0.1918116807937622,-0.11239920556545258,-0.07880161702632904
1748008224562547700,11.754547607421875,-0.2321287989616394,0.05803219974040985,-0.23396138846874237
1748008224578386400,11.770386474609374,-0.21991148591041565,0.22968533635139465,-0.3878994286060333
1748008224594225200,11.78622509765625,-0.16065755486488342,0.3225368559360504,-0.46853363513946533
1748008224610002700,11.802002685546874,-0.056810468435287476,0.2565633952617645,-0.4141666293144226
1748008224625841200,11.817841064453125,0.06658431142568588,0.09529497474431992,-0.1569923609495163
1748008224641649400,11.8336494140625,0.12400564551353455,-0.02687807008624077,0.09834930300712585
1748008224657457400,11.84945751953125,0.13072516024112701,-0.07880161702632904,0.2272418737411499
1748008224673296100,11.865296142578124,0.08307767659425735,-0.06780604273080826,0.1814269721508026
1748008224689073700,11.88107373046875,0.01160643994808197,-0.048258353024721146,0.09896016865968704
1748008224704912400,11.896912353515624,-0.048258353024721146,-0.09285151958465576,0.10751228034496307
1748008224720720400,11.912720458984374,-0.07208210229873657,-0.2370157092809677,0.24129177629947662
1748008224736528600,11.928528564453124,-0.07635815441608429,-0.43737950921058655,0.4343251883983612
1748008224752367000,11.9443671875,-0.1062905490398407,-0.5858197808265686,0.5577199459075928
1748008224768175400,11.96017529296875,-0.16310101747512817,-0.6951646208763123,0.588263213634491
1748008224783953000,11.975952880859374,-0.19608774781227112,-0.7660250067710876,0.5357288122177124
1748008224799761000,11.991760986328124,-0.24068090319633484,-0.8649851679801941,0.4612032473087311
1748008224815599600,12.007599609375,-0.25045475363731384,-0.9834930300712585,0.45692721009254456
1748008224831438000,12.02343798828125,-0.23029619455337524,-1.1563678979873657,0.5491678714752197
1748008224847215900,12.0392158203125,-0.19364428520202637,-1.2986994981765747,0.6603453159332275
1748008224863023900,12.05502392578125,-0.12828169763088226,-1.395827054977417,0.7342600226402283
1748008224878862600,12.070862548828124,-0.09285151958465576,-1.3347405195236206,0.7006624341011047
1748008224894609700,12.086609619140624,-0.09896016865968704,-1.1020009517669678,0.588263213634491
1748008224910417700,12.102417724609374,-0.10812314599752426,-0.8918632864952087,0.45753806829452515
1748008224926195200,12.1181953125,-0.08002334833145142,-0.7067710757255554,0.35124751925468445
1748008224942034000,12.134033935546874,-0.010995574295520782,-0.6805039048194885,0.3536909818649292
1748008224957872600,12.14987255859375,0.02687807008624077,-0.6688974499702454,0.4043927788734436
1748008224973680600,12.1656806640625,0.015271631069481373,-0.6322455406188965,0.42760565876960754
1748008224989519400,12.181519287109374,-0.030543262138962746,-0.5919284224510193,0.3634648323059082
1748008225005297000,12.197296875,-0.0910189226269722,-0.5674937963485718,0.2541199326515198
1748008225029009000,12.2210087890625,-0.13927727937698364,-0.494189977645874,0.15393804013729095
1748008225044817200,12.236817138671874,-0.12400564551353455,-0.33658674359321594,0.05619960278272629
1748008225060655600,12.252655517578125,-0.09224065393209457,-0.06352998316287994,-0.1111774742603302
1748008225076433400,12.268433349609374,-0.1417207419872284,0.3885102868080139,-0.2272418737411499
1748008225092302300,12.28430224609375,-0.26939156651496887,1.1020009517669678,-0.10812314599752426
1748008225108110600,12.300110595703124,-0.33047810196876526,1.701259732246399,0.0006108652451075613
1748008225123888000,12.31588818359375,-0.24068090319633484,1.9578231573104858,-0.11484266817569733
1748008225139696400,12.3316962890625,-0.21074850857257843,1.6658295392990112,-0.4056145250797272
1748008225155504400,12.34750439453125,-0.2883284091949463,1.094059705734253,-0.7293730974197388
1748008225171343000,12.363343017578124,-0.3390302062034607,0.6725626587867737,-0.8723155856132507
1748008225187181600,12.379181640625,-0.3029891550540924,0.3787364661693573,-0.7867944240570068
1748008225202928600,12.3949287109375,-0.1918116807937622,0.28955012559890747,-0.656069278717041
1748008225218767400,12.410767333984374,0.02382374368607998,0.3072652220726013,-0.6811147332191467
1748008225234545000,12.426544921875,0.18020524084568024,0.39706242084503174,-0.8387179970741272
1748008225250383600,12.442383544921874,0.25595253705978394,-0.16554448008537292,-1.0769554376602173
1748008225266222000,12.45822216796875,0.09651670604944229,-0.47769662737846375,-0.9712757468223572
1748008225281969200,12.47396923828125,-0.02321287989616394,-0.4495968222618103,-0.5949827432632446
1748008225297777400,12.48977734375,-0.09162978827953339,-0.3927863538265228,-0.19914206862449646
1748008225313555000,12.505554931640624,0.05742133408784866,-0.4605923891067505,-0.1569923609495163
1748008225329363000,12.521363037109374,0.2125810980796814,-0.5510004758834839,-0.21930062770843506
1748008225345201700,12.53720166015625,0.22113321721553802,-0.5155702829360962,-0.20036379992961884
1748008225360948700,12.55294873046875,0.04459316283464432,-0.4703662395477295,-0.08368854224681854
1748008225376756700,12.5687568359375,-0.10812314599752426,-0.3988949954509735,0.00855211354792118
1748008225392565000,12.58456494140625,-0.2828305959701538,-0.32986724376678467,0.10323622822761536
1748008225408342500,12.600342529296874,-0.33475416898727417,-0.2070833146572113,0.12278391420841217
1748008225424211700,12.616211669921874,-0.19853121042251587,0.10995574295520782,-0.013439035043120384
1748008225439989200,12.6319892578125,-0.045204028487205505,0.16310101747512817,-0.07452555745840073
1748008225455797200,12.64779736328125,0.08918632566928864,0.03237585723400116,0.10934487730264664
1748008225471605500,12.66360546875,0.16249015927314758,-0.1417207419872284,0.4147774875164032
1748008225487413500,12.67941357421875,0.22907446324825287,-0.24129177629947662,0.7373143434524536
1748008225503221800,12.6952216796875,0.2687807083129883,-0.09957103431224823,0.8423831462860107
1748008225518999300,12.710999267578124,0.3335324227809906,0.11972958594560623,0.7855727076530457
1748008225534776800,12.72677685546875,0.4404338300228119,0.29016098380088806,0.6707300543785095
1748008225550554400,12.742554443359374,0.5180137157440186,0.29504790902137756,0.6096435189247131
1748008225566362600,12.758362548828124,0.5503895878791809,0.14782938361167908,0.6524040699005127
1748008225582201000,12.774201171875,0.4893030524253845,-0.05314527451992035,0.7000515460968018
1748008225597978600,12.789978515625,0.3878994286060333,-0.28038713335990906,0.6786713004112244
1748008225613817300,12.8058173828125,0.34208452701568604,-0.44287729263305664,0.6218608021736145
1748008225629625300,12.821625244140625,0.32498031854629517,-0.637132465839386,0.6059783101081848
1748008225645403100,12.837403076171874,0.3023782968521118,-0.8338310718536377,0.6212499737739563
1748008225661211100,12.853211181640624,0.2638937830924988,-1.0641272068023682,0.6389650702476501
1748008225676958200,12.868958251953124,0.24984388053417206,-1.2131783962249756,0.6359107494354248
1748008225692735700,12.88473583984375,0.30604347586631775,-1.1441506147384644,0.6139195561408997
1748008225708544000,12.9005439453125,0.37262779474258423,-0.8436049222946167,0.5754350423812866
1748008225724352000,12.91635205078125,0.42271876335144043,-0.4245513379573822,0.5174028873443604
1748008225740190700,12.932190673828124,0.2919935882091522,-0.07391469180583954,0.5161811113357544
1748008225755968300,12.94796826171875,0.16432274878025055,-0.08124507963657379,0.4196644127368927
1748008225771776300,12.9637763671875,0.021991148591041565,-0.22296582162380219,0.23335053026676178
1748008225787523300,12.9795234375,-0.024434609338641167,-0.14416420459747314,-0.025656340643763542
1748008225803301000,12.995301025390624,-0.08246681094169617,0.1459967941045761,-0.3439171314239502
1748008225819170000,13.011170166015624,-0.11728613078594208,0.3543018400669098,-0.5338962078094482
1748008225834947800,13.02694775390625,-0.10506882518529892,0.3585779070854187,-0.6884451508522034
1748008225850755800,13.042755859375,-0.08796459436416626,0.15577064454555511,-0.8008443117141724
1748008225866563800,13.058563720703125,-0.11545353382825851,-0.1722639948129654,-0.9431759119033813
1748008225882341600,13.074341552734374,-0.1814269721508026,-0.3543018400669098,-1.0231993198394775
1748008225898180000,13.09018017578125,-0.2565633952617645,-0.3335324227809906,-1.0348057746887207
1748008225913896700,13.105896728515624,-0.2877175211906433,-0.12278391420841217,-1.0201449394226074
1748008225929674200,13.12167431640625,-0.25106561183929443,0.1765400618314743,-1.0073168277740479
1748008225945513000,13.137512939453124,-0.13744467496871948,0.37568211555480957,-0.9682214260101318
1748008225961351400,13.153351318359375,0.021380282938480377,0.38179078698158264,-0.9028588533401489
1748008225977159700,13.16915966796875,0.11789698898792267,0.1814269721508026,-0.8472700715065002
1748008225992937200,13.184937255859374,0.1411098688840866,-0.06414084881544113,-0.6963863968849182
1748008226008806400,13.200806396484374,0.09162978827953339,-0.16004669666290283,-0.5558874011039734
1748008226024614400,13.216614501953124,0.1062905490398407,-0.16554448008537292,-0.49235737323760986
1748008226040422700,13.232422607421874,0.18387043476104736,-0.11667526513338089,-0.46792277693748474
1748008226056261000,13.24826123046875,0.2822197377681732,-0.09773843735456467,-0.5021312236785889
1748008226072008200,13.26400830078125,0.4392121136188507,-0.13072516024112701,-0.6163630485534668
1748008226095751000,13.2877509765625,0.5503895878791809,-0.14905111491680145,-0.7641924023628235
1748008226111467500,13.303467529296874,0.5638286471366882,-0.30115658044815063,-0.8613200187683105
1748008226127306200,13.31930615234375,0.6023131608963013,-0.7452555894851685,-0.9902125597000122
1748008226143114200,13.3351142578125,0.5833762884140015,-1.0769554376602173,-1.0005972385406494
1748008226158891800,13.350891845703124,0.46364670991897583,-1.739133358001709,-1.2034045457839966
1748008226174730500,13.36673046875,0.3292563557624817,-1.9285016059875488,-1.3237450122833252
1748008226190477600,13.3824775390625,0.2626720666885376,-1.5326608419418335,-1.2424999475479126
1748008226206285600,13.39828564453125,0.2968805134296417,-0.8943067193031311,-0.9908234477043152
1748008226222093800,13.41409375,0.4404338300228119,-0.04948008432984352,-0.6768386960029602
1748008226237901800,13.42990185546875,0.5717698931694031,0.35735616087913513,-0.48197266459465027
1748008226253740500,13.445740478515624,0.5320636034011841,0.004886921960860491,-0.3390302062034607
1748008226269487600,13.461487548828124,0.3127630054950714,-0.6035348773002625,-0.2791654169559479
1748008226285326000,13.477326171875,-0.0354301854968071,-1.091616153717041,-0.3445279896259308
1748008226301134300,13.49313427734375,-0.26511552929878235,-1.1099421977996826,-0.2626720666885376
1748008226324876800,13.516876708984375,-0.24495697021484375,-0.6890559792518616,0.08796459436416626
1748008226340715500,13.532715576171874,-0.07941248267889023,-0.618195652961731,0.35552358627319336
1748008226356523800,13.548523681640624,-0.0555887371301651,-0.6236934065818787,0.3732386529445648
1748008226372331800,13.564331787109374,-0.17287486791610718,-0.618195652961731,0.20036379992961884
1748008226388139800,13.580139892578124,-0.2919935882091522,-0.6377432942390442,0.015882495790719986
1748008226403948000,13.595947998046874,-0.33597588539123535,-0.8381071090698242,-0.06414084881544113
1748008226419756000,13.611756103515624,-0.3170390725135803,-1.0684033632278442,0.07941248267889023
1748008226435564300,13.627564208984374,-0.32681289315223694,-1.150259256362915,0.36590829491615295
1748008226451402800,13.64340283203125,-0.34025195240974426,-1.0152580738067627,0.588874101638794
1748008226467149800,13.65914990234375,-0.35124751925468445,-0.8454375267028809,0.6291912198066711
1748008226482988500,13.674988525390624,-0.33169981837272644,-0.8704829812049866,0.5290092825889587
1748008226498796500,13.690796630859374,-0.28038713335990906,-1.1081095933914185,0.45814892649650574
1748008226514604800,13.706604736328124,-0.23273965716362,-1.4520267248153687,0.41722095012664795
1748008226530443300,13.722443359375,-0.19608774781227112,-1.5528194904327393,0.3182607889175415
1748008226546220800,13.738220703125,-0.24984388053417206,-1.111163854598999,0.18020524084568024
1748008226562029000,13.754029052734374,-0.3891211748123169,-0.4141666293144226,0.04337143152952194
1748008226577837000,13.769837158203124,-0.45814892649650574,0.24434609711170197,-0.1160643994808197
1748008226593614600,13.785614501953125,-0.44226643443107605,0.5002986192703247,-0.2675589919090271
1748008226609453300,13.801453369140624,-0.48685958981513977,0.5082398653030396,-0.3543018400669098
1748008226625170000,13.817169921875,-0.5711590051651001,0.5070181488990784,-0.23090706765651703
1748008226640978000,13.83297802734375,-0.588874101638794,0.6340781450271606,-0.04764748737215996
1748008226656786200,13.8487861328125,-0.5626068711280823,0.8381071090698242,-0.013439035043120384
1748008226672563700,13.864563720703124,-0.5760459303855896,1.1618657112121582,-0.12217304855585098
1748008226688371700,13.880371826171874,-0.6023131608963013,1.2999212741851807,-0.252287358045578
1748008226704180000,13.896179931640624,-0.656680166721344,1.1734721660614014,-0.2687807083129883
1748008226719988000,13.911988037109374,-0.6609562039375305,0.9395107626914978,-0.22663100063800812
1748008226735765500,13.927765625,-0.588874101638794,0.7770205736160278,-0.17592918872833252
1748008226751543300,13.943543212890624,-0.4538728892803192,0.6719517707824707,-0.14294247329235077
1748008226767381800,13.9593818359375,-0.35185837745666504,0.5852088928222656,-0.13744467496871948
1748008226783159300,13.9751591796875,-0.3029891550540924,0.4544837474822998,-0.11423180252313614
1748008226798998000,13.990998046875,-0.3292563557624817,0.3481931984424591,-0.03726277872920036
1748008226814775600,14.006775634765624,-0.4386012554168701,0.2070833146572113,0.12278391420841217
1748008226830583800,14.022583740234374,-0.5595525503158569,0.1368338167667389,0.22479841113090515
1748008226846422300,14.03842236328125,-0.7049384713172913,0.10934487730264664,0.19792033731937408
1748008226862139000,14.054138916015624,-0.7745771408081055,0.1014036312699318,0.06780604273080826
1748008226877977600,14.0699775390625,-0.8662069439888,0.15882496535778046,-0.07147123664617538
1748008226893846500,14.085846435546875,-0.9474520087242126,0.27488934993743896,-0.0403171069920063
1748008226909654800,14.10165478515625,-0.9523389339447021,0.3854559659957886,0.1319468915462494
1748008226925493200,14.1174931640625,-0.8643743395805359,0.6047565937042236,0.18997909128665924
1748008226941301500,14.133301513671874,-0.656680166721344,1.0781772136688232,0.1258382350206375
1748008226957079000,14.1490791015625,-0.4098905920982361,0.504574716091156,-0.455705463886261
1748008226972856600,14.164856689453124,-0.5088507533073425,-0.8026769161224365,-0.9969320893287659
1748008226988634400,14.18063427734375,-0.6994407176971436,-2.2204952239990234,-0.8350527882575989
1748008227004503300,14.19650341796875,-0.5057964324951172,-2.465452194213867,-0.36163222789764404
1748008227020281000,14.212281005859374,-0.26450464129447937,-1.4581353664398193,0.35246923565864563
1748008227036119600,14.22811962890625,-0.06291911751031876,-0.16982053220272064,0.7086036801338196
1748008227051927800,14.243927734375,0.2217440903186798,0.9590584635734558,0.6200281977653503
1748008227067705300,14.259705322265624,0.394008070230484,1.303586483001709,0.5314527750015259
1748008227083574500,14.275574462890624,0.45326200127601624,0.9944885969161987,0.6792821288108826
1748008227099352000,14.29135205078125,0.384845107793808,0.46731191873550415,0.9046914577484131
1748008227115129600,14.307129638671874,0.252287358045578,-0.031154127791523933,1.0225883722305298
1748008227130907100,14.3229072265625,0.15577064454555511,-0.24495697021484375,0.9755517840385437
1748008227146684700,14.3386845703125,0.07269296050071716,-0.23029619455337524,0.8038986921310425
1748008227162553900,14.354553955078124,0.0354301854968071,-0.1722639948129654,0.646906316280365
1748008227178362000,14.370362060546874,0.025656340643763542,-0.21074850857257843,0.5656611919403076
1748008227194200600,14.38620068359375,-0.00427605677396059,-0.313373863697052,0.5687155723571777
1748008227210008800,14.4020087890625,-0.07941248267889023,-0.3237585723400116,0.5558874011039734
1748008227225816800,14.41781689453125,-0.1508837193250656,-0.2015855312347412,0.5619960427284241
1748008227241625000,14.433625,-0.16859880089759827,-0.00366519158706069,0.6279694437980652
1748008227257402600,14.449402587890624,-0.1722639948129654,0.22052235901355743,0.7825183868408203
1748008227273180200,14.46518017578125,-0.19792033731937408,0.2535090744495392,0.969443142414093
1748008227288957700,14.480957763671874,-0.25106561183929443,0.3439171314239502,1.1832460165023804
1748008227304704800,14.496704833984374,-0.4190535545349121,0.684779942035675,1.189354658126831
1748008227320543500,14.51254345703125,-0.6053674817085266,1.216843605041504,0.9975429177284241
1748008227336321000,14.528321044921874,-0.6695083379745483,1.7348573207855225,0.7531968355178833
1748008227352159700,14.54415966796875,-0.6609562039375305,2.063502788543701,0.41111230850219727
1748008227367967700,14.5599677734375,-0.645684540271759,2.2033908367156982,0.13011430203914642
1748008227383775700,14.575775634765625,-0.5351179838180542,2.0372354984283447,-0.48808133602142334
1748008227399614500,14.591614501953124,-0.4740314185619354,1.1673635244369507,-1.4569135904312134
1748008227415392000,14.60739208984375,-0.7147123217582703,-0.5583308339118958,-2.5198190212249756
1748008227431200300,14.6232001953125,-1.1001683473587036,-2.0170769691467285,-2.724458932876587
1748008227447008300,14.63900830078125,-1.1808024644851685,-2.233323335647583,-2.389704942703247
1748008227462785800,14.654785888671874,-0.8258898258209229,-1.2626584768295288,-1.6756033897399902
1748008227478655000,14.670655029296874,-0.2174680233001709,-0.13988813757896423,-1.2009611129760742
1748008227494432500,14.6864326171875,0.25045475363731384,0.4691445231437683,-0.8686503767967224
1748008227510210000,14.7022099609375,0.3683517575263977,0.1612684279680252,-0.485027015209198
1748008227525987800,14.71798779296875,0.20952677726745605,-0.6707300543785095,-0.06108652427792549
1748008227557604000,14.74960400390625,-0.1569923609495163,-1.026253581047058,0.01771509274840355
1748008227573381600,14.765381591796874,-0.2272418737411499,-0.5143485069274902,-0.17470745742321014
1748008227589159200,14.7811591796875,-0.20341812074184418,0.15943582355976105,-0.31459560990333557
1748008227604967200,14.79696728515625,-0.1313360333442688,0.5442809462547302,-0.3323107063770294
1748008227620806000,14.812805908203124,-0.0555887371301651,0.7110471725463867,-0.26083946228027344
1748008227636644600,14.82864453125,-0.05009094998240471,0.59803706407547,-0.13988813757896423
1748008227652422100,14.844422119140624,-0.14966198801994324,0.33108896017074585,0.006108652334660292
1748008227668199700,14.86019970703125,-0.2834414839744568,0.16065755486488342,0.12950342893600464
1748008227684007700,14.876007568359375,-0.37690386176109314,0.12461651116609573,0.2217440903186798
1748008227699754800,14.891754638671875,-0.3799581825733185,0.27550023794174194,0.2021963894367218
1748008227715593500,14.907593505859374,-0.32986724376678467,0.47769662737846375,0.14049901068210602
1748008227731340500,14.923340576171874,-0.2871066629886627,0.7904596328735352,0.12339477986097336
1748008227747148500,14.9391484375,-0.24373523890972137,1.0879509449005127,0.16249015927314758
1748008227762895600,14.9548955078125,-0.1508837193250656,1.3854423761367798,0.16859880089759827
1748008227778734300,14.970734375,-0.01160643994808197,1.6383405923843384,0.15943582355976105
1748008227794573000,14.986572998046874,0.38240164518356323,1.7519614696502686,-0.2217440903186798
1748008227810350600,15.0023505859375,0.5699372887611389,1.49906325340271,-0.4954117238521576
1748008227826158600,15.01815869140625,0.6023131608963013,0.4856378734111786,-0.5283984541893005
1748008227841936100,15.03393603515625,0.04764748737215996,-0.32620203495025635,-0.7110471725463867
1748008227857744400,15.049744384765624,-0.33047810196876526,-0.7843509912490845,-1.1001683473587036
1748008227873552400,15.065552490234374,-0.13805554807186127,-0.8772025108337402,-1.3072515726089478
1748008227889299500,15.081299560546874,0.3170390725135803,-0.40683624148368835,-1.0848966836929321
1748008227905138200,15.09713818359375,0.6157521605491638,0.1007927656173706,-0.4697553813457489
1748008227920946200,15.1129462890625,1.0421360731124878,0.5931501388549805,0.6493497490882874
1748008227936785000,15.128784912109374,1.6878206729888916,0.7202101349830627,1.8112154006958008
1748008227952623600,15.14462353515625,2.10809588432312,0.38667771220207214,2.5057692527770996
1748008227968401200,15.160401123046874,2.263866662979126,-0.1667662113904953,2.8826730251312256
1748008227984239600,15.176239501953125,2.1820106506347656,-0.44593164324760437,2.6762006282806396
1748008228000017400,15.192017333984374,2.0146336555480957,-0.6047565937042236,2.1514673233032227
1748008228015795000,15.207794921875,1.797776460647583,-0.5540547966957092,1.701259732246399
1748008228031664000,15.2236640625,1.3732250928878784,-0.39645153284072876,1.3744467496871948
1748008228047441700,15.239441650390624,1.004873275756836,-0.3090978264808655,1.2577714920043945
1748008228063188700,15.255188720703124,0.5595525503158569,-0.40194934606552124,1.2260065078735352
1748008228079027200,15.271027099609375,0.192422553896904,-0.28466320037841797,1.1148290634155273
1748008228094743800,15.286743896484374,-0.1270599663257599,-0.13561208546161652,0.8949176073074341
1748008228110582500,15.30258251953125,-0.2828305959701538,0.20402899384498596,0.7342600226402283
1748008228126360000,15.318360107421874,-0.19853121042251587,0.7373143434524536,0.7562511563301086
1748008228142198800,15.33419873046875,0.0403171069920063,1.1362093687057495,0.9755517840385437
1748008228158006800,15.3500068359375,0.2840523421764374,1.3426817655563354,1.284038782119751
1748008228173845500,15.365845458984374,0.3139847218990326,1.3298536539077759,1.2278391122817993
1748008228189714700,15.381714599609374,0.15943582355976105,1.171028733253479,0.6017022728919983
1748008228205461800,15.397461669921874,-0.22357667982578278,0.5833762884140015,-0.6914994716644287
1748008228237139000,15.429138916015624,-0.9138544201850891,-0.413555771112442,-3.0445523262023926
1748008228252916500,15.44491650390625,-1.0128145217895508,-1.2522737979888916,-4.125173091888428
1748008228268755200,15.460755126953124,-1.0739010572433472,-2.0580050945281982,-4.626082420349121
1748008228284502300,15.476502197265624,-0.8894197940826416,-2.015855312347412,-3.9761219024658203
1748008228300279800,15.49227978515625,-0.44165557622909546,-0.9456194043159485,-2.536923408508301
1748008228316087800,15.508087890625,-0.030543262138962746,0.04092797264456749,-1.8710802793502808
1748008228331865300,15.523865234375,0.27000242471694946,0.3579670190811157,-1.824654459953308
1748008228347704000,15.5397041015625,0.3194825351238251,-0.03481931984424591,-1.8906279802322388
1748008228363512000,15.555511962890625,0.19914206862449646,-0.8234463334083557,-1.4599679708480835
1748008228379320300,15.5713203125,0.1313360333442688,-1.1582005023956299,-0.7800748944282532
1748008228403063000,15.59506298828125,0.06963863968849182,-0.9010262489318848,-0.13439035415649414
1748008228418901500,15.610901611328124,0.04337143152952194,-0.6004805564880371,-0.2223549485206604
1748008228434709800,15.626709716796874,0.01038470957428217,-0.5265658497810364,-0.41172316670417786
1748008228450548200,15.64254833984375,-0.08674286305904388,-0.656680166721344,-0.47708576917648315
1748008228466387000,15.658386962890624,-0.20586158335208893,-0.8112290501594543,-0.32620203495025635
1748008228482195000,15.67419482421875,-0.403781920671463,-0.8148942589759827,-0.09712757170200348
1748008228498033700,15.69003369140625,-0.5528330206871033,-0.6682865619659424,0.05864306539297104
1748008228513841700,15.705841552734375,-0.6145304441452026,-0.47219884395599365,0.1215621829032898
1748008228529650000,15.72164990234375,-0.6310238242149353,-0.26145032048225403,0.21624629199504852
1748008228545458000,15.7374580078125,-0.6010913848876953,-0.12522737681865692,0.41661009192466736
1748008228561205000,15.753205078125,-0.5833762884140015,-0.06719517707824707,0.789237916469574
1748008228576982500,15.768982421875,-0.6188064813613892,-0.029932396486401558,1.1771373748779297
1748008228592760300,15.78476025390625,-0.8191702961921692,0.05009094998240471,1.5467108488082886
1748008228608568300,15.800568359375,-0.9480628371238708,0.19058994948863983,1.7171422243118286
1748008228624407000,15.816406982421874,-0.8918632864952087,0.47708576917648315,1.560760736465454
1748008228640184600,15.8321845703125,-0.7568620443344116,0.807563841342926,1.160033106803894
1748008228655962000,15.847962158203124,-0.6133087277412415,1.1728612184524536,0.7257078886032104
1748008228671770000,15.86377001953125,-0.4282165467739105,1.147204875946045,0.3903428912162781
1748008228687578400,15.879578369140624,-0.2883284091949463,0.6542366743087769,-0.033597588539123535
1748008228703416800,15.895416748046875,-0.18325957655906677,0.30543261766433716,-0.41599923372268677
1748008228719225000,15.91122509765625,0.07208210229873657,-0.5009095072746277,-0.9340129494667053
1748008228735002600,15.927002685546874,-0.44715335965156555,-0.6963863968849182,-0.8106181621551514
1748008228750811000,15.942810791015624,-0.684779942035675,-0.42088615894317627,-0.808174729347229
1748008228766679800,15.9586796875,-0.5821545720100403,0.3225368559360504,-1.3750576972961426
1748008228782488000,15.974488037109374,-0.39706242084503174,0.9297369122505188,-1.8820757865905762
1748008228798265600,15.990265625,-0.16737708449363708,1.2858713865280151,-1.580308437347412
1748008228814043100,16.006043212890624,0.15393804013729095,1.291369080543518,-0.6475171446800232
1748008228829820700,16.021820556640623,0.7849618196487427,1.1386528015136719,0.4691445231437683
1748008228845629000,16.03762890625,1.2919800281524658,0.7867944240570068,0.9902125597000122
1748008228861437000,16.05343701171875,1.5821410417556763,0.027488935738801956,1.0922271013259888
1748008228877245200,16.0692451171875,1.4654656648635864,-0.6291912198066711,0.940732479095459
1748008228893083600,16.085083740234374,1.0903944969177246,-0.9706648588180542,0.7806857824325562
1748008228908861200,16.100861083984373,0.7745771408081055,-0.8356636762619019,0.6603453159332275
1748008228924700000,16.116699951171874,0.5222898125648499,-0.3842342495918274,0.5345070958137512
1748008228940508000,16.1325078125,0.40072759985923767,-0.03176499158143997,0.3988949954509735
1748008228956316200,16.148316162109374,0.36163222789764404,0.11728613078594208,0.2015855312347412
1748008228972155000,16.16415478515625,0.46547931432724,-0.10934487730264664,0.07757988572120667
1748008228987993300,16.179993408203124,0.6401867866516113,-0.44226643443107605,0.16982053220272064
1748008229003801600,16.195801513671874,0.7916813492774963,-0.6579018831253052,0.5271766781806946
1748008229019640000,16.21164013671875,0.8998045325279236,-0.6817256212234497,0.8778133392333984
1748008229035356700,16.227356689453124,1.0879509449005127,-0.5992587804794312,1.2657127380371094
1748008229051195400,16.2431953125,1.1129964590072632,-0.6194173693656921,1.6194037199020386
1748008229067003400,16.25900341796875,0.9150761365890503,-0.740368664264679,2.057394027709961
1748008229082842000,16.274842041015624,0.7538077235221863,-0.8607091307640076,2.2815816402435303
1748008229098650000,16.290650146484374,0.5564982295036316,-0.9053022861480713,2.214386463165283
1748008229114397200,16.306397216796874,0.3090978264808655,-0.7312057018280029,1.984701156616211
1748008229130174700,16.3221748046875,-0.07757988572120667,-0.3536909818649292,1.7006487846374512
1748008229145983000,16.33798291015625,-0.3604104816913605,0.1814269721508026,1.4721852540969849
1748008229161760500,16.353760498046874,-0.6035348773002625,0.8833111524581909,1.1087204217910767
1748008229177629700,16.369629638671874,-0.7415903806686401,1.273043155670166,0.608421802520752
1748008229193376800,16.385376708984374,-0.8399397134780884,1.1801916360855103,-0.3023782968521118
1748008229209215200,16.40121533203125,-1.0702359676361084,0.1466076523065567,-1.4605787992477417
1748008229224992800,16.41699267578125,-1.480737328529358,-1.179580807685852,-2.331061840057373
1748008229240739800,16.43273974609375,-1.8839083909988403,-2.001194477081299,-2.82769513130188
1748008229256578600,16.44857861328125,-1.8955148458480835,-1.3921618461608887,-2.811201810836792
1748008229272325600,16.46432568359375,-1.6377297639846802,0.47280970215797424,-2.715906858444214
1748008229288164400,16.480164306640624,-1.3463469743728638,1.6090190410614014,-2.722015619277954
1748008229303911400,16.495911376953124,-1.074512004852295,1.5876387357711792,-2.375044107437134
1748008229319750000,16.51175,-0.8827002644538879,0.6884451508522034,-1.5845844745635986
1748008229335588600,16.527588623046874,-0.665232241153717,-0.384845107793808,-0.484416127204895
1748008229351396600,16.543396728515624,-0.4147774875164032,-0.694553792476654,0.0012217304902151227
1748008229375078400,16.567078369140624,-0.18631389737129211,-0.19853121042251587,-0.07147123664617538
1748008229390825500,16.582825439453124,-0.18325957655906677,0.3549126982688904,-0.29993483424186707
1748008229414568200,16.606568115234374,-0.2565633952617645,0.5326744914054871,-0.40133845806121826
1748008229430345700,16.622345703125,-0.2877175211906433,0.23640485107898712,-0.42271876335144043
1748008229446184200,16.63818408203125,-0.3628539443016052,-0.2223549485206604,-0.4966334402561188
1748008229461962000,16.6539619140625,-0.5412266254425049,-0.6017022728919983,-0.5723807215690613
1748008229477800400,16.669800537109374,-0.7134906053543091,-0.8588765263557434,-0.6823364496231079
1748008229493608700,16.685608642578124,-0.7544185519218445,-1.009149432182312,-1.0109820365905762
1748008229509355800,16.701355712890624,-0.5742133259773254,-0.626747727394104,-1.2968668937683105
1748008229525194200,16.7171943359375,-0.46670106053352356,-0.1973094791173935,-1.3200798034667969
1748008229541002500,16.73300244140625,-0.4355469346046448,0.23457226157188416,-0.9437867999076843
1748008229556780000,16.748780029296874,-0.5681046843528748,0.08307767659425735,-0.607200026512146
1748008229572618500,16.764618408203123,-0.5369505286216736,-0.17104226350784302,-0.17898350954055786
1748008229588396300,16.780396240234374,-0.44287729263305664,-0.40072759985923767,0.2370157092809677
1748008229604234800,16.79623486328125,-0.23884831368923187,-0.45265114307403564,0.626747727394104
1748008229620043000,16.81204296875,-0.001832595793530345,-0.3280346393585205,1.017701506614685
1748008229635881500,16.827881591796874,0.20402899384498596,-0.19975294172763824,1.3457361459732056
1748008229651750700,16.843750732421874,0.3274237811565399,-0.15943582355976105,1.5601497888565063
1748008229667528200,16.859528076171873,0.34513887763023376,-0.16432274878025055,1.7831156253814697
1748008229683306000,16.875305908203124,0.28588494658470154,-0.21013765037059784,1.9211711883544922
1748008229699083500,16.89108349609375,0.23335053026676178,-0.11545353382825851,1.8686367273330688
1748008229714922000,16.906921875,0.23579397797584534,0.17287486791610718,1.5210545063018799
1748008229730791200,16.922791259765624,0.304210901260376,0.44287729263305664,1.0378600358963013
1748008229746538200,16.938538330078124,0.3878994286060333,0.27488934993743896,0.32131510972976685
1748008229762377000,16.954376953125,0.32498031854629517,-0.6236934065818787,-0.16432274878025055
1748008229778215400,16.97021533203125,0.14355333149433136,-1.531439185142517,-0.10445795953273773
1748008229793993200,16.9859931640625,0.1459967941045761,-1.5668693780899048,0.09773843735456467
1748008229809831700,17.001831787109374,0.23151792585849762,-0.8851437568664551,0.10567969083786011
1748008229825640000,17.017639892578124,0.455705463886261,-0.060475658625364304,-0.0659734457731247
1748008229849413000,17.0414130859375,0.7006624341011047,0.5497786998748779,-0.11545353382825851
1748008229865221000,17.05722119140625,0.6499606370925903,0.6346889734268188,0.303600013256073
1748008229881059800,17.073059814453124,0.6206390857696533,0.7843509912490845,0.7153232097625732
1748008229896867800,17.088867919921874,0.7037167549133301,1.1117748022079468,1.004873275756836
1748008229912737000,17.104737060546874,0.8124507665634155,1.3390166759490967,1.081842303276062
1748008229928606200,17.120606201171874,0.8869763612747192,1.3200798034667969,1.120937705039978
1748008229944322800,17.13632275390625,0.8558222055435181,1.0604621171951294,1.176526427268982
1748008229960130800,17.152130859375,0.7354817390441895,0.6914994716644287,1.2699888944625854
1748008229975969500,17.167969482421874,0.6346889734268188,0.5638286471366882,1.395827054977417
1748008229991777500,17.183777587890624,0.5516113042831421,0.6530149579048157,1.441641926765442
1748008230007646700,17.199646728515624,0.4746423065662384,0.9138544201850891,1.2968668937683105
1748008230023393800,17.215393798828124,0.44165557622909546,1.10139000415802,1.0952813625335693
1748008230039263000,17.231262939453124,0.41722095012664795,1.1380419731140137,0.9743300676345825
1748008230055040500,17.24704052734375,0.49357911944389343,1.1337659358978271,1.0433578491210938
1748008230070848500,17.2628486328125,0.6432411074638367,1.282817006111145,1.23394775390625
1748008230086687200,17.278687255859374,0.7409795522689819,1.377501130104065,1.3854423761367798
1748008230102464800,17.29446484375,0.8100073337554932,1.4110987186431885,1.4795156717300415
1748008230118273000,17.31027294921875,0.8423831462860107,1.4001030921936035,1.5076154470443726
1748008230134111500,17.326111572265624,0.9187413454055786,1.4123204946517944,1.4508049488067627
1748008230149919700,17.341919677734374,1.047023057937622,1.4850133657455444,1.3622294664382935
1748008230165758200,17.35775830078125,1.179580807685852,1.624901533126831,1.2565498352050781
1748008230181566500,17.37356640625,1.2235630750656128,1.7440202236175537,1.1966849565505981
1748008230197374500,17.38937451171875,1.2082914113998413,1.7892242670059204,1.111163854598999
1748008230213152000,17.405152099609374,1.1985175609588623,1.728137731552124,0.9230173826217651
1748008230228990700,17.42099072265625,1.2119566202163696,1.5638149976730347,0.750142514705658
1748008230244829400,17.436829345703124,1.2626584768295288,1.3335188627243042,0.7153232097625732
1748008230260576300,17.452576171875,1.2809844017028809,1.1282681226730347,0.8936958312988281
1748008230276415000,17.4684150390625,1.2858713865280151,1.0574077367782593,1.2327260971069336
1748008230292223200,17.48422314453125,1.3115277290344238,1.1227703094482422,1.4471397399902344
1748008230308092200,17.500092041015623,1.3432927131652832,1.1380419731140137,1.5864170789718628
1748008230323931000,17.515930908203124,1.3005321025848389,0.950506329536438,1.7189748287200928
1748008230339739000,17.53173876953125,1.177748203277588,0.6572909951210022,1.920560359954834
1748008230355577600,17.54757763671875,1.06657075881958,0.7299839854240417,2.057394027709961
1748008230371355100,17.563355224609374,1.0195341110229492,1.1728612184524536,1.9034560918807983
1748008230387132700,17.579132568359373,0.9963212013244629,1.6865988969802856,1.4080443382263184
1748008230402971400,17.594971435546874,0.8833111524581909,1.8374826908111572,0.6224716901779175
1748008230418779400,17.610779296875,0.646295428276062,1.207680583000183,-0.2974913716316223
1748008230434618000,17.6266181640625,0.608421802520752,0.08735372871160507,-1.1191051006317139
1748008230450395600,17.642395751953124,0.5992587804794312,-1.445918083190918,-1.719585657119751
1748008230466264800,17.658264892578124,0.5326744914054871,-2.004859685897827,-1.585806131362915
1748008230482103600,17.674103515625,0.5558874011039734,-1.2577714920043945,-1.1649199724197388
1748008230497911600,17.68991162109375,0.6499606370925903,0.40683624148368835,-1.1349875926971436
1748008230513719800,17.7057197265625,0.8332201838493347,2.2632558345794678,-1.5442672967910767
1748008230529527800,17.72152783203125,0.9108000993728638,2.867401361465454,-1.6145168542861938
1748008230545275000,17.73727490234375,0.8808676600456238,2.4080307483673096,-1.0335839986801147
1748008230561113600,17.753113525390624,0.8790351152420044,1.5528194904327393,-0.24617868661880493
1748008230576860700,17.768860595703124,1.0684033632278442,0.9560040831565857,0.5021312236785889
1748008230592668700,17.784668701171874,1.3054190874099731,0.902247965335846,0.789237916469574
1748008230608476700,17.8004765625,1.4184291362762451,1.0293079614639282,0.8503243923187256
1748008230624315400,17.8163154296875,1.2479976415634155,1.0476338863372803,0.7043276429176331
1748008230640154000,17.832154052734374,0.9669997096061707,0.9224064946174622,0.5186246037483215
1748008230655901200,17.847901123046874,0.6401867866516113,0.7476990818977356,0.33658674359321594
1748008230671709200,17.863709228515624,0.47280970215797424,0.7629706859588623,0.22113321721553802
1748008230687517200,17.87951708984375,0.45265114307403564,0.8674286603927612,0.14233160018920898
1748008230703356000,17.89535595703125,0.5082398653030396,0.846659243106842,0.18448130786418915
1748008230719194600,17.911194580078124,0.5815436840057373,0.6866125464439392,0.27122417092323303
1748008230734972200,17.92697216796875,0.5992587804794312,0.5112941861152649,0.27000242471694946
1748008230750780200,17.9427802734375,0.5711590051651001,0.2840523421764374,0.18631389737129211
1748008230766588400,17.95858837890625,0.5149593949317932,0.08979719132184982,0.14477506279945374
1748008230782366000,17.974365966796874,0.4764748811721802,-0.009773843921720982,0.17837265133857727
1748008230798204700,17.99020458984375,0.4862487316131592,0.09407325088977814,0.192422553896904
1748008230813921000,18.005921142578124,0.4990769028663635,0.42760565876960754,0.17898350954055786
1748008230829759700,18.021759765625,0.5259549617767334,0.6939429044723511,0.11178833991289139
1748008230845537300,18.037537353515624,0.5748242139816284,0.8503243923187256,0.010995574295520782
1748008230861314800,18.053314697265623,0.5852088928222656,0.817948579788208,-0.08735372871160507
1748008230877153500,18.069153564453124,0.5913175344467163,0.5485569834709167,-0.14966198801994324
1748008230892900600,18.084900634765624,0.5998696684837341,0.25106561183929443,-0.09162978827953339
1748008230908708600,18.10070849609375,0.6261368989944458,0.2015855312347412,0.06841690838336945
1748008230924516900,18.116516845703124,0.6939429044723511,0.35552358627319336,0.2718350291252136
1748008230940264000,18.132263916015624,0.7648032903671265,0.5797111392021179,0.4043927788734436
1748008230956072000,18.148072021484374,0.8020660877227783,0.7324274182319641,0.5357288122177124
1748008230971788500,18.16378857421875,0.7922922372817993,0.7464773058891296,0.6059783101081848
1748008230987596500,18.179596435546873,0.7904596328735352,0.5369505286216736,0.6316346526145935
1748008231003435300,18.195435302734374,0.7605272531509399,0.3323107063770294,0.6731734871864319
1748008231019212800,18.211212890625,0.7153232097625732,0.29565876722335815,0.788016140460968
1748008231035051500,18.227051513671874,0.7024950385093689,0.4593706727027893,0.8637634515762329
1748008231050798600,18.242798583984374,0.7250970602035522,0.7324274182319641,0.8857545852661133
1748008231066606600,18.258606689453124,0.7287622094154358,0.911410927772522,0.8515461683273315
1748008231082384100,18.274384033203123,0.6976081132888794,0.9755517840385437,0.6951646208763123
1748008231098162000,18.290161865234374,0.6383541822433472,0.8741481900215149,0.4056145250797272
1748008231113939500,18.305939453125,0.5974262356758118,0.10934487730264664,-0.13011430203914642
1748008231129686500,18.3216865234375,0.4813618063926697,-1.073290228843689,-0.41599923372268677
1748008231145525000,18.33752490234375,0.2571742534637451,-2.0396790504455566,-0.2431243658065796
1748008231161333200,18.353333251953124,0.1411098688840866,-1.5949691534042358,0.10384709388017654
1748008231177141200,18.369141357421874,0.15760323405265808,-0.03726277872920036,0.07819075137376785
1748008231192980000,18.38497998046875,0.32009339332580566,1.5271631479263306,-0.5729916095733643
1748008231208788000,18.4007880859375,0.48319441080093384,1.567480206489563,-1.0311405658721924
1748008231224626700,18.416626708984374,0.4715879559516907,0.4086688458919525,-0.7965682744979858
1748008231240434700,18.4324345703125,0.4612032473087311,-0.5662720799446106,-0.20830504596233368
1748008231256243000,18.448242919921874,0.5125159621238708,-0.5577199459075928,0.1563815027475357
1748008231272051000,18.464051025390624,0.6120869517326355,0.10323622822761536,0.20463985204696655
1748008231287859200,18.479859130859374,0.7037167549133301,0.9712757468223572,0.1411098688840866
1748008231303697700,18.49569775390625,0.7293730974197388,1.3823879957199097,0.13866640627384186
1748008231319536400,18.511536376953124,0.7550294399261475,1.3170254230499268,0.24190263450145721
1748008231335314000,18.52731396484375,0.7464773058891296,0.8662069439888,0.3494149148464203
1748008231351183000,18.54318310546875,0.6737843751907349,0.09896016865968704,0.46242499351501465
1748008231366960600,18.558960693359374,0.5155702829360962,-0.44837507605552673,0.5412266254425049
1748008231382799400,18.57479931640625,0.3732386529445648,-0.5919284224510193,0.494189977645874
1748008231398607400,18.590607421875,0.26145032048225403,-0.5393940210342407,0.35185837745666504
1748008231414354400,18.6063544921875,0.19914206862449646,-0.42088615894317627,0.18020524084568024
1748008231430193200,18.622193115234374,0.08735372871160507,-0.34574973583221436,0.028099801391363144
1748008231446001200,18.638001220703124,-0.01160643994808197,-0.35613444447517395,-0.022602014243602753
1748008231461840000,18.65383984375,-0.08307767659425735,-0.3536909818649292,-0.02321287989616394
1748008231477648000,18.66964794921875,-0.08246681094169617,-0.26939156651496887,-0.030543262138962746
1748008231493486600,18.685486572265624,-0.048258353024721146,-0.10751228034496307,-0.03726277872920036
1748008231509325000,18.701324951171873,-0.021991148591041565,0.04886921867728233,-0.016493361443281174
1748008231525041700,18.717041748046874,0.018325956538319588,0.18570303916931152,0.029932396486401558
1748008231540880400,18.73288037109375,0.060475658625364304,0.2474004179239273,0.07941248267889023
1748008231556688400,18.7486884765625,0.13377949595451355,0.23945917189121246,0.14416420459747314
1748008231572496600,18.76449658203125,0.21074850857257843,0.22357667982578278,0.2168571650981903
1748008231588335000,18.780335205078124,0.2620611786842346,0.22663100063800812,0.2889392673969269
1748008231604143400,18.796143310546874,0.31459560990333557,0.22846360504627228,0.3237585723400116
1748008231619981800,18.81198193359375,0.35246923565864563,0.19364428520202637,0.3170390725135803
1748008231635790000,18.8277900390625,0.34513887763023376,0.11423180252313614,0.29993483424186707
1748008231651567600,18.843567626953124,0.31642818450927734,0.04948008432984352,0.27550023794174194
1748008231667406300,18.85940625,0.28649580478668213,0.007941247895359993,0.2590068578720093
1748008231683153400,18.8751533203125,0.23029619455337524,0.016493361443281174,0.2767219543457031
1748008231698991900,18.890991943359374,0.18081611394882202,0.07513642311096191,0.2968805134296417
1748008231714800000,18.906800048828124,0.1411098688840866,0.1160643994808197,0.34147366881370544
1748008231730547200,18.922547119140624,0.08429940044879913,0.18509216606616974,0.4440990388393402
1748008231746385700,18.9383857421875,0.054367005825042725,0.23335053026676178,0.5198463201522827
1748008231762102300,18.954102294921874,0.02687807008624077,0.22968533635139465,0.5723807215690613
1748008231777910300,18.96991015625,-0.01038470957428217,0.14294247329235077,0.6090326309204102
1748008231793688000,18.98568798828125,-0.05253441259264946,0.06352998316287994,0.6310238242149353
1748008231809496000,19.00149609375,-0.05253441259264946,0.012217304669320583,0.6151412725448608
1748008231825365200,19.017365234375,-0.02626720629632473,-0.05925392732024193,0.5900958180427551
1748008231841173200,19.03317333984375,-0.02015855349600315,-0.12522737681865692,0.5803219676017761
1748008231856981500,19.0489814453125,-0.016493361443281174,-0.18387043476104736,0.5589417219161987
1748008231872759000,19.064759033203124,0.015271631069481373,-0.2125810980796814,0.5387831330299377
1748008231888567000,19.080567138671874,0.07635815441608429,-0.18081611394882202,0.5797111392021179
1748008231904405800,19.09640576171875,0.17837265133857727,-0.06536258012056351,0.6774495840072632
1748008231920213800,19.1122138671875,0.30115658044815063,0.0659734457731247,0.7733554244041443
1748008231936052500,19.128052490234374,0.5357288122177124,0.11545353382825851,0.846659243106842
1748008231951860500,19.143860595703124,0.8032878041267395,0.04581489413976669,0.9108000993728638
1748008231967668700,19.159668701171874,1.177748203277588,-0.24434609711170197,1.0103710889816284
1748008231983538000,19.175537841796874,1.455691933631897,-0.5955936312675476,1.171028733253479
1748008231999285000,19.191284912109374,1.644449234008789,-1.0280861854553223,1.4398094415664673
1748008232015062500,19.2070625,1.6792685985565186,-1.224173903465271,1.6029103994369507
1748008232030840000,19.222840087890624,1.6016886234283447,-1.215621829032898,1.5082262754440308
1748008232046678800,19.2386787109375,1.4080443382263184,-0.7904596328735352,1.2394455671310425
1748008232062517200,19.254517333984374,1.2192870378494263,-0.27061331272125244,0.8655960559844971
1748008232078325500,19.270325439453124,0.8973610401153564,0.3390302062034607,0.3799581825733185
1748008232094133500,19.286133544921874,0.44654250144958496,0.6255260109901428,0.0507018156349659
1748008232109941500,19.30194140625,-0.09346238523721695,0.5528330206871033,-0.0959058403968811
1748008232125749800,19.317749755859374,-0.5656611919403076,0.7324274182319641,-0.22296582162380219
1748008232141588200,19.333588134765623,-0.949895441532135,0.8802568316459656,-0.24007004499435425
1748008232157335300,19.349335205078123,-1.1557570695877075,1.017701506614685,-0.33536502718925476
1748008232173143600,19.3651435546875,-1.299310326576233,1.0806206464767456,-0.46731191873550415
1748008232188951600,19.38095166015625,-1.3964380025863647,0.930347740650177,-0.523511528968811
1748008232204698600,19.39669873046875,-1.5998560190200806,0.6524040699005127,-0.5619960427284241
1748008232220537300,19.412537353515624,-1.7727309465408325,0.4917465150356293,-0.5314527750015259
1748008232236284400,19.428284423828124,-1.8307631015777588,0.645684540271759,-0.4184426963329315
1748008232252092400,19.444092529296874,-1.7806721925735474,0.9871582388877869,-0.26511552929878235
1748008232267900700,19.459900634765624,-1.6194037199020386,1.1459832191467285,-0.20952677726745605
1748008232283678200,19.47567822265625,-1.3054190874099731,1.0604621171951294,-0.26145032048225403
1748008232315325000,19.507324951171874,-0.5326744914054871,-0.2565633952617645,-1.5320500135421753
1748008232331163600,19.52316357421875,-0.5619960427284241,-1.0781772136688232,-1.9407188892364502
1748008232346971600,19.5389716796875,-0.7061602473258972,-1.2986994981765747,-2.1563544273376465
1748008232370684000,19.562683837890624,-0.6285803318023682,-0.31031954288482666,-2.4678955078125
1748008232386461400,19.57846142578125,-0.2919935882091522,0.41661009192466736,-2.6309967041015625
1748008232402269400,19.59426953125,0.025045474991202354,0.5326744914054871,-2.269364356994629
1748008232418108200,19.610108154296874,0.23396138846874237,0.16920967400074005,-1.4721852540969849
1748008232433916200,19.625916259765624,0.3781255781650543,-0.3830125033855438,-0.4746423065662384
1748008232449755000,19.6417548828125,0.46670106053352356,-0.6481280326843262,0.025656340643763542
1748008232465563000,19.65756298828125,0.5833762884140015,-0.6695083379745483,0.06169738993048668
1748008232481340400,19.67334033203125,0.6139195561408997,-0.5522221922874451,-0.20952677726745605
1748008232497179100,19.68917919921875,0.5247332453727722,-0.35674530267715454,-0.423329621553421
1748008232512895700,19.704895751953124,0.3243694305419922,-0.27000242471694946,-0.2779437005519867
1748008232528765000,19.720764892578124,0.08246681094169617,-0.25595253705978394,0.06414084881544113
1748008232544573000,19.736572998046874,-0.010995574295520782,-0.23029619455337524,0.2974913716316223
1748008232560411600,19.75241162109375,-0.01710422709584236,-0.13439035415649414,0.41599923372268677
1748008232576219600,19.7682197265625,0.018325956538319588,-0.08124507963657379,0.3793473243713379
1748008232592028000,19.78402783203125,0.06108652427792549,-0.051312681287527084,0.3378084897994995
1748008232607836000,19.7998359375,0.13316862285137177,-0.06352998316287994,0.3836233615875244
1748008232623644000,19.815643798828123,0.23335053026676178,-0.033597588539123535,0.47280970215797424
1748008232639452200,19.8314521484375,0.3579670190811157,0.10323622822761536,0.5998696684837341
1748008232655260200,19.84726025390625,0.45875978469848633,0.25961771607398987,0.6438519954681396
1748008232671068400,19.863068359375,0.5797111392021179,0.42699480056762695,0.5858197808265686
1748008232686846000,19.878845947265624,0.6902777552604675,0.5656611919403076,0.4343251883983612
1748008232702684400,19.894684326171873,0.8258898258209229,0.637132465839386,0.22479841113090515
1748008232718492700,19.91049267578125,0.9175195693969727,0.6139195561408997,0.06719517707824707
1748008232734300700,19.92630078125,1.0170906782150269,0.5119050741195679,0.018936822190880775
