time,seconds_elapsed,z,y,x
1747993626670651400,0.0936513671875,-0.11545353382825851,0.03726277872920036,0.02015855349600315
1747993626686429000,0.109428955078125,-0.11545353382825851,0.03726277872920036,0.02015855349600315
1747993626702237200,0.1252373046875,-0.11545353382825851,0.03726277872920036,0.02015855349600315
1747993626718045200,0.141045166015625,-0.11545353382825851,0.03726277872920036,0.02015855349600315
1747993626733884000,0.1568837890625,-0.11545353382825851,0.03726277872920036,0.02015855349600315
1747993626749661400,0.172661376953125,-0.11545353382825851,0.03726277872920036,0.02015855349600315
1747993626765469400,0.188469482421875,-0.11545353382825851,0.03726277872920036,0.02015855349600315
1747993626789151200,0.212151123046875,-0.11545353382825851,0.03726277872920036,0.02015855349600315
1747993626804959200,0.227959228515625,0.8155050873756409,-0.6133087277412415,0.17898350954055786
1747993626820798000,0.2437978515625,1.0580185651779175,-0.2724458873271942,0.05314527451992035
1747993626836636700,0.25963671875,1.441641926765442,0.07269296050071716,0.04337143152952194
1747993626852414200,0.275414306640625,1.7134770154953003,0.5357288122177124,0.07208210229873657
1747993626868252700,0.291252685546875,1.6615535020828247,1.4483615159988403,0.13316862285137177
1747993626884061000,0.30706103515625,1.5106697082519531,2.0054705142974854,0.3488040566444397
1747993626899869000,0.322868896484375,1.4159855842590332,2.291355609893799,0.5277875661849976
1747993626915738000,0.338738037109375,1.2999212741851807,1.9773707389831543,0.6206390857696533
1747993626931515600,0.354515625,1.2400563955307007,1.3408491611480713,0.49235737323760986
1747993626947262700,0.3702626953125,1.1624765396118164,0.6627888083457947,0.18936823308467865
1747993626963040300,0.386040283203125,0.9193521738052368,-0.00366519158706069,-0.1667662113904953
1747993626978879000,0.40187890625,0.6994407176971436,-0.33108896017074585,-0.3323107063770294
1747993626994748200,0.417748046875,0.4642575979232788,-0.4746423065662384,-0.2742784917354584
1747993627010586600,0.433586669921875,0.44287729263305664,-0.4282165467739105,-0.21135938167572021
1747993627026425300,0.44942529296875,0.4948008358478546,-0.4764748811721802,-0.24556782841682434
1747993627042233600,0.465233642578125,0.6298020482063293,0.12278391420841217,-0.018325956538319588
1747993627058011100,0.48101123046875,0.7318165898323059,0.4386012554168701,0.1966986060142517
1747993627073880300,0.49688037109375,0.7067710757255554,0.8130616545677185,0.4856378734111786
1747993627089688300,0.512688232421875,0.48380526900291443,0.8057312369346619,0.5210680365562439
1747993627105496300,0.528496337890625,0.18631389737129211,0.6743952035903931,0.5381723046302795
1747993627121243400,0.544243408203125,0.048258353024721146,0.7531968355178833,0.5681046843528748
1747993627137082000,0.56008203125,0.03237585723400116,0.998153805732727,0.6811147332191467
1747993627152951300,0.575951416015625,0.152105450630188,1.188132882118225,0.7538077235221863
1747993627168728800,0.591728759765625,0.21502456068992615,1.2522737979888916,0.8063421249389648
1747993627184476000,0.607475830078125,0.19914206862449646,1.197906732559204,0.8759807348251343
1747993627200314600,0.623314697265625,0.19058994948863983,1.0671815872192383,0.9767735004425049
1747993627216061700,0.639061767578125,0.19058994948863983,0.949895441532135,1.0384708642959595
1747993627231930600,0.6549306640625,0.15271630883216858,0.816726803779602,1.0109820365905762
1747993627247739000,0.67073876953125,0.04398229718208313,0.5937610268592834,0.9260717034339905
1747993627263547000,0.686546875,-0.1014036312699318,0.49357911944389343,0.8747590184211731
1747993627279355100,0.702355224609375,-0.22418753802776337,0.6249151229858398,0.9156870245933533
1747993627295193600,0.718193603515625,-0.30543261766433716,1.0409144163131714,1.0268645286560059
1747993627311062800,0.734062744140625,-0.30543261766433716,1.4679092168807983,1.129489779472351
1747993627326809900,0.749809814453125,-0.26939156651496887,1.4856243133544922,1.1154398918151855
1747993627342648600,0.765648681640625,-0.3384193480014801,0.7269296646118164,0.9242390990257263
1747993627358456600,0.78145654296875,-0.4502076804637909,0.6145304441452026,0.6823364496231079
1747993627374295300,0.79729541015625,-0.46547931432724,0.16004669666290283,0.22907446324825287
1747993627390103300,0.813103271484375,-0.6236934065818787,0.2528982162475586,-0.11545353382825851
1747993627405911600,0.82891162109375,-0.5766568183898926,0.475253164768219,-0.3597996234893799
1747993627421780500,0.844780517578125,-0.33719760179519653,0.5051855444908142,-0.4349360466003418
1747993627437588700,0.860588623046875,-0.1716531366109848,0.3640756905078888,-0.40133845806121826
1747993627461300700,0.88430078125,-0.29504790902137756,-0.13439035415649414,-0.27611109614372253
1747993627477109000,0.90010888671875,-0.5210680365562439,-0.5009095072746277,-0.07819075137376785
1747993627492917000,0.9159169921875,-0.7617489695549011,-0.8100073337554932,0.16249015927314758
1747993627508755700,0.931755615234375,-0.9108000993728638,-0.7452555894851685,0.2535090744495392
1747993627524563700,0.947563720703125,-0.9443976879119873,-0.3885102868080139,0.1966986060142517
1747993627540372000,0.9633720703125,-0.8894197940826416,0.07208210229873657,0.17776179313659668
1747993627556180000,0.979179931640625,-0.8387179970741272,0.3170390725135803,0.21074850857257843
1747993627571988200,0.99498828125,-0.8484918475151062,0.42271876335144043,0.23945917189121246
1747993627587796200,1.010796142578125,-0.9969320893287659,0.42149701714515686,0.16737708449363708
1747993627603573800,1.02657373046875,-1.094059705734253,0.3683517575263977,0.025656340643763542
1747993627619382000,1.042382080078125,-1.0097602605819702,0.3121521472930908,-0.04337143152952194
1747993627635190000,1.05818994140625,-0.817948579788208,0.16982053220272064,-0.07880161702632904
1747993627650998000,1.073998046875,-0.7153232097625732,0.02382374368607998,-0.1111774742603302
1747993627666836700,1.089836669921875,-0.6908885836601257,-0.08674286305904388,-0.2223549485206604
1747993627682644700,1.105644775390625,-0.7104362845420837,-0.19425514340400696,-0.4056145250797272
1747993627698453000,1.121452880859375,-0.6487388610839844,-0.23640485107898712,-0.6633996367454529
1747993627714291700,1.137291748046875,-0.7373143434524536,-0.005497787147760391,-0.6780604124069214
1747993627730099700,1.153099609375,-0.5595525503158569,0.17592918872833252,-0.5021312236785889
1747993627745969000,1.168968994140625,-0.04459316283464432,0.22602014243602753,-0.3219259977340698
1747993627761746400,1.184746337890625,0.17043140530586243,0.15943582355976105,-0.1820378452539444
1747993627777554400,1.200554443359375,0.11239920556545258,-0.05803219974040985,0.08918632566928864
1747993627793362700,1.21636279296875,0.15515977144241333,-0.11178833991289139,0.3995058834552765
1747993627809232000,1.23223193359375,0.23579397797584534,-0.23151792585849762,0.740368664264679
1747993627825070300,1.2480703125,0.26145032048225403,-0.32559117674827576,0.9346238374710083
1747993627840848000,1.263847900390625,0.33475416898727417,-0.5125159621238708,0.9511171579360962
1747993627856686600,1.2796865234375,0.3732386529445648,-0.5601634383201599,0.7177666425704956
1747993627872494600,1.29549462890625,0.3701843321323395,-0.44776421785354614,0.4642575979232788
1747993627888302800,1.311302734375,0.2974913716316223,-0.3335324227809906,0.43737950921058655
1747993627904172000,1.327172119140625,0.1875356286764145,-0.2822197377681732,0.5198463201522827
1747993627919888400,1.342888427734375,0.09162978827953339,-0.28649580478668213,0.47280970215797424
1747993627935727000,1.35872705078125,-0.018936822190880775,-0.20402899384498596,0.08918632566928864
1747993627951596300,1.37459619140625,-0.14538592100143433,-0.022602014243602753,-0.36651915311813354
1747993627967404300,1.390404296875,-0.29993483424186707,-0.05497787147760391,-0.5699372887611389
1747993627983273500,1.4062734375,-0.47219884395599365,-0.06963863968849182,-0.7049384713172913
1747993627999051000,1.422051025390625,-0.5589417219161987,0.0659734457731247,-0.779464066028595
1747993628014889700,1.4378896484375,-0.5534439086914062,0.3591887652873993,-0.799011766910553
1747993628030697700,1.45369775390625,-0.5876523852348328,0.4905247986316681,-0.7415903806686401
1747993628046567000,1.46956689453125,-0.42577308416366577,0.5180137157440186,-0.6835582256317139
1747993628062436000,1.48543603515625,-0.2480112910270691,0.3023782968521118,-0.5797111392021179
1747993628078244000,1.501244140625,-0.1007927656173706,-0.11850785464048386,-0.3903428912162781
1747993628094052400,1.51705224609375,-0.06719517707824707,-0.42210787534713745,-0.2968805134296417
1747993628109830000,1.532829833984375,-0.09529497474431992,-0.46547931432724,-0.25534167885780334
1747993628125638100,1.54863818359375,-0.07330382615327835,-0.28099802136421204,-0.21380282938480377
1747993628141446100,1.564446044921875,0.04703662544488907,-0.01771509274840355,-0.15821409225463867
1747993628157284900,1.580284912109375,0.22113321721553802,0.24556782841682434,-0.05742133408784866
1747993628173092900,1.5960927734375,0.2889392673969269,0.25534167885780334,0.07635815441608429
1747993628188870400,1.611870361328125,0.313373863697052,0.1875356286764145,0.20952677726745605
1747993628204678700,1.6276787109375,0.31031954288482666,0.06780604273080826,0.30054569244384766
1747993628220517000,1.64351708984375,0.23335053026676178,-0.02015855349600315,0.3530801236629486
1747993628236264200,1.65926416015625,0.21991148591041565,0.01038470957428217,0.35552358627319336
1747993628252041700,1.675041748046875,0.2773328125476837,0.16310101747512817,0.3543018400669098
1747993628267850000,1.69085009765625,0.3988949954509735,0.25473082065582275,0.40683624148368835
1747993628283658000,1.706657958984375,0.49296826124191284,0.21991148591041565,0.5155702829360962
1747993628299527200,1.722527099609375,0.3903428912162781,-0.08368854224681854,0.4917465150356293
1747993628315304700,1.7383046875,0.1771509200334549,-0.5155702829360962,0.2217440903186798
1747993628331113000,1.754113037109375,0.04581489413976669,-0.5198463201522827,-0.06719517707824707
1747993628346921000,1.7699208984375,0.13866640627384186,0.09896016865968704,-0.18631389737129211
1747993628362759700,1.785759765625,0.46853363513946533,0.6389650702476501,-0.04153883829712868
1747993628378598100,1.80159814453125,0.8662069439888,0.9395107626914978,0.1111774742603302
1747993628394406400,1.817406494140625,1.1062769889831543,1.0958921909332275,0.12522737681865692
1747993628410214400,1.83321435546875,1.083064079284668,0.8594874143600464,-0.19120082259178162
1747993628425992000,1.848991943359375,0.9425650835037231,0.29565876722335815,-0.7067710757255554
1747993628441830700,1.86483056640625,0.6994407176971436,-0.11056660860776901,-0.9040805697441101
1747993628457699800,1.880699951171875,0.17531833052635193,-0.21074850857257843,-0.9334021210670471
1747993628473507800,1.8965078125,-0.18448130786418915,-0.40683624148368835,-0.6499606370925903
1747993628489316000,1.912316162109375,-0.3194825351238251,-0.5473352670669556,0.01710422709584236
1747993628505124000,1.9281240234375,-0.23884831368923187,-0.485027015209198,0.7452555894851685
1747993628520901600,1.943901611328125,-0.04214970022439957,-0.242513507604599,1.4666874408721924
1747993628536710000,1.9597099609375,0.0708603709936142,0.06963863968849182,1.6872098445892334
1747993628552548400,1.97554833984375,0.10201449692249298,0.3628539443016052,1.539380431175232
1747993628568326000,1.991325927734375,0.07635815441608429,0.4184426963329315,1.2565498352050781
1747993628584134100,2.007134033203125,0.039706241339445114,0.2919935882091522,1.0482447147369385
1747993628599911700,2.02291162109375,-0.03176499158143997,-0.028099801391363144,0.911410927772522
1747993628615811300,2.038811279296875,-0.09040805697441101,-0.27611109614372253,0.7733554244041443
1747993628631528000,2.05452783203125,-0.17776179313659668,-0.20952677726745605,0.4905247986316681
1747993628647336000,2.0703359375,-0.19853121042251587,0.02932153269648552,0.2370157092809677
1747993628663144200,2.086144287109375,-0.08185594528913498,0.11850785464048386,-0.0024434609804302454
1747993628679013400,2.102013427734375,0.02015855349600315,0.06719517707824707,-0.1007927656173706
1747993628694851800,2.117851806640625,0.014049900695681572,-0.0861319974064827,-0.03787364438176155
1747993628710599000,2.133598876953125,-0.045204028487205505,-0.19792033731937408,0.11423180252313614
1747993628726437600,2.149437744140625,-0.10812314599752426,-0.2474004179239273,0.32498031854629517
1747993628742245600,2.16524560546875,-0.17776179313659668,-0.26145032048225403,0.4801400899887085
1747993628758054000,2.181053955078125,-0.20586158335208893,-0.14538592100143433,0.5253441333770752
1747993628773953500,2.19695361328125,-0.17837265133857727,0.0861319974064827,0.4349360466003418
1747993628789792000,2.2127919921875,-0.11178833991289139,0.25595253705978394,0.2987131178379059
1747993628805600300,2.228600341796875,-0.05803219974040985,0.2730567753314972,0.08124507963657379
1747993628821438700,2.244438720703125,-0.06719517707824707,0.14294247329235077,-0.12461651116609573
1747993628837216500,2.260216552734375,-0.11301007121801376,-0.039095375686883926,-0.29626965522766113
1747993628853116200,2.2761162109375,-0.15393804013729095,-0.16004669666290283,-0.3078760802745819
1747993628868954600,2.29195458984375,-0.15760323405265808,-0.34025195240974426,-0.16737708449363708
1747993628884763000,2.307762939453125,-0.16493362188339233,-0.5021312236785889,-0.01710422709584236
1747993628900601300,2.323601318359375,-0.182648703455925,-0.4996877610683441,0.12034045159816742
1747993628916440000,2.339440185546875,-0.24129177629947662,-0.45631635189056396,0.26633724570274353
1747993628932309200,2.355309326171875,-0.34086281061172485,-0.35124751925468445,0.45326200127601624
1747993628948056300,2.371056396484375,-0.42149701714515686,-0.2541199326515198,0.6835582256317139
1747993628963864300,2.3868642578125,-0.47769662737846375,-0.16004669666290283,0.8729264140129089
1747993628979641900,2.402641845703125,-0.5057964324951172,-0.02076941914856434,1.0109820365905762
1747993628995389000,2.418388916015625,-0.45265114307403564,0.1514945775270462,1.047023057937622
1747993629019162000,2.442162109375,-0.3335324227809906,0.25595253705978394,0.959669291973114
1747993629035031300,2.45803125,-0.2987131178379059,0.19914206862449646,0.8191702961921692
1747993629050839600,2.473839599609375,-0.2675589919090271,0.03237585723400116,0.6261368989944458
1747993629066647600,2.4896474609375,-0.24617868661880493,-0.18020524084568024,0.4331034719944
1747993629082455600,2.50545556640625,-0.21624629199504852,-0.25961771607398987,0.2932153046131134
1747993629098263800,2.521263916015625,-0.1612684279680252,-0.2064724564552307,0.18509216606616974
1747993629114071800,2.53707177734375,-0.13072516024112701,-0.09712757170200348,0.1869247704744339
1747993629129910500,2.55291064453125,-0.13255776464939117,0.045204028487205505,0.2932153046131134
1747993629145657600,2.56865771484375,-0.13988813757896423,0.21013765037059784,0.39095374941825867
1747993629161496000,2.58449609375,-0.1215621829032898,0.4251621961593628,0.43737950921058655
1747993629177334800,2.600334716796875,-0.05497787147760391,0.47830748558044434,0.4740314185619354
1747993629193142800,2.616142822265625,0.04214970022439957,0.1368338167667389,0.5351179838180542
1747993629208951000,2.631950927734375,0.033597588539123535,-0.003054326167330146,0.3933972120285034
1747993629224698000,2.647697998046875,-0.07024950534105301,0.13011430203914642,0.01038470957428217
1747993629240506000,2.663506103515625,-0.0006108652451075613,0.22846360504627228,-0.29993483424186707
1747993629256375300,2.679375244140625,0.25473082065582275,0.2767219543457031,-0.5674937963485718
1747993629272183600,2.69518359375,0.4893030524253845,0.3176499307155609,-0.7898487448692322
1747993629287991600,2.710991455078125,0.5943718552589417,0.3683517575263977,-0.8649851679801941
1747993629303738600,2.726738525390625,0.5900958180427551,0.2681698501110077,-0.7287622094154358
1747993629319577300,2.742577392578125,0.5577199459075928,-0.022602014243602753,-0.43127086758613586
1747993629335324400,2.758324462890625,0.5265658497810364,-0.3439171314239502,-0.03298672288656235
1747993629351163000,2.774162841796875,0.4966334402561188,-0.4086688458919525,0.1459967941045761
1747993629367032000,2.790031982421875,0.48747047781944275,-0.16982053220272064,0.06352998316287994
1747993629382809600,2.8058095703125,0.5326744914054871,0.2015855312347412,-0.1918116807937622
1747993629398617900,2.821617919921875,0.6695083379745483,0.6731734871864319,-0.5241223573684692
1747993629414395400,2.8373955078125,0.8069530129432678,0.8118399381637573,-0.6890559792518616
1747993629430203400,2.853203369140625,0.8900306820869446,0.665232241153717,-0.808174729347229
1747993629446011600,2.86901171875,0.8985827565193176,0.3384193480014801,-0.9321803450584412
1747993629461819600,2.884819580078125,0.8784242272377014,-0.036041051149368286,-1.0598511695861816
1747993629477627600,2.900627685546875,0.8643743395805359,-0.2125810980796814,-1.047023057937622
1747993629493436000,2.916435791015625,0.8808676600456238,-0.2730567753314972,-0.8069530129432678
1747993629509244000,2.932243896484375,0.8582656979560852,-0.27061331272125244,-0.43188172578811646
1747993629525082600,2.94808251953125,0.759916365146637,-0.22113321721553802,-0.1514945775270462
1747993629540829700,2.96382958984375,0.6041457056999207,-0.1264491081237793,0.007941247895359993
1747993629556637700,2.9796376953125,0.47280970215797424,-0.02382374368607998,0.07208210229873657
1747993629572415500,2.99541552734375,0.37262779474258423,0.08491026610136032,0.16310101747512817
1747993629588284400,3.011284423828125,0.3378084897994995,0.19120082259178162,0.2474004179239273
1747993629604123100,3.027123046875,0.32131510972976685,0.2431243658065796,0.32559117674827576
1747993629619900700,3.042900634765625,0.3139847218990326,0.17959438264369965,0.32009339332580566
1747993629635709000,3.058708984375,0.313373863697052,0.03848451003432274,0.2681698501110077
1747993629651577900,3.074577880859375,0.3396410644054413,-0.06414084881544113,0.21868975460529327
1747993629667386000,3.09038623046875,0.3274237811565399,-0.10567969083786011,0.1820378452539444
1747993629683255300,3.10625537109375,0.27977627515792847,-0.09651670604944229,0.17104226350784302
1747993629699032800,3.12203271484375,0.2565633952617645,-0.08918632566928864,0.18387043476104736
1747993629714871300,3.137871337890625,0.22113321721553802,-0.11484266817569733,0.2840523421764374
1747993629730679600,3.153679443359375,0.11423180252313614,-0.08491026610136032,0.37690386176109314
1747993629746457000,3.16945703125,-0.05925392732024193,-0.009773843921720982,0.4434881806373596
1747993629762295800,3.1852958984375,-0.1973094791173935,0.05314527451992035,0.48747047781944275
1747993629778043000,3.20104296875,-0.3390302062034607,-0.02871066704392433,0.6285803318023682
1747993629793912000,3.216912109375,-0.37201693654060364,-0.060475658625364304,0.6890559792518616
1747993629809689600,3.232689697265625,-0.46792277693748474,0.03420845419168472,0.6872233748435974
1747993629825467100,3.248467041015625,-0.5540547966957092,0.18448130786418915,0.5968153476715088
1747993629841336300,3.26433642578125,-0.5894849896430969,0.17837265133857727,0.5070181488990784
1747993629857144300,3.280144287109375,-0.5601634383201599,-0.005497787147760391,0.5143485069274902
1747993629872952600,3.29595263671875,-0.48685958981513977,-0.40133845806121826,0.5418374538421631
1747993629888699600,3.31169970703125,-0.44287729263305664,-0.6108652353286743,0.5406157374382019
1747993629904507600,3.327507568359375,-0.45631635189056396,-0.5357288122177124,0.4489859640598297
1747993629920376800,3.343376953125,-0.4489859640598297,-0.37262779474258423,0.3836233615875244
1747993629936215300,3.35921533203125,-0.3292563557624817,-0.24129177629947662,0.42577308416366577
1747993629951993000,3.3749931640625,-0.2541199326515198,-0.2840523421764374,0.5192354321479797
1747993629967801000,3.390801025390625,-0.31581732630729675,-0.35063666105270386,0.4893030524253845
1747993629983609000,3.406609130859375,-0.4593706727027893,-0.39645153284072876,0.394008070230484
1747993629999478300,3.422478271484375,-0.5736024379730225,-0.32681289315223694,0.3494149148464203
1747993630015256000,3.438256103515625,-0.6743952035903931,-0.13744467496871948,0.3335324227809906
1747993630031064000,3.45406396484375,-0.7330383062362671,0.1160643994808197,0.31642818450927734
1747993630046841600,3.469841552734375,-0.6731734871864319,0.3488040566444397,0.22907446324825287
1747993630062680300,3.485680419921875,-0.5204572081565857,0.3323107063770294,0.12400564551353455
1747993630078488300,3.50148828125,-0.35246923565864563,-0.0012217304902151227,0.07208210229873657
1747993630094327000,3.5173271484375,-0.3029891550540924,-0.3952298164367676,0.06902777403593063
1747993630110104600,3.5331044921875,-0.3530801236629486,-0.7360926270484924,0.05925392732024193
1747993630125882000,3.548882080078125,-0.4092797040939331,-0.846659243106842,0.06291911751031876
1747993630141659600,3.56465966796875,-0.41722095012664795,-0.7971791625022888,0.12278391420841217
1747993630157498400,3.580498291015625,-0.36651915311813354,-0.6866125464439392,0.17959438264369965
1747993630173245400,3.596245361328125,-0.29565876722335815,-0.5736024379730225,0.2370157092809677
1747993630189053400,3.612053466796875,-0.24556782841682434,-0.5070181488990784,0.22052235901355743
1747993630204831200,3.627831298828125,-0.20891591906547546,-0.44593164324760437,0.15332718193531036
1747993630220639200,3.64363916015625,-0.17531833052635193,-0.3781255781650543,0.09346238523721695
1747993630236447200,3.659447265625,-0.17348572611808777,-0.2724458873271942,0.10812314599752426
1747993630252225000,3.67522509765625,-0.18509216606616974,-0.07513642311096191,0.16920967400074005
1747993630268094000,3.691093994140625,-0.1319468915462494,0.08918632566928864,0.2382374405860901
1747993630283932700,3.7069326171875,-0.012217304669320583,0.21930062770843506,0.3182607889175415
1747993630299741000,3.722740966796875,0.10751228034496307,0.2816088795661926,0.37262779474258423
1747993630315579400,3.738579345703125,0.2125810980796814,0.29016098380088806,0.394008070230484
1747993630331387600,3.7543876953125,0.2681698501110077,0.26450464129447937,0.3182607889175415
1747993630347226000,3.77022607421875,0.3744603991508484,0.3066543638706207,0.13805554807186127
1747993630363003600,3.786003662109375,0.5357288122177124,0.30115658044815063,0.00855211354792118
1747993630378842400,3.80184228515625,0.7483099102973938,0.1319468915462494,-0.08246681094169617
1747993630394681000,3.81768115234375,0.8655960559844971,0.012828170321881771,-0.16310101747512817
1747993630410489000,3.833489013671875,0.837496280670166,0.03237585723400116,-0.28038713335990906
1747993630426297000,3.849297119140625,0.7715228199958801,0.10445795953273773,-0.38728857040405273
1747993630442105300,3.865105224609375,0.7159340381622314,0.08002334833145142,-0.45753806829452515
1747993630457943800,3.88094384765625,0.6517932415008545,0.015271631069481373,-0.5320636034011841
1747993630473752000,3.896751953125,0.5876523852348328,0.0006108652451075613,-0.607810914516449
1747993630489529600,3.912529541015625,0.4453207552433014,0.06108652427792549,-0.6798930168151855
1747993630505337900,3.928337890625,0.28038713335990906,0.17287486791610718,-0.789237916469574
1747993630521115400,3.944115478515625,0.14844025671482086,0.3640756905078888,-1.0317513942718506
1747993630536923400,3.95992333984375,0.17043140530586243,0.5907067060470581,-1.2467759847640991
1747993630552731600,3.975731689453125,0.2968805134296417,0.8087855577468872,-1.3652838468551636
1747993630568539600,3.99153955078125,0.43799036741256714,0.7391469478607178,-1.2974777221679688
1747993630584347600,4.00734765625,0.4440990388393402,0.45326200127601624,-1.1227703094482422
1747993630600125400,4.02312548828125,0.2638937830924988,0.2730567753314972,-0.9914342761039734
1747993630615933400,4.038933349609375,-0.012217304669320583,0.24068090319633484,-0.8381071090698242
1747993630631772200,4.054772216796875,-0.11178833991289139,0.40072759985923767,-0.7012733221054077
1747993630647580200,4.070580078125,-0.006108652334660292,0.5143485069274902,-0.5968153476715088
1747993630663388200,4.08638818359375,0.20097467303276062,0.5174028873443604,-0.5338962078094482
1747993630679135200,4.10213525390625,0.303600013256073,0.4300491213798523,-0.5955936312675476
1747993630694943500,4.117943603515625,0.2730567753314972,0.3017674386501312,-0.7293730974197388
1747993630710782000,4.133781982421875,0.15577064454555511,0.1612684279680252,-0.7299839854240417
1747993630726590200,4.149590087890625,0.02871066704392433,-0.00855211354792118,-0.5955936312675476
1747993630742337300,4.165337158203125,0.07941248267889023,-0.1270599663257599,-0.4331034719944
1747993630758114800,4.18111474609375,0.28588494658470154,-0.23945917189121246,-0.25045475363731384
1747993630773953500,4.19695361328125,0.4703662395477295,-0.2590068578720093,-0.18325957655906677
1747993630789822500,4.212822509765625,0.5577199459075928,-0.19608774781227112,-0.18081611394882202
1747993630805630700,4.228630615234375,0.48685958981513977,-0.10018189996480942,-0.21502456068992615
1747993630821438700,4.244438720703125,0.2816088795661926,0.05803219974040985,-0.2773328125476837
1747993630837247000,4.2602470703125,0.1270599663257599,0.18936823308467865,-0.22907446324825287
1747993630853024500,4.2760244140625,0.06352998316287994,0.37568211555480957,-0.03237585723400116
1747993630868863200,4.29186328125,0.09896016865968704,0.5241223573684692,0.1514945775270462
1747993630884610300,4.3076103515625,0.19792033731937408,0.5546656250953674,0.18997909128665924
1747993630900418300,4.323418212890625,0.2932153046131134,0.4282165467739105,0.11667526513338089
1747993630916257000,4.339257080078125,0.25961771607398987,0.29016098380088806,-0.00366519158706069
1747993630932065000,4.35506494140625,0.1472185254096985,0.19792033731937408,-0.1508837193250656
1747993630947903700,4.37090380859375,0.04886921867728233,0.19486601650714874,-0.15454891324043274
1747993630963711700,4.386711669921875,-0.010995574295520782,0.19914206862449646,-0.0006108652451075613
1747993630979489300,4.4024892578125,-0.004886921960860491,0.15271630883216858,0.12095131725072861
1747993630995328000,4.418327880859375,-0.028099801391363144,0.04337143152952194,0.12400564551353455
1747993631011105500,4.43410546875,-0.15577064454555511,-0.14966198801994324,0.04703662544488907
1747993631026944300,4.4499443359375,-0.39156460762023926,-0.2474004179239273,-0.09834930300712585
1747993631042721800,4.4657216796875,-0.6401867866516113,-0.17287486791610718,-0.17592918872833252
1747993631058529800,4.48152978515625,-0.8234463334083557,-0.0024434609804302454,-0.1966986060142517
1747993631074368500,4.497368408203125,-0.8087855577468872,-0.03726277872920036,-0.05803219974040985
1747993631090176500,4.513176513671875,-0.7098253965377808,-0.23884831368923187,0.13255776464939117
1747993631106015200,4.52901513671875,-0.6389650702476501,-0.4648684561252594,0.2565633952617645
1747993631121823200,4.5448232421875,-0.6640105247497559,-0.4746423065662384,0.22418753802776337
1747993631137662000,4.560661865234375,-0.7709119319915771,-0.42271876335144043,0.2119702398777008
1747993631153470000,4.576469970703125,-0.8332201838493347,-0.43737950921058655,0.2565633952617645
1747993631169247700,4.592247802734375,-0.8704829812049866,-0.38179078698158264,0.24678955972194672
1747993631185055700,4.6080556640625,-0.911410927772522,-0.34086281061172485,0.18875735998153687
1747993631200833300,4.623833251953125,-0.9480628371238708,-0.3280346393585205,0.08674286305904388
1747993631216610800,4.63961083984375,-0.9834930300712585,-0.26083946228027344,0
1747993631232419000,4.655419189453125,-1.0476338863372803,-0.05009094998240471,-0.08307767659425735
1747993631248196600,4.671196533203125,-1.094059705734253,0.2028072625398636,-0.11911872029304504
1747993631264065800,4.687065673828125,-1.0610729455947876,0.42271876335144043,-0.14049901068210602
1747993631279843300,4.70284326171875,-0.9682214260101318,0.40194934606552124,-0.06108652427792549
1747993631295590400,4.71859033203125,-0.8790351152420044,0.06658431142568588,0.1869247704744339
1747993631311368000,4.734367919921875,-0.9034696817398071,-0.2828305959701538,0.4245513379573822
1747993631327176200,4.75017626953125,-0.9969320893287659,-0.48747047781944275,0.5369505286216736
1747993631342953700,4.76595361328125,-1.0671815872192383,-0.4495968222618103,0.43615779280662537
1747993631358761700,4.78176171875,-1.0464121103286743,-0.252287358045578,0.25961771607398987
1747993631374539300,4.797539306640625,-0.8552113175392151,0.00366519158706069,0.09896016865968704
1747993631390347500,4.813347412109375,-0.6340781450271606,0.1411098688840866,0.13744467496871948
1747993631406155500,4.829155517578125,-0.4960225820541382,0.11911872029304504,0.3604104816913605
1747993631421994200,4.844994140625,-0.49785518646240234,0.08735372871160507,0.48747047781944275
1747993631437833000,4.8608330078125,-0.5687155723571777,0.08857546001672745,0.48197266459465027
1747993631453671400,4.87667138671875,-0.5968153476715088,0.11056660860776901,0.4337143301963806
1747993631469510100,4.89251025390625,-0.5497786998748779,0.22113321721553802,0.40683624148368835
1747993631485348600,4.9083486328125,-0.44593164324760437,0.2974913716316223,0.3952298164367676
1747993631501217800,4.9242177734375,-0.32620203495025635,0.3274237811565399,0.3695734739303589
1747993631517026000,4.940026123046875,-0.30115658044815063,0.30054569244384766,0.33475416898727417
1747993631532834000,4.955833984375,-0.3335324227809906,0.22846360504627228,0.304210901260376
1747993631548703200,4.971703125,-0.3830125033855438,0.12217304855585098,0.2919935882091522
1747993631564511200,4.98751123046875,-0.44226643443107605,0.07819075137376785,0.30604347586631775
1747993631580380400,5.00338037109375,-0.4960225820541382,0.08735372871160507,0.2577851414680481
1747993631596127500,5.01912744140625,-0.5070181488990784,0.28955012559890747,0.09651670604944229
1747993631611966200,5.03496630859375,-0.46364670991897583,0.4453207552433014,-0.14844025671482086
1747993631627804700,5.0508046875,-0.3219259977340698,0.4239404797554016,-0.39217549562454224
1747993631643613000,5.066613037109375,-0.2021963894367218,0.17592918872833252,-0.6481280326843262
1747993631659451400,5.082451416015625,-0.24068090319633484,-0.056810468435287476,-0.7147123217582703
1747993631675259600,5.098259765625,-0.38728857040405273,-0.19547687470912933,-0.5687155723571777
1747993631691067600,5.114067626953125,-0.5406157374382019,-0.15943582355976105,-0.3219259977340698
1747993631706876000,5.1298759765625,-0.6591235995292664,-0.036651913076639175,-0.059864792972803116
1747993631722684000,5.145683837890625,-0.5650503635406494,-0.08491026610136032,0.0861319974064827
1747993631738553000,5.161552978515625,-0.43737950921058655,-0.2791654169559479,0.12034045159816742
1747993631754361000,5.177361083984375,-0.4392121136188507,-0.5497786998748779,0.07269296050071716
1747993631770169300,5.19316943359375,-0.5607742667198181,-0.6609562039375305,0.10751228034496307
1747993631785947000,5.20894677734375,-0.7428121566772461,-0.607200026512146,0.32009339332580566
1747993631801724400,5.224724365234375,-0.8533787727355957,-0.43188172578811646,0.5674937963485718
1747993631817502000,5.240501953125,-0.8350527882575989,-0.19425514340400696,0.7825183868408203
1747993631833310200,5.256310302734375,-0.7104362845420837,-0.07330382615327835,0.8607091307640076
1747993631849118200,5.2721181640625,-0.5222898125648499,-0.11850785464048386,0.7617489695549011
1747993631864926500,5.287926513671875,-0.3995058834552765,-0.2791654169559479,0.46853363513946533
1747993631880704000,5.3037041015625,-0.35063666105270386,-0.5448917746543884,0.08368854224681854
1747993631896512000,5.319511962890625,-0.3481931984424591,-0.759916365146637,-0.13316862285137177
1747993631912259000,5.335259033203125,-0.3341432809829712,-0.9187413454055786,-0.20891591906547546
1747993631928067300,5.3510673828125,-0.2968805134296417,-0.9865473508834839,-0.17592918872833252
1747993631943875300,5.366875244140625,-0.20830504596233368,-0.9932668805122375,-0.12339477986097336
1747993631959622400,5.382622314453125,-0.11545353382825851,-0.9034696817398071,-0.1411098688840866
1747993631975430400,5.398430419921875,-0.04764748737215996,-0.8087855577468872,-0.20525072515010834
1747993631991238700,5.41423876953125,-0.028099801391363144,-0.7275404930114746,-0.2535090744495392
1747993632007016200,5.43001611328125,-0.0659734457731247,-0.7299839854240417,-0.17592918872833252
1747993632022793700,5.445793701171875,-0.12461651116609573,-0.6621779203414917,-0.004886921960860491
1747993632038632400,5.461632568359375,-0.14477506279945374,-0.5088507533073425,0.14966198801994324
1747993632054471000,5.477470947265625,-0.14477506279945374,-0.27000242471694946,0.35613444447517395
1747993632070248700,5.493248779296875,-0.1111774742603302,-0.08674286305904388,0.5057964324951172
1747993632086026200,5.509026123046875,-0.006108652334660292,-0.013439035043120384,0.6255260109901428
1747993632101803800,5.5248037109375,0.07880161702632904,-0.10812314599752426,0.6811147332191467
1747993632117611800,5.54061181640625,0.06536258012056351,-0.3579670190811157,0.6786713004112244
1747993632133420000,5.556419921875,0.021991148591041565,-0.5479460954666138,0.6218608021736145
1747993632149197600,5.572197509765625,0.08552113175392151,-0.6291912198066711,0.5876523852348328
1747993632165036300,5.588036376953125,-0.036041051149368286,-0.5393940210342407,0.6444628238677979
1747993632180874800,5.603874755859375,-0.00366519158706069,-0.20036379992961884,0.7324274182319641
1747993632196683000,5.61968310546875,0.1417207419872284,-0.003054326167330146,0.8881980776786804
1747993632212521500,5.635521484375,0.21441370248794556,0.16982053220272064,1.034194827079773
1747993632228268500,5.6512685546875,0.342695415019989,0.11178833991289139,1.0311405658721924
1747993632244107300,5.667107177734375,0.37690386176109314,-0.12034045159816742,0.8973610401153564
1747993632259915300,5.682915283203125,0.313373863697052,-0.18081611394882202,0.4544837474822998
1747993632275723500,5.6987236328125,0.23884831368923187,-0.06352998316287994,0.04703662544488907
1747993632291531500,5.714531494140625,0.3878994286060333,-0.21563543379306793,-0.12400564551353455
1747993632307309000,5.73030908203125,0.5302310585975647,-0.38606682419776917,-0.13439035415649414
1747993632323117300,5.746117431640625,0.45631635189056396,-0.4599815309047699,-0.01160643994808197
1747993632338925300,5.76192529296875,0.2278527319431305,-0.34758231043815613,0.2119702398777008
1747993632354702800,5.777702880859375,-0.11789698898792267,-0.08307767659425735,0.5125159621238708
1747993632370572000,5.793572021484375,-0.37629300355911255,0.09285151958465576,0.8332201838493347
1747993632386349600,5.809349609375,-0.5876523852348328,0.2217440903186798,1.1905763149261475
1747993632402188300,5.825188232421875,-0.7373143434524536,0.2974913716316223,1.2357803583145142
1747993632417965800,5.8409658203125,-0.7953465580940247,0.21807889640331268,0.9358455538749695
1747993632433774000,5.856774169921875,-0.7580837607383728,-0.025656340643763542,0.45326200127601624
1747993632449612500,5.872612548828125,-0.7434229850769043,-0.30543261766433716,0.08918632566928864
1747993632465390300,5.888390380859375,-0.8833111524581909,-0.7916813492774963,-0.1062905490398407
1747993632481198300,5.9041982421875,-1.0555751323699951,-1.081842303276062,-0.05803219974040985
1747993632496976000,5.919975830078125,-1.2223412990570068,-1.254717230796814,0.05192354694008827
1747993632512753400,5.93575341796875,-1.2137892246246338,-1.3518447875976562,0.003054326167330146
1747993632528592100,5.951592041015625,-1.1166616678237915,-1.3964380025863647,-0.11362093687057495
1747993632544400100,5.967400146484375,-1.026253581047058,-1.2962560653686523,-0.1973094791173935
1747993632560208400,5.98320849609375,-0.9089674949645996,-1.2412781715393066,-0.13805554807186127
1747993632576016400,5.999016357421875,-0.8668177723884583,-1.1899654865264893,0.015882495790719986
1747993632591794000,6.0147939453125,-0.8881980776786804,-1.1154398918151855,0.2125810980796814
1747993632607632600,6.030632568359375,-0.9352346658706665,-1.0030407905578613,0.27611109614372253
1747993632623410200,6.04641015625,-0.9059131741523743,-0.8607091307640076,0.24862214922904968
1747993632639218400,6.062218505859375,-0.7519751191139221,-0.7238753437995911,0.1313360333442688
1747993632655026400,6.0780263671875,-0.5210680365562439,-0.588874101638794,-0.048258353024721146
1747993632670834400,6.09383447265625,-0.3439171314239502,-0.5558874011039734,-0.18509216606616974
1747993632686673200,6.109673095703125,-0.2119702398777008,-0.7330383062362671,-0.15882496535778046
1747993632702420200,6.125420166015625,-0.14538592100143433,-0.8796459436416626,0.013439035043120384
1747993632718259000,6.141259033203125,-0.17287486791610718,-0.9248499870300293,0.12767083942890167
1747993632734067000,6.15706689453125,-0.0555887371301651,-0.6963863968849182,0.10323622822761536
1747993632749814000,6.17281396484375,0.16371189057826996,-0.4056145250797272,0.06902777403593063
1747993632765622300,6.188622314453125,0.2968805134296417,-0.11423180252313614,0.11789698898792267
1747993632781399800,6.20439990234375,0.3646865487098694,0.06108652427792549,0.16982053220272064
1747993632797207800,6.220207763671875,0.4245513379573822,0.04886921867728233,0.2168571650981903
1747993632813077000,6.236076904296875,0.403781920671463,-0.06291911751031876,0.19303341209888458
1747993632828854500,6.2518544921875,0.37262779474258423,0.03237585723400116,-0.12400564551353455
1747993632844662800,6.267662841796875,0.4129449129104614,0.13561208546161652,-0.4954117238521576
1747993632860470800,6.283470703125,0.5192354321479797,0.19120082259178162,-0.8210029006004333
1747993632876248300,6.299248291015625,0.6389650702476501,0.21380282938480377,-0.9950994849205017
1747993632892056600,6.315056640625,0.7489207983016968,0.2272418737411499,-1.0500773191452026
1747993632907864600,6.330864501953125,0.7324274182319641,0.16982053220272064,-1.0085384845733643
1747993632923642000,6.34664208984375,0.6334672570228577,0.03726277872920036,-0.9010262489318848
1747993632939450400,6.362450439453125,0.6065891981124878,0.04764748737215996,-0.6676757335662842
1747993632955228000,6.378227783203125,0.6682865619659424,0.11423180252313614,-0.3646865487098694
1747993632971005400,6.39400537109375,0.8191702961921692,0.14049901068210602,0.012217304669320583
1747993632986844200,6.40984423828125,0.8900306820869446,0.07452555745840073,0.29016098380088806
1747993633002652200,6.425652099609375,0.9242390990257263,0.0910189226269722,0.4715879559516907
1747993633018399200,6.441399169921875,0.931569516658783,0.19425514340400696,0.4306600093841553
1747993633034207200,6.457207275390625,1.0109820365905762,0.5106833577156067,0.19853121042251587
1747993633049985000,6.472985107421875,1.1362093687057495,0.8472700715065002,0.04153883829712868
1747993633065823500,6.488823486328125,1.303586483001709,1.2217304706573486,-0.06536258012056351
1747993633081570600,6.504570556640625,1.443474531173706,1.3041973114013672,-0.2174680233001709
1747993633097348400,6.520348388671875,1.5583171844482422,0.921795666217804,-0.5662720799446106
1747993633113126000,6.5361259765625,1.6627751588821411,0.45631635189056396,-0.8649851679801941
1747993633128903400,6.5519033203125,1.6792685985565186,0.1722639948129654,-1.037249207496643
1747993633152585000,6.5755849609375,1.6126842498779297,0.28955012559890747,-0.9156870245933533
1747993633168362800,6.59136279296875,1.5369369983673096,0.41233405470848083,-0.770301103591919
1747993633184170800,6.607170654296875,1.49906325340271,0.4202753007411957,-0.607200026512146
1747993633200009500,6.623009521484375,1.5259413719177246,0.3933972120285034,-0.48258355259895325
1747993633215787000,6.638787109375,1.4984524250030518,0.342695415019989,-0.40133845806121826
1747993633231564500,6.654564453125,1.4764612913131714,0.4801400899887085,-0.3323107063770294
1747993633247372500,6.67037255859375,1.4428637027740479,0.6768386960029602,-0.1411098688840866
1747993633263211300,6.686211181640625,1.3439035415649414,0.6328563690185547,0.0555887371301651
1747993633279019300,6.702019287109375,1.1380419731140137,0.45814892649650574,0.17837265133857727
1747993633294858000,6.71785791015625,0.9853256344795227,0.27061331272125244,0.16310101747512817
1747993633310666000,6.733666015625,0.8307767510414124,0.054367005825042725,0.11545353382825851
1747993633326474200,6.74947412109375,0.7067710757255554,0.025045474991202354,0.1014036312699318
1747993633342221300,6.76522119140625,0.6609562039375305,0.02321287989616394,0.18020524084568024
1747993633358059800,6.781059814453125,0.5754350423812866,-0.0757472887635231,0.33292156457901
1747993633373837600,6.796837646484375,0.39645153284072876,-0.13255776464939117,0.35613444447517395
1747993633389645600,6.8126455078125,0.2015855312347412,-0.11972958594560623,0.20952677726745605
1747993633405453600,6.82845361328125,0.15515977144241333,-0.060475658625364304,0.13500121235847473
1747993633421261800,6.84426171875,0.20036379992961884,-0.1417207419872284,0.251676470041275
1747993633437131000,6.860131103515625,0.20830504596233368,-0.12522737681865692,0.37262779474258423
1747993633452908500,6.875908447265625,0.11728613078594208,0.12889257073402405,0.4080579876899719
1747993633468747300,6.891747314453125,0.0959058403968811,0.2871066629886627,0.3695734739303589
1747993633484524800,6.90752490234375,0.1569923609495163,0.16065755486488342,0.3701843321323395
1747993633500271900,6.92327197265625,0.20402899384498596,-0.01466076634824276,0.3494149148464203
1747993633516079900,6.939079833984375,0.17470745742321014,-0.1215621829032898,0.15821409225463867
1747993633531888000,6.95488818359375,0.14416420459747314,-0.1258382350206375,-0.0024434609804302454
1747993633547696000,6.970696044921875,0.12095131725072861,-0.22663100063800812,0.04214970022439957
1747993633563504000,6.986504150390625,0.11178833991289139,-0.45204028487205505,0.25534167885780334
1747993633579312400,7.0023125,0.09040805697441101,-0.6310238242149353,0.3952298164367676
1747993633595090000,7.01808984375,0.06108652427792549,-0.7000515460968018,0.3378084897994995
1747993633610898000,7.03389794921875,0.06536258012056351,-0.5962044596672058,0.11911872029304504
1747993633626706200,7.0497060546875,0.13072516024112701,-0.3842342495918274,-0.14538592100143433
1747993633642514200,7.06551416015625,0.22846360504627228,-0.23090706765651703,-0.21441370248794556
1747993633658291700,7.081291748046875,0.2993239760398865,-0.11239920556545258,-0.12461651116609573
1747993633674191400,7.09719140625,0.3219259977340698,-0.08124507963657379,-0.048258353024721146
1747993633689969200,7.11296923828125,0.3384193480014801,-0.04153883829712868,-0.04703662544488907
1747993633705746700,7.12874658203125,0.3579670190811157,0.028099801391363144,-0.12278391420841217
1747993633721616000,7.144615966796875,0.394008070230484,-0.07819075137376785,-0.2223549485206604
1747993633737363000,7.160363037109375,0.4306600093841553,-0.3335324227809906,-0.21868975460529327
1747993633753201400,7.176201416015625,0.4489859640598297,-0.5491678714752197,-0.19120082259178162
1747993633768979200,7.191979248046875,0.46670106053352356,-0.5791002511978149,-0.16004669666290283
1747993633784787200,7.207787109375,0.5345070958137512,-0.4660901725292206,-0.10934487730264664
1747993633800595200,7.22359521484375,0.5876523852348328,-0.2626720666885376,-0.05192354694008827
1747993633816434000,7.239433837890625,0.6432411074638367,-0.06291911751031876,-0.015882495790719986
1747993633832211500,7.25521142578125,0.7049384713172913,0.15271630883216858,0.09224065393209457
1747993633847989000,7.270989013671875,0.749531626701355,0.36590829491615295,0.2590068578720093
1747993633863797200,7.28679736328125,0.8148942589759827,0.608421802520752,0.4092797040939331
1747993633879574800,7.30257470703125,0.93095862865448,0.816726803779602,0.4056145250797272
1747993633895382800,7.3183828125,1.1233811378479004,0.9676105380058289,0.2767219543457031
1747993633911191000,7.33419091796875,1.284038782119751,0.9676105380058289,0.13377949595451355
1747993633926968600,7.349968505859375,1.4178181886672974,0.9590584635734558,-0.02687807008624077
1747993633942776600,7.365776611328125,1.480737328529358,0.998153805732727,-0.04948008432984352
1747993633958584800,7.381584716796875,1.5210545063018799,1.1954632997512817,0.06719517707824707
1747993633974423300,7.39742333984375,1.5845844745635986,1.3640620708465576,0.2028072625398636
1747993633990201000,7.413201171875,1.728137731552124,1.4159855842590332,0.25595253705978394
1747993634006039600,7.42903955078125,1.8869627714157104,1.2486085891723633,0.25534167885780334
1747993634021878300,7.444878173828125,1.9242255687713623,0.6811147332191467,0.3933972120285034
1747993634037625300,7.460625244140625,1.8307631015777588,0.375071257352829,0.4599815309047699
1747993634053433300,7.476433349609375,1.7776178121566772,0.5894849896430969,0.2742784917354584
1747993634069302500,7.492302490234375,1.842369556427002,1.0519099235534668,-0.0806342139840126
1747993634085141200,7.508141357421875,2.0696115493774414,1.3335188627243042,-0.3127630054950714
1747993634100949200,7.52394921875,2.3072381019592285,1.395827054977417,-0.40683624148368835
1747993634116726800,7.539726806640625,2.317011833190918,1.2308934926986694,-0.40683624148368835
1747993634132504600,7.555504638671875,2.1704041957855225,0.8319984674453735,-0.34025195240974426
1747993634148312600,7.5713125,2.0372354984283447,0.48808133602142334,-0.2070833146572113
1747993634164090000,7.587090087890625,1.9633208513259888,0.2174680233001709,-0.03298672288656235
1747993634179928800,7.6029287109375,1.9559905529022217,0.11362093687057495,0.18448130786418915
1747993634195736800,7.61873681640625,1.9443840980529785,0.11972958594560623,0.5002986192703247
1747993634211575600,7.634575439453125,1.9620991945266724,0.2174680233001709,0.7250970602035522
1747993634227475200,7.65047509765625,1.966986060142517,0.40744712948799133,0.8515461683273315
1747993634243252700,7.666252685546875,2.0781636238098145,0.7134906053543091,0.807563841342926
1747993634259091500,7.682091552734375,2.282803535461426,0.9999864101409912,0.7104362845420837
1747993634274869000,7.697868896484375,2.543642997741699,1.2272282838821411,0.5418374538421631
1747993634290677000,7.713677001953125,2.775160789489746,1.4147639274597168,0.37690386176109314
1747993634306546200,7.729546142578125,3.0188961029052734,1.6175711154937744,0.17043140530586243
1747993634322354400,7.7453544921875,3.029280662536621,1.2693779468536377,-0.19058994948863983
1747993634338162400,7.761162353515625,2.9523117542266846,0.8796459436416626,-0.2785545587539673
1747993634354031600,7.777031494140625,2.8069257736206055,0.8014551997184753,-0.1368338167667389
1747993634369809200,7.79280908203125,2.632218360900879,0.8185594081878662,0.028099801391363144
1747993634385647900,7.80864794921875,2.5247061252593994,0.9248499870300293,0.12461651116609573
1747993634401425400,7.82442529296875,2.506380081176758,1.1349875926971436,0.14538592100143433
1747993634417233400,7.8402333984375,2.559525489807129,1.289536476135254,0.13072516024112701
1747993634433041700,7.856041748046875,2.5442538261413574,1.3469579219818115,0.17592918872833252
1747993634448849700,7.871849609375,2.4410176277160645,1.2809844017028809,0.2571742534637451
1747993634464688400,7.8876884765625,2.381152629852295,1.1575896739959717,0.3023782968521118
1747993634480466000,7.9034658203125,2.3493876457214355,1.0488556623458862,0.37262779474258423
1747993634496274000,7.91927392578125,2.3573288917541504,0.9529497623443604,0.4098905920982361
1747993634512112600,7.935112548828125,2.3383922576904297,0.8222246170043945,0.3628539443016052
1747993634527920600,7.950920654296875,2.2314908504486084,0.6768386960029602,0.3127630054950714
1747993634543759400,7.96675927734375,2.0445659160614014,0.5839871764183044,0.303600013256073
1747993634559537000,7.982536865234375,1.8881844282150269,0.6389650702476501,0.40683624148368835
1747993634575314400,7.998314453125,1.7250834703445435,0.7837401032447815,0.5638286471366882
1747993634591122700,8.014122802734375,1.6450600624084473,0.950506329536438,0.6450737118721008
1747993634606930700,8.0299306640625,1.6578882932662964,1.0659598112106323,0.645684540271759
1747993634622739000,8.045739013671875,1.680490255355835,1.054964303970337,0.5589417219161987
1747993634638547000,8.061546875,1.5864170789718628,0.7855727076530457,0.3805690407752991
1747993634654355000,8.07735498046875,1.4202617406845093,0.5222898125648499,0.2926044464111328
1747993634670163200,8.0931630859375,1.1624765396118164,0.2968805134296417,0.3139847218990326
1747993634686032400,8.109032470703125,0.9065240025520325,0.31459560990333557,0.36163222789764404
1747993634701870800,8.124870849609374,0.778853178024292,0.4917465150356293,0.4599815309047699
1747993634717679000,8.14067919921875,0.7574729323387146,0.6817256212234497,0.6346889734268188
1747993634733487000,8.156487060546874,0.817948579788208,0.9639453291893005,0.5766568183898926
1747993634757169000,8.1801689453125,0.8539896011352539,1.5344934463500977,0.13805554807186127
1747993634773007400,8.19600732421875,0.8649851679801941,1.6310101747512817,-0.04581489413976669
1747993634788785000,8.211784912109374,0.8894197940826416,1.4782938957214355,-0.00855211354792118
1747993634804593200,8.22759326171875,0.8930850028991699,1.1630873680114746,0.10751228034496307
1747993634820431600,8.243431640625,0.8759807348251343,0.8985827565193176,0.13377949595451355
1747993634836240000,8.259239990234375,0.8313875794410706,0.6145304441452026,0.04764748737215996
1747993634851987000,8.274987060546875,0.8344419002532959,0.5088507533073425,-0.07757988572120667
1747993634867795000,8.290794921875,0.9101892113685608,0.5552765130996704,-0.2718350291252136
1747993634883603200,8.306603271484375,1.024420976638794,0.6725626587867737,-0.3995058834552765
1747993634899411200,8.3224111328125,1.1215485334396362,0.7751879692077637,-0.44165557622909546
1747993634915188700,8.338188720703124,1.1087204217910767,0.6591235995292664,-0.38240164518356323
1747993634930966300,8.35396630859375,0.9969320893287659,0.33475416898727417,-0.2669481039047241
1747993634946744000,8.369744140625,0.8833111524581909,0.07941248267889023,-0.2015855312347412
1747993634962552000,8.385552001953124,0.8350527882575989,-0.08674286305904388,-0.17959438264369965
1747993634978390800,8.401390869140625,0.8539896011352539,-0.08735372871160507,-0.16798794269561768
1747993634994198800,8.41719873046875,0.8827002644538879,0.010995574295520782,-0.16554448008537292
1747993635009976300,8.432976318359374,0.8936958312988281,0.08918632566928864,-0.17287486791610718
1747993635025754000,8.448754150390625,0.8857545852661133,0.15821409225463867,-0.17837265133857727
1747993635041562000,8.46456201171875,0.8863654732704163,0.2632829248905182,-0.1362229436635971
1747993635057370000,8.4803701171875,0.8662069439888,0.36224308609962463,-0.0861319974064827
1747993635073208800,8.496208740234374,0.8588765263557434,0.5198463201522827,-0.10323622822761536
1747993635088956000,8.511955810546874,0.8936958312988281,0.6499606370925903,-0.1368338167667389
1747993635104764000,8.527763916015624,0.949895441532135,0.6866125464439392,-0.13255776464939117
1747993635120541700,8.543541748046875,0.9639453291893005,0.5473352670669556,-0.0861319974064827
1747993635136380200,8.559380126953124,0.8936958312988281,0.3396410644054413,-0.03420845419168472
1747993635152188400,8.5751884765625,0.7910705208778381,0.16859880089759827,0.04337143152952194
1747993635167966000,8.590966064453125,0.7214318513870239,0.09407325088977814,0.17043140530586243
1747993635191647500,8.6146474609375,0.7476990818977356,0.1007927656173706,0.3591887652873993
1747993635207425000,8.630425048828124,0.788016140460968,0.13255776464939117,0.3787364661693573
1747993635223233300,8.6462333984375,0.8057312369346619,0.15393804013729095,0.35552358627319336
1747993635239041300,8.662041259765624,0.7916813492774963,0.14294247329235077,0.30482175946235657
1747993635254880000,8.6778798828125,0.7861835956573486,0.1411098688840866,0.25534167885780334
1747993635270657500,8.693657470703124,0.808174729347229,0.1569923609495163,0.24434609711170197
1747993635286465500,8.709465576171874,0.8454375267028809,0.21441370248794556,0.21807889640331268
1747993635302243300,8.725243408203125,0.8649851679801941,0.23518311977386475,0.13377949595451355
1747993635317990400,8.740990478515625,0.8533787727355957,0.14416420459747314,0.029932396486401558
1747993635333828900,8.756828857421874,0.8210029006004333,0.21563543379306793,-0.10690141469240189
1747993635349637000,8.77263720703125,0.778853178024292,0.5424483418464661,-0.27122417092323303
1747993635365445000,8.788445068359374,0.7861835956573486,0.8344419002532959,-0.24678955972194672
1747993635381192200,8.804192138671874,0.7525860071182251,0.8888089060783386,-0.0403171069920063
1747993635397000400,8.82000048828125,0.6334672570228577,0.5754350423812866,0.1716531366109848
1747993635412839000,8.8358388671875,0.4764748811721802,0.33658674359321594,0.23457226157188416
1747993635428616400,8.851616455078124,0.36163222789764404,0.3090978264808655,0.08246681094169617
1747993635444455200,8.867455078125,0.40194934606552124,0.5100724697113037,-0.1771509200334549
1747993635460232700,8.883232666015624,0.5247332453727722,0.6200281977653503,-0.2828305959701538
1747993635476041000,8.899041015625,0.5668829679489136,0.5222898125648499,-0.06169738993048668
1747993635491849000,8.914848876953124,0.44287729263305664,0.23335053026676178,0.3237585723400116
1747993635507687700,8.930687744140625,0.31642818450927734,0.1007927656173706,0.48747047781944275
1747993635523495700,8.94649560546875,0.2168571650981903,0.14844025671482086,0.45875978469848633
1747993635539303700,8.9623037109375,0.251676470041275,0.3286454975605011,0.3793473243713379
1747993635555142400,8.978142333984374,0.4105014503002167,0.5870414972305298,0.2919935882091522
1747993635570981000,8.993981201171875,0.5681046843528748,0.7538077235221863,0.20891591906547546
1747993635586758700,9.009758544921874,0.7006624341011047,0.7819074988365173,0.10873401165008545
1747993635602566700,9.025566650390624,0.7281513810157776,0.617584764957428,0.028099801391363144
1747993635618344400,9.041344482421875,0.6860016584396362,0.27488934993743896,-0.02076941914856434
1747993635634152400,9.05715234375,0.626747727394104,-0.11789698898792267,0.021380282938480377
1747993635649930000,9.072929931640624,0.607810914516449,-0.33108896017074585,0.056810468435287476
1747993635665707500,9.08870751953125,0.6334672570228577,-0.35185837745666504,0.05864306539297104
1747993635681515800,9.104515869140625,0.6719517707824707,-0.21013765037059784,0.04581489413976669
1747993635697293300,9.120293212890624,0.6279694437980652,-0.051312681287527084,0.06352998316287994
1747993635713101300,9.136101318359374,0.5265658497810364,0.06658431142568588,0.09040805697441101
1747993635728970500,9.151970458984374,0.38179078698158264,0.12950342893600464,0.07330382615327835
1747993635744687000,9.16768701171875,0.28527405858039856,0.18509216606616974,0.00733038317412138
1747993635760495000,9.1834951171875,0.2370157092809677,0.29138273000717163,-0.039095375686883926
1747993635776273000,9.19927294921875,0.25961771607398987,0.3933972120285034,-0.028099801391363144
1747993635792050400,9.215050537109375,0.2773328125476837,0.4331034719944,-0.00733038317412138
1747993635807828000,9.230827880859374,0.22540926933288574,0.3781255781650543,-0.036651913076639175
1747993635823605500,9.24660546875,0.06352998316287994,0.15027284622192383,-0.08124507963657379
1747993635839383000,9.262383056640624,-0.1160643994808197,-0.08246681094169617,-0.08246681094169617
1747993635855191300,9.27819140625,-0.3176499307155609,-0.33475416898727417,-0.006108652334660292
1747993635870968800,9.29396875,-0.45204028487205505,-0.375071257352829,0.07941248267889023
1747993635886776800,9.30977685546875,-0.5864306092262268,-0.20830504596233368,0.17470745742321014
1747993635902585000,9.325585205078125,-0.6487388610839844,0.09040805697441101,0.24373523890972137
1747993635918393000,9.34139306640625,-0.6640105247497559,0.3701843321323395,0.25106561183929443
1747993635934201300,9.357201416015625,-0.7079927921295166,0.44715335965156555,0.2382374405860901
1747993635950009300,9.37300927734375,-0.8124507665634155,0.17043140530586243,0.323147714138031
1747993635965787000,9.388786865234374,-0.8790351152420044,-0.22418753802776337,0.34636059403419495
1747993635981534000,9.404533935546874,-0.8991936445236206,-0.30604347586631775,0.252287358045578
1747993635997311500,9.4203115234375,-0.8717046976089478,-0.24984388053417206,0.15821409225463867
1747993636013150200,9.436150146484374,-0.7293730974197388,-0.20341812074184418,0.14782938361167908
1747993636028958200,9.451958251953124,-0.5772676467895508,-0.11972958594560623,0.1875356286764145
1747993636044797000,9.467796875,-0.5968153476715088,-0.03481931984424591,0.23884831368923187
1747993636060605200,9.483605224609375,-0.7177666425704956,0.0354301854968071,0.2791654169559479
1747993636076413200,9.4994130859375,-0.7452555894851685,-0.05742133408784866,0.41722095012664795
1747993636092190700,9.515190673828124,-0.6805039048194885,-0.2076941877603531,0.5791002511978149
1747993636107968300,9.53096826171875,-0.5919284224510193,-0.23396138846874237,0.5088507533073425
1747993636123807000,9.546806884765624,-0.4917465150356293,-0.10506882518529892,0.2217440903186798
1747993636139584500,9.56258447265625,-0.4404338300228119,-0.04153883829712868,-0.019547687843441963
1747993636155392800,9.578392822265625,-0.48380526900291443,-0.024434609338641167,-0.14905111491680145
1747993636171200800,9.59420068359375,-0.6017022728919983,0.02015855349600315,-0.17470745742321014
1747993636186978300,9.609978271484374,-0.6731734871864319,0.13927727937698364,-0.1466076523065567
1747993636202817000,9.625817138671875,-0.578489363193512,0.4105014503002167,-0.1362229436635971
1747993636218594600,9.641594482421874,-0.44715335965156555,0.4917465150356293,-0.08796459436416626
1747993636234372000,9.6573720703125,-0.3689626157283783,0.2828305959701538,0.02871066704392433
1747993636258145300,9.681145263671874,-0.37201693654060364,-0.12278391420841217,0.22052235901355743
1747993636273922800,9.6969228515625,-0.3878994286060333,-0.36163222789764404,0.2883284091949463
1747993636289731000,9.71273095703125,-0.3341432809829712,-0.48258355259895325,0.24984388053417206
1747993636305539000,9.7285390625,-0.2217440903186798,-0.3995058834552765,0.12950342893600464
1747993636321347300,9.744347412109375,-0.00855211354792118,-0.14416420459747314,-0.006108652334660292
1747993636337094400,9.760094482421875,0.17776179313659668,0.010995574295520782,-0.021991148591041565
1747993636352902400,9.77590234375,0.313373863697052,-0.02932153269648552,0.05925392732024193
1747993636368710700,9.791710693359375,0.3536909818649292,-0.07635815441608429,0.07880161702632904
1747993636384518700,9.8075185546875,0.375071257352829,-0.09468411654233932,0.051312681287527084
1747993636400357400,9.823357421875,0.4129449129104614,-0.048258353024721146,0.012217304669320583
1747993636416135000,9.839135009765625,0.5485569834709167,0.054367005825042725,-0.0012217304902151227
1747993636431912400,9.854912353515624,0.6866125464439392,0.15332718193531036,-0.05253441259264946
1747993636447690000,9.87068994140625,0.7861835956573486,0.2070833146572113,-0.14355333149433136
1747993636463498200,9.886498291015625,0.8252789378166199,0.242513507604599,-0.19058994948863983
1747993636479336700,9.902336669921874,0.8185594081878662,0.2376265823841095,-0.2028072625398636
1747993636495083800,9.918083740234374,0.7904596328735352,0.2070833146572113,-0.23518311977386475
1747993636510892000,9.93389208984375,0.8069530129432678,0.07819075137376785,-0.26511552929878235
1747993636526700000,9.949699951171874,0.8381071090698242,0.08796459436416626,-0.294437050819397
1747993636542508000,9.965508056640624,0.7825183868408203,0.42638394236564636,-0.4001167416572571
1747993636558346800,9.9813466796875,0.7507534027099609,0.6676757335662842,-0.4960225820541382
1747993636574124300,9.997124267578124,0.79840087890625,0.618195652961731,-0.5894849896430969
1747993636589901800,10.01290185546875,0.8674286603927612,0.44715335965156555,-0.7867944240570068
1747993636605710000,10.0287099609375,0.8784242272377014,0.4147774875164032,-0.9150761365890503
1747993636621518000,10.04451806640625,0.8863654732704163,0.5845980644226074,-0.9566149711608887
1747993636637356800,10.060356689453124,0.9230173826217651,0.7556403279304504,-0.8851437568664551
1747993636653134300,10.07613427734375,1.043968677520752,0.7770205736160278,-0.7275404930114746
1747993636668942300,10.0919423828125,1.1649199724197388,0.6615670323371887,-0.6627888083457947
1747993636684750600,10.10775048828125,1.2119566202163696,0.5717698931694031,-0.6701191663742065
1747993636700558600,10.12355859375,1.1716395616531372,0.5296201705932617,-0.6713408827781677
1747993636716336400,10.13933642578125,1.1435397863388062,0.4862487316131592,-0.5852088928222656
1747993636732114000,10.155114013671875,1.1734721660614014,0.45875978469848633,-0.48869219422340393
1747993636747922000,10.170921875,1.2394455671310425,0.44165557622909546,-0.41661009192466736
1747993636763699500,10.186699462890624,1.292590856552124,0.3988949954509735,-0.39584067463874817
1747993636779507700,10.2025078125,1.3170254230499268,0.26450464129447937,-0.375071257352829
1747993636795315700,10.218315673828124,1.310916781425476,0.09651670604944229,-0.30482175946235657
1747993636811062800,10.234062744140624,1.2834278345108032,-0.006719517521560192,-0.20036379992961884
1747993636826871000,10.24987109375,1.228450059890747,-0.05742133408784866,-0.0757472887635231
1747993636842679000,10.265678955078124,1.1844676733016968,-0.025656340643763542,0.01038470957428217
1747993636858487000,10.281487060546874,1.122159481048584,0.08368854224681854,0.07452555745840073
1747993636874295300,10.29729541015625,1.0812314748764038,0.19608774781227112,0.08368854224681854
1747993636890133800,10.3131337890625,1.0415252447128296,0.33475416898727417,0.0708603709936142
1747993636905942000,10.32894189453125,0.9908234477043152,0.4544837474822998,0.06352998316287994
1747993636921780500,10.344780517578124,0.9169087409973145,0.5968153476715088,0.0708603709936142
1747993636937588700,10.360588623046874,0.7629706859588623,0.6768386960029602,0.05314527451992035
1747993636953427200,10.37642724609375,0.617584764957428,0.6896668672561646,-0.015882495790719986
1747993636969205000,10.392205078125,0.5650503635406494,0.6126978397369385,-0.07452555745840073
1747993636984982500,10.407982421875,0.5552765130996704,0.3805690407752991,-0.12889257073402405
1747993637000760000,10.423760009765624,0.5186246037483215,0.09834930300712585,-0.15943582355976105
1747993637016568300,10.439568359375,0.4050036668777466,-0.2974913716316223,-0.1918116807937622
1747993637032376300,10.455376220703124,0.2724458873271942,-0.5833762884140015,-0.19486601650714874
1747993637048153900,10.47115380859375,0.14049901068210602,-0.7336491346359253,-0.1508837193250656
1747993637063931400,10.486931396484374,-0.02076941914856434,-0.7623597979545593,-0.056810468435287476
1747993637079678500,10.502678466796874,-0.18875735998153687,-0.7043276429176331,0.07696902006864548
1747993637095517200,10.51851708984375,-0.3738495409488678,-0.53328537940979,0.28955012559890747
1747993637111356000,10.53435595703125,-0.513126790523529,-0.45204028487205505,0.5082398653030396
1747993637127164000,10.550163818359374,-0.6316346526145935,-0.4642575979232788,0.6621779203414917
1747993637142972000,10.565971923828124,-0.6927211880683899,-0.5644394755363464,0.578489363193512
1747993637158780200,10.5817802734375,-0.7177666425704956,-0.4917465150356293,0.1771509200334549
1747993637174588200,10.597588134765624,-0.6695083379745483,-0.16554448008537292,-0.24984388053417206
1747993637190427000,10.613427001953125,-0.5949827432632446,-0.07208210229873657,-0.3194825351238251
1747993637206174000,10.629174072265625,-0.6298020482063293,-0.3481931984424591,-0.07208210229873657
1747993637221982000,10.64498193359375,-0.8008443117141724,-0.5821545720100403,0.21074850857257843
1747993637237759500,10.660759521484374,-0.9841039180755615,-0.5583308339118958,0.4202753007411957
1747993637253567700,10.676567626953124,-0.979216992855072,-0.3225368559360504,0.5852088928222656
1747993637269406200,10.69240625,-0.7922922372817993,-0.06230825558304787,0.7049384713172913
1747993637285245000,10.708244873046874,-0.627358615398407,0.03726277872920036,0.6676757335662842
1747993637301022500,10.7240224609375,-0.5161811113357544,-0.07452555745840073,0.4502076804637909
1747993637316830700,10.739830810546875,-0.4990769028663635,-0.2217440903186798,0.21502456068992615
1747993637332638700,10.755638671875,-0.5473352670669556,-0.36163222789764404,0.02626720629632473
1747993637348477400,10.7714775390625,-0.5687155723571777,-0.3793473243713379,0.03420845419168472
1747993637364285400,10.787285400390624,-0.48747047781944275,-0.2669481039047241,0.18997909128665924
1747993637380093700,10.80309375,-0.35735616087913513,-0.16798794269561768,0.3836233615875244
1747993637395901700,10.818901611328124,-0.2321287989616394,-0.13011430203914642,0.5913175344467163
1747993637411709700,10.834709716796874,-0.21930062770843506,-0.2174680233001709,0.6670648455619812
1747993637427487500,10.850487548828125,-0.294437050819397,-0.3738495409488678,0.6664539575576782
1747993637443326000,10.866325927734374,-0.35246923565864563,-0.43188172578811646,0.6230825781822205
1747993637459103500,10.882103515625,-0.2871066629886627,-0.3933972120285034,0.5619960427284241
1747993637474942200,10.897942138671874,-0.1319468915462494,-0.2730567753314972,0.5510004758834839
1747993637490719700,10.9137197265625,-0.0354301854968071,-0.2577851414680481,0.5852088928222656
1747993637506558500,10.929558349609374,0.00427605677396059,-0.32131510972976685,0.6481280326843262
1747993637522336000,10.9453359375,-0.00733038317412138,-0.3604104816913605,0.7312057018280029
1747993637538113500,10.961113525390624,-0.0403171069920063,-0.21930062770843506,0.8032878041267395
1747993637553921800,10.976921875,-0.06169738993048668,0.04459316283464432,0.8491026759147644
1747993637569729800,10.992729736328124,-0.02076941914856434,0.41233405470848083,0.836885392665863
1747993637585538000,11.0085380859375,0.07635815441608429,0.685390830039978,0.7574729323387146
1747993637601315600,11.024315673828125,0.22296582162380219,0.8790351152420044,0.5699372887611389
1747993637617093000,11.040093017578124,0.30054569244384766,0.8998045325279236,0.4050036668777466
1747993637632840200,11.055840087890624,0.3121521472930908,0.8118399381637573,0.20830504596233368
1747993637648617700,11.07161767578125,0.294437050819397,0.5088507533073425,0.06230825558304787
1747993637664456400,11.08745654296875,0.29016098380088806,0.003054326167330146,-0.08246681094169617
1747993637680203500,11.10320361328125,0.2565633952617645,0.192422553896904,-0.4147774875164032
1747993637696011500,11.119011474609374,0.3219259977340698,0.6530149579048157,-0.9053022861480713
1747993637711789000,11.1347890625,0.5558874011039734,1.10139000415802,-1.2803735733032227
1747993637727536000,11.1505361328125,0.8729264140129089,1.4953981637954712,-1.8301522731781006
1747993637743374800,11.166374755859374,1.1087204217910767,1.4373658895492554,-2.163073778152466
1747993637759152400,11.18215234375,1.186300277709961,0.8759807348251343,-2.0867156982421875
1747993637774930000,11.197929931640624,1.0036516189575195,-0.036041051149368286,-1.5112806558609009
1747993637790768600,11.2137685546875,0.8057312369346619,-0.384845107793808,-0.9511171579360962
1747993637806576600,11.22957666015625,0.7293730974197388,-0.10812314599752426,-0.5540547966957092
1747993637822415400,11.245415283203124,0.8362745046615601,0.4184426963329315,-0.40744712948799133
1747993637838254000,11.261254150390625,1.0506882667541504,0.9395107626914978,-0.3439171314239502
1747993637854031600,11.277031494140624,1.1533136367797852,0.9547823667526245,-0.2590068578720093
1747993637869809200,11.29280908203125,1.1643091440200806,0.7391469478607178,-0.15027284622192383
1747993637885586700,11.308586669921874,1.1606439352035522,0.5002986192703247,-0.14049901068210602
1747993637901456000,11.324455810546874,1.205847978591919,0.37690386176109314,-0.22540926933288574
1747993637917264000,11.340263916015624,1.3145819902420044,0.3500257730484009,-0.3121521472930908
1747993637933072100,11.356072021484374,1.4599679708480835,0.3481931984424591,-0.4080579876899719
1747993637948880100,11.371880126953124,1.5070046186447144,0.2687807083129883,-0.48747047781944275
1747993637964688400,11.3876884765625,1.4874569177627563,0.13744467496871948,-0.5473352670669556
1747993637996304600,11.4193046875,1.2516628503799438,-0.014049900695681572,-0.48685958981513977
1747993638012112600,11.435112548828124,1.1636983156204224,0.005497787147760391,-0.41722095012664795
1747993638027981800,11.45098193359375,1.1557570695877075,0.08979719132184982,-0.39767327904701233
1747993638043789800,11.466789794921874,1.156978726387024,0.12278391420841217,-0.39584067463874817
1747993638059598000,11.48259814453125,1.1032226085662842,0.1007927656173706,-0.4453207552433014
1747993638075406000,11.498406005859374,1.015868902206421,0.018936822190880775,-0.5051855444908142
1747993638091183600,11.51418359375,0.9395107626914978,-0.08124507963657379,-0.4648684561252594
1747993638106991900,11.529991943359375,0.8240572214126587,-0.19364428520202637,-0.35246923565864563
1747993638122799900,11.5457998046875,0.694553792476654,-0.2632829248905182,-0.28649580478668213
1747993638138699500,11.561699462890624,0.5253441333770752,-0.24556782841682434,-0.2174680233001709
1747993638154477000,11.57747705078125,0.39095374941825867,-0.25595253705978394,-0.11301007121801376
1747993638170254800,11.5932548828125,0.2070833146572113,-0.26022860407829285,0.00366519158706069
1747993638186093300,11.60909326171875,0.01160643994808197,-0.24984388053417206,0.04764748737215996
1747993638201901600,11.624901611328125,-0.21074850857257843,-0.2272418737411499,0.12217304855585098
1747993638217740000,11.640739990234374,-0.37140607833862305,-0.40133845806121826,0.242513507604599
1747993638233548300,11.65654833984375,-0.4795292317867279,-0.2938261926174164,0.2223549485206604
1747993638249356300,11.672356201171874,-0.6224716901779175,0.12522737681865692,0.12828169763088226
1747993638265164300,11.688164306640624,-0.6682865619659424,0.3500257730484009,0.17776179313659668
1747993638280942000,11.703942138671875,-0.7275404930114746,0.15332718193531036,0.4453207552433014
1747993638296750000,11.71975,-0.8387179970741272,-0.16737708449363708,0.7440338730812073
1747993638312558000,11.73555810546875,-1.017701506614685,-0.43249258399009705,0.912021815776825
1747993638328396800,11.751396728515624,-1.1270463466644287,-0.48319441080093384,0.8246681094169617
1747993638344174300,11.76717431640625,-1.1368201971054077,-0.3445279896259308,0.5589417219161987
1747993638360013000,11.783012939453124,-1.0115928649902344,-0.11056660860776901,0.2993239760398865
1747993638375851500,11.7988515625,-0.8906415104866028,0.04092797264456749,0.1618792861700058
1747993638391659800,11.81465966796875,-0.9224064946174622,-0.02626720629632473,0.13072516024112701
1747993638407467800,11.8304677734375,-1.0873401165008545,-0.21807889640331268,0.1722639948129654
1747993638423245600,11.84624560546875,-1.2687671184539795,-0.36529740691185,0.24556782841682434
1747993638439053600,11.862053466796874,-1.367727279663086,-0.3830125033855438,0.28099802136421204
1747993638454861600,11.877861572265624,-1.3506230115890503,-0.29077184200286865,0.3176499307155609
1747993638470608600,11.893608642578124,-1.3408491611480713,-0.182648703455925,0.5125159621238708
1747993638486386400,11.909386474609375,-1.4697418212890625,-0.14233160018920898,0.9248499870300293
1747993638502194400,11.9251943359375,-1.643227458000183,-0.23884831368923187,1.2718214988708496
1747993638518002400,11.94100244140625,-1.807550311088562,-0.36590829491615295,1.4947872161865234
1747993638533810700,11.956810791015625,-1.86191725730896,-0.4398229718208313,1.4569135904312134
1747993638549649200,11.972649169921874,-1.7788395881652832,-0.44654250144958496,1.2571606636047363
1747993638565427000,11.988427001953125,-1.541213035583496,-0.28099802136421204,1.083064079284668
1747993638581265400,12.004265380859374,-1.2748757600784302,-0.1062905490398407,0.9932668805122375
1747993638597073700,12.02007373046875,-1.1612548828125,-0.04459316283464432,0.9871582388877869
1747993638612912000,12.035912109375,-1.1325441598892212,-0.17837265133857727,1.0323622226715088
1747993638628659200,12.0516591796875,-1.1129964590072632,-0.32009339332580566,0.998153805732727
1747993638644436700,12.067436767578124,-1.0097602605819702,-0.40744712948799133,0.8741481900215149
1747993638660306000,12.083305908203124,-0.8295549750328064,-0.4196644127368927,0.7232644557952881
1747993638676083500,12.09908349609375,-0.6682865619659424,-0.37140607833862305,0.6328563690185547
1747993638691922200,12.114922119140624,-0.5589417219161987,-0.2638937830924988,0.5809328556060791
1747993638707699700,12.13069970703125,-0.5161811113357544,-0.10812314599752426,0.5125159621238708
1747993638723477500,12.1464775390625,-0.44776421785354614,0.05009094998240471,0.36651915311813354
1747993638739316000,12.16231591796875,-0.37201693654060364,0.12950342893600464,0.20036379992961884
1747993638755124200,12.178124267578125,-0.2125810980796814,0.09285151958465576,0.012217304669320583
1747993638770993200,12.1939931640625,-0.036041051149368286,-0.003054326167330146,-0.17898350954055786
1747993638786709800,12.209709716796874,0.10506882518529892,-0.20097467303276062,-0.413555771112442
1747993638802518000,12.22551806640625,0.10690141469240189,-0.4343251883983612,-0.4758640229701996
1747993638818387000,12.241386962890624,-0.021991148591041565,-0.4440990388393402,-0.5094616413116455
1747993638834225700,12.2572255859375,-0.07024950534105301,-0.15515977144241333,-0.6701191663742065
1747993638850064400,12.273064453125,0.11728613078594208,0.4404338300228119,-0.8576548099517822
1747993638865842000,12.288842041015625,0.42577308416366577,0.7941248416900635,-0.7941248416900635
1747993638881650000,12.30464990234375,0.5687155723571777,0.799011766910553,-0.6499606370925903
1747993638897458200,12.320458251953125,0.5210680365562439,0.4386012554168701,-0.6230825781822205
1747993638913235700,12.336235595703124,0.4141666293144226,-0.01710422709584236,-0.6316346526145935
1747993638929043700,12.352043701171874,0.3793473243713379,-0.48380526900291443,-0.5644394755363464
1747993638944882400,12.36788232421875,0.44165557622909546,-0.5552765130996704,-0.4996877610683441
1747993638960660000,12.383659912109374,0.5473352670669556,-0.04642575979232788,-0.31581732630729675
1747993638976437500,12.3994375,0.6395758986473083,0.4807509481906891,-0.08857546001672745
1747993638992245800,12.415245849609375,0.7116580009460449,1.0800096988677979,0.07819075137376785
1747993639008053800,12.4310537109375,0.7544185519218445,1.1985175609588623,0.12217304855585098
1747993639023862000,12.446862060546875,0.8521569967269897,1.1136072874069214,-0.006719517521560192
1747993639039670000,12.462669921875,0.9969320893287659,0.9566149711608887,-0.21624629199504852
1747993639055508700,12.4785087890625,1.149037480354309,0.6517932415008545,-0.49846604466438293
1747993639071347200,12.49434716796875,1.2150110006332397,0.47708576917648315,-0.7458664774894714
1747993639087186000,12.51018603515625,1.1704177856445312,0.394618958234787,-0.8802568316459656
1747993639102933000,12.52593310546875,1.018923282623291,0.4905247986316681,-0.8527678847312927
1747993639118710500,12.54171044921875,0.7568620443344116,0.5601634383201599,-0.8155050873756409
1747993639134488000,12.557488037109374,0.5125159621238708,0.45753806829452515,-0.6688974499702454
1747993639150296300,12.57329638671875,0.5253441333770752,0.43676865100860596,-0.44593164324760437
1747993639166165200,12.589165283203124,0.7171558141708374,0.4807509481906891,-0.08368854224681854
1747993639181943000,12.604943115234375,0.8570439219474792,0.42577308416366577,0.2474004179239273
1747993639197751000,12.6207509765625,0.9059131741523743,0.303600013256073,0.5693264007568359
1747993639213559000,12.63655908203125,0.816726803779602,0.1722639948129654,0.7061602473258972
1747993639229336800,12.6523369140625,0.5253441333770752,0.04092797264456749,0.5149593949317932
1747993639245084000,12.668083984375,0.34574973583221436,-0.031154127791523933,0.23579397797584534
1747993639260892000,12.683891845703124,0.26511552929878235,-0.11911872029304504,0.10812314599752426
1747993639276700200,12.6997001953125,0.3029891550540924,-0.06230825558304787,0.11239920556545258
1747993639292508200,12.715508056640624,0.3903428912162781,-0.054367005825042725,0.17287486791610718
1747993639308316200,12.731316162109374,0.3585779070854187,-0.23029619455337524,0.22052235901355743
1747993639324155000,12.74715478515625,0.20891591906547546,-0.5149593949317932,0.2675589919090271
1747993639339963000,12.762962890625,-0.021380282938480377,-0.7037167549133301,0.3634648323059082
1747993639355740700,12.77874072265625,-0.152105450630188,-0.8313875794410706,0.5161811113357544
1747993639371518200,12.794518310546875,-0.2926044464111328,-0.6780604124069214,0.5791002511978149
1747993639387326200,12.810326171875,-0.37568211555480957,0,0.4043927788734436
1747993639403165000,12.8261650390625,-0.4239404797554016,0.3836233615875244,0.3494149148464203
1747993639418942500,12.8419423828125,-0.5094616413116455,0.12767083942890167,0.5564982295036316
1747993639434720000,12.857719970703124,-0.5913175344467163,-0.7000515460968018,0.9419541954994202
1747993639450497500,12.87349755859375,-0.7574729323387146,-1.158811330795288,1.120937705039978
1747993639466275300,12.889275390625,-0.921795666217804,-1.2498302459716797,1.007927656173706
1747993639482113800,12.90511376953125,-0.9969320893287659,-1.0238101482391357,0.836885392665863
1747993639497860900,12.92086083984375,-0.9657779335975647,-0.4795292317867279,0.6988298296928406
1747993639513669000,12.936669189453125,-0.9156870245933533,-0.2021963894367218,0.7244861721992493
1747993639529446700,12.95244677734375,-0.9260717034339905,-0.001832595793530345,0.7464773058891296
1747993639545254700,12.968254638671874,-0.9902125597000122,0.06108652427792549,0.6395758986473083
1747993639561063000,12.98406298828125,-1.1343767642974854,-0.10812314599752426,0.43676865100860596
1747993639576871000,12.999870849609374,-1.2577714920043945,-0.40133845806121826,0.27611109614372253
1747993639592648400,13.0156484375,-1.2907582521438599,-0.8387179970741272,0.14782938361167908
1747993639608426000,13.031426025390624,-1.2150110006332397,-1.0714576244354248,0.10567969083786011
1747993639624234200,13.047234130859374,-1.0934487581253052,-1.0512990951538086,0.18387043476104736
1747993639640042200,13.063042236328124,-1.035416603088379,-0.8851437568664551,0.313373863697052
1747993639655820000,13.078820068359375,-1.0390818119049072,-0.6646214127540588,0.3988949954509735
1747993639671628000,13.0946279296875,-1.10139000415802,-0.4202753007411957,0.47342056035995483
1747993639687436000,13.11043603515625,-1.1954632997512817,-0.3219259977340698,0.5748242139816284
1747993639703244300,13.126244384765625,-1.2864822149276733,-0.3585779070854187,0.7422012686729431
1747993639719052300,13.14205224609375,-1.2968668937683105,-0.37690386176109314,0.8710938692092896
1747993639734829800,13.157829833984374,-1.2162326574325562,-0.32131510972976685,0.9205739498138428
1747993639750607600,13.173607666015625,-1.1050552129745483,-0.20830504596233368,0.8448266386985779
1747993639766415600,13.18941552734375,-0.930347740650177,-0.08552113175392151,0.6536257863044739
1747993639782223600,13.2052236328125,-0.770301103591919,-0.12034045159816742,0.4343251883983612
1747993639798001400,13.22100146484375,-0.616973876953125,-0.24129177629947662,0.15393804013729095
1747993639813809400,13.236809326171874,-0.5112941861152649,-0.32681289315223694,-0.0757472887635231
1747993639829648100,13.252648193359375,-0.36651915311813354,-0.36651915311813354,-0.37262779474258423
1747993639845425700,13.26842578125,-0.22846360504627228,-0.3933972120285034,-0.5766568183898926
1747993639861203200,13.284203125,-0.12034045159816742,-0.43188172578811646,-0.6939429044723511
1747993639877042000,13.3000419921875,-0.05803219974040985,-0.513126790523529,-0.6817256212234497
1747993639892819500,13.3158193359375,0.06902777403593063,-0.720820963382721,-0.656069278717041
1747993639908597000,13.331596923828124,0.27977627515792847,-1.062294602394104,-0.6866125464439392
1747993639924344000,13.347343994140624,0.38606682419776917,-1.3261884450912476,-0.7550294399261475
1747993639940152000,13.363152099609374,0.3549126982688904,-1.4220943450927734,-0.8772025108337402
1747993639956021200,13.379021240234374,0.3182607889175415,-1.0702359676361084,-0.9089674949645996
1747993639971768300,13.394768310546874,0.4508185386657715,-0.4489859640598297,-0.6707300543785095
1747993639987576600,13.41057666015625,0.7275404930114746,-0.0861319974064827,-0.2889392673969269
1747993640003354000,13.42635400390625,1.1062769889831543,0.09773843735456467,0.09468411654233932
1747993640019162000,13.442162109375,1.303586483001709,0.056810468435287476,0.2889392673969269
1747993640035000800,13.458000732421874,1.3548991680145264,-0.033597588539123535,0.2382374405860901
1747993640050808800,13.473808837890624,1.1575896739959717,-0.19975294172763824,0.07147123664617538
1747993640066617000,13.4896171875,0.9083566069602966,-0.152105450630188,-0.16859880089759827
1747993640082394600,13.50539453125,0.8148942589759827,0.4251621961593628,-0.28649580478668213
1747993640098202600,13.52120263671875,0.8924741148948669,1.4587461948394775,-0.09773843735456467
1747993640114011000,13.537010986328125,1.1655309200286865,1.8949040174484253,0.43615779280662537
1747993640129819000,13.55281884765625,1.1746938228607178,1.2822061777114868,1.0592403411865234
1747993640145627100,13.568627197265625,0.769079327583313,0.21930062770843506,1.6175711154937744
1747993640161343500,13.584343505859374,0.5106833577156067,0.18936823308467865,1.2492194175720215
1747993640177151700,13.60015185546875,0.7354817390441895,0.7861835956573486,-0.02076941914856434
1747993640192990200,13.615990234375,1.0610729455947876,1.0848966836929321,-1.0586295127868652
1747993640208737300,13.6317373046875,1.2315043210983276,0.8943067193031311,-1.4501941204071045
1747993640224545500,13.647545654296875,1.1820242404937744,0.3188716471195221,-1.1380419731140137
1747993640240323000,13.663322998046874,0.8356636762619019,-0.5558874011039734,-0.37201693654060364
1747993640256161800,13.679161865234375,0.43615779280662537,-0.9761626720428467,0.18509216606616974
1747993640272000300,13.695000244140624,0.056810468435287476,-0.9615018963813782,0.3885102868080139
1747993640287808500,13.71080859375,-0.16310101747512817,-0.5925393104553223,0.3170390725135803
1747993640303647000,13.72664697265625,-0.31642818450927734,0.08307767659425735,0.1966986060142517
1747993640319516200,13.74251611328125,-0.3597996234893799,0.6829473376274109,0.1319468915462494
1747993640335293700,13.758293701171874,-0.3439171314239502,1.0781772136688232,0.07696902006864548
1747993640351163000,13.774162841796874,-0.4300491213798523,1.2779301404953003,0.10506882518529892
1747993640366910000,13.789909912109374,-0.48197266459465027,1.1740829944610596,0.13561208546161652
1747993640382687500,13.8056875,-0.5540547966957092,0.8332201838493347,0.12461651116609573
1747993640398556700,13.821556640625,-0.6487388610839844,0.4605923891067505,0.07696902006864548
1747993640414365000,13.837364990234375,-0.6921103000640869,0.19853121042251587,-0.00366519158706069
1747993640430233900,13.85323388671875,-0.6701191663742065,0.14844025671482086,-0.05314527451992035
1747993640445950500,13.868950439453124,-0.6780604124069214,0.15943582355976105,-0.06414084881544113
1747993640461758700,13.8847587890625,-0.7305948138237,0.06963863968849182,-0.031154127791523933
1747993640477566700,13.900566650390624,-0.8655960559844971,-0.22479841113090515,0.042760565876960754
1747993640493374700,13.916374755859374,-0.9737191796302795,-0.45204028487205505,0.09285151958465576
1747993640509213400,13.93221337890625,-1.1966849565505981,-0.6933320760726929,0.1264491081237793
1747993640525021400,13.948021484375,-1.1808024644851685,-0.30115658044815063,0.02932153269648552
1747993640540799200,13.96379931640625,-0.9364564418792725,0.23579397797584534,0.036651913076639175
1747993640556607200,13.979607177734374,-0.7745771408081055,0.403781920671463,0.24129177629947662
1747993640572415500,13.99541552734375,-0.7141014933586121,0.19792033731937408,0.4184426963329315
1747993640588254000,14.01125390625,-0.8717046976089478,-0.44837507605552673,0.4862487316131592
1747993640604031500,14.027031494140624,-1.0891727209091187,-1.0934487581253052,0.543059229850769
1747993640619809300,14.042809326171875,-1.253495454788208,-1.5974125862121582,0.5998696684837341
1747993640635586800,14.0585869140625,-1.289536476135254,-1.7385225296020508,0.5803219676017761
1747993640651394800,14.074394775390624,-1.1856894493103027,-1.549154281616211,0.4905247986316681
1747993640667233500,14.090233642578125,-1.1087204217910767,-1.2583824396133423,0.45631635189056396
1747993640682980600,14.105980712890625,-1.1459832191467285,-0.9291260242462158,0.49235737323760986
1747993640698758100,14.121758056640624,-1.289536476135254,-0.7935139536857605,0.6279694437980652
1747993640714535700,14.13753564453125,-1.511891484260559,-0.7812966704368591,0.8698720932006836
1747993640730313200,14.153313232421874,-1.655444860458374,-0.8142833709716797,1.037249207496643
1747993640746152000,14.16915185546875,-1.6896532773971558,-0.8607091307640076,1.1044443845748901
1747993640761929500,14.184929443359374,-1.6572774648666382,-0.9938777685165405,1.06351637840271
1747993640777737700,14.20073779296875,-1.6084082126617432,-1.151481032371521,0.9260717034339905
1747993640793545700,14.216545654296874,-1.578475832939148,-1.2602150440216064,0.7916813492774963
1747993640809415000,14.232414794921874,-1.5894713401794434,-1.3292428255081177,0.6701191663742065
1747993640825253400,14.24825341796875,-1.6487252712249756,-1.207680583000183,0.5955936312675476
1747993640840970000,14.263969970703124,-1.635897159576416,-0.9236282706260681,0.6010913848876953
1747993640856778200,14.2797783203125,-1.5192219018936157,-0.5155702829360962,0.6499606370925903
1747993640872586200,14.295586181640624,-1.4080443382263184,-0.2382374405860901,0.6395758986473083
1747993640888394200,14.311394287109374,-1.3200798034667969,0.005497787147760391,0.607200026512146
1747993640904233000,14.32723291015625,-1.2681562900543213,0.10384709388017654,0.5516113042831421
1747993640920010500,14.343010498046874,-1.1331549882888794,0.22540926933288574,0.44593164324760437
1747993640935788300,14.358788330078125,-0.9450085163116455,0.33536502718925476,0.33719760179519653
1747993640951535400,14.374535400390625,-0.6218608021736145,0.45204028487205505,0.1771509200334549
1747993640967343400,14.39034326171875,-0.3182607889175415,0.503963828086853,-0.006719517521560192
1747993640983212500,14.406212646484375,-0.12034045159816742,0.5839871764183044,-0.2021963894367218
1747993640998990000,14.421989990234374,-0.0959058403968811,0.5809328556060791,-0.2730567753314972
1747993641014828800,14.437828857421875,-0.08185594528913498,0.4050036668777466,-0.34697145223617554
1747993641030697700,14.45369775390625,0.1264491081237793,0.22357667982578278,-0.44837507605552673
1747993641046506000,14.469506103515625,0.21868975460529327,0.004886921960860491,-0.5540547966957092
1747993641062314000,14.48531396484375,0.3121521472930908,0.0959058403968811,-0.7397578358650208
1747993641078091500,14.501091552734374,0.4807509481906891,0.2871066629886627,-1.0012081861495972
1747993641093869300,14.516869384765625,0.6243042945861816,0.53328537940979,-1.2486085891723633
1747993641109677300,14.53267724609375,0.7354817390441895,0.6774495840072632,-1.4599679708480835
1747993641125454800,14.548454833984374,0.8100073337554932,0.6401867866516113,-1.7366899251937866
1747993641141293600,14.56429345703125,0.8100073337554932,0.4917465150356293,-1.8661932945251465
1747993641157040600,14.58004052734375,0.7635815739631653,0.16737708449363708,-1.7440202236175537
1747993641172848600,14.5958486328125,0.7147123217582703,-0.16249015927314758,-1.4624114036560059
1747993641188626200,14.611626220703124,0.7141014933586121,-0.3237585723400116,-1.1203268766403198
1747993641204434400,14.627434326171874,0.6988298296928406,-0.23273965716362,-0.8869763612747192
1747993641220212000,14.6432119140625,0.684779942035675,0.027488935738801956,-0.7330383062362671
1747993641236020200,14.659020263671875,0.6090326309204102,0.22296582162380219,-0.6298020482063293
1747993641251828200,14.674828125,0.44165557622909546,0.32070425152778625,-0.41722095012664795
1747993641267636200,14.69063623046875,0.3292563557624817,0.3536909818649292,-0.2015855312347412
1747993641283444500,14.706444580078125,0.3781255781650543,0.45265114307403564,-0.10018189996480942
1747993641299283000,14.722282958984374,0.5497786998748779,0.5088507533073425,-0.1411098688840866
1747993641315091200,14.73809130859375,0.7043276429176331,0.5308418869972229,-0.242513507604599
1747993641330868700,14.75386865234375,0.8148942589759827,0.49846604466438293,-0.4251621961593628
1747993641346676700,14.7696767578125,0.8155050873756409,0.41599923372268677,-0.5809328556060791
1747993641362485000,14.785485107421875,0.7287622094154358,0.31581732630729675,-0.6524040699005127
1747993641378293000,14.80129296875,0.6359107494354248,0.3017674386501312,-0.5894849896430969
1747993641394131700,14.817131591796874,0.5638286471366882,0.4147774875164032,-0.44104471802711487
1747993641409909200,14.8329091796875,0.5674937963485718,0.5534439086914062,-0.31031954288482666
1747993641425686800,14.848686767578124,0.607200026512146,0.6120869517326355,-0.23273965716362
1747993641441433900,14.864433837890624,0.6359107494354248,0.5778785347938538,-0.294437050819397
1747993641457303000,14.880302978515624,0.6811147332191467,0.42760565876960754,-0.4758640229701996
1747993641473019600,14.89601953125,0.7232644557952881,0.22968533635139465,-0.6316346526145935
1747993641488827600,14.91182763671875,0.7177666425704956,-0.016493361443281174,-0.7134906053543091
1747993641504574700,14.92757470703125,0.6927211880683899,-0.1618792861700058,-0.675006091594696
1747993641520383000,14.943383056640625,0.656069278717041,-0.242513507604599,-0.5650503635406494
1747993641536252200,14.959252197265625,0.6224716901779175,-0.2431243658065796,-0.46547931432724
1747993641551999200,14.974999267578125,0.5510004758834839,-0.22907446324825287,-0.34208452701568604
1747993641567776800,14.99077685546875,0.4966334402561188,-0.17287486791610718,-0.2217440903186798
1747993641583584800,15.006584716796874,0.3952298164367676,-0.0806342139840126,-0.02382374368607998
1747993641599393000,15.02239306640625,0.33108896017074585,0.09896016865968704,0.09224065393209457
1747993641615231500,15.0382314453125,0.39706242084503174,0.12950342893600464,0.12278391420841217
1747993641631070200,15.0540703125,0.5271766781806946,-0.09346238523721695,0.17348572611808777
1747993641646847700,15.06984765625,0.5937610268592834,-0.1875356286764145,0.1508837193250656
1747993641662717000,15.085717041015625,0.5711590051651001,-0.13561208546161652,0.022602014243602753
1747993641678525000,15.10152490234375,0.5320636034011841,-0.10384709388017654,-0.10201449692249298
1747993641694394000,15.11739404296875,0.5656611919403076,-0.13988813757896423,-0.23029619455337524
1747993641710171600,15.133171630859374,0.6908885836601257,-0.37262779474258423,-0.22540926933288574
1747993641725949200,15.14894921875,0.6969972252845764,-0.7825183868408203,0.05497787147760391
1747993641741788000,15.164787841796874,0.5375614166259766,-0.9578366875648499,0.3084869384765625
1747993641757596000,15.180595947265624,0.36529740691185,-0.7648032903671265,0.43615779280662537
1747993641773434600,15.1964345703125,0.2321287989616394,-0.21991148591041565,0.523511528968811
1747993641789181700,15.212181640625,0.27000242471694946,0.2565633952617645,0.48197266459465027
1747993641804990000,15.227989990234375,0.4153883755207062,0.47219884395599365,0.31459560990333557
1747993641820767500,15.243767578125,0.4660901725292206,0.33292156457901,0.21868975460529327
1747993641836545000,15.259544921875,0.46792277693748474,-0.05925392732024193,0.18936823308467865
1747993641852383700,15.2753837890625,0.39584067463874817,-0.4092797040939331,0.26022860407829285
1747993641868222200,15.29122216796875,0.27488934993743896,-0.6725626587867737,0.4153883755207062
1747993641884030500,15.307030517578125,0.21441370248794556,-0.749531626701355,0.5418374538421631
1747993641899899400,15.3228994140625,0.16737708449363708,-0.740368664264679,0.6878342628479004
1747993641915707600,15.338707763671875,0.13316862285137177,-0.7275404930114746,0.8246681094169617
1747993641931576800,15.354576904296875,0.07941248267889023,-0.7037167549133301,0.9468411207199097
1747993641947354400,15.370354248046874,-0.01771509274840355,-0.6688974499702454,1.0134254693984985
1747993641963132000,15.3861318359375,-0.09040805697441101,-0.5748242139816284,1.0024298429489136
1747993641978909400,15.401909423828124,-0.09285151958465576,-0.4245513379573822,0.9162978529930115
1747993641994717700,15.4177177734375,-0.051312681287527084,-0.19120082259178162,0.7360926270484924
1747993642010556200,15.43355615234375,0.02687807008624077,0.02015855349600315,0.5247332453727722
1747993642026333700,15.449333740234374,0.004886921960860491,-0.028099801391363144,0.4331034719944
1747993642042111500,15.465111572265625,-0.04703662544488907,-0.1612684279680252,0.3695734739303589
1747993642057950000,15.480949951171874,-0.09285151958465576,-0.13500121235847473,0.32559117674827576
1747993642073788700,15.49678857421875,-0.1875356286764145,0.015271631069481373,0.34147366881370544
1747993642089657900,15.512657958984375,-0.23335053026676178,0.21135938167572021,0.44104471802711487
1747993642105465900,15.5284658203125,-0.2620611786842346,0.45814892649650574,0.6139195561408997
1747993642121243400,15.544243408203124,-0.2919935882091522,0.5827654600143433,0.7104362845420837
1747993642137051600,15.5600517578125,-0.42577308416366577,0.5461135506629944,0.7128797173500061
1747993642152829200,15.5758291015625,-0.5626068711280823,0.37751471996307373,0.665232241153717
1747993642168728800,15.591728759765624,-0.7165449261665344,0.08735372871160507,0.6230825781822205
1747993642184506400,15.60750634765625,-0.817337691783905,-0.024434609338641167,0.588263213634491
1747993642200314600,15.623314697265625,-0.8594874143600464,0.018325956538319588,0.5277875661849976
1747993642216153000,15.639153076171874,-0.8875871896743774,0.15271630883216858,0.5057964324951172
1747993642231991800,15.65499169921875,-0.931569516658783,0.20830504596233368,0.4862487316131592
1747993642247769300,15.670769287109374,-0.9810495972633362,0.17348572611808777,0.38728857040405273
1747993642263516400,15.686516357421874,-1.0445796251296997,0.10506882518529892,0.19303341209888458
1747993642279294000,15.7022939453125,-1.0989465713500977,0.021991148591041565,-0.08552113175392151
1747993642295102200,15.718102294921875,-1.0867292881011963,-0.033597588539123535,-0.31520646810531616
1747993642310910200,15.73391015625,-0.9608910083770752,0.09468411654233932,-0.6328563690185547
1747993642326718500,15.749718505859375,-0.7428121566772461,0.2938261926174164,-0.8704829812049866
1747993642342465500,15.765465576171875,-0.47280970215797424,0.27977627515792847,-0.8515461683273315
1747993642358212600,15.781212646484375,-0.3433062732219696,-0.05253441259264946,-0.6310238242149353
1747993642374051000,15.797051025390624,-0.40744712948799133,-0.6475171446800232,-0.28527405858039856
1747993642389859300,15.812859375,-0.4715879559516907,-0.9902125597000122,-0.1466076523065567
1747993642405728300,15.828728271484374,-0.375071257352829,-1.1441506147384644,-0.22357667982578278
1747993642421536500,15.84453662109375,-0.23640485107898712,-1.1887437105178833,-0.21135938167572021
1747993642437314000,15.86031396484375,-0.12339477986097336,-1.1435397863388062,-0.030543262138962746
1747993642453152800,15.87615283203125,-0.10201449692249298,-0.99876469373703,0.2223549485206604
1747993642468960800,15.891960693359374,-0.13561208546161652,-0.8857545852661133,0.375071257352829
1747993642484830000,15.907829833984374,-0.14233160018920898,-0.7073819637298584,0.43799036741256714
1747993642500607500,15.923607421875,-0.13927727937698364,-0.5656611919403076,0.4343251883983612
1747993642516385000,15.939385009765624,-0.09468411654233932,-0.513126790523529,0.3286454975605011
1747993642532101600,15.9551015625,-0.02626720629632473,-0.6157521605491638,0.20463985204696655
1747993642547909600,15.97090966796875,0.036041051149368286,-0.8381071090698242,0.048258353024721146
1747993642563718000,15.9867177734375,0.039706241339445114,-1.0726794004440308,-0.10690141469240189
1747993642579556400,16.002556396484376,0.005497787147760391,-1.2119566202163696,-0.252287358045578
1747993642595364600,16.018364501953126,0.013439035043120384,-1.177748203277588,-0.32009339332580566
1747993642611142100,16.03414208984375,0.06108652427792549,-0.9822713136672974,-0.24007004499435425
1747993642626919700,16.049919677734376,0.09346238523721695,-0.789237916469574,-0.09957103431224823
1747993642642758400,16.06575830078125,0.0861319974064827,-0.6322455406188965,-0.06291911751031876
1747993642658536000,16.081535888671876,0.06352998316287994,-0.5534439086914062,-0.16859880089759827
1747993642674374700,16.097374755859374,0.013439035043120384,-0.48197266459465027,-0.2968805134296417
1747993642690152200,16.113152099609376,-0.0555887371301651,-0.35185837745666504,-0.3579670190811157
1747993642705960200,16.128960205078126,-0.1459967941045761,-0.1508837193250656,-0.39645153284072876
1747993642721829400,16.144829345703126,-0.16859880089759827,-0.02871066704392433,-0.4538728892803192
1747993642737668000,16.160668212890624,-0.10262536257505417,-0.054367005825042725,-0.5302310585975647
1747993642761410800,16.184410888671874,-0.09407325088977814,-0.21441370248794556,-0.6108652353286743
1747993642777249300,16.200249267578126,-0.20402899384498596,-0.26633724570274353,-0.6212499737739563
1747993642793057500,16.2160576171875,-0.3982841372489929,-0.2687807083129883,-0.523511528968811
1747993642808835000,16.2318349609375,-0.50335294008255,-0.15027284622192383,-0.2938261926174164
1747993642824673800,16.247673828125,-0.5253441333770752,-0.08185594528913498,0.019547687843441963
1747993642840542700,16.263542724609376,-0.6298020482063293,-0.16004669666290283,0.40256020426750183
1747993642856320500,16.279320556640624,-0.8093964457511902,-0.30543261766433716,0.5681046843528748
1747993642872128500,16.29512841796875,-1.0421360731124878,-0.44593164324760437,0.5968153476715088
1747993642888028200,16.311028076171876,-1.1844676733016968,-0.5161811113357544,0.5656611919403076
1747993642903775200,16.326775146484376,-1.2565498352050781,-0.48808133602142334,0.5308418869972229
1747993642919614000,16.342614013671874,-1.3041973114013672,-0.46670106053352356,0.5064072608947754
1747993642935422000,16.358421875,-1.416596531867981,-0.4905247986316681,0.5051855444908142
1747993642951199500,16.374199462890626,-1.5693128108978271,-0.6017022728919983,0.5858197808265686
1747993642967007700,16.3900078125,-1.7910568714141846,-0.8631525635719299,0.7195992469787598
1747993642982815700,16.405815673828126,-2.024407386779785,-1.0433578491210938,0.7861835956573486
1747993642998623700,16.421623779296876,-2.193617105484009,-1.1252137422561646,0.770301103591919
1747993643014401500,16.437401611328124,-2.1514673233032227,-0.9474520087242126,0.6713408827781677
1747993643030209500,16.45320947265625,-2.065335512161255,-0.8032878041267395,0.5962044596672058
1747993643045987000,16.468987060546876,-2.098932981491089,-0.8912523984909058,0.6328563690185547
1747993643061825800,16.48482568359375,-2.2540926933288574,-1.1673635244369507,0.7342600226402283
1747993643077664500,16.50066455078125,-2.4196372032165527,-1.4049900770187378,0.8515461683273315
1747993643093411600,16.51641162109375,-2.3316726684570312,-1.2785409688949585,0.8839219808578491
1747993643109219600,16.532219482421876,-1.9187277555465698,-0.8155050873756409,0.7470881938934326
1747993643124936200,16.547936279296874,-1.5234979391098022,-0.6377432942390442,0.6426302194595337
1747993643140744200,16.563744140625,-1.340238332748413,-0.9431759119033813,0.5925393104553223
1747993643156583000,16.5795830078125,-1.3542882204055786,-1.5192219018936157,0.49296826124191284
1747993643172391000,16.595390869140626,-1.5430456399917603,-2.0060815811157227,0.32131510972976685
1747993643188199200,16.61119921875,-1.7104226350784302,-2.049452781677246,0.2791654169559479
1747993643204007200,16.627007080078126,-1.7959438562393188,-1.6322319507598877,0.46181413531303406
1747993643219815200,16.642815185546876,-1.7519614696502686,-1.1728612184524536,0.7275404930114746
1747993643235684400,16.658684326171876,-1.6273449659347534,-0.720820963382721,0.9144652485847473
1747993643251492600,16.67449267578125,-1.5650367736816406,-0.47342056035995483,0.79840087890625
1747993643267300600,16.690300537109376,-1.5192219018936157,-0.4856378734111786,0.5962044596672058
1747993643283108600,16.706108642578126,-1.4660766124725342,-0.6603453159332275,0.3683517575263977
1747993643298916900,16.721916748046876,-1.3640620708465576,-0.7110471725463867,0.2736676335334778
1747993643314694400,16.7376943359375,-1.1331549882888794,-0.5937610268592834,0.2730567753314972
1747993643330502400,16.75350244140625,-0.8906415104866028,-0.45753806829452515,0.28099802136421204
1747993643346280200,16.7692802734375,-0.627358615398407,-0.3738495409488678,0.22296582162380219
1747993643362088200,16.785088134765626,-0.4697553813457489,-0.4190535545349121,0.12034045159816742
1747993643377896400,16.800896484375,-0.3891211748123169,-0.5546656250953674,-0.009162978269159794
1747993643393735000,16.81673486328125,-0.375071257352829,-0.5766568183898926,-0.07147123664617538
1747993643409512400,16.832512451171876,-0.39156460762023926,-0.42210787534713745,-0.0555887371301651
1747993643425290200,16.848290283203124,-0.3695734739303589,-0.2021963894367218,0.013439035043120384
1747993643441067800,16.86406787109375,-0.33536502718925476,0.009773843921720982,0.12889257073402405
1747993643456875800,16.879875732421876,-0.3194825351238251,0.11972958594560623,0.2076941877603531
1747993643472775400,16.895775390625,-0.27977627515792847,0.15393804013729095,0.22357667982578278
1747993643488492000,16.911491943359376,-0.20952677726745605,0.14782938361167908,0.17470745742321014
1747993643504269600,16.92726953125,-0.13805554807186127,0.1368338167667389,0.10751228034496307
1747993643520077800,16.943077880859374,-0.04948008432984352,0.060475658625364304,0.03726277872920036
1747993643535885800,16.9588857421875,-0.0006108652451075613,-0.08918632566928864,0.001832595793530345
1747993643551755000,16.974755126953124,0.021991148591041565,-0.19975294172763824,-0.024434609338641167
1747993643567563000,16.99056298828125,0.02076941914856434,-0.22052235901355743,-0.039095375686883926
1747993643583340500,17.006340576171876,0.03481931984424591,-0.17409659922122955,-0.0507018156349659
1747993643599209700,17.022209716796876,0.08246681094169617,-0.0806342139840126,-0.0555887371301651
1747993643614987300,17.0379873046875,0.13377949595451355,0.03848451003432274,-0.09834930300712585
1747993643630826000,17.053825927734376,0.18814650177955627,0.07208210229873657,-0.16065755486488342
1747993643646634200,17.06963427734375,0.2877175211906433,0.018325956538319588,-0.2577851414680481
1747993643662442200,17.085442138671876,0.3579670190811157,-0.14049901068210602,-0.3390302062034607
1747993643678219800,17.1012197265625,0.3023782968521118,-0.413555771112442,-0.34758231043815613
1747993643693997300,17.116997314453126,0.1508837193250656,-0.5681046843528748,-0.252287358045578
1747993643709866500,17.132866455078126,-0.03298672288656235,-0.5247332453727722,-0.16004669666290283
1747993643725613600,17.148613525390626,-0.10323622822761536,-0.03848451003432274,-0.22663100063800812
1747993643741421800,17.164421875,0.05009094998240471,0.5778785347938538,-0.37751471996307373
1747993643757229800,17.180229736328126,0.29138273000717163,0.8161159753799438,-0.46547931432724
1747993643773068500,17.196068603515624,0.42638394236564636,0.37629300355911255,-0.5943718552589417
1747993643788876500,17.21187646484375,0.4795292317867279,-0.6890559792518616,-0.8869763612747192
1747993643812558000,17.23555810546875,0.29993483424186707,-1.605353832244873,-1.389107584953308
1747993643828427300,17.25142724609375,0.19058994948863983,-1.5247195959091187,-1.4679092168807983
1747993643844143900,17.267143798828126,0.04581489413976669,-1.0280861854553223,-1.186300277709961
1747993643859921400,17.28292138671875,-0.15271630883216858,-0.5925393104553223,-0.7446447610855103
1747993643875699000,17.298698974609376,-0.4178318381309509,-0.2321287989616394,-0.26572638750076294
1747993643891476700,17.314476806640624,-0.618195652961731,-0.05864306539297104,-0.04948008432984352
1747993643907315200,17.330315185546876,-0.7153232097625732,0.06291911751031876,-0.003054326167330146
1747993643923123500,17.34612353515625,-0.6860016584396362,0.08491026610136032,-0.03848451003432274
1747993643938931500,17.361931396484376,-0.5791002511978149,-0.04092797264456749,-0.11423180252313614
1747993643954800600,17.377800537109376,-0.4905247986316681,-0.2590068578720093,-0.17104226350784302
1747993643970608600,17.393608642578126,-0.44104471802711487,-0.4691445231437683,-0.16982053220272064
1747993643986417000,17.4094169921875,-0.4502076804637909,-0.5766568183898926,-0.12217304855585098
1747993644002194400,17.4251943359375,-0.4813618063926697,-0.588263213634491,-0.04703662544488907
1747993644018002400,17.44100244140625,-0.5216789245605469,-0.49846604466438293,0.02687807008624077
1747993644033871600,17.45687158203125,-0.5400048494338989,-0.37079519033432007,0.10751228034496307
1747993644049649200,17.472649169921876,-0.5314527750015259,-0.30482175946235657,0.1111774742603302
1747993644065457400,17.48845751953125,-0.5094616413116455,-0.303600013256073,0.08735372871160507
1747993644081204500,17.50420458984375,-0.4508185386657715,-0.39584067463874817,0.06963863968849182
1747993644096982000,17.51998193359375,-0.40256020426750183,-0.5241223573684692,0.05192354694008827
1747993644112790000,17.5357900390625,-0.34513887763023376,-0.6597344875335693,0.00733038317412138
1747993644128598300,17.551598388671874,-0.3237585723400116,-0.7354817390441895,-0.018936822190880775
1747993644144436700,17.567436767578126,-0.3084869384765625,-0.7428121566772461,0
1747993644168118500,17.591118408203126,-0.3176499307155609,-0.9126327037811279,0.22296582162380219
1747993644184018200,17.60701806640625,-0.43737950921058655,-1.19607412815094,0.3799581825733185
1747993644199826200,17.622826171875,-0.7782423496246338,-1.453248381614685,0.5503895878791809
1747993644215604000,17.63860400390625,-1.072068452835083,-1.2302825450897217,0.5119050741195679
1747993644231442400,17.6544423828125,-1.0580185651779175,-0.1362229436635971,0.25045475363731384
1747993644247250700,17.670250732421874,-0.7134906053543091,0.8057312369346619,0.18997909128665924
1747993644263089200,17.686089111328126,-0.35246923565864563,1.13926362991333,0.3885102868080139
1747993644278897400,17.7018974609375,-0.18814650177955627,0.49846604466438293,0.6120869517326355
1747993644294675000,17.717675048828124,-0.2431243658065796,-0.9334021210670471,0.6737843751907349
1747993644310483000,17.73348291015625,-0.4386012554168701,-1.6774359941482544,0.5674937963485718
1747993644326291200,17.749291259765624,-0.5791002511978149,-1.8564194440841675,0.5467243790626526
1747993644342099200,17.76509912109375,-0.6194173693656921,-1.4563027620315552,0.7305948138237
1747993644357907200,17.7809072265625,-0.6615670323371887,-0.6346889734268188,1.0378600358963013
1747993644373715500,17.796715576171874,-0.7189884185791016,-0.16920967400074005,1.2510520219802856
1747993644389523500,17.8125234375,-0.7929030656814575,-0.05009094998240471,1.3530665636062622
1747993644405331700,17.828331787109374,-0.8454375267028809,-0.17104226350784302,1.2657127380371094
1747993644421139700,17.8441396484375,-0.8833111524581909,-0.2626720666885376,1.0348057746887207
1747993644436978400,17.859978515625,-0.9199630618095398,-0.1264491081237793,0.6377432942390442
1747993644452817000,17.87581689453125,-0.9779952764511108,0.16920967400074005,0.28955012559890747
1747993644468594700,17.8915947265625,-1.017701506614685,0.7195992469787598,-0.05314527451992035
1747993644484402700,17.907402587890626,-0.9938777685165405,1.034194827079773,-0.1472185254096985
1747993644500210700,17.923210693359376,-1.0317513942718506,0.988990843296051,-0.05009094998240471
1747993644516019000,17.93901904296875,-1.1850786209106445,0.6420193910598755,0.001832595793530345
1747993644531827000,17.954826904296876,-1.444696307182312,-0.09162978827953339,-0.12950342893600464
1747993644547635200,17.97063525390625,-1.6090190410614014,-0.656069278717041,-0.3323107063770294
1747993644563473700,17.9864736328125,-1.7244726419448853,-0.9205739498138428,-0.4147774875164032
1747993644579282000,18.002281982421874,-1.8368717432022095,-0.9224064946174622,-0.24495697021484375
1747993644595059500,18.0180595703125,-2.0024163722991943,-0.788016140460968,0.12217304855585098
1747993644610867500,18.033867431640626,-2.2290472984313965,-0.8546004891395569,0.3738495409488678
1747993644626645000,18.04964501953125,-2.4361305236816406,-1.0201449394226074,0.3323107063770294
1747993644642453200,18.065453369140624,-2.632829189300537,-1.160033106803894,0.16432274878025055
1747993644658291700,18.081291748046876,-2.6981918811798096,-1.0995573997497559,0.09224065393209457
1747993644674100000,18.097099853515626,-2.685974597930908,-0.8985827565193176,0.13744467496871948
1747993644689877500,18.11287744140625,-2.6535985469818115,-0.788016140460968,0.19792033731937408
1747993644705716200,18.12871630859375,-2.6419920921325684,-0.8252789378166199,0.12767083942890167
1747993644721524200,18.144524169921876,-2.6511552333831787,-1.016479730606079,-0.03787364438176155
1747993644737332500,18.16033251953125,-2.7128524780273438,-1.2999212741851807,-0.16004669666290283
1747993644753110000,18.176110107421874,-2.7812695503234863,-1.4379768371582031,-0.15943582355976105
1747993644768887600,18.191887451171876,-2.83380389213562,-1.3713924884796143,-0.08124507963657379
1747993644784695600,18.207695556640626,-2.825251817703247,-1.187522053718567,0.021380282938480377
1747993644800442600,18.223442626953126,-2.791043281555176,-1.0134254693984985,0.1514945775270462
1747993644816251000,18.2392509765625,-2.774549961090088,-0.988379955291748,0.22663100063800812
1747993644832028400,18.2550283203125,-2.7843236923217773,-1.1056660413742065,0.28588494658470154
1747993644847806000,18.270805908203126,-2.8209757804870605,-1.2516628503799438,0.3182607889175415
1747993644863583500,18.28658349609375,-2.8600711822509766,-1.3280210494995117,0.34574973583221436
1747993644879361300,18.302361328125,-2.858849287033081,-1.2852604389190674,0.3677408695220947
1747993644895169300,18.318169189453126,-2.8154778480529785,-1.1734721660614014,0.40744712948799133
1747993644910946800,18.33394677734375,-2.7287349700927734,-1.0952813625335693,0.5222898125648499
1747993644926785500,18.34978564453125,-2.66031813621521,-1.1496484279632568,0.6316346526145935
1747993644942593500,18.365593505859376,-2.643824815750122,-1.29381263256073,0.6976081132888794
1747993644958432300,18.381432373046874,-2.662761688232422,-1.4654656648635864,0.6811147332191467
1747993644974240300,18.397240234375,-2.671313762664795,-1.5454890727996826,0.5943718552589417
1747993644990017800,18.413017822265626,-2.615725040435791,-1.4941763877868652,0.53328537940979
1747993645005826000,18.428825927734376,-2.456289052963257,-1.3646728992462158,0.5345070958137512
1747993645021603600,18.444603515625,-2.2620339393615723,-1.2962560653686523,0.5577199459075928
1747993645037411600,18.46041162109375,-2.03540301322937,-1.3182471990585327,0.48808133602142334
1747993645053280800,18.47628076171875,-1.8967366218566895,-1.4398094415664673,0.2877175211906433
1747993645069027800,18.49202783203125,-1.7568484544754028,-1.7165313959121704,-0.07208210229873657
1747993645084805400,18.507805419921876,-1.6340645551681519,-1.9999728202819824,-0.3683517575263977
1747993645100552400,18.523552490234376,-1.5247195959091187,-2.140471935272217,-0.6493497490882874
1747993645116360700,18.539360595703126,-1.3494013547897339,-1.7989981174468994,-0.8875871896743774
1747993645132168700,18.555168701171876,-1.0574077367782593,-1.215621829032898,-1.094059705734253
1747993645148007400,18.57100732421875,-0.6407976150512695,-0.6939429044723511,-1.1362093687057495
1747993645163815400,18.5868154296875,-0.4190535545349121,-0.6982190012931824,-1.035416603088379
1747993645179593200,18.60259326171875,-0.36651915311813354,-1.2424999475479126,-0.9364564418792725
1747993645195370800,18.618370849609374,-0.484416127204895,-1.842369556427002,-0.8796459436416626
1747993645211209200,18.634209228515626,-0.6633996367454529,-2.163073778152466,-0.7709119319915771
1747993645227017500,18.650017578125,-0.6866125464439392,-1.9743164777755737,-0.6316346526145935
1747993645242825500,18.665825439453126,-0.6212499737739563,-1.3823879957199097,-0.32070425152778625
1747993645258633700,18.6816337890625,-0.5125159621238708,-0.7953465580940247,-0.05619960278272629
1747993645274441700,18.697441650390626,-0.37262779474258423,-0.2779437005519867,0.09773843735456467
1747993645290280400,18.713280517578124,-0.2577851414680481,0.01466076634824276,0.12950342893600464
1747993645306088400,18.72908837890625,-0.1319468915462494,0.08918632566928864,0.11056660860776901
1747993645321927200,18.74492724609375,-0.0757472887635231,-0.004886921960860491,0.00855211354792118
1747993645337704700,18.76070458984375,-0.04642575979232788,-0.14477506279945374,-0.15882496535778046
1747993645353482200,18.776482177734376,0.013439035043120384,-0.2119702398777008,-0.19058994948863983
1747993645369290200,18.792290283203126,0.04703662544488907,-0.2321287989616394,-0.039095375686883926
1747993645385068000,18.808068115234374,0.02932153269648552,-0.19120082259178162,0.2217440903186798
1747993645400876000,18.8238759765625,0.024434609338641167,-0.09773843735456467,0.3634648323059082
1747993645416653600,18.839653564453126,0.03176499158143997,0.006108652334660292,0.40256020426750183
1747993645432431400,18.855431396484374,0.03787364438176155,0.07880161702632904,0.33597588539123535
1747993645448239400,18.8712392578125,0.08185594528913498,0.16982053220272064,0.1612684279680252
1747993645464047400,18.88704736328125,0.1869247704744339,0.2889392673969269,-0.012217304669320583
1747993645479825200,18.9028251953125,0.3433062732219696,0.4489859640598297,-0.11423180252313614
1747993645495602700,18.918602783203124,0.4245513379573822,0.504574716091156,-0.12828169763088226
1747993645511380200,18.934380126953126,0.4642575979232788,0.42088615894317627,-0.14782938361167908
1747993645527279900,18.95027978515625,0.45142942667007446,0.3078760802745819,-0.15271630883216858
1747993645543057400,18.966057373046876,0.4129449129104614,0.16554448008537292,-0.19608774781227112
1747993645558865700,18.98186572265625,0.4337143301963806,0.13377949595451355,-0.3170390725135803
1747993645574643200,18.997643310546874,0.5271766781806946,0.17959438264369965,-0.3988949954509735
1747993645590420700,19.013420654296876,0.5650503635406494,0.182648703455925,-0.32986724376678467
1747993645606290000,19.0292900390625,0.5015203952789307,0.07269296050071716,-0.1563815027475357
1747993645622067500,19.0450673828125,0.3585779070854187,-0.08796459436416626,0.01466076634824276
1747993645637936600,19.0609365234375,0.2620611786842346,-0.10018189996480942,0.08124507963657379
1747993645653775000,19.076775146484376,0.3194825351238251,-0.00366519158706069,0.08185594528913498
1747993645669553000,19.092552978515624,0.4764748811721802,0.027488935738801956,0.05619960278272629
1747993645685361000,19.10836083984375,0.6548475623130798,-0.09651670604944229,0.013439035043120384
1747993645701169200,19.124169189453124,0.6493497490882874,-0.5668829679489136,-0.06169738993048668
1747993645716977200,19.13997705078125,0.3689626157283783,-1.303586483001709,-0.21502456068992615
1747993645732816000,19.15581591796875,0.010995574295520782,-1.6505578756332397,-0.3995058834552765
1747993645748593400,19.171593505859374,-0.2474004179239273,-1.359786033630371,-0.5656611919403076
1747993645764432000,19.187431884765626,-0.1716531366109848,-0.7122688889503479,-0.4612032473087311
1747993645780209700,19.203209716796874,0.05803219974040985,-0.1319468915462494,-0.016493361443281174
1747993645796017700,19.219017578125,0.08796459436416626,-0.012828170321881771,0.4050036668777466
1747993645811795200,19.234795166015626,-0.09773843735456467,-0.2535090744495392,0.7782423496246338
1747993645827572700,19.25057275390625,-0.4001167416572571,-0.637132465839386,0.96883225440979
1747993645843442000,19.26644189453125,-0.5974262356758118,-0.8014551997184753,1.0390818119049072
1747993645859219500,19.282219482421876,-0.6591235995292664,-0.7189884185791016,1.0506882667541504
1747993645875027700,19.29802783203125,-0.6096435189247131,-0.4893030524253845,1.0286970138549805
1747993645890835700,19.313835693359376,-0.46303585171699524,-0.13805554807186127,0.9926560521125793
1747993645906644000,19.32964404296875,-0.26022860407829285,0.11850785464048386,0.9633345007896423
1747993645922452000,19.345451904296876,-0.018325956538319588,0.24068090319633484,0.8790351152420044
1747993645938199000,19.361198974609376,0.0757472887635231,0.1618792861700058,0.6762278079986572
1747993645954007000,19.377007080078126,0.07208210229873657,0.03176499158143997,0.3738495409488678
1747993645969784800,19.392784912109374,0.05253441259264946,-0.06169738993048668,0.17776179313659668
1747993645985623300,19.408623291015626,0.056810468435287476,-0.054367005825042725,0.1007927656173706
1747993646001400800,19.42440087890625,0.06841690838336945,0.10201449692249298,0.1508837193250656
1747993646017178600,19.4401787109375,0.07513642311096191,0.2968805134296417,0.37262779474258423
1747993646032986600,19.455986572265626,0.03176499158143997,0.4642575979232788,0.5925393104553223
1747993646048733700,19.471733642578126,-0.0959058403968811,0.6151412725448608,0.7764097452163696
1747993646064511200,19.48751123046875,-0.2272418737411499,0.7049384713172913,0.8674286603927612
1747993646080319500,19.503319580078124,-0.2919935882091522,0.8313875794410706,0.8729264140129089
1747993646096127500,19.51912744140625,-0.2535090744495392,0.8484918475151062,0.789237916469574
1747993646111935700,19.534935791015624,-0.2076941877603531,0.8448266386985779,0.6682865619659424
1747993646127743700,19.55074365234375,-0.1716531366109848,0.827722430229187,0.5186246037483215
1747993646143551700,19.5665517578125,-0.18570303916931152,0.817948579788208,0.39706242084503174
1747993646159390500,19.582390380859376,-0.22968533635139465,0.8032878041267395,0.26450464129447937
1747993646175229200,19.598229248046874,-0.23029619455337524,0.7953465580940247,0.12461651116609573
1747993646191067600,19.614067626953126,-0.2028072625398636,0.8283332586288452,-0.05009094998240471
1747993646206936800,19.629936767578126,-0.1563815027475357,0.9077457785606384,-0.19975294172763824
1747993646222714400,19.64571435546875,-0.09712757170200348,0.940121591091156,-0.32559117674827576
1747993646238553000,19.661552978515626,-0.08185594528913498,0.931569516658783,-0.42210787534713745
1747993646254300200,19.677300048828126,-0.18814650177955627,0.8918632864952087,-0.5369505286216736
1747993646270077700,19.69307763671875,-0.26572638750076294,1.0671815872192383,-0.7049384713172913
1747993646285886000,19.708885986328124,-0.1814269721508026,1.5699236392974854,-1.1252137422561646
1747993646301694000,19.72469384765625,0.21868975460529327,2.3151793479919434,-1.662164330482483
