time,seconds_elapsed,z,y,x
1748094991736225000,0.29622509765625,9.769593238830566,0.8039729595184326,-0.2811436951160431
1748094991746265300,0.306265380859375,9.76628589630127,0.842278778553009,-0.2839110791683197
1748094991756305700,0.3163056640625,9.76338005065918,0.8727999925613403,-0.29156285524368286
1748094991766346000,0.326345947265625,9.760746002197266,0.8967918157577515,-0.30658528208732605
1748094991776386300,0.33638623046875,9.75811767578125,0.9178411960601807,-0.3272560238838196
1748094991786426600,0.346426513671875,9.756085395812988,0.9363000988960266,-0.33546194434165955
1748094991796467000,0.356467041015625,9.75446891784668,0.9564123749732971,-0.3255913555622101
1748094991806507000,0.366507080078125,9.752962112426758,0.9789242744445801,-0.3030095398426056
1748094991816547300,0.37654736328125,9.751474380493164,1.0026315450668335,-0.2717626392841339
1748094991826618000,0.3866181640625,9.749550819396973,1.0294533967971802,-0.23849038779735565
1748094991836658400,0.396658447265625,9.746855735778809,1.0608545541763306,-0.20922094583511353
1748094991846698800,0.40669873046875,9.74102783203125,1.117498517036438,-0.1843005120754242
1748094991856769500,0.41676953125,9.729594230651855,1.2156593799591064,-0.1660275161266327
1748094991866809900,0.426809814453125,9.713018417358398,1.3420175313949585,-0.16322852671146393
1748094991876880600,0.436880615234375,9.691734313964844,1.4882735013961792,-0.16033205389976501
1748094991886921000,0.4469208984375,9.666509628295898,1.6446322202682495,-0.1554693728685379
1748094991896991700,0.45699169921875,9.640318870544434,1.7938790321350098,-0.12895740568637848
1748094991907032000,0.467031982421875,9.615474700927734,1.9264053106307983,-0.0447530597448349
1748094991917102800,0.477102783203125,9.59368896484375,2.0286266803741455,0.12726770341396332
1748094991927143200,0.48714306640625,9.574938774108887,2.0880038738250732,0.36219435930252075
1748094991937214000,0.4972138671875,9.56394100189209,2.084104299545288,0.5982613563537598
1748094991947284700,0.50728466796875,9.567641258239746,2.0044591426849365,0.7828032374382019
1748094991957325000,0.517324951171875,9.586810111999512,1.8693610429763794,0.8768991827964783
1748094991967395800,0.527395751953125,9.617082595825195,1.7188118696212769,0.8531113862991333
1748094991977466600,0.537466552734375,9.655004501342773,1.5747846364974976,0.6865299940109253
1748094991987507000,0.5475068359375,9.691601753234863,1.4436099529266357,0.3990444242954254
1748094991997577700,0.55757763671875,9.716270446777344,1.3274765014648438,0.04775115102529526
1748094992007648500,0.5676484375,9.723043441772461,1.2423292398452759,-0.29903748631477356
1748094992017719300,0.57771923828125,9.717411041259766,1.191668152809143,-0.5676596760749817
1748094992027759600,0.587759521484375,9.709698677062988,1.1710572242736816,-0.7216331958770752
1748094992037830400,0.597830322265625,9.704811096191406,1.1675111055374146,-0.7899107336997986
1748094992047901200,0.607901123046875,9.701726913452148,1.1649212837219238,-0.8305684924125671
1748094992057972000,0.617971923828125,9.697264671325684,1.1563425064086914,-0.8923645615577698
1748094992068042800,0.628042724609375,9.688136100769043,1.1435846090316772,-1.0013114213943481
1748094992078083000,0.6380830078125,9.671430587768555,1.1336138248443604,-1.1613552570343018
1748094992088153900,0.64815380859375,9.64095401763916,1.1307260990142822,-1.3942160606384277
1748094992098224600,0.658224609375,9.576266288757324,1.144364595413208,-1.7764999866485596
1748094992108295400,0.66829541015625,9.509324073791504,1.2325153350830078,-2.055250406265259
1748094992118366200,0.6783662109375,9.458794593811035,1.3725509643554688,-2.194925308227539
1748094992128437000,0.68843701171875,9.42264461517334,1.5054917335510254,-2.2622199058532715
1748094992138507800,0.6985078125,9.40580940246582,1.5922966003417969,-2.2728219032287598
1748094992148578600,0.70857861328125,9.395942687988281,1.6372320652008057,-2.281691789627075
1748094992158649300,0.7186494140625,9.376272201538086,1.6651555299758911,-2.341614246368408
1748094992168720400,0.728720458984375,9.348053932189941,1.6897871494293213,-2.4349310398101807
1748094992178760400,0.738760498046875,9.306951522827148,1.7146323919296265,-2.5712013244628906
1748094992188831200,0.748831298828125,9.261812210083008,1.7557727098464966,-2.703049898147583
1748094992198902300,0.75890234375,9.228055953979492,1.8501135110855103,-2.7550790309906006
1748094992208973000,0.76897314453125,9.226573944091797,1.9722508192062378,-2.6741254329681396
1748094992219043800,0.7790439453125,9.250256538391113,2.065042018890381,-2.5176851749420166
1748094992229114600,0.789114501953125,9.260660171508789,2.1507675647735596,-2.4051530361175537
1748094992239185400,0.799185302734375,9.255216598510742,2.207650899887085,-2.3743643760681152
1748094992249256200,0.809256103515625,9.235963821411133,2.231170892715454,-2.426774024963379
1748094992259327000,0.819326904296875,9.217035293579102,2.2470571994781494,-2.483421802520752
1748094992269397800,0.829397705078125,9.22016716003418,2.261502981185913,-2.45855975151062
1748094992279468500,0.839468505859375,9.25298023223877,2.2806451320648193,-2.3133113384246826
1748094992289539300,0.849539306640625,9.310641288757324,2.314434289932251,-2.0311930179595947
1748094992299610000,0.859610107421875,9.377240180969238,2.3760993480682373,-1.6099408864974976
1748094992309681000,0.869680908203125,9.438224792480469,2.447787046432495,-1.0481632947921753
1748094992319751700,0.879751708984375,9.469045639038086,2.4872236251831055,-0.5668297410011292
1748094992329822500,0.889822509765625,9.491451263427734,2.456557035446167,-0.21924927830696106
1748094992339893200,0.899893310546875,9.51607608795166,2.367072582244873,-0.10787642747163773
1748094992349964300,0.90996435546875,9.527447700500488,2.3166682720184326,-0.1766083538532257
1748094992360035000,0.92003515625,9.529391288757324,2.297656536102295,-0.2861100733280182
1748094992370105900,0.93010595703125,9.5289945602417,2.2880332469940186,-0.3654535710811615
1748094992380176600,0.9401767578125,9.529308319091797,2.282522678375244,-0.39084258675575256
1748094992390247400,0.950247314453125,9.527134895324707,2.2965340614318848,-0.3605795204639435
1748094992400318200,0.960318115234375,9.516118049621582,2.3585147857666016,-0.22648216784000397
1748094992410389000,0.970388916015625,9.491506576538086,2.465656042098999,0.047135185450315475
1748094992420459800,0.980459716796875,9.457525253295898,2.559385061264038,0.41849803924560547
1748094992430530600,0.990530517578125,9.411077499389648,2.6163601875305176,0.8698738217353821
1748094992440601300,1.000601318359375,9.344717979431152,2.656925678253174,1.3369287252426147
1748094992450672000,1.010672119140625,9.259552955627441,2.6926701068878174,1.783423662185669
1748094992460773400,1.0207734375,9.156705856323242,2.7323861122131348,2.2043545246124268
1748094992470844400,1.030844482421875,9.034199714660645,2.783766746520996,2.60849928855896
1748094992480915200,1.040915283203125,8.886857032775879,2.847510814666748,3.0142741203308105
1748094992490986000,1.050986083984375,8.702427864074707,2.9185023307800293,3.452603340148926
1748094992501056800,1.061056884765625,8.463550567626953,2.9872777462005615,3.951566219329834
1748094992511127600,1.07112744140625,8.15514850616455,3.047725200653076,4.5139031410217285
1748094992521198300,1.0811982421875,7.791007041931152,3.0900747776031494,5.091370105743408
1748094992531269000,1.09126904296875,7.441788196563721,3.1095590591430664,5.578603267669678
1748094992541340000,1.10133984375,7.182916164398193,3.1319446563720703,5.896356582641602
1748094992551410700,1.11141064453125,7.046864032745361,3.1802146434783936,6.033102035522461
1748094992561481500,1.1214814453125,7.017827033996582,3.2548367977142334,6.027150630950928
1748094992571552300,1.13155224609375,7.036471366882324,3.358208417892456,5.948184490203857
1748094992581623000,1.141623046875,7.0083136558532715,3.483366012573242,5.909322261810303
1748094992591693800,1.15169384765625,6.903462886810303,3.5737791061401367,5.978351593017578
1748094992601764600,1.1617646484375,6.889413833618164,3.5724360942840576,5.995336532592773
1748094992611835400,1.17183544921875,6.818408966064453,3.4674174785614014,6.136505603790283
1748094992621906400,1.181906494140625,6.661026954650879,3.2681868076324463,6.412491798400879
1748094992631977200,1.191977294921875,6.493610382080078,3.099464178085327,6.663087368011475
1748094992642048000,1.202048095703125,6.315523147583008,2.970431327819824,6.889201641082764
1748094992652149200,1.212149169921875,6.13162899017334,2.888659715652466,7.087253570556641
1748094992662220000,1.222219970703125,5.899911880493164,2.8699660301208496,7.288671016693115
1748094992672290800,1.232290771484375,5.596268177032471,2.9094202518463135,7.509157657623291
1748094992682361600,1.242361572265625,5.213480472564697,2.9915733337402344,7.7485809326171875
1748094992692432400,1.252432373046875,4.74300479888916,3.0991055965423584,8.004364013671875
1748094992702503200,1.262503173828125,4.213968276977539,3.2138617038726807,8.251300811767578
1748094992712574000,1.272573974609375,3.6016714572906494,3.2553255558013916,8.520633697509766
1748094992722644700,1.282644775390625,2.9107251167297363,3.2095909118652344,8.79753303527832
1748094992732715500,1.292715576171875,2.217625856399536,3.087036371231079,9.04006290435791
1748094992742786300,1.302786376953125,1.5424069166183472,2.8936545848846436,9.242192268371582
1748094992752857300,1.312857421875,0.9029280543327332,2.6533679962158203,9.397592544555664
1748094992762928000,1.32292822265625,0.2997564673423767,2.383317708969116,9.507908821105957
1748094992772999000,1.3329990234375,-0.27809518575668335,2.0824501514434814,9.578959465026855
1748094992783069700,1.343069580078125,-0.8452761769294739,1.7424893379211426,9.613512992858887
1748094992793140500,1.353140380859375,-1.408913493156433,1.3601359128952026,9.609129905700684
1748094992803211300,1.363211181640625,-1.9709988832473755,0.9368982315063477,9.56074047088623
1748094992813282000,1.373281982421875,-2.527052164077759,0.48162806034088135,9.463214874267578
1748094992823383300,1.38338330078125,-3.0627217292785645,0.0028200254309922457,9.316121101379395
1748094992833454000,1.3934541015625,-3.5341103076934814,-0.483283132314682,9.134925842285156
1748094992843524900,1.40352490234375,-3.9079723358154297,-0.9670966863632202,8.942195892333984
1748094992853595600,1.413595703125,-4.172200679779053,-1.4377434253692627,8.7576265335083
1748094992863666400,1.42366650390625,-4.3272528648376465,-1.8877960443496704,8.59543514251709
1748094992873737500,1.433737548828125,-4.393716335296631,-2.3232438564300537,8.453885078430176
1748094992883808300,1.443808349609375,-4.39926290512085,-2.749603033065796,8.322052001953125
1748094992893879000,1.453879150390625,-4.363324165344238,-3.1680352687835693,8.19117546081543
1748094992903949800,1.46394970703125,-4.278088569641113,-3.5596446990966797,8.074482917785645
1748094992914020600,1.4740205078125,-4.11320161819458,-3.8849058151245117,8.009960174560547
1748094992924091400,1.48409130859375,-3.905609369277954,-4.111145496368408,8.000943183898926
1748094992934162200,1.494162109375,-3.6904094219207764,-4.233132839202881,8.03939437866211
1748094992944233000,1.50423291015625,-3.460080862045288,-4.266358375549316,8.123817443847656
1748094992954303700,1.5143037109375,-3.2039012908935547,-4.237089157104492,8.243328094482422
1748094992964374500,1.52437451171875,-2.9204373359680176,-4.178601264953613,8.37739372253418
1748094992974445300,1.5344453125,-2.627423048019409,-4.122747421264648,8.501175880432129
1748094992984546600,1.544546630859375,-2.361342668533325,-4.083500862121582,8.597643852233887
1748094992994617600,1.55461767578125,-2.146023988723755,-4.047073841094971,8.670995712280273
1748094993004688400,1.5646884765625,-1.9686510562896729,-3.9908969402313232,8.738852500915527
1748094993014759200,1.57475927734375,-1.797541618347168,-3.9089269638061523,8.812463760375977
1748094993024830000,1.584829833984375,-1.600669503211975,-3.810288190841675,8.8932523727417
1748094993034900700,1.594900634765625,-1.372206449508667,-3.711975574493408,8.972662925720215
1748094993044971500,1.604971435546875,-1.1355327367782593,-3.6289315223693848,9.039458274841309
1748094993055042300,1.615042236328125,-0.947939932346344,-3.5703306198120117,9.084300994873047
1748094993065113000,1.625113037109375,-0.8452863097190857,-3.533027172088623,9.108983993530273
1748094993075183900,1.635183837890625,-0.8289099931716919,-3.510397434234619,9.119232177734375
1748094993085254700,1.645254638671875,-0.9209185242652893,-3.4957199096679688,9.116044044494629
1748094993095325400,1.655325439453125,-1.113040566444397,-3.4792251586914062,9.100908279418945
1748094993105396200,1.665396240234375,-1.351920485496521,-3.463359832763672,9.074570655822754
1748094993115467000,1.675467041015625,-1.5971859693527222,-3.4637396335601807,9.034483909606934
1748094993125568500,1.685568603515625,-1.8396613597869873,-3.4920597076416016,8.977278709411621
1748094993135639300,1.695639404296875,-2.062127113342285,-3.547492504119873,8.9069242477417
1748094993145710000,1.7057099609375,-2.253852367401123,-3.6244759559631348,8.829140663146973
1748094993155780900,1.71578076171875,-2.429027557373047,-3.7305798530578613,8.738018989562988
1748094993165851600,1.7258515625,-2.6003291606903076,-3.8887643814086914,8.618942260742188
1748094993175922400,1.73592236328125,-2.7530548572540283,-4.1200714111328125,8.462628364562988
1748094993185993200,1.7459931640625,-2.8767528533935547,-4.4176716804504395,8.269150733947754
1748094993196064000,1.75606396484375,-2.9663684368133545,-4.733155250549316,8.060291290283203
1748094993216205600,1.77620556640625,-2.9099161624908447,-5.201517581939697,7.787616729736328
1748094993226276400,1.7862763671875,-2.7944934368133545,-5.380756378173828,7.707700729370117
1748094993236347100,1.79634716796875,-2.6859514713287354,-5.514299392700195,7.651701927185059
1748094993246418000,1.80641796875,-2.629582405090332,-5.595749378204346,7.61204719543457
1748094993256488700,1.81648876953125,-2.623525381088257,-5.657676696777344,7.568236827850342
1748094993266590200,1.826590087890625,-2.629676580429077,-5.752247333526611,7.494453430175781
1748094993276661000,1.836660888671875,-2.620574474334717,-5.895542621612549,7.385497093200684
1748094993286731800,1.846731689453125,-2.6070382595062256,-6.075615406036377,7.242971420288086
1748094993296802600,1.856802490234375,-2.613999128341675,-6.255530834197998,7.08560037612915
1748094993306873300,1.866873291015625,-2.6410248279571533,-6.4145965576171875,6.9316911697387695
1748094993316944100,1.876944091796875,-2.664499282836914,-6.543543815612793,6.800945281982422
1748094993327015000,1.887014892578125,-2.6624417304992676,-6.650851726531982,6.69686222076416
1748094993337085700,1.897085693359375,-2.616917371749878,-6.749632358551025,6.615480899810791
1748094993347156500,1.907156494140625,-2.5309865474700928,-6.851337909698486,6.543978691101074
1748094993357227300,1.917227294921875,-2.4143590927124023,-6.966883182525635,6.465585708618164
1748094993367298000,1.927298095703125,-2.2801644802093506,-7.092735290527344,6.376859188079834
1748094993377368800,1.937368896484375,-2.1378984451293945,-7.223968505859375,6.278061389923096
1748094993387439900,1.94743994140625,-1.9945491552352905,-7.353728771209717,6.173721790313721
1748094993397510700,1.9575107421875,-1.8492364883422852,-7.479825496673584,6.066540718078613
1748094993407612000,1.96761181640625,-1.6982074975967407,-7.600358486175537,5.959950923919678
1748094993417682700,1.9776826171875,-1.5392379760742188,-7.711510181427002,5.859499931335449
1748094993427753500,1.98775341796875,-1.3672796487808228,-7.809743404388428,5.771381378173828
1748094993437824300,1.99782421875,-1.1763960123062134,-7.893019676208496,5.699713706970215
1748094993447895000,2.00789501953125,-0.9482713341712952,-7.967935562133789,5.6376566886901855
1748094993457965800,2.0179658203125,-0.6503974795341492,-7.996322154998779,5.639700412750244
1748094993468036600,2.02803662109375,-0.2311733216047287,-7.946768283843994,5.741586208343506
1748094993478107400,2.038107421875,0.2921637296676636,-7.807220458984375,5.927252769470215
1748094993488178200,2.04817822265625,0.7817670702934265,-7.585522174835205,6.165961265563965
1748094993498249000,2.0582490234375,1.1440961360931396,-7.3780951499938965,6.358077526092529
1748094993508320000,2.068320068359375,1.412367343902588,-7.19551944732666,6.51153564453125
1748094993518390800,2.078390869140625,1.7297248840332031,-7.027162075042725,6.617963790893555
1748094993528461600,2.088461669921875,2.0811309814453125,-6.833013534545898,6.7193145751953125
1748094993538532400,2.098532470703125,2.4229331016540527,-6.610240459442139,6.826748371124268
1748094993548633600,2.108633544921875,2.7236578464508057,-6.344921588897705,6.9637675285339355
1748094993558704400,2.118704345703125,2.9736011028289795,-6.0667500495910645,7.107926368713379
1748094993568775200,2.128775146484375,3.1572508811950684,-5.75972843170166,7.282010078430176
1748094993578846000,2.138845947265625,3.2711856365203857,-5.386680603027344,7.513547420501709
1748094993588916700,2.148916748046875,3.3016600608825684,-4.9359517097473145,7.804217338562012
1748094993598987500,2.158987548828125,3.248983383178711,-4.437183380126953,8.119477272033691
1748094993609058300,2.169058349609375,3.138822555541992,-3.949875593185425,8.409319877624512
1748094993619129000,2.179129150390625,2.985504627227783,-3.5293796062469482,8.648735046386719
1748094993629200100,2.1892001953125,2.769364595413208,-3.202326536178589,8.845682144165039
1748094993639271000,2.19927099609375,2.4879751205444336,-2.9736711978912354,9.007643699645996
1748094993649341700,2.209341796875,2.2006418704986572,-2.817917585372925,9.13164234161377
1748094993659412500,2.21941259765625,1.9004597663879395,-2.690978527069092,9.236735343933105
1748094993669483300,2.229483154296875,1.6489347219467163,-2.5697226524353027,9.319223403930664
1748094993679554000,2.239553955078125,1.4238648414611816,-2.448420524597168,9.388729095458984
1748094993689655300,2.2496552734375,1.2405298948287964,-2.3277459144592285,9.445266723632812
1748094993699726000,2.25972607421875,1.0642610788345337,-2.220200538635254,9.492547035217285
1748094993709796900,2.269796875,0.8665034770965576,-2.1521315574645996,9.528267860412598
1748094993719867600,2.27986767578125,0.6325452327728271,-2.153022289276123,9.546453475952148
1748094993729938400,2.2899384765625,0.3423314094543457,-2.246746778488159,9.539671897888184
1748094993740009200,2.30000927734375,-0.022523384541273117,-2.4265425205230713,9.50167179107666
1748094993750080300,2.310080322265625,-0.4976780116558075,-2.6537625789642334,9.427631378173828
1748094993760151000,2.320151123046875,-1.0496395826339722,-2.8912947177886963,9.311769485473633
1748094993770221800,2.330221923828125,-1.6198152303695679,-3.111262321472168,9.157873153686523
1748094993780292600,2.340292724609375,-2.22379469871521,-3.3098528385162354,8.959352493286133
1748094993790363400,2.35036328125,-2.8673958778381348,-3.4952354431152344,8.702399253845215
1748094993800434200,2.36043408203125,-3.572862386703491,-3.688051700592041,8.354837417602539
1748094993810505000,2.3705048828125,-4.319375038146973,-3.930403232574463,7.87815523147583
1748094993820575700,2.38057568359375,-4.964895248413086,-4.2526960372924805,7.309909820556641
1748094993830677000,2.390677001953125,-5.361499309539795,-4.667717456817627,6.755526065826416
1748094993840747800,2.400747802734375,-5.4215312004089355,-5.1798624992370605,6.320318222045898
1748094993850818600,2.410818603515625,-5.2394208908081055,-5.73988151550293,5.981020450592041
1748094993860889300,2.420889404296875,-5.025575637817383,-6.28861141204834,5.6006550788879395
1748094993870960400,2.43096044921875,-4.905134677886963,-6.765410900115967,5.1321797370910645
1748094993881031200,2.44103125,-4.901589870452881,-7.128588676452637,4.618227481842041
1748094993891102000,2.45110205078125,-5.006229877471924,-7.370247840881348,4.097255706787109
1748094993901172700,2.4611728515625,-5.182010173797607,-7.516923427581787,3.5795273780822754
1748094993911243500,2.471243408203125,-5.372847080230713,-7.6085405349731445,3.0680627822875977
1748094993921314300,2.481314208984375,-5.546104431152344,-7.669179439544678,2.568035364151001
1748094993931385000,2.491385009765625,-5.690230369567871,-7.709108352661133,2.088376045227051
1748094993941456000,2.501455810546875,-5.799180030822754,-7.738475322723389,1.62969172000885
1748094993951526700,2.511526611328125,-5.865466117858887,-7.767518043518066,1.196813941001892
1748094993961597400,2.521597412109375,-5.881128311157227,-7.808021545410156,0.7858269214630127
1748094993971698700,2.53169873046875,-5.84039831161499,-7.867371559143066,0.40571191906929016
1748094993981769500,2.54176953125,-5.749431610107422,-7.944108486175537,0.074585922062397
1748094993991840500,2.551840576171875,-5.622003555297852,-8.032938003540039,-0.18808217346668243
1748094994001911300,2.561911376953125,-5.4753737449646,-8.127510070800781,-0.36639031767845154
1748094994011982000,2.571982177734375,-5.319377422332764,-8.225442886352539,-0.4655041992664337
1748094994022052900,2.582052978515625,-5.1554975509643555,-8.3272066116333,-0.49885764718055725
1748094994032123600,2.59212353515625,-4.986394882202148,-8.430575370788574,-0.4813191294670105
1748094994042194400,2.6021943359375,-4.820505619049072,-8.52962589263916,-0.4226176142692566
1748094994052265200,2.61226513671875,-4.665663242340088,-8.619218826293945,-0.33322492241859436
1748094994062336000,2.6223359375,-4.523342132568359,-8.698256492614746,-0.22381538152694702
1748094994072406800,2.63240673828125,-4.390699863433838,-8.76817512512207,-0.1060304269194603
1748094994082477600,2.6424775390625,-4.264801979064941,-8.830731391906738,0.006076539866626263
1748094994092548400,2.65254833984375,-4.145053863525391,-8.887027740478516,0.0982944592833519
1748094994102649600,2.662649658203125,-4.032342433929443,-8.937854766845703,0.15920482575893402
1748094994112720600,2.672720703125,-3.922766923904419,-8.98612117767334,0.17860554158687592
1748094994122791400,2.68279150390625,-3.806281805038452,-9.036602020263672,0.14981609582901
1748094994132862200,2.6928623046875,-3.6680283546447754,-9.094544410705566,0.07228649407625198
1748094994142933000,2.70293310546875,-3.491905450820923,-9.163775444030762,-0.04696435108780861
1748094994153003800,2.713003662109375,-3.2709906101226807,-9.243005752563477,-0.1945568174123764
1748094994163074600,2.723074462890625,-3.0112740993499756,-9.325900077819824,-0.3608487546443939
1748094994173145300,2.733145263671875,-2.740177631378174,-9.400310516357422,-0.5440368056297302
1748094994183216000,2.743216064453125,-2.5845084190368652,-9.428865432739258,-0.7662888169288635
1748094994193287000,2.753286865234375,-2.588055372238159,-9.402267456054688,-1.0342776775360107
1748094994203357700,2.763357666015625,-2.65264892578125,-9.35079574584961,-1.3024828433990479
1748094994213428500,2.773428466796875,-2.7148828506469727,-9.297918319702148,-1.5324856042861938
1748094994223499300,2.783499267578125,-2.7577977180480957,-9.253368377685547,-1.7146769762039185
1748094994233600500,2.7936005859375,-2.762556552886963,-9.221929550170898,-1.869403600692749
1748094994243671600,2.803671630859375,-2.687985897064209,-9.209012985229492,-2.0345020294189453
1748094994253742300,2.813742431640625,-2.522432804107666,-9.21138858795166,-2.2266695499420166
1748094994263813000,2.823813232421875,-2.3231616020202637,-9.212987899780273,-2.427788734436035
1748094994273884000,2.8338837890625,-2.13401460647583,-9.20454216003418,-2.6254072189331055
1748094994283954700,2.84395458984375,-1.988590121269226,-9.181811332702637,-2.812514066696167
1748094994294025500,2.854025390625,-1.9078986644744873,-9.143567085266113,-2.9875547885894775
1748094994304096300,2.86409619140625,-1.9015260934829712,-9.091105461120605,-3.1474413871765137
1748094994314167000,2.8741669921875,-1.952974557876587,-9.032050132751465,-3.283038377761841
1748094994324237800,2.88423779296875,-2.0322139263153076,-8.977884292602539,-3.3820250034332275
1748094994334308600,2.89430859375,-2.1159729957580566,-8.935884475708008,-3.4413671493530273
1748094994344379400,2.90437939453125,-2.167752265930176,-8.909159660339355,-3.478231191635132
1748094994354450200,2.9144501953125,-2.150129795074463,-8.897457122802734,-3.5188915729522705
1748094994364551700,2.9245517578125,-2.062150001525879,-8.897201538085938,-3.5717968940734863
1748094994374622500,2.93462255859375,-1.9139809608459473,-8.905845642089844,-3.632213830947876
1748094994384693200,2.944693359375,-1.719046711921692,-8.921004295349121,-3.692014217376709
1748094994394764000,2.954763916015625,-1.500069260597229,-8.938026428222656,-3.745913505554199
1748094994404834800,2.964834716796875,-1.27619469165802,-8.952239036560059,-3.794618606567383
1748094994414905600,2.974905517578125,-1.0624947547912598,-8.960733413696289,-3.840149164199829
1748094994424976400,2.984976318359375,-0.8721350431442261,-8.96418285369873,-3.8798446655273438
1748094994435047200,2.995047119140625,-0.7139442563056946,-8.968158721923828,-3.9029219150543213
1748094994445118000,3.005117919921875,-0.5874509215354919,-8.979284286499023,-3.8984270095825195
1748094994455188700,3.015188720703125,-0.43848681449890137,-9.003087043762207,-3.8629705905914307
1748094994465259500,3.025259521484375,-0.22548185288906097,-9.03563404083252,-3.804847478866577
1748094994475330300,3.035330322265625,0.033534854650497437,-9.063996315002441,-3.743427038192749
1748094994485401000,3.045401123046875,0.29279834032058716,-9.080656051635742,-3.691389322280884
1748094994495471900,3.055471923828125,0.5030921101570129,-9.08930778503418,-3.6471593379974365
1748094994505573400,3.065573486328125,0.6355573534965515,-9.096708297729492,-3.607816696166992
1748094994515644200,3.07564404296875,0.6851494908332825,-9.107877731323242,-3.5703654289245605
1748094994525715000,3.08571484375,0.6701359152793884,-9.122774124145508,-3.5350096225738525
1748094994535785700,3.09578564453125,0.6153424382209778,-9.138495445251465,-3.5042307376861572
1748094994545856500,3.1058564453125,0.5436406135559082,-9.15192699432373,-3.4809608459472656
1748094994555927300,3.11592724609375,0.4776480495929718,-9.161445617675781,-3.4655661582946777
1748094994565998000,3.125998046875,0.43462419509887695,-9.167096138000488,-3.4562735557556152
1748094994576068900,3.13606884765625,0.41831859946250916,-9.1693696975708,-3.4522533416748047
1748094994586139600,3.1461396484375,0.42040106654167175,-9.168853759765625,-3.4533708095550537
1748094994596210400,3.15621044921875,0.4292091131210327,-9.16685962677002,-3.45758056640625
1748094994606281200,3.16628125,0.43751928210258484,-9.164484024047852,-3.462831974029541
1748094994616352000,3.17635205078125,0.4432697594165802,-9.162237167358398,-3.4680404663085938
1748094994626422800,3.1864228515625,0.4490053951740265,-9.160947799682617,-3.4707069396972656
1748094994636493800,3.196493896484375,0.46244603395462036,-9.160593032836914,-3.469881772994995
1748094994646595000,3.206594970703125,0.4930333197116852,-9.16075325012207,-3.465240716934204
1748094994656665900,3.216665771484375,0.5486079454421997,-9.16074275970459,-3.4569075107574463
1748094994666736600,3.226736572265625,0.6325441598892212,-9.159806251525879,-3.445028066635132
1748094994676807400,3.236807373046875,0.7450264692306519,-9.156988143920898,-3.429999589920044
1748094994686878200,3.246878173828125,0.8842803835868835,-9.151115417480469,-3.4125540256500244
1748094994696949000,3.256948974609375,1.0461264848709106,-9.141348838806152,-3.3928990364074707
1748094994707019800,3.267019775390625,1.2261223793029785,-9.127214431762695,-3.3706018924713135
1748094994717090600,3.277090576171875,1.4225248098373413,-9.1082181930542,-3.3447234630584717
1748094994727161300,3.287161376953125,1.6377896070480347,-9.083267211914062,-3.3139536380767822
1748094994737232100,3.297232177734375,1.8736940622329712,-9.050908088684082,-3.277305841445923
1748094994747303000,3.307302978515625,2.124258041381836,-9.009943962097168,-3.237102508544922
1748094994757374000,3.3173740234375,2.369075298309326,-8.96139144897461,-3.201770305633545
1748094994767444700,3.32744482421875,2.5689632892608643,-8.91136646270752,-3.187215566635132
1748094994777546000,3.3375458984375,2.6776089668273926,-8.870107650756836,-3.2127857208251953
1748094994787616800,3.34761669921875,2.6674201488494873,-8.845975875854492,-3.2869396209716797
1748094994797687600,3.3576875,2.557832717895508,-8.8365478515625,-3.397543430328369
1748094994807758300,3.36775830078125,2.397988796234131,-8.830891609191895,-3.5263831615448
1748094994817829000,3.3778291015625,2.225783109664917,-8.820284843444824,-3.6631739139556885
1748094994827900000,3.38789990234375,2.0625483989715576,-8.800917625427246,-3.8026492595672607
1748094994837970700,3.397970703125,1.930749773979187,-8.769412994384766,-3.942078113555908
1748094994848041500,3.40804150390625,1.858802080154419,-8.721833229064941,-4.079812526702881
1748094994858112300,3.4181123046875,1.865236520767212,-8.65730094909668,-4.212174892425537
1748094994868183000,3.42818310546875,1.9387791156768799,-8.58173942565918,-4.3318915367126465
1748094994878254000,3.438254150390625,2.0392820835113525,-8.508125305175781,-4.429845809936523
1748094994888324900,3.448324951171875,2.113365411758423,-8.451030731201172,-4.503793239593506
1748094994898395600,3.458395751953125,2.1034791469573975,-8.428386688232422,-4.550609588623047
1748094994908466400,3.468466552734375,1.9605205059051514,-8.443524360656738,-4.586245059967041
1748094994918567700,3.478567626953125,1.6838103532791138,-8.48666763305664,-4.616453170776367
1748094994938709200,3.498709228515625,0.9028001427650452,-8.596307754516602,-4.632368087768555
1748094994958850800,3.518850830078125,0.09277680516242981,-8.67878246307373,-4.565141201019287
1748094994968921600,3.528921630859375,-0.25534787774086,-8.705833435058594,-4.507067680358887
1748094994978992400,3.538992431640625,-0.5553486943244934,-8.727217674255371,-4.43820333480835
1748094994989063200,3.549063232421875,-0.8111379146575928,-8.745233535766602,-4.362721920013428
1748094994999134200,3.55913427734375,-1.0305875539779663,-8.759346961975098,-4.287435531616211
1748094995009205000,3.569205078125,-1.2274481058120728,-8.765737533569336,-4.222037315368652
1748094995019275800,3.57927587890625,-1.4110101461410522,-8.762079238891602,-4.1719794273376465
1748094995029346600,3.5893466796875,-1.5870329141616821,-8.749358177185059,-4.135268211364746
1748094995039417300,3.599417236328125,-1.7558237314224243,-8.730768203735352,-4.106233596801758
1748094995049488100,3.609488037109375,-1.91146719455719,-8.711542129516602,-4.077465534210205
1748094995059589400,3.61958935546875,-2.052565574645996,-8.6959228515625,-4.042064189910889
1748094995069660200,3.62966015625,-2.1715941429138184,-8.687732696533203,-3.9972310066223145
1748094995079731000,3.63973095703125,-2.257725954055786,-8.689279556274414,-3.945816993713379
1748094995089801700,3.6498017578125,-2.3076236248016357,-8.699130058288574,-3.8949203491210938
1748094995099872500,3.65987255859375,-2.3486521244049072,-8.710089683532715,-3.845588207244873
1748094995109943300,3.669943359375,-2.4200801849365234,-8.713404655456543,-3.7934398651123047
1748094995120014300,3.680014404296875,-2.5417137145996094,-8.705779075622559,-3.7308831214904785
1748094995130085000,3.690085205078125,-2.7096059322357178,-8.685381889343262,-3.6595849990844727
1748094995140156000,3.700156005859375,-2.9007761478424072,-8.65391731262207,-3.5868637561798096
1748094995150226700,3.710226806640625,-3.0872626304626465,-8.615901947021484,-3.5221359729766846
1748094995160297500,3.72029736328125,-3.246570587158203,-8.577174186706543,-3.473076105117798
1748094995170368300,3.7303681640625,-3.3667540550231934,-8.542936325073242,-3.4429032802581787
1748094995180439000,3.74043896484375,-3.4497032165527344,-8.513632774353027,-3.433366298675537
1748094995190540300,3.750540283203125,-3.506838321685791,-8.48547649383545,-3.4451663494110107
1748094995200611000,3.760611083984375,-3.549405336380005,-8.455608367919922,-3.474881172180176
1748094995210681900,3.770681884765625,-3.586174488067627,-8.42349910736084,-3.5148813724517822
1748094995220752600,3.780752685546875,-3.622025966644287,-8.390265464782715,-3.5573537349700928
1748094995230823400,3.790823486328125,-3.658902883529663,-8.357864379882812,-3.5956790447235107
1748094995240894500,3.80089453125,-3.6953907012939453,-8.32884693145752,-3.625575065612793
1748094995250965200,3.81096533203125,-3.727036237716675,-8.305384635925293,-3.6469385623931885
1748094995261036000,3.8210361328125,-3.7480409145355225,-8.289158821105957,-3.6622955799102783
1748094995271106800,3.83110693359375,-3.7535400390625,-8.281820297241211,-3.6732516288757324
1748094995281177600,3.841177490234375,-3.7400121688842773,-8.286896705627441,-3.675598382949829
1748094995291248400,3.851248291015625,-3.705894708633423,-8.30737018585205,-3.663924217224121
1748094995301319200,3.861319091796875,-3.6493921279907227,-8.344743728637695,-3.63559889793396
1748094995311390000,3.871389892578125,-3.570610284805298,-8.397826194763184,-3.591327667236328
1748094995321460700,3.881460693359375,-3.4705259799957275,-8.462841987609863,-3.536402940750122
1748094995331562000,3.89156201171875,-3.349716901779175,-8.53484058380127,-3.4794082641601562
1748094995341632800,3.9016328125,-3.209796190261841,-8.608569145202637,-3.4293036460876465
1748094995351703600,3.91170361328125,-3.0523173809051514,-8.6809663772583,-3.3903613090515137
1748094995361774600,3.921774658203125,-2.88081693649292,-8.750328063964844,-3.3620026111602783
1748094995371845400,3.931845458984375,-2.7009284496307373,-8.81566333770752,-3.34057879447937
1748094995381916200,3.941916259765625,-2.520303249359131,-8.87661361694336,-3.3202695846557617
1748094995391987000,3.951987060546875,-2.3475301265716553,-8.932591438293457,-3.296710968017578
1748094995402057700,3.9620576171875,-2.193329334259033,-8.979610443115234,-3.2751007080078125
1748094995412128500,3.97212841796875,-2.0997273921966553,-9.00236701965332,-3.273974657058716
1748094995422199300,3.98219921875,-2.146841526031494,-8.9813814163208,-3.300947427749634
1748094995432270000,3.99227001953125,-2.3197782039642334,-8.915980339050293,-3.360699415206909
1748094995442340900,4.0023408203125,-2.4381484985351562,-8.841747283935547,-3.4712142944335938
1748094995452411600,4.01241162109375,-2.4716646671295166,-8.783971786499023,-3.5920889377593994
1748094995462513000,4.022512939453125,-2.4801745414733887,-8.750000953674316,-3.6683263778686523
1748094995472583700,4.032583740234375,-2.484758138656616,-8.741467475891113,-3.6855289936065674
1748094995482654700,4.04265478515625,-2.4676907062530518,-8.750661849975586,-3.6751606464385986
1748094995492725500,4.0527255859375,-2.405755043029785,-8.772604942321777,-3.6638941764831543
1748094995502796300,4.06279638671875,-2.278538703918457,-8.805963516235352,-3.6651957035064697
1748094995512867000,4.0728671875,-2.1101362705230713,-8.843876838684082,-3.6747169494628906
1748094995522937900,4.082937744140625,-1.9557865858078003,-8.877867698669434,-3.6781444549560547
1748094995533008600,4.093008544921875,-1.8575462102890015,-8.906024932861328,-3.660959005355835
1748094995543079400,4.103079345703125,-1.840394139289856,-8.929157257080078,-3.61296010017395
1748094995553150200,4.113150146484375,-1.9102038145065308,-8.946940422058105,-3.531822919845581
1748094995563221000,4.123220947265625,-2.0337822437286377,-8.957498550415039,-3.434725046157837
1748094995573291800,4.133291748046875,-2.138406276702881,-8.959745407104492,-3.364603042602539
1748094995583362600,4.143362548828125,-2.187927722930908,-8.957111358642578,-3.339689254760742
1748094995593463800,4.1534638671875,-2.1807119846343994,-8.953535079956055,-3.3539679050445557
1748094995603534800,4.163534912109375,-2.1253395080566406,-8.951888084411621,-3.3936736583709717
1748094995613605600,4.173605712890625,-2.039033889770508,-8.95184326171875,-3.446335554122925
1748094995623676400,4.183676513671875,-1.9348515272140503,-8.95215892791748,-3.505079507827759
1748094995633747200,4.193747314453125,-1.8192378282546997,-8.95196533203125,-3.5669424533843994
1748094995643818000,4.20381787109375,-1.6971255540847778,-8.951679229736328,-3.6273396015167236
1748094995653888800,4.213888671875,-1.5707457065582275,-8.953438758850098,-3.679548978805542
1748094995663959600,4.22395947265625,-1.441743016242981,-8.960050582885742,-3.716081380844116
1748094995674030300,4.2340302734375,-1.3115094900131226,-8.973349571228027,-3.7322001457214355
1748094995684101000,4.24410107421875,-1.181373953819275,-8.991724014282227,-3.7314412593841553
1748094995694172000,4.254171875,-1.053675889968872,-9.012578964233398,-3.7193503379821777
1748094995704242700,4.26424267578125,-0.9278084635734558,-9.033735275268555,-3.701511859893799
1748094995714313500,4.2743134765625,-0.7835216522216797,-9.05323314666748,-3.6872012615203857
1748094995724415000,4.2844150390625,-0.5371507406234741,-9.068812370300293,-3.6930341720581055
1748094995734485800,4.29448583984375,-0.2144295871257782,-9.079583168029785,-3.6994035243988037
1748094995744556500,4.304556640625,0.09877333045005798,-9.08747673034668,-3.6848878860473633
1748094995754627300,4.31462744140625,0.3281175494194031,-9.09718132019043,-3.6474664211273193
1748094995764698000,4.324697998046875,0.44553276896476746,-9.110350608825684,-3.6018617153167725
1748094995774769000,4.334768798828125,0.4688146412372589,-9.12235164642334,-3.568376064300537
1748094995784839700,4.344839599609375,0.4386060833930969,-9.128737449645996,-3.5558621883392334
1748094995794910500,4.354910400390625,0.3924487829208374,-9.127801895141602,-3.5636510848999023
1748094995804981200,4.364981201171875,0.359954833984375,-9.12053394317627,-3.5856192111968994
1748094995815052000,4.375052001953125,0.3625165820121765,-9.109941482543945,-3.6121926307678223
1748094995825122800,4.385122802734375,0.40811046957969666,-9.098808288574219,-3.6353161334991455
1748094995835193600,4.395193603515625,0.49249371886253357,-9.087876319885254,-3.6521689891815186
1748094995845264400,4.405264404296875,0.6017132997512817,-9.077147483825684,-3.66247296333313
1748094995855335200,4.415335205078125,0.717944860458374,-9.066591262817383,-3.667678117752075
1748094995865436700,4.425436767578125,0.8249311447143555,-9.056939125061035,-3.6690235137939453
1748094995875507500,4.435507568359375,0.9108906388282776,-9.050000190734863,-3.665809154510498
1748094995885578200,4.445578125,0.9744515419006348,-9.046638488769531,-3.657752275466919
1748094995895649000,4.45564892578125,1.0234310626983643,-9.045549392700195,-3.6470541954040527
1748094995905719800,4.4657197265625,1.0693379640579224,-9.045413970947266,-3.6341969966888428
1748094995915790600,4.47579052734375,1.1236764192581177,-9.045134544372559,-3.618461847305298
1748094995925861400,4.485861328125,1.1975842714309692,-9.043096542358398,-3.599802017211914
1748094995935932200,4.49593212890625,1.2977077960968018,-9.037269592285156,-3.5796778202056885
1748094995946003000,4.5060029296875,1.4235663414001465,-9.02554702758789,-3.5613691806793213
1748094995956073700,4.51607373046875,1.5667409896850586,-9.007401466369629,-3.547173023223877
1748094995966144500,4.52614453125,1.7155765295028687,-8.983540534973145,-3.538813591003418
1748094995976215300,4.53621533203125,1.857336163520813,-8.955076217651367,-3.5393946170806885
1748094995986286000,4.5462861328125,1.9799952507019043,-8.923687934875488,-3.552155017852783
1748094995996387600,4.5563876953125,2.072906732559204,-8.891838073730469,-3.5789172649383545
1748094996006458400,4.566458251953125,2.1274518966674805,-8.862537384033203,-3.6193604469299316
1748094996016529200,4.576529052734375,2.141131639480591,-8.838106155395508,-3.6706717014312744
1748094996026600000,4.586599853515625,2.121196746826172,-8.818866729736328,-3.7280681133270264
1748094996036670700,4.596670654296875,2.081684112548828,-8.802196502685547,-3.7892372608184814
1748094996046741500,4.606741455078125,2.032458543777466,-8.784950256347656,-3.855405807495117
1748094996066885400,4.626885498046875,1.9259799718856812,-8.742236137390137,-4.004284858703613
1748094996076956200,4.6369560546875,1.8931001424789429,-8.714215278625488,-4.080321311950684
1748094996087027000,4.64702685546875,1.903785228729248,-8.679237365722656,-4.149317264556885
1748094996097098000,4.657097900390625,1.96732497215271,-8.638019561767578,-4.205309867858887
1748094996107168800,4.667168701171875,2.061587333679199,-8.596633911132812,-4.244777202606201
1748094996117239600,4.677239501953125,2.1439502239227295,-8.563986778259277,-4.269893169403076
1748094996127310300,4.687310302734375,2.173809289932251,-8.547137260437012,-4.288517475128174
1748094996137411600,4.69741162109375,2.1245431900024414,-8.548796653747559,-4.309848785400391
1748094996147482400,4.707482421875,1.9912647008895874,-8.568475723266602,-4.3343353271484375
1748094996157553200,4.71755322265625,1.7874680757522583,-8.60517692565918,-4.350432872772217
1748094996167624000,4.7276240234375,1.5352754592895508,-8.655965805053711,-4.345982551574707
1748094996177694700,4.73769482421875,1.25628662109375,-8.713826179504395,-4.319881439208984
1748094996187765500,4.747765625,0.9613343477249146,-8.77066707611084,-4.280375957489014
1748094996197836300,4.757836181640625,0.6551332473754883,-8.820573806762695,-4.235406398773193
1748094996207907000,4.767906982421875,0.344015508890152,-8.860387802124023,-4.188742637634277
1748094996217978000,4.77797802734375,0.03665206581354141,-8.888162612915039,-4.1436238288879395
1748094996228049000,4.788048828125,-0.25942596793174744,-8.902063369750977,-4.105648040771484
1748094996238119700,4.79811962890625,-0.5404204726219177,-8.902092933654785,-4.078123569488525
1748094996248190500,4.8081904296875,-0.8051275014877319,-8.889373779296875,-4.062164783477783
1748094996258261200,4.81826123046875,-1.0530908107757568,-8.866191864013672,-4.056110382080078
1748094996268362500,4.828362548828125,-1.2849260568618774,-8.834795951843262,-4.057798862457275
1748094996278433300,4.838433349609375,-1.5003736019134521,-8.798209190368652,-4.063347339630127
1748094996288504000,4.848504150390625,-1.696435570716858,-8.760251998901367,-4.0682268142700195
1748094996298574800,4.858574951171875,-1.860902190208435,-8.726972579956055,-4.067845821380615
1748094996318716400,4.87871630859375,-2.079991340637207,-8.694568634033203,-4.030943393707275
1748094996328787200,4.888787109375,-2.132544755935669,-8.699491500854492,-3.992678642272949
1748094996338858200,4.898858154296875,-2.1524417400360107,-8.718192100524902,-3.9408745765686035
1748094996348929000,4.908928955078125,-2.1711907386779785,-8.744643211364746,-3.8713748455047607
1748094996358999800,4.918999755859375,-2.23220157623291,-8.768587112426758,-3.781475782394409
1748094996369070600,4.929070556640625,-2.348961591720581,-8.782832145690918,-3.676224708557129
1748094996379141400,4.939141357421875,-2.5030760765075684,-8.78506851196289,-3.567570209503174
1748094996389212200,4.949212158203125,-2.6656382083892822,-8.776395797729492,-3.4698193073272705
1748094996399283000,4.959282958984375,-2.8106024265289307,-8.75975227355957,-3.396711826324463
1748094996409384200,4.96938427734375,-2.922138214111328,-8.738627433776855,-3.3567659854888916
1748094996419455000,4.979455078125,-2.9938652515411377,-8.716299057006836,-3.3516111373901367
1748094996429525800,4.98952587890625,-3.0326521396636963,-8.693564414978027,-3.375699520111084
1748094996439596500,4.999596435546875,-3.0516607761383057,-8.669024467468262,-3.4213671684265137
1748094996449667300,5.009667236328125,-3.0640599727630615,-8.6420259475708,-3.4781205654144287
1748094996459738400,5.01973828125,-3.078550338745117,-8.613714218139648,-3.5350873470306396
1748094996469809200,5.02980908203125,-3.100142478942871,-8.585617065429688,-3.584226369857788
1748094996479880000,5.0398798828125,-3.129646062850952,-8.559313774108887,-3.621304988861084
1748094996489950700,5.04995068359375,-3.164797067642212,-8.536685943603516,-3.6440975666046143
1748094996500021500,5.060021484375,-3.1998074054718018,-8.520195960998535,-3.6521074771881104
1748094996510092300,5.07009228515625,-3.2267112731933594,-8.51306438446045,-3.6450576782226562
1748094996520163000,5.0801630859375,-3.2357356548309326,-8.518781661987305,-3.6236379146575928
1748094996530233900,5.09023388671875,-3.2173080444335938,-8.53956127166748,-3.5909886360168457
1748094996540335000,5.100335205078125,-3.164724111557007,-8.57596206665039,-3.550743818283081
1748094996550406000,5.110406005859375,-3.076056957244873,-8.626449584960938,-3.506084680557251
1748094996560476700,5.1204765625,-2.952362060546875,-8.688608169555664,-3.4586167335510254
1748094996570547500,5.13054736328125,-2.7968759536743164,-8.759550094604492,-3.408541679382324
1748094996580618500,5.140618408203125,-2.6120476722717285,-8.835951805114746,-3.357609510421753
1748094996590689300,5.150689208984375,-2.3998982906341553,-8.913786888122559,-3.3098747730255127
1748094996600760000,5.160760009765625,-2.16556978225708,-8.989248275756836,-3.2671260833740234
1748094996610830800,5.170830810546875,-1.9208875894546509,-9.058818817138672,-3.227750778198242
1748094996620901600,5.180901611328125,-1.6898351907730103,-9.118440628051758,-3.188866376876831
1748094996630972400,5.190972412109375,-1.514811396598816,-9.161772727966309,-3.152404546737671
1748094996641043200,5.201043212890625,-1.4645205736160278,-9.177556991577148,-3.130175828933716
1748094996651114000,5.211114013671875,-1.6057461500167847,-9.15568733215332,-3.1249544620513916
1748094996661184800,5.221184814453125,-1.8286714553833008,-9.099770545959473,-3.165520191192627
1748094996671286000,5.2312861328125,-1.9834522008895874,-9.027265548706055,-3.277923345565796
1748094996681356800,5.241356689453125,-2.0448546409606934,-8.961540222167969,-3.41756534576416
1748094996691427600,5.251427490234375,-2.054382562637329,-8.917794227600098,-3.524606466293335
1748094996701498600,5.26149853515625,-2.056684970855713,-8.903120994567871,-3.56017804145813
1748094996711569400,5.2715693359375,-2.0637049674987793,-8.907214164733887,-3.545850992202759
1748094996721640200,5.28164013671875,-2.0630970001220703,-8.924051284790039,-3.50361704826355
1748094996731711000,5.2917109375,-2.032613754272461,-8.951729774475098,-3.4504196643829346
1748094996741781800,5.30178173828125,-1.9669028520584106,-8.985030174255371,-3.4016048908233643
1748094996751852500,5.3118525390625,-1.8859471082687378,-9.016707420349121,-3.3634157180786133
1748094996761923300,5.32192333984375,-1.8091622591018677,-9.044854164123535,-3.329857587814331
1748094996771994000,5.331994140625,-1.7550005912780762,-9.068676948547363,-3.293851852416992
1748094996782065000,5.34206494140625,-1.7469563484191895,-9.085280418395996,-3.2521095275878906
1748094996792135700,5.3521357421875,-1.7937443256378174,-9.096305847167969,-3.195322275161743
1748094996802206500,5.36220654296875,-1.8328046798706055,-9.108938217163086,-3.136631727218628
1748094996812307700,5.3723076171875,-1.82819402217865,-9.122220993041992,-3.100513219833374
1748094996822378800,5.382378662109375,-1.8096805810928345,-9.129844665527344,-3.088909149169922
1748094996832449500,5.392449462890625,-1.805111289024353,-9.127126693725586,-3.099599838256836
1748094996842520300,5.402520263671875,-1.8212915658950806,-9.11318302154541,-3.131004571914673
1748094996852591000,5.412591064453125,-1.8471547365188599,-9.090378761291504,-3.1817307472229004
1748094996862662000,5.422661865234375,-1.8633778095245361,-9.063669204711914,-3.2477867603302
1748094996872732700,5.432732666015625,-1.8535945415496826,-9.039708137512207,-3.3193721771240234
1748094996882803500,5.442803466796875,-1.8080167770385742,-9.025277137756348,-3.3831701278686523
1748094996892874200,5.452874267578125,-1.7259371280670166,-9.023714065551758,-3.4298830032348633
1748094996902945000,5.462945068359375,-1.6161490678787231,-9.032771110534668,-3.459408760070801
1748094996923086600,5.483086669921875,-1.368943214416504,-9.065271377563477,-3.4809820652008057
1748094996933157400,5.493157470703125,-1.2631112337112427,-9.08332633972168,-3.4739181995391846
1748094996943259000,5.5032587890625,-1.1835955381393433,-9.101922035217285,-3.453186273574829
1748094996953329700,5.51332958984375,-1.1327340602874756,-9.121472358703613,-3.418487071990967
1748094996963400400,5.523400390625,-1.1035971641540527,-9.142533302307129,-3.371432065963745
1748094996973471200,5.53347119140625,-1.084086298942566,-9.164996147155762,-3.3163211345672607
1748094996983542000,5.5435419921875,-1.03773033618927,-9.188972473144531,-3.2644007205963135
1748094996993612800,5.55361279296875,-0.9016013145446777,-9.215408325195312,-3.230133056640625
1748094997003683600,5.56368359375,-0.7013917565345764,-9.244293212890625,-3.1971049308776855
1748094997013754400,5.57375439453125,-0.4919920265674591,-9.274238586425781,-3.1491000652313232
1748094997023825200,5.5838251953125,-0.3197178840637207,-9.301675796508789,-3.0898191928863525
1748094997033896000,5.59389599609375,-0.21083594858646393,-9.322880744934082,-3.0347695350646973
1748094997043966700,5.603966796875,-0.16869699954986572,-9.33618450164795,-2.9962644577026367
1748094997054037500,5.61403759765625,-0.17451485991477966,-9.342312812805176,-2.9767634868621826
1748094997064108300,5.6241083984375,-0.1979324072599411,-9.343240737915039,-2.9723846912384033
1748094997074209800,5.634209716796875,-0.2133292704820633,-9.340627670288086,-2.9795212745666504
1748094997084280600,5.644280517578125,-0.2051047682762146,-9.336004257202148,-2.994554042816162
1748094997094351400,5.654351318359375,-0.1684446930885315,-9.330533981323242,-3.013824939727783
1748094997104422100,5.664422119140625,-0.10843143612146378,-9.324600219726562,-3.034874439239502
1748094997114493000,5.674492919921875,-0.033453814685344696,-9.318129539489746,-3.0564239025115967
1748094997124563700,5.684563720703125,0.05005696788430214,-9.311321258544922,-3.0768771171569824
1748094997134634500,5.694634521484375,0.13582079112529755,-9.305112838745117,-3.0930287837982178
1748094997144705300,5.704705322265625,0.21686814725399017,-9.300759315490723,-3.1014881134033203
1748094997154776000,5.714776123046875,0.2866724133491516,-9.298874855041504,-3.101471185684204
1748094997174917600,5.734917724609375,0.38114309310913086,-9.301896095275879,-3.082181930541992
1748094997184988400,5.744988525390625,0.4102076292037964,-9.306611061096191,-3.06416654586792
1748094997195059200,5.75505908203125,0.43295180797576904,-9.312984466552734,-3.041588306427002
1748094997205160700,5.76516064453125,0.4522358179092407,-9.319640159606934,-3.0183074474334717
1748094997215231500,5.7752314453125,0.46883469820022583,-9.324882507324219,-2.9995245933532715
1748094997225302300,5.78530224609375,0.4822121560573578,-9.327582359313965,-2.9889910221099854
1748094997235373000,5.795373046875,0.4906514883041382,-9.327144622802734,-2.988981246948242
1748094997245443800,5.80544384765625,0.49448853731155396,-9.323446273803711,-2.999868869781494
1748094997255514600,5.8155146484375,0.49857670068740845,-9.317017555236816,-3.0191056728363037
1748094997265585400,5.82558544921875,0.5111501216888428,-9.308870315551758,-3.0420477390289307
1748094997275656200,5.83565625,0.537277340888977,-9.300211906433105,-3.063946485519409
1748094997285727000,5.84572705078125,0.5734562873840332,-9.292084693908691,-3.081995725631714
1748094997295797800,5.8557978515625,0.6092352867126465,-9.285462379455566,-3.0950610637664795
1748094997305868500,5.86586865234375,0.6339953541755676,-9.281366348266602,-3.1023664474487305
1748094997315939300,5.875939208984375,0.6448349356651306,-9.27993106842041,-3.104426383972168
1748094997326010000,5.886010009765625,0.6474989652633667,-9.280404090881348,-3.1024575233459473
1748094997336111600,5.896111572265625,0.6494040489196777,-9.282439231872559,-3.095963716506958
1748094997346182400,5.906182373046875,0.652465283870697,-9.286327362060547,-3.0836331844329834
1748094997356253200,5.916253173828125,0.6505783796310425,-9.291133880615234,-3.0695223808288574
1748094997366324000,5.926323974609375,0.6380748152732849,-9.295845985412598,-3.0578572750091553
1748094997376394800,5.936394775390625,0.6155906319618225,-9.300081253051758,-3.0495784282684326
1748094997396536300,5.956536376953125,0.564193844795227,-9.306730270385742,-3.039217233657837
1748094997406607000,5.966607177734375,0.5496495366096497,-9.309063911437988,-3.03473162651062
1748094997416678000,5.976677978515625,0.5466806888580322,-9.310413360595703,-3.031126022338867
1748094997426748700,5.986748779296875,0.5508764982223511,-9.310383796691895,-3.03045916557312
1748094997436819500,5.9968193359375,0.555233359336853,-9.308865547180176,-3.03432559967041
1748094997446890200,6.00689013671875,0.5562961101531982,-9.305877685546875,-3.043281078338623
1748094997456961000,6.0169609375,0.5562417507171631,-9.301358222961426,-3.057079553604126
1748094997467032000,6.027031982421875,0.5609695911407471,-9.295228004455566,-3.0748066902160645
1748094997477133300,6.03713330078125,0.5765540599822998,-9.288104057312012,-3.0933964252471924
1748094997487204000,6.0472041015625,0.6067541837692261,-9.280714988708496,-3.1097538471221924
1748094997497275000,6.05727490234375,0.6496579647064209,-9.273262977600098,-3.1232872009277344
1748094997507345700,6.067345703125,0.6991750001907349,-9.266057014465332,-3.1339621543884277
1748094997517416400,6.07741650390625,0.7499603033065796,-9.259455680847168,-3.141723155975342
1748094997527487200,6.0874873046875,0.7989714741706848,-9.253735542297363,-3.146491765975952
1748094997537558000,6.09755810546875,0.8444326519966125,-9.249238967895508,-3.1478404998779297
1748094997547628800,6.10762890625,0.884457528591156,-9.246334075927734,-3.1453845500946045
1748094997557699600,6.117699462890625,0.9170612096786499,-9.244699478149414,-3.1408464908599854
1748094997567770400,6.127770263671875,0.9403847455978394,-9.243803024291992,-3.1365864276885986
1748094997577841200,6.137841064453125,0.9539676308631897,-9.242940902709961,-3.135021686553955
1748094997587912200,6.147912109375,0.9592761993408203,-9.241585731506348,-3.1373989582061768
1748094997597983000,6.15798291015625,0.9595443606376648,-9.239439964294434,-3.143627882003784
1748094997608084200,6.168084228515625,0.958855152130127,-9.23641586303711,-3.1527111530303955
1748094997618155000,6.178155029296875,0.960186243057251,-9.232864379882812,-3.1626968383789062
1748094997628225800,6.188225830078125,0.964073657989502,-9.229314804077148,-3.1718571186065674
1748094997638296600,6.198296630859375,0.9700815677642822,-9.226224899291992,-3.1790082454681396
1748094997648367400,6.208367431640625,0.9773412942886353,-9.224047660827637,-3.1830995082855225
1748094997658438100,6.218438232421875,0.9844410419464111,-9.22310733795166,-3.18363881111145
1748094997668509000,6.228509033203125,0.9904891848564148,-9.223464012145996,-3.1807284355163574
1748094997678579700,6.238579833984375,0.9943280816078186,-9.224807739257812,-3.175628900527954
1748094997688650500,6.248650390625,0.9956102967262268,-9.226832389831543,-3.169337749481201
1748094997698721300,6.25872119140625,0.9940650463104248,-9.229167938232422,-3.1630163192749023
1748094997708792300,6.268792236328125,0.9901359677314758,-9.231401443481445,-3.157729387283325
1748094997718863000,6.278863037109375,0.9840059876441956,-9.233189582824707,-3.1544134616851807
1748094997728934000,6.288933837890625,0.9761011600494385,-9.234137535095215,-3.1540920734405518
1748094997739035100,6.29903515625,0.9672383666038513,-9.234086990356445,-3.1569719314575195
1748094997749106000,6.30910595703125,0.9590203166007996,-9.233053207397461,-3.16249942779541
1748094997759176700,6.3191767578125,0.9529686570167542,-9.231281280517578,-3.169494152069092
1748094997769247500,6.32924755859375,0.9505069851875305,-9.228827476501465,-3.177368640899658
1748094997779318300,6.339318359375,0.9517390131950378,-9.22604751586914,-3.1850624084472656
1748094997789389000,6.34938916015625,0.955732524394989,-9.223328590393066,-3.191737651824951
1748094997799459800,6.3594599609375,0.9613828659057617,-9.221104621887207,-3.1964597702026367
1748094997809530600,6.369530517578125,0.9675232768058777,-9.219586372375488,-3.1989848613739014
1748094997819601400,6.379601318359375,0.9740809798240662,-9.218618392944336,-3.1997857093811035
1748094997829672400,6.38967236328125,0.9807049036026001,-9.218083381652832,-3.1993064880371094
1748094997839743200,6.3997431640625,0.9875364899635315,-9.217803955078125,-3.198010206222534
1748094997849814000,6.40981396484375,0.9952671527862549,-9.217547416687012,-3.196350336074829
1748094997859884800,6.419884765625,1.0045418739318848,-9.217026710510254,-3.1949493885040283
1748094997869986000,6.429986083984375,1.0154750347137451,-9.216180801391602,-3.19393253326416
1748094997880056800,6.440056884765625,1.0273813009262085,-9.214969635009766,-3.193622589111328
1748094997890127600,6.450127685546875,1.0389822721481323,-9.213387489318848,-3.1944332122802734
1748094997900198400,6.460198486328125,1.0493513345718384,-9.211549758911133,-3.196341037750244
1748094997910269200,6.470269287109375,1.0584439039230347,-9.209517478942871,-3.199200391769409
1748094997920340000,6.480340087890625,1.066495656967163,-9.207310676574707,-3.2028725147247314
1748094997930410800,6.49041064453125,1.0744699239730835,-9.20490837097168,-3.2071120738983154
1748094997940481500,6.5004814453125,1.0831694602966309,-9.202342987060547,-3.21154522895813
1748094997950552600,6.510552490234375,1.0928785800933838,-9.19978141784668,-3.2155888080596924
1748094997960623400,6.520623291015625,1.1034271717071533,-9.19741153717041,-3.2187681198120117
1748094997970694100,6.530694091796875,1.1145516633987427,-9.195469856262207,-3.2204787731170654
1748094997980765000,6.540764892578125,1.1258283853530884,-9.193991661071777,-3.2207794189453125
1748094997990835700,6.550835693359375,1.1369783878326416,-9.192959785461426,-3.21980881690979
1748094998000906500,6.560906494140625,1.1481797695159912,-9.192215919494629,-3.2179527282714844
1748094998011007700,6.5710078125,1.1596484184265137,-9.191571235656738,-3.2156834602355957
1748094998021078500,6.58107861328125,1.1710354089736938,-9.190983772277832,-3.2132365703582764
1748094998031149300,6.5911494140625,1.1819769144058228,-9.190330505371094,-3.211099147796631
1748094998041220000,6.60122021484375,1.1925325393676758,-9.189603805541992,-3.209272623062134
1748094998051291000,6.611290771484375,1.202677607536316,-9.18873405456543,-3.2079780101776123
1748094998061361700,6.621361572265625,1.2128220796585083,-9.187868118286133,-3.2066400051116943
1748094998071432700,6.6314326171875,1.2237706184387207,-9.186960220336914,-3.205080270767212
1748094998081503500,6.64150341796875,1.2360011339187622,-9.186105728149414,-3.2028350830078125
1748094998091574300,6.65157421875,1.2488794326782227,-9.185494422912598,-3.1995911598205566
1748094998101645000,6.66164501953125,1.2603211402893066,-9.185446739196777,-3.195240020751953
1748094998111715800,6.6717158203125,1.2677421569824219,-9.186230659484863,-3.1900441646575928
1748094998121786600,6.68178662109375,1.2692418098449707,-9.187947273254395,-3.1844992637634277
1748094998131887900,6.691887939453125,1.264719009399414,-9.190472602844238,-3.179007053375244
1748094998141958700,6.701958740234375,1.2562960386276245,-9.193445205688477,-3.173748254776001
1748094998152029400,6.712029541015625,1.2453426122665405,-9.196599006652832,-3.1689226627349854
1748094998162100200,6.722100341796875,1.232383131980896,-9.199789047241211,-3.164728879928589
1748094998172171000,6.7321708984375,1.2177557945251465,-9.20296573638916,-3.1611530780792236
1748094998182241800,6.74224169921875,1.2019850015640259,-9.206127166748047,-3.157979726791382
1748094998192312800,6.752312744140625,1.1865559816360474,-9.209186553955078,-3.1548941135406494
1748094998202383600,6.762383544921875,1.1730844974517822,-9.21219539642334,-3.151144504547119
1748094998212454400,6.772454345703125,1.1630432605743408,-9.21506404876709,-3.146475315093994
1748094998222525200,6.782525146484375,1.15715491771698,-9.217840194702148,-3.1405088901519775
1748094998232596000,6.792595947265625,1.1551905870437622,-9.220466613769531,-3.133514881134033
1748094998242666800,6.802666748046875,1.1558780670166016,-9.222994804382324,-3.125812530517578
1748094998252737500,6.812737548828125,1.1580764055252075,-9.225557327270508,-3.117426633834839
1748094998262808300,6.822808349609375,1.160786747932434,-9.228185653686523,-3.1086220741271973
1748094998272909600,6.83290966796875,1.1637649536132812,-9.230935096740723,-3.0993335247039795
1748094998282980400,6.84298046875,1.1673905849456787,-9.233746528625488,-3.0895798206329346
1748094998293051100,6.853051025390625,1.172502040863037,-9.236538887023926,-3.0792834758758545
1748094998303122000,6.863121826171875,1.1792488098144531,-9.239261627197266,-3.0685195922851562
1748094998313193000,6.87319287109375,1.1873762607574463,-9.241837501525879,-3.0576071739196777
1748094998323263700,6.883263671875,1.1956300735473633,-9.244500160217285,-3.046321392059326
1748094998333334500,6.89333447265625,1.2033991813659668,-9.247159004211426,-3.0351736545562744
1748094998353476000,6.91347607421875,1.215622067451477,-9.252809524536133,-3.0129966735839844
1748094998363547000,6.923546875,1.2204809188842773,-9.255623817443848,-3.002373218536377
1748094998373617700,6.93361767578125,1.2245222330093384,-9.258401870727539,-2.9921438694000244
1748094998393759200,6.95375927734375,1.2291927337646484,-9.264223098754883,-2.97214412689209
1748094998403860500,6.963860595703125,1.2294048070907593,-9.267216682434082,-2.96271014213562
1748094998413931300,6.97393115234375,1.2283461093902588,-9.270246505737305,-2.953657865524292
1748094998424002000,6.984001953125,1.2267074584960938,-9.27315616607666,-2.9451889991760254
1748094998434073000,6.994072998046875,1.2247906923294067,-9.275860786437988,-2.9374582767486572
1748094998444143900,7.004143798828125,1.222669243812561,-9.278300285339355,-2.9306323528289795
1748094998454214700,7.014214599609375,1.2206429243087769,-9.280518531799316,-2.924445629119873
1748094998464285400,7.024285400390625,1.218719482421875,-9.282733917236328,-2.918210029602051
1748094998474356200,7.034356201171875,1.216838002204895,-9.284996032714844,-2.9117929935455322
1748094998484427000,7.044427001953125,1.2149643898010254,-9.28734302520752,-2.9050815105438232
1748094998494489900,7.05448974609375,1.213141679763794,-9.289835929870605,-2.8978664875030518
1748094998504560600,7.064560546875,1.2116494178771973,-9.292501449584961,-2.8899290561676025
1748094998514631400,7.07463134765625,1.210986614227295,-9.295111656188965,-2.8818063735961914
1748094998524702200,7.0847021484375,1.2110958099365234,-9.297602653503418,-2.8737096786499023
1748094998534803500,7.094803466796875,1.2121107578277588,-9.299877166748047,-2.865910530090332
1748094998544874200,7.104874267578125,1.2130378484725952,-9.301970481872559,-2.8587188720703125
1748094998554945000,7.114945068359375,1.2127310037612915,-9.303963661193848,-2.8523542881011963
1748094998565015800,7.125015869140625,1.2104953527450562,-9.305947303771973,-2.8468313217163086
1748094998575086600,7.135086669921875,1.2065573930740356,-9.30803394317627,-2.8416736125946045
1748094998585157400,7.145157470703125,1.202041745185852,-9.31016731262207,-2.8365955352783203
1748094998595228200,7.155228271484375,1.1982412338256836,-9.312230110168457,-2.831425428390503
1748094998605299200,7.16529931640625,1.1963880062103271,-9.31403636932373,-2.826263666152954
1748094998615370000,7.175369873046875,1.1973479986190796,-9.315618515014648,-2.8206355571746826
1748094998645582300,7.205582275390625,1.2149769067764282,-9.319862365722656,-2.7989964485168457
1748094998655653000,7.215653076171875,1.223200798034668,-9.321433067321777,-2.790168523788452
1748094998665754400,7.22575439453125,1.2316582202911377,-9.323152542114258,-2.7806878089904785
1748094998675825200,7.2358251953125,1.23967707157135,-9.325003623962402,-2.7708985805511475
1748094998685896000,7.24589599609375,1.246602177619934,-9.327047348022461,-2.760899543762207
1748094998695966700,7.255966796875,1.2520859241485596,-9.329216003417969,-2.751070261001587
1748094998706037500,7.26603759765625,1.256557583808899,-9.331271171569824,-2.7420477867126465
1748094998716108300,7.2761083984375,1.2599958181381226,-9.333185195922852,-2.733942747116089
1748094998726179300,7.286179443359375,1.261798620223999,-9.334989547729492,-2.7269463539123535
1748094998736250000,7.29625,1.261947512626648,-9.336690902709961,-2.7210443019866943
1748094998746321000,7.30632080078125,1.2607988119125366,-9.338248252868652,-2.7162282466888428
1748094998756391700,7.3163916015625,1.258658528327942,-9.33968448638916,-2.712277889251709
1748094998766462500,7.32646240234375,1.2556264400482178,-9.3410005569458,-2.7091522216796875
1748094998776533200,7.336533203125,1.2526676654815674,-9.34218978881836,-2.706418991088867
1748094998786604000,7.34660400390625,1.2505213022232056,-9.343300819396973,-2.7035720348358154
1748094998796705300,7.356705322265625,1.2497972249984741,-9.3442964553833,-2.700465679168701
1748094998806776000,7.366776123046875,1.250745415687561,-9.345185279846191,-2.696946859359741
1748094998816846800,7.376846923828125,1.2528592348098755,-9.346077919006348,-2.692871332168579
1748094998826917600,7.386917724609375,1.2558696269989014,-9.347055435180664,-2.68807315826416
1748094998836988400,7.396988525390625,1.2593977451324463,-9.348219871520996,-2.682365655899048
1748094998847059500,7.4070595703125,1.2634172439575195,-9.34961986541748,-2.6755850315093994
1748094998857130200,7.417130126953125,1.268154263496399,-9.351251602172852,-2.667635202407837
1748094998867201000,7.427200927734375,1.2733690738677979,-9.353155136108398,-2.658461093902588
1748094998877271800,7.437271728515625,1.2792593240737915,-9.355240821838379,-2.6482737064361572
1748094998887342600,7.447342529296875,1.2860158681869507,-9.357417106628418,-2.637291193008423
1748094998897413400,7.457413330078125,1.2936948537826538,-9.359537124633789,-2.625985860824585
1748094998907484200,7.467484130859375,1.3020555973052979,-9.36158275604248,-2.6145410537719727
1748094998917555000,7.477554931640625,1.3108223676681519,-9.363483428955078,-2.6033265590667725
1748094998927625700,7.487625732421875,1.3195475339889526,-9.365246772766113,-2.5925538539886475
1748094998937727000,7.49772705078125,1.328096866607666,-9.366789817810059,-2.582595109939575
1748094998947797800,7.5077978515625,1.3359311819076538,-9.36806869506836,-2.5739006996154785
1748094998957868500,7.51786865234375,1.3425909280776978,-9.368982315063477,-2.5670998096466064
1748094998967939600,7.527939697265625,1.3485428094863892,-9.369467735290527,-2.5622074604034424
1748094998978010400,7.53801025390625,1.3551572561264038,-9.369438171386719,-2.5588197708129883
1748094998988081200,7.5480810546875,1.3644165992736816,-9.368696212768555,-2.556614398956299
1748094998998152000,7.55815185546875,1.3778096437454224,-9.367227554321289,-2.554816484451294
1748094999008222700,7.56822265625,1.3963319063186646,-9.365095138549805,-2.5525739192962646
1748094999018293500,7.57829345703125,1.4192664623260498,-9.362637519836426,-2.548936128616333
1748094999028364300,7.5883642578125,1.4445440769195557,-9.360180854797363,-2.5437588691711426
1748094999038435000,7.59843505859375,1.4696223735809326,-9.358011245727539,-2.5373692512512207
1748094999048505900,7.608505859375,1.4921735525131226,-9.356402397155762,-2.5301241874694824
1748094999058576600,7.61857666015625,1.5103362798690796,-9.355632781982422,-2.522184371948242
1748094999068678000,7.628677978515625,1.5227937698364258,-9.355779647827148,-2.5141372680664062
1748094999078748700,7.638748779296875,1.5293010473251343,-9.356765747070312,-2.506503105163574
1748094999088819700,7.64881982421875,1.530679702758789,-9.358491897583008,-2.4992074966430664
1748094999098890500,7.658890380859375,1.528661847114563,-9.36074447631836,-2.491997718811035
1748094999108961300,7.668961181640625,1.524347186088562,-9.363338470458984,-2.4848833084106445
1748094999119032000,7.679031982421875,1.518365502357483,-9.36613655090332,-2.47799015045166
1748094999129102800,7.689102783203125,1.5108108520507812,-9.369004249572754,-2.4717600345611572
1748094999139173600,7.699173583984375,1.502289056777954,-9.371733665466309,-2.4665982723236084
1748094999149244400,7.709244384765625,1.4935886859893799,-9.374195098876953,-2.4625325202941895
1748094999159315200,7.719315185546875,1.48582124710083,-9.376206398010254,-2.459568500518799
1748094999169386000,7.729385986328125,1.4796833992004395,-9.377791404724121,-2.4572250843048096
1748094999179456800,7.739456787109375,1.4750033617019653,-9.379112243652344,-2.45499587059021
1748094999189527600,7.749527587890625,1.4713107347488403,-9.380188941955566,-2.4531002044677734
1748094999199628800,7.75962890625,1.4688338041305542,-9.381021499633789,-2.451397657394409
1748094999209699800,7.769699951171875,1.4669321775436401,-9.381847381591797,-2.4493770599365234
1748094999219770600,7.7797705078125,1.4656028747558594,-9.38261604309082,-2.447225570678711
1748094999229841400,7.78984130859375,1.4647969007492065,-9.383353233337402,-2.4448816776275635
1748094999239912200,7.799912109375,1.4647138118743896,-9.384085655212402,-2.4421160221099854
1748094999249983000,7.80998291015625,1.4658079147338867,-9.384803771972656,-2.4386987686157227
1748094999260053800,7.8200537109375,1.468360424041748,-9.385456085205078,-2.434649705886841
1748094999270124500,7.83012451171875,1.471824049949646,-9.386198997497559,-2.42969012260437
1748094999280195300,7.8401953125,1.4752205610275269,-9.38716983795166,-2.4238717555999756
1748094999290266000,7.85026611328125,1.4773292541503906,-9.388545036315918,-2.417252540588379
1748094999300337000,7.8603369140625,1.4784239530563354,-9.39029598236084,-2.4097697734832764
1748094999310407700,7.87040771484375,1.4799333810806274,-9.392217636108398,-2.4013397693634033
1748094999320478500,7.880478515625,1.483512282371521,-9.394025802612305,-2.3920366764068604
1748094999330580000,7.890580078125,1.489945650100708,-9.395535469055176,-2.3820934295654297
1748094999340650800,7.900650634765625,1.4986807107925415,-9.396751403808594,-2.371791362762451
1748094999350721500,7.910721435546875,1.5086042881011963,-9.397672653198242,-2.3618364334106445
1748094999360792300,7.920792236328125,1.5190504789352417,-9.398207664489746,-2.3529889583587646
1748094999370863000,7.930863037109375,1.5296329259872437,-9.398299217224121,-2.3457560539245605
1748094999380934000,7.940933837890625,1.5395348072052002,-9.397998809814453,-2.3404784202575684
1748094999391004700,7.951004638671875,1.5474644899368286,-9.397523880004883,-2.3371546268463135
1748094999411146200,7.971146240234375,1.5531800985336304,-9.396617889404297,-2.337005138397217
1748094999421217000,7.981217041015625,1.550071120262146,-9.396414756774902,-2.3398818969726562
1748094999431287800,7.991287841796875,1.5433746576309204,-9.396337509155273,-2.344614267349243
1748094999441358600,8.001358642578126,1.5332002639770508,-9.396535873413086,-2.3504884243011475
1748094999451429400,8.011429443359376,1.5202174186706543,-9.397193908691406,-2.3562824726104736
1748094999461531000,8.02153076171875,1.5048675537109375,-9.398320198059082,-2.3616418838500977
1748094999471601700,8.0316015625,1.4882456064224243,-9.399744987487793,-2.366494655609131
1748094999481672400,8.04167236328125,1.4710884094238281,-9.401285171508789,-2.3711047172546387
1748094999491743200,8.0517431640625,1.4537391662597656,-9.402776718139648,-2.3758838176727295
1748094999501814000,8.06181396484375,1.4365836381912231,-9.404223442077637,-2.3805878162384033
1748094999511884800,8.071884765625,1.4202200174331665,-9.40555191040039,-2.3851518630981445
1748094999521955600,8.08195556640625,1.4057471752166748,-9.40672779083252,-2.389085292816162
1748094999532026400,8.0920263671875,1.3937771320343018,-9.407734870910645,-2.392129898071289
1748094999542097200,8.10209716796875,1.3848657608032227,-9.408544540405273,-2.3941214084625244
1748094999552168000,8.11216796875,1.379037857055664,-9.409099578857422,-2.3953049182891846
1748094999562238700,8.12223876953125,1.3756822347640991,-9.40942668914795,-2.395946979522705
1748094999572309500,8.1323095703125,1.3738300800323486,-9.409509658813477,-2.3966848850250244
1748094999582380300,8.14238037109375,1.3728011846542358,-9.409307479858398,-2.3980679512023926
1748094999592481800,8.152481689453126,1.3724337816238403,-9.408695220947266,-2.4006786346435547
1748094999602552600,8.162552490234376,1.3727351427078247,-9.407506942749023,-2.405160665512085
1748094999612623400,8.172623291015626,1.3737132549285889,-9.405671119689941,-2.411775827407837
1748094999622694100,8.182694091796876,1.3749743700027466,-9.4032621383667,-2.420429229736328
1748094999632765000,8.192764892578126,1.3762551546096802,-9.400529861450195,-2.430298328399658
1748094999642835700,8.202835693359376,1.377715826034546,-9.397870063781738,-2.439737319946289
1748094999652906500,8.212906494140626,1.3801600933074951,-9.395502090454102,-2.4474680423736572
1748094999662977300,8.222977294921876,1.38422429561615,-9.393404960632324,-2.453211545944214
1748094999673048000,8.233048095703126,1.390907883644104,-9.391231536865234,-2.4577484130859375
1748094999683118800,8.243118896484376,1.400451421737671,-9.388543128967285,-2.462597608566284
1748094999693189600,8.253189697265626,1.4125524759292603,-9.38514518737793,-2.4686291217803955
1748094999703260400,8.263260498046876,1.4266750812530518,-9.38109016418457,-2.4759109020233154
1748094999713331200,8.273331298828126,1.4427084922790527,-9.376341819763184,-2.484588861465454
1748094999723432700,8.2834326171875,1.4600499868392944,-9.370787620544434,-2.495394229888916
1748094999733503500,8.29350341796875,1.4776462316513062,-9.364241600036621,-2.5095713138580322
1748094999743574300,8.30357421875,1.4950367212295532,-9.356368064880371,-2.5285637378692627
1748094999753645000,8.31364501953125,1.5110191106796265,-9.346992492675781,-2.553614854812622
1748094999763715800,8.3237158203125,1.5245416164398193,-9.33619213104248,-2.584893226623535
1748094999773786600,8.33378662109375,1.5347671508789062,-9.324316024780273,-2.621450662612915
1748094999783857400,8.343857421875,1.541619062423706,-9.311680793762207,-2.662029981613159
1748094999793928200,8.35392822265625,1.5445374250411987,-9.298620223999023,-2.705634593963623
1748094999803999000,8.3639990234375,1.5429999828338623,-9.285406112670898,-2.75150465965271
1748094999814069800,8.37406982421875,1.5360907316207886,-9.272482872009277,-2.7985520362854004
1748094999824140500,8.384140625,1.5233405828475952,-9.260283470153809,-2.845518112182617
1748094999834211300,8.39421142578125,1.5054025650024414,-9.249175071716309,-2.8908305168151855
1748094999844282400,8.404282470703125,1.483842134475708,-9.239237785339355,-2.9334421157836914
1748094999854383600,8.414383544921876,1.4609673023223877,-9.230341911315918,-2.972665786743164
1748094999864454400,8.424454345703126,1.4383562803268433,-9.222518920898438,-3.007766008377075
1748094999874525200,8.434525146484376,1.416520118713379,-9.21573543548584,-3.0387604236602783
1748094999884596000,8.444595947265626,1.3952033519744873,-9.210015296936035,-3.0658459663391113
1748094999894666800,8.454666748046876,1.3736261129379272,-9.205370903015137,-3.0894486904144287
1748094999904737500,8.464737548828126,1.3509955406188965,-9.201703071594238,-3.1102840900421143
1748094999914808300,8.474808349609376,1.3266043663024902,-9.1990385055542,-3.128610610961914
1748094999924879000,8.484879150390626,1.300078272819519,-9.197549819946289,-3.1440844535827637
1748094999934950000,8.494949951171876,1.272003173828125,-9.197335243225098,-3.156170606613159
1748094999945020700,8.505020751953126,1.242736577987671,-9.19825267791748,-3.165144681930542
1748094999955091500,8.515091552734376,1.2124289274215698,-9.19981575012207,-3.172349214553833
1748094999965162500,8.52516259765625,1.1802797317504883,-9.201714515686035,-3.178957939147949
1748094999975233300,8.5352333984375,1.1451573371887207,-9.203787803649902,-3.185795307159424
1748094999985334500,8.54533447265625,1.1051725149154663,-9.205774307250977,-3.1941657066345215
1748094999995405300,8.5554052734375,1.0579227209091187,-9.207569122314453,-3.20497465133667
1748095000005476000,8.56547607421875,0.9993088841438293,-9.209003448486328,-3.219633102416992
1748095000015547000,8.575546875,0.922957181930542,-9.209604263305664,-3.2406365871429443
1748095000025617700,8.58561767578125,0.8210646510124207,-9.208786964416504,-3.270242214202881
1748095000035688400,8.5956884765625,0.6875964999198914,-9.205902099609375,-3.3089210987091064
1748095000045759200,8.60575927734375,0.521262526512146,-9.200204849243164,-3.354832887649536
1748095000055830000,8.615830078125,0.3275068700313568,-9.190688133239746,-3.4050536155700684
1748095000065900800,8.62590087890625,0.11494675278663635,-9.176284790039062,-3.4573071002960205
1748095000075971600,8.6359716796875,-0.10775171220302582,-9.156557083129883,-3.509451389312744
1748095000086042600,8.646042724609375,-0.3339531421661377,-9.131884574890137,-3.5591506958007812
1748095000096113400,8.656113525390625,-0.5590612292289734,-9.10278034210205,-3.605168342590332
1748095000106184200,8.66618408203125,-0.7805125713348389,-9.070584297180176,-3.6449527740478516
1748095000116285400,8.676285400390626,-0.997170090675354,-9.036956787109375,-3.675520658493042
1748095000126356200,8.686356201171876,-1.2046674489974976,-9.003348350524902,-3.6957926750183105
1748095000136427000,8.696427001953126,-1.3981248140335083,-8.971217155456543,-3.70579195022583
1748095000146497800,8.706497802734376,-1.5705889463424683,-8.942107200622559,-3.707068681716919
1748095000156568600,8.716568603515626,-1.7165005207061768,-8.91683292388916,-3.7032570838928223
1748095000166639400,8.726639404296876,-1.8312911987304688,-8.895459175109863,-3.6996734142303467
1748095000176710100,8.736710205078126,-1.9132206439971924,-8.878581047058105,-3.69875168800354
1748095000196851700,8.756851806640626,-1.9900991916656494,-8.859302520751953,-3.70440936088562
1748095000206922800,8.7669228515625,-2.007913827896118,-8.855131149291992,-3.7047698497772217
1748095000216993500,8.77699365234375,-2.0326104164123535,-8.85319995880127,-3.6959071159362793
1748095000227064300,8.787064208984376,-2.0718514919281006,-8.853254318237305,-3.673922061920166
1748095000237135000,8.797135009765626,-2.1218044757843018,-8.8558988571167,-3.638871669769287
1748095000247236400,8.807236328125,-2.1730234622955322,-8.861917495727539,-3.593714475631714
1748095000257307100,8.81730712890625,-2.2155232429504395,-8.871352195739746,-3.5441431999206543
1748095000267378000,8.8273779296875,-2.2440438270568848,-8.883063316345215,-3.4965474605560303
1748095000277448700,8.83744873046875,-2.2577240467071533,-8.895157814025879,-3.4567646980285645
1748095000287519500,8.84751953125,-2.259570598602295,-8.905904769897461,-3.4277660846710205
1748095000297590300,8.85759033203125,-2.253918409347534,-8.914005279541016,-3.4103872776031494
1748095000307661000,8.8676611328125,-2.2453107833862305,-8.918475151062012,-3.404374599456787
1748095000317731800,8.87773193359375,-2.2365572452545166,-8.919524192810059,-3.4073855876922607
1748095000327802600,8.887802734375,-2.228360891342163,-8.918617248535156,-3.415120840072632
1748095000337873700,8.897873779296875,-2.219388961791992,-8.918127059936523,-3.4222354888916016
1748095000347944400,8.9079443359375,-2.2071025371551514,-8.920068740844727,-3.425123453140259
1748095000358015200,8.91801513671875,-2.186995029449463,-8.925346374511719,-3.4242711067199707
1748095000378187300,8.938187255859376,-2.1064279079437256,-8.94797134399414,-3.4157216548919678
1748095000388258000,8.948258056640626,-2.038766860961914,-8.96742057800293,-3.4057576656341553
1748095000398328800,8.958328857421876,-1.9494701623916626,-8.994107246398926,-3.3876218795776367
1748095000408399600,8.968399658203126,-1.8392868041992188,-9.027915000915527,-3.3591904640197754
1748095000418470400,8.978470458984376,-1.7113274335861206,-9.066997528076172,-3.3213388919830322
1748095000428541200,8.988541259765626,-1.5730911493301392,-9.108248710632324,-3.2765190601348877
1748095000438612000,8.998612060546876,-1.4340189695358276,-9.148331642150879,-3.2283129692077637
1748095000448682800,9.008682861328126,-1.301862359046936,-9.184551239013672,-3.1811254024505615
1748095000458753800,9.01875390625,-1.1806232929229736,-9.2149658203125,-3.140207290649414
1748095000468824600,9.028824462890626,-1.0722922086715698,-9.237839698791504,-3.1117358207702637
1748095000478895400,9.038895263671876,-0.9796888828277588,-9.251900672912598,-3.1004738807678223
1748095000488966100,9.048966064453126,-0.907210111618042,-9.257002830505371,-3.1072888374328613
1748095000499037000,9.059036865234376,-0.8585988879203796,-9.253974914550781,-3.1300368309020996
1748095000509138200,9.06913818359375,-0.833196222782135,-9.244187355041504,-3.1656243801116943
1748095000519209000,9.079208984375,-0.826228678226471,-9.229559898376465,-3.2098233699798584
1748095000529279700,9.08927978515625,-0.8294514417648315,-9.211727142333984,-3.2598299980163574
1748095000539350500,9.0993505859375,-0.8337333798408508,-9.192623138427734,-3.312242031097412
1748095000549421300,9.10942138671875,-0.8282216787338257,-9.174480438232422,-3.3635311126708984
1748095000559492000,9.1194921875,-0.802148699760437,-9.159271240234375,-3.410968065261841
1748095000569563000,9.12956298828125,-0.7461453676223755,-9.148261070251465,-3.452967882156372
1748095000579634000,9.139634033203125,-0.6558019518852234,-9.141965866088867,-3.4878010749816895
1748095000589704700,9.14970458984375,-0.5347989797592163,-9.139274597167969,-3.515399932861328
1748095000599775500,9.159775390625,-0.3984590172767639,-9.13771915435791,-3.5374679565429688
1748095000609846300,9.16984619140625,-0.27328988909721375,-9.134767532348633,-3.556926965713501
1748095000619917000,9.1799169921875,-0.18457847833633423,-9.129973411560059,-3.574899673461914
1748095000629987800,9.18998779296875,-0.1428322046995163,-9.124885559082031,-3.589770555496216
1748095000640089000,9.200089111328126,-0.14254508912563324,-9.120234489440918,-3.60158109664917
1748095000650159900,9.210159912109376,-0.1733027994632721,-9.114916801452637,-3.6136727333068848
1748095000660230700,9.220230712890626,-0.22395527362823486,-9.10670280456543,-3.63155460357666
1748095000670301400,9.230301513671876,-0.28345218300819397,-9.09408950805664,-3.658902168273926
1748095000680372200,9.240372314453126,-0.34029343724250793,-9.077126502990723,-3.6959922313690186
1748095000690443000,9.250443115234376,-0.3836956322193146,-9.057353973388672,-3.7399866580963135
1748095000700514000,9.26051416015625,-0.4027874171733856,-9.038142204284668,-3.7841968536376953
1748095000710584800,9.270584716796876,-0.38944393396377563,-9.024771690368652,-3.817356586456299
1748095000720655600,9.280655517578126,-0.34588661789894104,-9.019108772277832,-3.834895133972168
1748095000730726400,9.290726318359376,-0.28461095690727234,-9.01945686340332,-3.8391120433807373
1748095000740797200,9.300797119140626,-0.22044076025485992,-9.024271011352539,-3.8320114612579346
1748095000750868000,9.310867919921876,-0.16748963296413422,-9.033169746398926,-3.81368350982666
1748095000760938800,9.320938720703126,-0.1334308236837387,-9.046259880065918,-3.7838807106018066
1748095000771040000,9.3310400390625,-0.11738830804824829,-9.063000679016113,-3.7441461086273193
1748095000781110800,9.34111083984375,-0.11271671950817108,-9.082060813903809,-3.6978185176849365
1748095000791181600,9.351181640625,-0.10988923907279968,-9.102438926696777,-3.6474521160125732
1748095000801252400,9.36125244140625,-0.09998325258493423,-9.123397827148438,-3.5949974060058594
1748095000811323100,9.3713232421875,-0.07606842368841171,-9.144129753112793,-3.5425233840942383
1748095000821394200,9.381394287109375,-0.03417138010263443,-9.16330623626709,-3.4932825565338135
1748095000831465000,9.39146484375,0.02495693974196911,-9.178874969482422,-3.45224666595459
1748095000841535700,9.40153564453125,0.09606040269136429,-9.188968658447266,-3.4240357875823975
1748095000851606500,9.4116064453125,0.16965529322624207,-9.192276954650879,-3.412278413772583
1748095000861677300,9.42167724609375,0.2342710942029953,-9.188471794128418,-3.4186956882476807
1748095000871748000,9.431748046875,0.2810894250869751,-9.179326057434082,-3.439671516418457
1748095000881819000,9.44181884765625,0.3066699802875519,-9.16789722442627,-3.467851161956787
1748095000891889700,9.4518896484375,0.31423842906951904,-9.15638542175293,-3.4974610805511475
1748095000901991000,9.461990966796876,0.31053388118743896,-9.14564037322998,-3.5257954597473145
1748095000912061700,9.472061767578126,0.3029901385307312,-9.136478424072266,-3.5501177310943604
1748095000922132500,9.482132568359376,0.29691794514656067,-9.129863739013672,-3.567605972290039
1748095000932203300,9.492203369140626,0.29484444856643677,-9.126562118530273,-3.576214551925659
1748095000942274300,9.5022744140625,0.2959894835948944,-9.126977920532227,-3.5750598907470703
1748095000952345000,9.512344970703126,0.2980267405509949,-9.130255699157715,-3.566509246826172
1748095000962415900,9.522415771484376,0.29888492822647095,-9.135406494140625,-3.5532214641571045
1748095000972486700,9.532486572265626,0.29807212948799133,-9.142053604125977,-3.536156177520752
1748095000982557400,9.542557373046876,0.29582858085632324,-9.149945259094238,-3.515876293182373
1748095000992628200,9.552628173828126,0.2935936152935028,-9.158666610717773,-3.493281841278076
1748095001002699000,9.562698974609376,0.29329952597618103,-9.167830467224121,-3.469184637069702
1748095001012769800,9.572769775390626,0.29699358344078064,-9.176990509033203,-3.444565534591675
1748095001022840600,9.582840576171876,0.30607670545578003,-9.185567855834961,-3.420823812484741
1748095001032941800,9.59294189453125,0.32095077633857727,-9.19290828704834,-3.3996760845184326
1748095001043012600,9.6030126953125,0.3402252197265625,-9.198247909545898,-3.3833210468292236
1748095001053083400,9.61308349609375,0.3611007034778595,-9.201560020446777,-3.3721330165863037
1748095001063154400,9.623154541015625,0.38080522418022156,-9.203003883361816,-3.366020917892456
1748095001073225200,9.63322509765625,0.3970939517021179,-9.20284652709961,-3.364567995071411
1748095001083296000,9.6432958984375,0.40994924306869507,-9.201191902160645,-3.367551803588867
1748095001093366800,9.65336669921875,0.4200468063354492,-9.198580741882324,-3.3734357357025146
1748095001103437600,9.6634375,0.4276801347732544,-9.195629119873047,-3.380516529083252
1748095001113508400,9.67350830078125,0.43209829926490784,-9.192814826965332,-3.3875982761383057
1748095001123579100,9.6835791015625,0.4321989119052887,-9.19050121307373,-3.3938591480255127
1748095001133650000,9.69364990234375,0.42730921506881714,-9.188920021057129,-3.3987553119659424
1748095001143720700,9.703720703125,0.41815054416656494,-9.18807601928711,-3.402176856994629
1748095001153791500,9.71379150390625,0.40635594725608826,-9.187959671020508,-3.4039180278778076
1748095001163892700,9.723892822265626,0.39357101917266846,-9.1884126663208,-3.4041996002197266
1748095001173963500,9.733963623046876,0.38124799728393555,-9.189334869384766,-3.403108835220337
1748095001184034600,9.74403466796875,0.37013402581214905,-9.190730094909668,-3.4005684852600098
1748095001194105300,9.754105224609376,0.3614211678504944,-9.192527770996094,-3.3966424465179443
1748095001204176100,9.764176025390626,0.35578739643096924,-9.194639205932617,-3.3915202617645264
1748095001214247000,9.774246826171876,0.3532896637916565,-9.19690227508545,-3.3856394290924072
1748095001224317700,9.784317626953126,0.3535345196723938,-9.199250221252441,-3.3792288303375244
1748095001244459300,9.804459228515626,0.36014437675476074,-9.203648567199707,-3.366530418395996
1748095001254530000,9.814530029296876,0.3644492030143738,-9.205512046813965,-3.3609697818756104
1748095001264600800,9.824600830078126,0.3682953119277954,-9.207134246826172,-3.3561034202575684
1748095001274671600,9.834671630859376,0.37121933698654175,-9.208609580993652,-3.3517303466796875
1748095001284742400,9.844742431640626,0.3727756440639496,-9.21001148223877,-3.3477060794830322
1748095001304914700,9.864914794921875,0.36982035636901855,-9.213095664978027,-3.339536190032959
1748095001325056300,9.88505615234375,0.3599826395511627,-9.216463088989258,-3.331307888031006
1748095001345197800,9.90519775390625,0.35086551308631897,-9.219579696655273,-3.3236474990844727
1748095001355268600,9.9152685546875,0.34866049885749817,-9.220895767211914,-3.3202266693115234
1748095001365339400,9.92533935546875,0.348014771938324,-9.222062110900879,-3.3170533180236816
1748095001375410200,9.93541015625,0.34805387258529663,-9.223069190979004,-3.314246654510498
1748095001385481000,9.94548095703125,0.3473784029483795,-9.224082946777344,-3.3114960193634033
1748095001395551700,9.9555517578125,0.3449389934539795,-9.225191116333008,-3.308666229248047
1748095001405622500,9.96562255859375,0.34078139066696167,-9.226585388183594,-3.3052053451538086
1748095001415693300,9.975693359375,0.33534708619117737,-9.228303909301758,-3.300959825515747
1748095001425794800,9.985794921875,0.32972201704978943,-9.230326652526855,-3.2958667278289795
1748095001435865600,9.995865478515626,0.32441067695617676,-9.232415199279785,-3.290539026260376
1748095001445936400,10.005936279296876,0.3192964494228363,-9.23443603515625,-3.285367727279663
1748095001456007200,10.016007080078126,0.3146069347858429,-9.236190795898438,-3.2808821201324463
1748095001466078000,10.026077880859376,0.3102176785469055,-9.237594604492188,-3.277343273162842
1748095001476148700,10.036148681640626,0.3086146414279938,-9.238130569458008,-3.2759876251220703
1748095001486219500,10.046219482421876,0.30710285902023315,-9.238850593566895,-3.274099588394165
1748095001496290300,10.056290283203126,0.30602577328681946,-9.239886283874512,-3.271273136138916
1748095001506361000,10.066361083984376,0.3047642707824707,-9.241374015808105,-3.267188787460327
1748095001516432000,10.076431884765626,0.30410081148147583,-9.241201400756836,-3.2677371501922607
1748095001526502700,10.086502685546876,0.30334433913230896,-9.241016387939453,-3.268332004547119
1748095001536573400,10.096573486328126,0.30249521136283875,-9.24091625213623,-3.268693685531616
1748095001546644200,10.106644287109376,0.30211612582206726,-9.240894317626953,-3.268787384033203
1748095001556745700,10.116745849609375,0.3022807836532593,-9.240981101989746,-3.2685296535491943
1748095001566816500,10.12681640625,0.3025069236755371,-9.241320610046387,-3.267549514770508
1748095001576887300,10.13688720703125,0.30275678634643555,-9.242085456848145,-3.26535964012146
1748095001586958000,10.1469580078125,0.3027680516242981,-9.243377685546875,-3.2616987228393555
1748095001597028900,10.15702880859375,0.30284854769706726,-9.245226860046387,-3.2564492225646973
1748095001607099600,10.167099609375,0.3036288917064667,-9.247523307800293,-3.2498483657836914
1748095001617170400,10.17717041015625,0.3054857850074768,-9.250057220458984,-3.242455244064331
1748095001627241200,10.1872412109375,0.3085208833217621,-9.252579689025879,-3.23496150970459
1748095001637312000,10.19731201171875,0.31223559379577637,-9.254948616027832,-3.227820634841919
1748095001647382800,10.2073828125,0.31623533368110657,-9.256937980651855,-3.2217230796813965
1748095001657453600,10.21745361328125,0.319792240858078,-9.258350372314453,-3.217306613922119
1748095001667524400,10.2275244140625,0.3230738043785095,-9.259090423583984,-3.214848756790161
1748095001677595100,10.23759521484375,0.32599198818206787,-9.259143829345703,-3.214402198791504
1748095001687696600,10.247696533203126,0.32818272709846497,-9.258637428283691,-3.215637445449829
1748095001707838200,10.267838134765626,0.32954925298690796,-9.2569580078125,-3.2203259468078613
1748095001717909000,10.277908935546876,0.328940749168396,-9.256204605102539,-3.2225544452667236
1748095001727979800,10.287979736328126,0.32846561074256897,-9.255669593811035,-3.2241382598876953
1748095001738050600,10.298050537109376,0.3287113606929779,-9.255510330200195,-3.2245709896087646
1748095001748121300,10.308121337890626,0.33002498745918274,-9.255674362182617,-3.2239677906036377
1748095001758192000,10.318192138671876,0.33236026763916016,-9.256010055541992,-3.222761631011963
1748095001768263000,10.328262939453126,0.336173415184021,-9.256359100341797,-3.2213635444641113
1748095001778333700,10.338333740234376,0.34089943766593933,-9.256744384765625,-3.2197604179382324
1748095001788404500,10.348404541015626,0.34602782130241394,-9.25718879699707,-3.2179348468780518
1748095001798475300,10.358475341796876,0.3513284921646118,-9.257655143737793,-3.2160162925720215
1748095001808546000,10.368546142578126,0.35616064071655273,-9.258102416992188,-3.2141988277435303
1748095001818647600,10.3786474609375,0.3601936995983124,-9.258545875549316,-3.212470769882202
1748095001828718300,10.38871826171875,0.3623761832714081,-9.259021759033203,-3.21085262298584
1748095001838789000,10.3987890625,0.36207592487335205,-9.259443283081055,-3.20967435836792
1748095001848860000,10.40885986328125,0.360052227973938,-9.25976848602295,-3.2089624404907227
1748095001858930700,10.4189306640625,0.35740160942077637,-9.259943008422852,-3.208754777908325
1748095001869001500,10.42900146484375,0.3551022708415985,-9.25992202758789,-3.209070920944214
1748095001879072300,10.439072265625,0.3530749976634979,-9.259711265563965,-3.209900379180908
1748095001889143000,10.44914306640625,0.35127755999565125,-9.259357452392578,-3.2111215591430664
1748095001899213800,10.4592138671875,0.3497266471385956,-9.258893966674805,-3.2126238346099854
1748095001909284600,10.46928466796875,0.3478698432445526,-9.258467674255371,-3.214054584503174
1748095001919355400,10.47935546875,0.3456117510795593,-9.258193969726562,-3.2150862216949463
1748095001929426200,10.48942626953125,0.3432452380657196,-9.258056640625,-3.2157344818115234
1748095001939497000,10.4994970703125,0.34120529890060425,-9.25800895690918,-3.2160885334014893
1748095001949598500,10.509598388671876,0.33941975235939026,-9.258037567138672,-3.2161967754364014
1748095001959669200,10.519669189453126,0.3368651866912842,-9.258162498474121,-3.2161061763763428
1748095001969740000,10.529739990234376,0.33279868960380554,-9.25837230682373,-3.2159273624420166
1748095001979810800,10.539810791015626,0.3270551860332489,-9.258768081665039,-3.2153759002685547
1748095001989881600,10.549881591796876,0.3202840983867645,-9.259325981140137,-3.214449882507324
1748095001999952400,10.559952392578126,0.3128391206264496,-9.259891510009766,-3.2135543823242188
1748095002010023200,10.570023193359376,0.3047317862510681,-9.260411262512207,-3.212834358215332
1748095002020094000,10.580093994140626,0.2961665689945221,-9.260833740234375,-3.2124180793762207
1748095002030164700,10.590164794921876,0.28698718547821045,-9.261216163635254,-3.212149143218994
1748095002040235500,10.600235595703126,0.2772860527038574,-9.261556625366211,-3.2120182514190674
1748095002050306300,10.610306396484376,0.2675182819366455,-9.261877059936523,-3.2119240760803223
1748095002060377000,10.620377197265626,0.25820356607437134,-9.262309074401855,-3.2114410400390625
1748095002070478600,10.630478515625,0.24958106875419617,-9.262858390808105,-3.210537910461426
1748095002080549400,10.64054931640625,0.2414373755455017,-9.26365852355957,-3.2088515758514404
1748095002090620200,10.6506201171875,0.23375311493873596,-9.264796257019043,-3.2061355113983154
1748095002100691000,10.66069091796875,0.22662389278411865,-9.26621150970459,-3.202552318572998
1748095002110761700,10.67076171875,0.21941585838794708,-9.267943382263184,-3.198042631149292
1748095002120832500,10.68083251953125,0.21217215061187744,-9.269739151000977,-3.193321704864502
1748095002130903300,10.6909033203125,0.20505772531032562,-9.271451950073242,-3.188812017440796
1748095002140974000,10.70097412109375,0.19795049726963043,-9.272984504699707,-3.1848032474517822
1748095002151044900,10.711044921875,0.190459206700325,-9.274232864379883,-3.181624174118042
1748095002161115600,10.72111572265625,0.18288709223270416,-9.275179862976074,-3.1793055534362793
1748095002171186400,10.7311865234375,0.17543795704841614,-9.275845527648926,-3.1777822971343994
1748095002181257200,10.74125732421875,0.168550044298172,-9.276224136352539,-3.1770482063293457
1748095002191328300,10.751328369140625,0.16220083832740784,-9.276429176330566,-3.1767826080322266
1748095002201429500,10.761429443359376,0.1557839959859848,-9.276468276977539,-3.1769866943359375
1748095002211500300,10.771500244140626,0.14964205026626587,-9.276443481445312,-3.177356243133545
1748095002221571000,10.781571044921876,0.1440495252609253,-9.27631950378418,-3.1779768466949463
1748095002231641900,10.791641845703126,0.13964267075061798,-9.276240348815918,-3.178402900695801
1748095002241712600,10.801712646484376,0.1364823579788208,-9.276124000549316,-3.178879976272583
1748095002251783400,10.811783447265626,0.13438327610492706,-9.276019096374512,-3.17927622795105
1748095002261854200,10.821854248046876,0.13305887579917908,-9.275851249694824,-3.1798226833343506
1748095002271925000,10.831925048828126,0.1318923532962799,-9.275588035583496,-3.1806411743164062
1748095002281995800,10.841995849609376,0.13056623935699463,-9.275154113769531,-3.1819605827331543
1748095002292066600,10.852066650390626,0.1295442283153534,-9.274518966674805,-3.183851957321167
1748095002302137300,10.862137451171876,0.12908193469047546,-9.273736953735352,-3.1861467361450195
1748095002312208400,10.87220849609375,0.12922939658164978,-9.272817611694336,-3.1888155937194824
1748095002322279200,10.882279052734376,0.1291985660791397,-9.271909713745117,-3.1914560794830322
1748095002332380400,10.89238037109375,0.12908269464969635,-9.271076202392578,-3.1938788890838623
1748095002342451200,10.902451171875,0.12906205654144287,-9.270376205444336,-3.195911407470703
1748095002352522000,10.91252197265625,0.13116195797920227,-9.270736694335938,-3.1947805881500244
1748095002362592800,10.9225927734375,0.1339271515607834,-9.27120304107666,-3.1933131217956543
1748095002372663600,10.93266357421875,0.1372489482164383,-9.271591186523438,-3.1920464038848877
1748095002382734300,10.942734375,0.14072789251804352,-9.271827697753906,-3.191206216812134
1748095002392805000,10.95280517578125,0.1441362202167511,-9.271966934204102,-3.1906518936157227
1748095002402876000,10.9628759765625,0.1471267193555832,-9.271939277648926,-3.1905934810638428
1748095002412946700,10.97294677734375,0.14891831576824188,-9.27188491821289,-3.190666437149048
1748095002423017500,10.983017578125,0.14926068484783173,-9.271732330322266,-3.1910953521728516
1748095002433088500,10.993088623046875,0.14882652461528778,-9.271472930908203,-3.1918694972991943
1748095002443159300,11.0031591796875,0.14876306056976318,-9.27115249633789,-3.1928021907806396
1748095002453230000,11.01322998046875,0.14977845549583435,-9.270809173583984,-3.193751573562622
1748095002463331300,11.023331298828126,0.15196341276168823,-9.27051067352295,-3.194516181945801
1748095002473402000,11.033402099609376,0.1545165479183197,-9.270209312438965,-3.19526743888855
1748095002483473000,11.043472900390626,0.15665262937545776,-9.26994514465332,-3.195930242538452
1748095002493543700,11.053543701171876,0.15840688347816467,-9.269734382629395,-3.1964547634124756
1748095002503614500,11.063614501953126,0.15909914672374725,-9.269576072692871,-3.196877956390381
1748095002513685200,11.073685302734376,0.15867725014686584,-9.269497871398926,-3.1971254348754883
1748095002523756000,11.083756103515626,0.15773099660873413,-9.269533157348633,-3.1970696449279785
1748095002533826800,11.093826904296876,0.15671281516551971,-9.269597053527832,-3.196934938430786
1748095002543897600,11.103897705078126,0.15687653422355652,-9.269652366638184,-3.1967668533325195
1748095002553968600,11.11396875,0.1588512808084488,-9.269676208496094,-3.1966001987457275
1748095002564039400,11.124039306640626,0.16192467510700226,-9.269525527954102,-3.1968843936920166
1748095002574110200,11.134110107421876,0.16468414664268494,-9.269268035888672,-3.197489023208618
1748095002584181000,11.144180908203126,0.1663227677345276,-9.268939971923828,-3.198355197906494
1748095002594282200,11.1542822265625,0.1663035899400711,-9.268563270568848,-3.1994476318359375
1748095002604353000,11.16435302734375,0.16458001732826233,-9.268211364746094,-3.2005579471588135
1748095002614423800,11.174423828125,0.16161181032657623,-9.267996788024902,-3.201329231262207
1748095002624494600,11.18449462890625,0.15878984332084656,-9.267731666564941,-3.2022385597229004
1748095002634565400,11.1945654296875,0.15722781419754028,-9.26757526397705,-3.2027664184570312
1748095002644636200,11.20463623046875,0.15675108134746552,-9.267620086669922,-3.2026615142822266
1748095002654707000,11.21470703125,0.15682218968868256,-9.267790794372559,-3.2021641731262207
1748095002664777700,11.22477783203125,0.1567375808954239,-9.268043518066406,-3.20143461227417
1748095002674848800,11.234848876953125,0.15659621357917786,-9.268324851989746,-3.20062518119812
1748095002684919600,11.24491943359375,0.15647219121456146,-9.268619537353516,-3.1997790336608887
1748095002694990300,11.254990234375,0.15638144314289093,-9.268839836120605,-3.199144124984741
1748095002705061000,11.26506103515625,0.1564529687166214,-9.269038200378418,-3.19856858253479
1748095002715132000,11.2751318359375,0.1563955694437027,-9.269137382507324,-3.1982831954956055
1748095002725233200,11.285233154296876,0.1563866287469864,-9.269094467163086,-3.19840669631958
1748095002735304000,11.295303955078126,0.1569107174873352,-9.268928527832031,-3.1988630294799805
1748095002745374700,11.305374755859376,0.15786850452423096,-9.268685340881348,-3.199521541595459
1748095002755445500,11.315445556640626,0.15914522111415863,-9.268454551696777,-3.2001266479492188
1748095002765516300,11.325516357421876,0.16033229231834412,-9.26812744140625,-3.2010140419006348
1748095002775587000,11.335587158203126,0.16129790246486664,-9.267659187316895,-3.2023215293884277
1748095002785657900,11.345657958984376,0.16220097243785858,-9.267169952392578,-3.203691005706787
1748095002795729000,11.35572900390625,0.16313301026821136,-9.266532897949219,-3.2054874897003174
1748095002805799700,11.365799560546876,0.16399110853672028,-9.26587200164795,-3.20735239982605
1748095002815870500,11.375870361328126,0.1647539734840393,-9.265381813049316,-3.208730697631836
1748095002825941200,11.385941162109376,0.16481108963489532,-9.265089988708496,-3.209568977355957
1748095002836012000,11.396011962890626,0.16435284912586212,-9.264937400817871,-3.2100327014923096
1748095002846082800,11.406082763671876,0.16336211562156677,-9.264872550964355,-3.2102723121643066
1748095002856184000,11.41618408203125,0.1624578833580017,-9.264715194702148,-3.2107698917388916
1748095002866254800,11.4262548828125,0.1616247445344925,-9.264595031738281,-3.2111599445343018
1748095002876325600,11.43632568359375,0.16088464856147766,-9.264520645141602,-3.211412191390991
1748095002886396400,11.446396484375,0.15996591746807098,-9.264583587646484,-3.2112748622894287
1748095002896467200,11.45646728515625,0.1591263711452484,-9.264839172363281,-3.2105820178985596
1748095002906538000,11.4665380859375,0.1583891212940216,-9.265253067016602,-3.2094202041625977
1748095002916609000,11.476609130859375,0.15762822329998016,-9.265775680541992,-3.2079479694366455
1748095002926679800,11.4866796875,0.15753886103630066,-9.266490936279297,-3.2058870792388916
1748095002936750600,11.49675048828125,0.15789079666137695,-9.267401695251465,-3.2032365798950195
1748095002946821400,11.5068212890625,0.1583004742860794,-9.268589973449707,-3.1997787952423096
1748095002956892200,11.51689208984375,0.15866445004940033,-9.270153999328613,-3.1952242851257324
1748095002966963000,11.526962890625,0.15861639380455017,-9.272037506103516,-3.1897566318511963
1748095002977033700,11.53703369140625,0.16142450273036957,-9.271697044372559,-3.190605878829956
1748095002997205800,11.557205810546876,0.16764476895332336,-9.271490097045898,-3.190887212753296
1748095003007276500,11.567276611328126,0.17048706114292145,-9.271614074707031,-3.190375566482544
1748095003017347300,11.577347412109376,0.17301036417484283,-9.271835327148438,-3.189598798751831
1748095003027418000,11.587418212890626,0.17584578692913055,-9.272109031677246,-3.1886487007141113
1748095003037489200,11.5974892578125,0.17932206392288208,-9.272480010986328,-3.187373638153076
1748095003047560000,11.607559814453126,0.1832892894744873,-9.272873878479004,-3.1860036849975586
1748095003057630700,11.617630615234376,0.18801391124725342,-9.273344993591309,-3.184354305267334
1748095003067701500,11.627701416015626,0.19334565103054047,-9.273876190185547,-3.1824867725372314
1748095003077772300,11.637772216796876,0.19903945922851562,-9.27448844909668,-3.1803529262542725
1748095003087843000,11.647843017578126,0.20476260781288147,-9.275196075439453,-3.177924156188965
1748095003097913900,11.657913818359376,0.21013326942920685,-9.276020050048828,-3.175165891647339
1748095003107984600,11.667984619140626,0.2156013697385788,-9.27694320678711,-3.1720993518829346
1748095003118086000,11.6780859375,0.221974179148674,-9.277952194213867,-3.1687088012695312
1748095003128156700,11.68815673828125,0.2297198623418808,-9.278895378112793,-3.165393590927124
1748095003138227500,11.6982275390625,0.23793449997901917,-9.279735565185547,-3.1623222827911377
1748095003148298200,11.70829833984375,0.2445579171180725,-9.280498504638672,-3.159576177597046
1748095003158369300,11.718369384765625,0.24844081699848175,-9.281269073486328,-3.157008647918701
1748095003168440000,11.728440185546875,0.25061628222465515,-9.281949043273926,-3.154838800430298
1748095003178510800,11.7385107421875,0.25246483087539673,-9.282563209533691,-3.152883529663086
1748095003188581600,11.74858154296875,0.2548949718475342,-9.282987594604492,-3.1514370441436768
1748095003198652400,11.75865234375,0.25720563530921936,-9.283112525939941,-3.150881052017212
1748095003208723200,11.76872314453125,0.2584620714187622,-9.282950401306152,-3.151256561279297
1748095003218794000,11.7787939453125,0.2585117220878601,-9.282434463500977,-3.1527698040008545
1748095003228864800,11.78886474609375,0.25790607929229736,-9.281577110290527,-3.1553449630737305
1748095003238966000,11.798966064453126,0.2571599781513214,-9.280440330505371,-3.1587471961975098
1748095003249036800,11.809036865234376,0.2555956244468689,-9.27914810180664,-3.162665605545044
1748095003259107600,11.819107666015626,0.25269073247909546,-9.277847290039062,-3.166717052459717
1748095003269178400,11.829178466796876,0.24820110201835632,-9.276644706726074,-3.1705920696258545
1748095003279249400,11.83924951171875,0.2423868179321289,-9.275693893432617,-3.1738173961639404
1748095003289320200,11.8493203125,0.23631083965301514,-9.275041580200195,-3.1761837005615234
1748095003299391000,11.859390869140626,0.23117122054100037,-9.27469253540039,-3.1775834560394287
1748095003309461800,11.869461669921876,0.22784826159477234,-9.27459716796875,-3.1780972480773926
1748095003319532500,11.879532470703126,0.22638754546642303,-9.27474594116211,-3.1777701377868652
1748095003329603300,11.889603271484376,0.22637136280536652,-9.27520751953125,-3.1764237880706787
1748095003339674000,11.899674072265626,0.22725243866443634,-9.275805473327637,-3.1746134757995605
1748095003349745000,11.909744873046876,0.22845706343650818,-9.276464462280273,-3.172602891921997
1748095003359815700,11.919815673828126,0.22947785258293152,-9.277166366577148,-3.1704721450805664
1748095003369917000,11.9299169921875,0.23065514862537384,-9.27790355682373,-3.168231725692749
1748095003379987700,11.93998779296875,0.23212914168834686,-9.278752326965332,-3.165635108947754
1748095003390058500,11.95005859375,0.23358052968978882,-9.2797212600708,-3.162686586380005
1748095003400129500,11.960129638671875,0.2342865765094757,-9.280755043029785,-3.1596035957336426
1748095003410200300,11.970200439453125,0.23368892073631287,-9.28194808959961,-3.156139850616455
1748095003420271000,11.98027099609375,0.23169393837451935,-9.283238410949707,-3.1524879932403564
1748095003430342000,11.990341796875,0.2291547656059265,-9.284553527832031,-3.1488001346588135
1748095003440412700,12.00041259765625,0.22710224986076355,-9.2858304977417,-3.1451833248138428
1748095003450483500,12.0104833984375,0.22617049515247345,-9.286996841430664,-3.1418039798736572
1748095003460554200,12.02055419921875,0.22631995379924774,-9.288007736206055,-3.1388022899627686
1748095003470625000,12.030625,0.22693957388401031,-9.288866996765137,-3.136214017868042
1748095003480695800,12.04069580078125,0.2276802659034729,-9.289667129516602,-3.1337881088256836
1748095003490766600,12.0507666015625,0.22827309370040894,-9.29039478302002,-3.131587028503418
1748095003500867800,12.060867919921876,0.22853220999240875,-9.291077613830566,-3.1295430660247803
1748095003510938600,12.070938720703126,0.2284443974494934,-9.291722297668457,-3.1276347637176514
1748095003521009700,12.081009765625,0.22809436917304993,-9.292379379272461,-3.1257073879241943
1748095003531080400,12.09108056640625,0.22769269347190857,-9.29301643371582,-3.1238415241241455
1748095003541151200,12.101151123046876,0.22785675525665283,-9.293658256530762,-3.121922254562378
1748095003551222000,12.111221923828126,0.2290334403514862,-9.29422664642334,-3.1201422214508057
1748095003561292800,12.121292724609376,0.2314264327287674,-9.294779777526855,-3.118318557739258
1748095003571363600,12.131363525390626,0.23452873528003693,-9.295257568359375,-3.1166586875915527
1748095003581434400,12.141434326171876,0.2376646250486374,-9.295798301696777,-3.1148061752319336
1748095003591505200,12.151505126953126,0.2401980459690094,-9.29881763458252,-3.105590581893921
1748095003601576000,12.161575927734376,0.2435237020254135,-9.301451683044434,-3.0974326133728027
1748095003611646700,12.171646728515626,0.24778488278388977,-9.303536415100098,-3.0908267498016357
1748095003621717500,12.181717529296876,0.25263819098472595,-9.305142402648926,-3.0855915546417236
1748095003631818800,12.19181884765625,0.2572201192378998,-9.306191444396973,-3.08205246925354
1748095003641889800,12.201889892578125,0.26191508769989014,-9.306548118591309,-3.0805776119232178
1748095003651960600,12.211960693359375,0.2666802704334259,-9.306838035583496,-3.079291820526123
1748095003662031400,12.22203125,0.27155813574790955,-9.307154655456543,-3.077907085418701
1748095003672102100,12.23210205078125,0.27627456188201904,-9.307551383972168,-3.0762898921966553
1748095003682173000,12.2421728515625,0.2806173861026764,-9.308050155639648,-3.074385166168213
1748095003692243700,12.25224365234375,0.28523799777030945,-9.308553695678711,-3.0724356174468994
1748095003702314500,12.262314453125,0.29074791073799133,-9.309059143066406,-3.0703840255737305
1748095003712385300,12.27238525390625,0.29726657271385193,-9.309499740600586,-3.0684256553649902
1748095003722456000,12.2824560546875,0.30426815152168274,-9.30984878540039,-3.0666799545288086
1748095003742597600,12.30259765625,0.3195382356643677,-9.309967041015625,-3.0647666454315186
1748095003752668400,12.31266845703125,0.32788386940956116,-9.309706687927246,-3.0646743774414062
1748095003762770000,12.32277001953125,0.3357399106025696,-9.309293746948242,-3.065079689025879
1748095003772840700,12.3328408203125,0.342406302690506,-9.308802604675293,-3.0658342838287354
1748095003782911500,12.342911376953126,0.34798935055732727,-9.308303833007812,-3.0667190551757812
1748095003792982300,12.352982177734376,0.3529990613460541,-9.307814598083496,-3.067631721496582
1748095003803053000,12.363052978515626,0.35744768381118774,-9.307473182678223,-3.068155288696289
1748095003813123800,12.373123779296876,0.3613232672214508,-9.307291984558105,-3.068248987197876
1748095003823194600,12.383194580078126,0.3636781871318817,-9.307356834411621,-3.0677759647369385
1748095003833265400,12.393265380859376,0.36410751938819885,-9.30759334564209,-3.067002058029175
1748095003843336200,12.403336181640626,0.36294499039649963,-9.307966232299805,-3.066009998321533
1748095003853407000,12.413406982421876,0.36112111806869507,-9.308415412902832,-3.0648629665374756
1748095003863477800,12.423477783203126,0.35824310779571533,-9.309017181396484,-3.063372850418091
1748095003873548500,12.433548583984376,0.35404568910598755,-9.309683799743652,-3.06183123588562
1748095003883649800,12.44364990234375,0.3485395014286041,-9.310419082641602,-3.060228109359741
1748095003893720800,12.453720947265625,0.34184837341308594,-9.311147689819336,-3.058764934539795
1748095003903791600,12.46379150390625,0.3338453471660614,-9.311829566955566,-3.057576894760132
1748095003913862400,12.4738623046875,0.32462093234062195,-9.312402725219727,-3.056823968887329
1748095003923933200,12.48393310546875,0.31434932351112366,-9.312910079956055,-3.056349039077759
1748095003934004000,12.49400390625,0.30396151542663574,-9.313453674316406,-3.0557432174682617
1748095003944074800,12.50407470703125,0.2946571707725525,-9.314105033874512,-3.0546715259552
1748095003954145500,12.5141455078125,0.28843462467193604,-9.314970016479492,-3.052626371383667
1748095003964216300,12.52421630859375,0.2856827676296234,-9.316102981567383,-3.0494253635406494
1748095003974287000,12.534287109375,0.2853774428367615,-9.317468643188477,-3.0452775955200195
1748095003984358000,12.54435791015625,0.28570523858070374,-9.31906509399414,-3.0403594970703125
1748095003994428700,12.5544287109375,0.2853148877620697,-9.320798873901367,-3.035076141357422
1748095004004499500,12.56449951171875,0.28426337242126465,-9.322694778442383,-3.029346466064453
1748095004014601000,12.57460107421875,0.28288307785987854,-9.324560165405273,-3.023730516433716
1748095004024671700,12.584671630859376,0.28133225440979004,-9.326242446899414,-3.0186805725097656
1748095004034742500,12.594742431640626,0.2792504131793976,-9.327753067016602,-3.014206886291504
1748095004044813300,12.604813232421876,0.2767290472984314,-9.32909870147705,-3.010270595550537
1748095004054884000,12.614884033203126,0.2736681401729584,-9.330221176147461,-3.007073163986206
1748095004064955000,12.624954833984376,0.27024295926094055,-9.331080436706543,-3.0047099590301514
1748095004075025700,12.635025634765626,0.26720789074897766,-9.331653594970703,-3.0032055377960205
1748095004085096400,12.645096435546876,0.2653297185897827,-9.33190631866455,-3.00258469581604
1748095004095167200,12.655167236328126,0.264467716217041,-9.331879615783691,-3.0027449131011963
1748095004105238000,12.665238037109376,0.26370835304260254,-9.331693649291992,-3.003387212753296
1748095004115308800,12.675308837890626,0.26123717427253723,-9.331640243530273,-3.0037693977355957
1748095004125379600,12.685379638671876,0.25550219416618347,-9.331902503967285,-3.0034496784210205
1748095004135450400,12.695450439453126,0.2465655505657196,-9.33248519897461,-3.002384901046753
1748095004145552000,12.7055517578125,0.23590537905693054,-9.333268165588379,-3.000807762145996
1748095004155622700,12.71562255859375,0.2258477807044983,-9.334060668945312,-2.9991137981414795
1748095004165693400,12.725693359375,0.21796712279319763,-9.334808349609375,-2.997373342514038
1748095004175764200,12.73576416015625,0.21347059309482574,-9.335299491882324,-2.9961650371551514
1748095004185835000,12.7458349609375,0.21237656474113464,-9.335504531860352,-2.995602607727051
1748095004195905800,12.75590576171875,0.21336790919303894,-9.335614204406738,-2.995189905166626
1748095004205976600,12.7659765625,0.2148444801568985,-9.335827827453613,-2.994419813156128
1748095004216047400,12.77604736328125,0.21538954973220825,-9.336298942565918,-2.9929094314575195
1748095004226118100,12.7861181640625,0.2149168699979782,-9.33708667755127,-2.9904866218566895
1748095004236189000,12.79618896484375,0.21370238065719604,-9.338218688964844,-2.987039566040039
1748095004246259700,12.806259765625,0.21208034455776215,-9.339594841003418,-2.9828481674194336
1748095004256330500,12.81633056640625,0.20975317060947418,-9.341073989868164,-2.978377103805542
1748095004266401300,12.8264013671875,0.20653977990150452,-9.342524528503418,-2.9740493297576904
1748095004276502800,12.836502685546876,0.20271405577659607,-9.34389591217041,-2.9700021743774414
1748095004286573600,12.846573486328126,0.19895386695861816,-9.345144271850586,-2.966324806213379
1748095004296644400,12.856644287109376,0.19529542326927185,-9.346319198608398,-2.962864875793457
1748095004306715100,12.866715087890626,0.19148612022399902,-9.347441673278809,-2.959571123123169
1748095004316786000,12.876785888671876,0.18701916933059692,-9.348487854003906,-2.9565486907958984
1748095004326856700,12.886856689453126,0.182156041264534,-9.34938907623291,-2.9540035724639893
1748095004336927500,12.896927490234376,0.17746761441230774,-9.350022315979004,-2.9522809982299805
1748095004346998300,12.906998291015626,0.17339730262756348,-9.3502836227417,-2.9516990184783936
1748095004357069000,12.917069091796876,0.17049051821231842,-9.350184440612793,-2.952181100845337
1748095004367139800,12.927139892578126,0.1681966632604599,-9.34965705871582,-2.953981637954712
1748095004377210600,12.937210693359376,0.16547296941280365,-9.348917961120605,-2.956476926803589
1748095004387281400,12.947281494140626,0.1619703322649002,-9.34815502166748,-2.9590773582458496
1748095004397352200,12.957352294921876,0.15854617953300476,-9.347424507141113,-2.9615731239318848
1748095004407453700,12.96745361328125,0.155796617269516,-9.346723556518555,-2.9639270305633545
1748095004417524500,12.9775244140625,0.1538575440645218,-9.346113204956055,-2.9659552574157715
1748095004427595300,12.98759521484375,0.15266016125679016,-9.345592498779297,-2.967656373977661
1748095004437666000,12.997666015625,0.1524629145860672,-9.345305442810059,-2.96856951713562
1748095004447736800,13.00773681640625,0.15349741280078888,-9.345209121704102,-2.9688191413879395
1748095004457807600,13.0178076171875,0.15531478822231293,-9.345393180847168,-2.9681479930877686
1748095004467878400,13.02787841796875,0.15683802962303162,-9.345778465270996,-2.9668526649475098
1748095004477949200,13.03794921875,0.1575467884540558,-9.346257209777832,-2.9653048515319824
1748095004488020000,13.04802001953125,0.157547265291214,-9.34665298461914,-2.9640591144561768
1748095004498090800,13.0580908203125,0.15734714269638062,-9.346842765808105,-2.963472604751587
1748095004508161500,13.06816162109375,0.15731467306613922,-9.346758842468262,-2.963737726211548
1748095004518232300,13.078232421875,0.15800577402114868,-9.346445083618164,-2.9646902084350586
1748095004528303400,13.088303466796875,0.15954327583312988,-9.346014022827148,-2.96596622467041
1748095004538404600,13.098404541015626,0.16144178807735443,-9.345584869384766,-2.9672179222106934
1748095004548475400,13.108475341796876,0.1635376214981079,-9.345263481140137,-2.9681131839752197
1748095004558546200,13.118546142578126,0.16618643701076508,-9.345088005065918,-2.9685189723968506
1748095004568617000,13.128616943359376,0.16927695274353027,-9.345022201538086,-2.968550443649292
1748095004578687700,13.138687744140626,0.17291638255119324,-9.344913482666016,-2.9686825275421143
1748095004588758500,13.148758544921876,0.17679226398468018,-9.344698905944824,-2.9691293239593506
1748095004598829300,13.158829345703126,0.1800559163093567,-9.344376564025879,-2.9699454307556152
1748095004608900000,13.168900146484376,0.18225838243961334,-9.343903541564941,-2.971301317214966
1748095004618971000,13.178970947265626,0.1825365573167801,-9.343385696411133,-2.972910165786743
1748095004629041700,13.189041748046876,0.18255175650119781,-9.343745231628418,-2.971782922744751
1748095004639112400,13.199112548828126,0.1817336082458496,-9.343856811523438,-2.971479892730713
1748095004649183500,13.20918359375,0.18069219589233398,-9.343605995178223,-2.972332715988159
1748095004659254300,13.219254150390626,0.18081270158290863,-9.342756271362305,-2.974994421005249
1748095004669355500,13.22935546875,0.18290962278842926,-9.341251373291016,-2.979588270187378
1748095004679426300,13.23942626953125,0.1817007213830948,-9.340209007263184,-2.98292875289917
1748095004689497000,13.2494970703125,0.18272443115711212,-9.338862419128418,-2.987082004547119
1748095004699567900,13.25956787109375,0.18499906361103058,-9.337328910827637,-2.9917304515838623
