time,seconds_elapsed,z,y,x
1747314347291504600,0.125504638671875,0.29672500491142273,-0.37798750400543213,-0.047575000673532486
1747314347301099000,0.13509912109375,0.2722499966621399,-0.35846251249313354,0.00989999994635582
1747314347310694100,0.144694091796875,0.25753748416900635,-0.3694624900817871,0.09790000319480896
1747314347320290300,0.154290283203125,0.2624875009059906,-0.3438875079154968,0.20652499794960022
1747314347329885200,0.16388525390625,0.29301249980926514,-0.271699994802475,0.3152875006198883
1747314347339479800,0.173479736328125,0.34072500467300415,-0.16541250050067902,0.3971000015735626
1747314347349075000,0.183074951171875,0.3955875039100647,0.0019249999895691872,0.4386250078678131
1747314347358670800,0.1926708984375,0.4395875036716461,0.20350000262260437,0.44728749990463257
1747314347368266000,0.202265869140625,0.4690124988555908,0.37207499146461487,0.44852501153945923
1747314347377860400,0.2118603515625,0.4823499917984009,0.41359999775886536,0.44481250643730164
1747314347387455500,0.22145556640625,0.48606249690055847,0.3770250082015991,0.44110000133514404
1747314347397051400,0.231051513671875,0.4982999861240387,0.3684999942779541,0.44481250643730164
1747314347406646500,0.240646484375,0.5215374827384949,0.40507498383522034,0.4606249928474426
1747314347416241200,0.2502412109375,0.5508249998092651,0.4417875111103058,0.5058624744415283
1747314347425836000,0.2598359375,0.6216375231742859,0.40878748893737793,0.5768125057220459
1747314347435432200,0.26943212890625,0.7243499755859375,0.26826250553131104,0.6756749749183655
1747314347445027300,0.27902734375,0.7279250025749207,0.043449997901916504,0.8051999807357788
1747314347454621700,0.28862158203125,0.6278250217437744,-0.14588749408721924,0.9164375066757202
1747314347464216800,0.298216796875,0.47753748297691345,-0.22165000438690186,0.9725375175476074
1747314347473812700,0.307812744140625,0.34072500467300415,-0.22659999132156372,0.9554874897003174
1747314347483408000,0.317407958984375,0.24172499775886536,-0.24969999492168427,0.8662499785423279
1747314347493002200,0.327002197265625,0.17820000648498535,-0.30717501044273376,0.7184374928474426
1747314347502597400,0.336597412109375,0.12925000488758087,-0.40727499127388,0.5193374752998352
1747314347512193500,0.346193603515625,0.05719999969005585,-0.5625125169754028,0.29205000400543213
1747314347521788400,0.355788330078125,-0.025849999859929085,-0.7775624990463257,0.025712499395012856
1747314347531382800,0.3653828125,-0.10889999568462372,-1.0133750438690186,-0.2699125111103058
1747314347540978000,0.37497802734375,-0.22013749182224274,-1.1477124691009521,-0.547249972820282
1747314347550574000,0.384573974609375,-0.31171250343322754,-1.1367125511169434,-0.8391624689102173
1747314347560169200,0.394169189453125,-0.35571250319480896,-0.9851874709129333,-1.0517375469207764
1747314347569763300,0.403763427734375,-0.3764750063419342,-0.7030375003814697,-1.0932625532150269
1747314347579358500,0.4133583984375,-0.49252501130104065,-0.25946250557899475,-0.9198749661445618
1747314347588954400,0.422954345703125,-0.6978124976158142,0.09597499668598175,-0.5704874992370605
1747314347598549500,0.432549560546875,-0.8981499671936035,0.2217874974012375,-0.10009999573230743
1747314347608144000,0.442143798828125,-1.1082500219345093,0.4246000051498413,0.35804998874664307
1747314347617739000,0.451739013671875,-1.2952499389648438,0.6140750050544739,0.75638747215271
1747314347627335000,0.4613349609375,-1.455299973487854,0.7166500091552734,1.088724970817566
1747314347636930000,0.470929931640625,-1.6141124963760376,0.6665999889373779,1.3330625295639038
1747314347646524400,0.4805244140625,-1.709399938583374,0.5186499953269958,1.3976874351501465
1747314347656119600,0.49011962890625,-1.6482124328613281,0.5028374791145325,1.210824966430664
1747314347665715500,0.499715576171875,-1.451587438583374,0.7019374966621399,0.7783874869346619
1747314347675310600,0.509310546875,-1.1742500066757202,1.0709874629974365,0.2615250051021576
1747314347684905000,0.518905029296875,-0.829675018787384,1.4679499864578247,-0.10491249710321426
1747314347694500000,0.5285,-0.4877125024795532,1.7929999828338623,-0.23196250200271606
1747314347704096000,0.538095947265625,-0.2531374990940094,2.0213875770568848,-0.15386250615119934
1747314347713691100,0.547691162109375,-0.11990000307559967,2.120387554168701,0.045375000685453415
1747314347723285500,0.557285400390625,-0.02213750034570694,2.0703375339508057,0.28847500681877136
1747314347732880600,0.566880615234375,0.11096250265836716,1.9298124313354492,0.4717625081539154
1747314347742476500,0.5764765625,0.2539624869823456,1.7342875003814697,0.563337504863739
1747314347752071700,0.58607177734375,0.30153748393058777,1.4337124824523926,0.5523374676704407
1747314347761666000,0.595666015625,0.2807750105857849,0.9120374917984009,0.3702875077724457
1747314347771261200,0.60526123046875,0.23196250200271606,0.3367374837398529,0.06613750010728836
1747314347780857000,0.614857177734375,0.18067499995231628,-0.060362499207258224,-0.31872498989105225
1747314347790452200,0.6244521484375,0.1574375033378601,-0.23388749361038208,-0.6962999701499939
1747314347800046600,0.634046630859375,0.20377500355243683,-0.2937000095844269,-0.9919250011444092
1747314347809641700,0.643641845703125,0.2905375063419342,-0.3254624903202057,-1.1507375240325928
1747314347819238000,0.65323779296875,0.36272498965263367,-0.3975124955177307,-1.1507375240325928
1747314347828832800,0.662832763671875,0.3993000090122223,-0.5257999897003174,-1.0334500074386597
1747314347838427100,0.67242724609375,0.3955875039100647,-0.640749990940094,-0.848924994468689
1747314347848022300,0.682022216796875,0.3638249933719635,-0.7225624918937683,-0.6217749714851379
1747314347857618200,0.6916181640625,0.297962486743927,-0.72861248254776,-0.41401249170303345
1747314347867213300,0.70121337890625,0.18424999713897705,-0.6077499985694885,-0.2747249901294708
1747314347876808000,0.710807861328125,0.2465374916791916,-0.31693750619888306,-0.27114999294281006
1747314347886402800,0.72040283203125,0.4152500033378601,0.12292499840259552,-0.27719998359680176
1747314347895999000,0.7299990234375,0.5752999782562256,0.561412513256073,-0.2881999909877777
1747314347905593900,0.73959375,0.7353500127792358,0.780174970626831,-0.2759625017642975
1747314347915188500,0.7491884765625,0.8207374811172485,0.8046500086784363,-0.24667499959468842
1747314347924783600,0.75878369140625,0.6643999814987183,0.6726499795913696,-0.18191249668598175
1747314347934379500,0.768379638671875,-0.10766249895095825,0.4258374869823456,-0.0976250022649765
1747314347943974700,0.777974609375,-0.891962468624115,0.24626250565052032,-0.009624999947845936
1747314347953569000,0.787569091796875,-0.7551500201225281,0.04592499881982803,-0.045099999755620956
1747314347963164200,0.7971640625,-0.30195000767707825,-0.10064999759197235,-0.10491249710321426
1747314347972760000,0.806760009765625,-0.047849997878074646,-0.040837500244379044,-0.07315000146627426
1747314347982355200,0.816355224609375,0.0719124972820282,0.09473749995231628,0.011137500405311584
1747314347991949600,0.825949462890625,0.19772499799728394,0.18878750503063202,0.09418749809265137
1747314348001544700,0.835544677734375,0.34072500467300415,0.28049999475479126,0.12718750536441803
1747314348011140600,0.845140625,0.4433000087738037,0.4405499994754791,0.09047500044107437
1747314348020735700,0.85473583984375,0.46777498722076416,0.6458374857902527,0.03671250119805336
1747314348030330000,0.864330078125,0.45058751106262207,0.7716500163078308,0.01966249942779541
1747314348039925200,0.87392529296875,0.42858749628067017,0.8009374737739563,0.0672374963760376
1747314348049521200,0.883521240234375,0.43230000138282776,0.8364124894142151,0.15399999916553497
1747314348059116500,0.893116455078125,0.47011250257492065,0.8864625096321106,0.2237125039100647
1747314348068710700,0.902710693359375,0.5361124873161316,0.8802750110626221,0.20047499239444733
1747314348078306000,0.91230615234375,0.5971624851226807,0.683650016784668,0.050187498331069946
1747314348087901700,0.921901611328125,0.6180624961853027,0.390500009059906,-0.1428624987602234
1747314348097497000,0.9314970703125,0.5886374711990356,0.22921249270439148,-0.24296249449253082
1747314348107091200,0.94109130859375,0.49211248755455017,0.08621250092983246,-0.2784374952316284
1747314348116686300,0.950686279296875,0.33701249957084656,-0.09336250275373459,-0.2857249975204468
1747314348126282200,0.9602822265625,0.17201249301433563,-0.25712499022483826,-0.2747249901294708
1747314348135877600,0.969877685546875,0.04496249929070473,-0.32670000195503235,-0.2857249975204468
1747314348145471700,0.9794716796875,-0.04413750022649765,-0.2326499968767166,-0.3359124958515167
1747314348155067000,0.98906689453125,-0.11742500215768814,0.0006874999962747097,-0.42625001072883606
1747314348164663000,0.9986630859375,-0.14685000479221344,0.2817375063896179,-0.5202999711036682
1747314348174258200,1.008258056640625,-0.13695000112056732,0.5406500101089478,-0.6155874729156494
1747314348183852500,1.0178525390625,-0.10889999568462372,0.7728874683380127,-0.7035874724388123
1747314348193447700,1.02744775390625,-0.07961250096559525,0.9670374989509583,-0.7255874872207642
1747314348203043600,1.037043701171875,-0.06613750010728836,1.0745625495910645,-0.6375874876976013
1747314348212638700,1.046638671875,-0.07590000331401825,1.0269875526428223,-0.4507249891757965
1747314348222233000,1.056233154296875,-0.10766249895095825,0.8474124670028687,-0.21367499232292175
1747314348231828200,1.065828125,-0.20913749933242798,0.5931749939918518,0.020899999886751175
1747314348241424100,1.075424072265625,-0.36176249384880066,0.30607500672340393,0.21876250207424164
1747314348251019300,1.085019287109375,-0.4399999976158142,0.0849749967455864,0.3312374949455261
1747314348260614000,1.09461376953125,-0.48647499084472656,-0.01759999990463257,0.3592875003814697
1747314348270208800,1.104208740234375,-0.510812520980835,0.004399999976158142,0.27871251106262207
1747314348279805000,1.113804931640625,-0.5145249962806702,0.15826250612735748,0.08442500233650208
1747314348289399800,1.12339990234375,-0.5340499877929688,0.33178749680519104,-0.05857500061392784
1747314348298994400,1.132994384765625,-0.5450500249862671,0.35378751158714294,-0.1428624987602234
1747314348308589600,1.142589599609375,-0.5084750056266785,0.29397499561309814,-0.2564375102519989
1747314348318185500,1.152185546875,-0.4339500069618225,0.19868749380111694,-0.35420000553131104
1747314348327780600,1.161780517578125,-0.3704249858856201,0.09597499668598175,-0.4324375092983246
1747314348337375000,1.171375,-0.3361875116825104,0.010449999943375587,-0.4982999861240387
1747314348346970000,1.18097021484375,-0.3386625051498413,-0.020075000822544098,-0.5240125060081482
1747314348356566000,1.19056591796875,-0.3544749915599823,0.023924998939037323,-0.5105375051498413
1747314348366161200,1.2001611328125,-0.32147499918937683,0.08621250092983246,-0.47519999742507935
1747314348375755800,1.209755859375,-0.21518750488758087,0.14973749220371246,-0.45196250081062317
1747314348385351000,1.219350830078125,-0.060087498277425766,0.22302499413490295,-0.4604874849319458
1747314348394946800,1.22894677734375,0.09515000134706497,0.30373749136924744,-0.48124998807907104
1747314348404542000,1.2385419921875,0.21119999885559082,0.3770250082015991,-0.4824874997138977
1747314348414136300,1.24813623046875,0.26977500319480896,0.4025999903678894,-0.4470124840736389
1747314348423731500,1.2577314453125,0.27348750829696655,0.32573750615119934,-0.39201250672340393
1747314348433327400,1.267327392578125,0.24172499775886536,0.17544999718666077,-0.3419624865055084
1747314348442922500,1.276922607421875,0.19043749570846558,0.020212499424815178,-0.3041499853134155
1747314348452516900,1.286516845703125,0.11096250265836716,-0.13859999179840088,-0.2576749920845032
1747314348462112000,1.296112060546875,-0.007562499959021807,-0.2937000095844269,-0.16843749582767487
1747314348471708000,1.3057080078125,-0.1358499974012375,-0.43546250462532043,-0.0695749968290329
1747314348481303000,1.315302978515625,-0.2274249941110611,-0.5454624891281128,-0.015812499448657036
1747314348490897400,1.3248974609375,-0.2689499855041504,-0.5979874730110168,-0.014574999921023846
1747314348500492800,1.334492919921875,-0.2689499855041504,-0.6015625,-0.040150001645088196
1747314348510088700,1.344088623046875,-0.25671249628067017,-0.5979874730110168,-0.08181250095367432
1747314348519683800,1.353683837890625,-0.2531374990940094,-0.5917999744415283,-0.12209999561309814
1747314348529278200,1.3632783203125,-0.2591874897480011,-0.5649874806404114,-0.14038750529289246
1747314348538873300,1.372873291015625,-0.281187504529953,-0.5417500138282776,-0.12333749979734421
1747314348548469200,1.38246923828125,-0.3166624903678894,-0.549037516117096,-0.07562500238418579
1747314348558064400,1.392064453125,-0.3605250120162964,-0.5710374712944031,-0.018287500366568565
1747314348567658800,1.40165869140625,-0.4119499921798706,-0.5857499837875366,0.047712501138448715
1747314348577254000,1.41125390625,-0.4620000123977661,-0.5795624852180481,0.10999999940395355
1747314348586849800,1.420849853515625,-0.5035250186920166,-0.5429875254631042,0.15771250426769257
1747314348596445000,1.43044482421875,-0.5352874994277954,-0.4769875109195709,0.19552500545978546
1747314348606039300,1.440039306640625,-0.5438125133514404,-0.3987500071525574,0.21752500534057617
1747314348615634400,1.449634521484375,-0.5242875218391418,-0.319412499666214,0.22495000064373016
1747314348625230300,1.459230224609375,-0.49252501130104065,-0.2424124926328659,0.22247499227523804
1747314348634825500,1.468825439453125,-0.46681249141693115,-0.20212499797344208,0.2102375030517578
1747314348644419800,1.478419921875,-0.4657124876976013,-0.21917499601840973,0.20047499239444733
1747314348654015000,1.488014892578125,-0.4877125024795532,-0.26317501068115234,0.20776249468326569
1747314348663611000,1.49761083984375,-0.5438125133514404,-0.31693750619888306,0.2480500042438507
1747314348673206000,1.5072060546875,-0.6355249881744385,-0.4049375057220459,0.3018124997615814
1747314348682800600,1.516800537109375,-0.7331500053405762,-0.5172749757766724,0.3115749955177307
1747314348692395800,1.526395751953125,-0.7893875241279602,-0.5564625263214111,0.2554749846458435
1747314348701991700,1.53599169921875,-0.7808625102043152,-0.4904625117778778,0.1601874977350235
1747314348711586800,1.5455869140625,-0.7160999774932861,-0.35241249203681946,0.047712501138448715
1747314348721181200,1.55518115234375,-0.619575023651123,-0.23017500340938568,-0.04262499883770943
1747314348730776300,1.5647763671875,-0.5230500102043152,-0.1886499971151352,-0.09638749808073044
1747314348740372200,1.574372314453125,-0.45223748683929443,-0.19359999895095825,-0.14038750529289246
1747314348749967400,1.58396728515625,-0.4240500032901764,-0.16307500004768372,-0.1929125040769577
1747314348759561700,1.593561767578125,-0.4265249967575073,-0.08112499862909317,-0.21615000069141388
1747314348769156900,1.603156982421875,-0.4460499882698059,0.011687500402331352,-0.16843749582767487
1747314348778752800,1.612752685546875,-0.44247499108314514,0.06544999778270721,-0.05004999786615372
1747314348788348000,1.622347900390625,-0.41071251034736633,0.06421250104904175,0.14918750524520874
1747314348797942300,1.6319423828125,-0.47052499651908875,0.06173750013113022,0.4105750024318695
1747314348807537400,1.641537353515625,-0.5730999708175659,0.12526249885559082,0.6476249694824219
1747314348817133300,1.65113330078125,-0.6355249881744385,0.17668749392032623,0.7979124784469604
1747314348826728400,1.660728515625,-0.6721000075340271,0.15344999730587006,0.8344874978065491
1747314348836322800,1.67032275390625,-0.7173374891281128,0.09226249903440475,0.7599624991416931
1747314348845918000,1.67991796875,-0.7661499977111816,0.014162499457597733,0.6133875250816345
1747314348855513900,1.689513916015625,-0.7856749892234802,-0.05664999783039093,0.4362874925136566
1747314348865109000,1.69910888671875,-0.7759125232696533,-0.11783749610185623,0.2774749994277954
1747314348874703600,1.70870361328125,-0.764912486076355,-0.18988749384880066,0.17723749577999115
1747314348884298800,1.718298828125,-0.7833374738693237,-0.271699994802475,0.13942499458789825
1747314348893894700,1.727894775390625,-0.8309124708175659,-0.3389374911785126,0.1504250019788742
1747314348903489800,1.73748974609375,-0.8969125151634216,-0.40369999408721924,0.1919499933719635
1747314348913084200,1.747084228515625,-0.9702000021934509,-0.46722498536109924,0.2554749846458435
1747314348922679300,1.75667919921875,-1.044724941253662,-0.5502749681472778,0.32628750801086426
1747314348932275200,1.766275146484375,-1.0997250080108643,-0.649275004863739,0.38609999418258667
1747314348941870300,1.775870361328125,-1.1302499771118164,-0.767799973487854,0.4240500032901764
1747314348951464700,1.785464599609375,-1.1449625492095947,-0.8496124744415283,0.4203374981880188
1747314348961059800,1.795059814453125,-1.1424875259399414,-0.8630874752998352,0.38128748536109924
1747314348970655700,1.80465576171875,-1.127774953842163,-0.8093249797821045,0.32628750801086426
1747314348989845200,1.82384521484375,-1.0679625272750854,-0.5527499914169312,0.2480500042438507
1747314348999440600,1.833440673828125,-1.03496253490448,-0.4366999864578247,0.24199999868869781
1747314349009036500,1.84303662109375,-1.0117249488830566,-0.3559874892234802,0.21752500534057617
1747314349018631700,1.852631591796875,-1.0202499628067017,-0.26936250925064087,0.14300000667572021
1747314349028226000,1.86222607421875,-1.0544874668121338,-0.15565000474452972,0.02694999985396862
1747314349037821000,1.871821044921875,-1.0874874591827393,-0.02983750030398369,-0.08910000324249268
1747314349047417000,1.8814169921875,-1.0936750173568726,0.08373750001192093,-0.15262499451637268
1747314349057012200,1.89101220703125,-1.0557249784469604,0.15468749403953552,-0.12209999561309814
1747314349085797600,1.919797607421875,-0.9079124927520752,-0.0017874999903142452,0.1639000028371811
1747314349095392800,1.929392822265625,-0.8944374918937683,-0.089649997651577,0.2139499932527542
1747314349104987100,1.938987060546875,-0.877387523651123,-0.17036250233650208,0.233474999666214
1747314349114582300,1.948582275390625,-0.8443874716758728,-0.22165000438690186,0.2237125039100647
1747314349124178200,1.95817822265625,-0.7966749668121338,-0.24722500145435333,0.21147499978542328
1747314349133773300,1.967773193359375,-0.7393375039100647,-0.27665001153945923,0.22618749737739563
1747314349143367700,1.97736767578125,-0.6793875098228455,-0.31075000762939453,0.2579500079154968
1747314349152963000,1.986963134765625,-0.6257625222206116,-0.34498751163482666,0.27252501249313354
1747314349162559000,1.99655908203125,-0.5878124833106995,-0.40369999408721924,0.25671249628067017
1747314349172154000,2.006154052734375,-0.5670499801635742,-0.4904625117778778,0.21752500534057617
1747314349181748500,2.01574853515625,-0.5670499801635742,-0.5759875178337097,0.1564749926328659
1747314349191343600,2.025343505859375,-0.5792874693870544,-0.6382749676704407,0.08937499672174454
1747314349200939500,2.034939453125,-0.5817624926567078,-0.676087498664856,0.037950001657009125
1747314349210534700,2.04453466796875,-0.5695250034332275,-0.6736124753952026,0.006187499966472387
1747314349220129000,2.05412890625,-0.5475249886512756,-0.6235625147819519,-0.015812499448657036
1747314349229724200,2.06372412109375,-0.5230500102043152,-0.5355625152587891,-0.0193875003606081
1747314349239320000,2.073320068359375,-0.5010499954223633,-0.4402749836444855,-0.007149999961256981
1747314349248915200,2.082915283203125,-0.47671249508857727,-0.34017500281333923,0.007424999959766865
1747314349258509600,2.092509521484375,-0.44852501153945923,-0.2424124926328659,0.02213750034570694
1747314349268104700,2.102104736328125,-0.41676250100135803,-0.15565000474452972,0.02694999985396862
1747314349277700600,2.11170068359375,-0.37523749470710754,-0.09212499856948853,0.01966249942779541
1747314349287295700,2.121295654296875,-0.3386625051498413,-0.055412501096725464,0.018424998968839645
1747314349296890000,2.13089013671875,-0.31418749690055847,-0.04331250116229057,0.02694999985396862
1747314349306485200,2.1404853515625,-0.3007124960422516,-0.06283749639987946,0.045375000685453415
1747314349316081400,2.150081298828125,-0.3031874895095825,-0.09212499856948853,0.06366249918937683
1747314349325676500,2.159676513671875,-0.31776249408721924,-0.10917499661445618,0.08566249907016754
1747314349335271000,2.16927099609375,-0.3264249861240387,-0.10807500034570694,0.10642500221729279
1747314349344866000,2.178865966796875,-0.32023748755455017,-0.10559999942779541,0.11866249889135361
1747314349354462000,2.1884619140625,-0.3007124960422516,-0.10917499661445618,0.11013749986886978
1747314349364057000,2.19805712890625,-0.27994999289512634,-0.10559999942779541,0.08442500233650208
1747314349373651500,2.2076513671875,-0.2652375102043152,-0.08112499862909317,0.052662499248981476
1747314349383246600,2.21724658203125,-0.23966249823570251,-0.048124998807907104,0.030662499368190765
1747314349392842500,2.226842529296875,-0.21037499606609344,-0.057887498289346695,0.018424998968839645
1747314349402437600,2.236437744140625,-0.19318750500679016,-0.08483749628067017,0.0013749999925494194
1747314349412032000,2.246031982421875,-0.18713749945163727,-0.10064999759197235,-0.009624999947845936
1747314349421627100,2.255627197265625,-0.1859000027179718,-0.11288750171661377,0.0013749999925494194
1747314349431223000,2.26522314453125,-0.19442500174045563,-0.133650004863739,0.02694999985396862
1747314349440818400,2.274818359375,-0.21271249651908875,-0.16788749396800995,0.059950001537799835
1747314349450412800,2.284412841796875,-0.23471249639987946,-0.20336249470710754,0.07947500050067902
1747314349460008000,2.294008056640625,-0.25189998745918274,-0.21546250581741333,0.10023749619722366
1747314349469603800,2.303603759765625,-0.26413750648498535,-0.20212499797344208,0.12966249883174896
1747314349479199000,2.313198974609375,-0.2677125036716461,-0.17036250233650208,0.17366249859333038
1747314349488793300,2.32279345703125,-0.2628999948501587,-0.15193749964237213,0.23223750293254852
1747314349498388700,2.332388671875,-0.2554749846458435,-0.133650004863739,0.27252501249313354
1747314349507984600,2.341984619140625,-0.2579500079154968,-0.06159999966621399,0.2737624943256378
1747314349517579500,2.35157958984375,-0.2689499855041504,0.06792499870061874,0.23471249639987946
1747314349527174100,2.361174072265625,-0.2689499855041504,0.21326249837875366,0.15771250426769257
1747314349536769000,2.37076904296875,-0.2457125037908554,0.334262490272522,0.052662499248981476
1747314349546365200,2.380365234375,-0.21147499978542328,0.40507498383522034,-0.062150001525878906
1747314349555960000,2.3899599609375,-0.18095000088214874,0.4222624897956848,-0.15496249496936798
1747314349565554700,2.3995546875,-0.17118750512599945,0.39902499318122864,-0.202674999833107
1747314349575149800,2.40914990234375,-0.17737500369548798,0.3502124845981598,-0.20624999701976776
1747314349584745700,2.418745849609375,-0.18342499434947968,0.279262512922287,-0.18067499995231628
1747314349594340900,2.4283408203125,-0.18466250598430634,0.18521249294281006,-0.13420000672340393
1747314349603935200,2.437935302734375,-0.18837499618530273,0.08139999955892563,-0.07796250283718109
1747314349613530600,2.447530517578125,-0.18342499434947968,-0.004124999977648258,-0.02667500078678131
1747314349623126300,2.457126220703125,-0.1601874977350235,-0.07136250287294388,0.011137500405311584
1747314349632721700,2.4667216796875,-0.12113749980926514,-0.11769999563694,0.02708750031888485
1747314349642315800,2.476315673828125,-0.06132499873638153,-0.14093749225139618,0.020899999886751175
1747314349651911000,2.485910888671875,-0.0013749999925494194,-0.1531749963760376,0.005087499972432852
1747314349661507000,2.495507080078125,0.03162499889731407,-0.16417500376701355,-0.015675000846385956
1747314349671102200,2.505102294921875,0.03396249935030937,-0.18012499809265137,-0.02914999984204769
1747314349680696600,2.514696533203125,0.022962499409914017,-0.19222499430179596,-0.0340999998152256
1747314349690292000,2.5242919921875,0.013199999928474426,-0.19593749940395355,-0.032862499356269836
1747314349699887600,2.5338876953125,0.008387500420212746,-0.18741250038146973,-0.03162499889731407
1747314349709483000,2.54348291015625,0.007149999961256981,-0.16046249866485596,-0.015675000846385956
1747314349719077000,2.5530771484375,0.0034374999813735485,-0.13241249322891235,0.023375000804662704
1747314349728672500,2.562672607421875,0.0034374999813735485,-0.10793749988079071,0.08195000141859055
1747314349738268200,2.57226806640625,0.011962499469518661,-0.0859375,0.13571250438690186
1747314349747863600,2.581863525390625,0.030387500301003456,-0.04936249926686287,0.16266250610351562
1747314349757458000,2.5914580078125,0.049912501126527786,-0.004124999977648258,0.1541374921798706
1747314349767053000,2.601052978515625,0.06696250289678574,0.04468749836087227,0.11261250078678131
1747314349776649000,2.61064892578125,0.08291249722242355,0.09844999760389328,0.03437500074505806
1747314349786244000,2.620244140625,0.1036750003695488,0.15344999730587006,-0.07562500238418579
1747314349795838200,2.629838134765625,0.12815000116825104,0.2059749960899353,-0.20019999146461487
1747314349805433600,2.63943359375,0.1451999992132187,0.24268749356269836,-0.3114374876022339
1747314349815029800,2.64902978515625,0.14891250431537628,0.27073749899864197,-0.38830000162124634
1747314349824624600,2.658624755859375,0.1354375034570694,0.2657875120639801,-0.42006251215934753
1747314349834219300,2.66821923828125,0.1097249984741211,0.22192500531673431,-0.4078249931335449
1747314349843814400,2.677814453125,0.08538749814033508,0.13516250252723694,-0.35530000925064087
1747314349853410300,2.687410400390625,0.05719999969005585,-0.010312499478459358,-0.2807750105857849
1747314349863005400,2.69700537109375,0.018149999901652336,-0.19112500548362732,-0.20624999701976776
1747314349872599800,2.706599853515625,-0.04166249930858612,-0.36822500824928284,-0.1451999992132187
1747314349882195000,2.71619482421875,-0.11742500215768814,-0.5050374865531921,-0.1036750003695488
1747314349891790800,2.725790771484375,-0.18837499618530273,-0.5868499875068665,-0.08415000140666962
1747314349901386000,2.735385986328125,-0.23594999313354492,-0.6052749752998352,-0.07562500238418579
1747314349910980400,2.74498046875,-0.24818749725818634,-0.5685625076293945,-0.05843750014901161
1747314349920575500,2.754575439453125,-0.24695000052452087,-0.5087500214576721,-0.0193875003606081
1747314349930171600,2.764171630859375,-0.25671249628067017,-0.43779999017715454,0.023375000804662704
1747314349939766500,2.7737666015625,-0.27623748779296875,-0.36822500824928284,0.057612501084804535
1747314349949361200,2.783361083984375,-0.296999990940094,-0.30469998717308044,0.07095000147819519
1747314349958956300,2.792956298828125,-0.30566251277923584,-0.25575000047683716,0.05389999970793724
1747314349968552200,2.80255224609375,-0.29823750257492065,-0.2008875012397766,0.006324999965727329
1747314349978147300,2.812147216796875,-0.27623748779296875,-0.14217500388622284,-0.05967500060796738
1747314349987741700,2.82174169921875,-0.2433750033378601,-0.09583749622106552,-0.12815000116825104
1747314349997336800,2.8313369140625,-0.21518750488758087,-0.0541750006377697,-0.18548749387264252
1747314350006932700,2.8409326171875,-0.19689999520778656,0.0006874999962747097,-0.22824999690055847
1747314350016528000,2.85052783203125,-0.18466250598430634,0.04839999973773956,-0.24901250004768372
1747314350026122200,2.860122314453125,-0.18342499434947968,0.05321250110864639,-0.24791249632835388
1747314350035717400,2.86971728515625,-0.17613749206066132,0.03135000169277191,-0.23567499220371246
1747314350045313300,2.879313232421875,-0.1601874977350235,-0.009074999950826168,-0.2149125039577484
1747314350054908700,2.88890869140625,-0.14794999361038208,-0.06407500058412552,-0.19538749754428864
1747314350064503000,2.8985029296875,-0.14190000295639038,-0.12759999930858612,-0.18548749387264252
1747314350074098200,2.90809814453125,-0.13942499458789825,-0.19841249287128448,-0.17572499811649323
1747314350083694000,2.917694091796875,-0.14561249315738678,-0.2656500041484833,-0.1611499935388565
1747314350093289200,2.927289306640625,-0.16266250610351562,-0.31817498803138733,-0.13791249692440033
1747314350102883600,2.936883544921875,-0.1919499933719635,-0.3669874966144562,-0.10243749618530273
1747314350112478700,2.946478759765625,-0.22247499227523804,-0.4147000014781952,-0.04743750020861626
1747314350122074600,2.95607470703125,-0.24695000052452087,-0.4487999975681305,0.023375000804662704
1747314350131669800,2.965669677734375,-0.26647499203681946,-0.4745124876499176,0.0966624990105629
1747314350141264100,2.97526416015625,-0.2872374951839447,-0.4940375089645386,0.15771250426769257
1747314350150859300,2.984859375,-0.30799999833106995,-0.48551249504089355,0.19923749566078186
1747314350160455200,2.994455078125,-0.3251875042915344,-0.454987496137619,0.22247499227523804
1747314350170050600,3.004050537109375,-0.3422375023365021,-0.42570000886917114,0.23718750476837158
1747314350179645000,3.01364501953125,-0.35571250319480896,-0.3852750062942505,0.2494249939918518
1747314350189240000,3.023239990234375,-0.3630000054836273,-0.33274999260902405,0.2616625130176544
1747314350198836000,3.0328359375,-0.36547499895095825,-0.28146249055862427,0.2872374951839447
1747314350208431000,3.04243115234375,-0.3630000054836273,-0.25946250557899475,0.3287625014781952
1747314350218025500,3.052025390625,-0.35571250319480896,-0.2839374840259552,0.353237509727478
1747314350227620900,3.061620849609375,-0.34347498416900635,-0.3022249937057495,0.2994749844074249
1747314350237216500,3.071216552734375,-0.3312374949455261,-0.2484624981880188,0.17847499251365662
1747314350246812000,3.08081201171875,-0.296999990940094,-0.1471250057220459,0.04895000159740448
1747314350256406000,3.090406005859375,-0.23594999313354492,-0.04688749834895134,-0.04633750021457672
1747314350266001400,3.10000146484375,-0.17861250042915344,0.012924999929964542,-0.08786249905824661
1747314350275597300,3.109597412109375,-0.15166249871253967,0.016637500375509262,-0.07562500238418579
1747314350285192400,3.1191923828125,-0.15895000100135803,-0.03231250122189522,-0.05362499877810478
1747314350294786800,3.128786865234375,-0.1821874976158142,-0.0798875018954277,-0.037675000727176666
1747314350304382000,3.1383818359375,-0.20542499423027039,-0.10188750177621841,-0.009624999947845936
1747314350313977900,3.147977783203125,-0.2139499932527542,-0.11769999563694,0.025849999859929085
1747314350323573000,3.157572998046875,-0.201712504029274,-0.15565000474452972,0.059950001537799835
1747314350333167600,3.167167724609375,-0.18713749945163727,-0.21546250581741333,0.07713750004768372
1747314350342762500,3.176762451171875,-0.18342499434947968,-0.2741749882698059,0.07218749821186066
1747314350352358700,3.186358642578125,-0.1956624984741211,-0.31817498803138733,0.05142499879002571
1747314350361953800,3.195953857421875,-0.2176624983549118,-0.34869998693466187,0.028187500312924385
1747314350371548200,3.205548095703125,-0.23842500150203705,-0.35846251249313354,0.011137500405311584
1747314350381143300,3.215143310546875,-0.25423750281333923,-0.3499374985694885,0.011137500405311584
1747314350390739200,3.2247392578125,-0.26042500138282776,-0.3315125107765198,0.025849999859929085
1747314350400334300,3.234334228515625,-0.2616625130176544,-0.31322500109672546,0.04661250114440918
1747314350409928700,3.2439287109375,-0.272662490606308,-0.30346250534057617,0.059950001537799835
1747314350419523800,3.25352392578125,-0.29218751192092896,-0.2997500002384186,0.07218749821186066
1747314350429119700,3.26311962890625,-0.32023748755455017,-0.30951249599456787,0.08813749998807907
1747314350438715000,3.27271484375,-0.353237509727478,-0.31817498803138733,0.10518749803304672
1747314350448309500,3.2823095703125,-0.3899500072002411,-0.31322500109672546,0.11742500215768814
1747314350457904600,3.291904541015625,-0.4204750061035156,-0.2924624979496002,0.1344749927520752
1747314350467500500,3.30150048828125,-0.4437125027179718,-0.25341248512268066,0.1662375032901764
1747314350477095700,3.311095703125,-0.4717625081539154,-0.2167000025510788,0.2102375030517578
1747314350486690000,3.32068994140625,-0.5084750056266785,-0.18136249482631683,0.2591874897480011
1747314350496285200,3.33028515625,-0.5523374676704407,-0.1396999955177307,0.3007124960422516
1747314350505881000,3.339881103515625,-0.6000499725341797,-0.10436250269412994,0.3324750065803528
1747314350515476200,3.349476318359375,-0.6367624998092651,-0.06159999966621399,0.3482874929904938
1747314350525070600,3.359070556640625,-0.6635749936103821,-0.02488750033080578,0.3507624864578247
1747314350534665700,3.368665771484375,-0.685575008392334,-0.0005499999970197678,0.33976250886917114
1747314350544261600,3.37826171875,-0.7013875246047974,0.03739999979734421,0.31171250343322754
1747314350553856800,3.387856689453125,-0.7038624882698059,0.08992499858140945,0.2737624943256378
1747314350563451400,3.397451416015625,-0.6868125200271606,0.14973749220371246,0.22495000064373016
1747314350573046300,3.40704638671875,-0.6550499796867371,0.21821250021457672,0.1639000028371811
1747314350582642400,3.416642333984375,-0.6183375120162964,0.2866874933242798,0.09542500227689743
1747314350592237600,3.426237548828125,-0.5865749716758728,0.35749998688697815,0.030662499368190765
1747314350601832000,3.43583203125,-0.5645750164985657,0.4137375056743622,-0.007149999961256981
1747314350611427300,3.44542724609375,-0.5523374676704407,0.4355999827384949,-0.002337499987334013
1747314350621023000,3.45502294921875,-0.546287477016449,0.4100250005722046,0.035612501204013824
1747314350630618400,3.464618408203125,-0.5425750017166138,0.33550000190734863,0.10395000129938126
1747314350640212500,3.47421240234375,-0.5389999747276306,0.2340250015258789,0.19689999520778656
1747314350649808000,3.483807861328125,-0.5352874994277954,0.1289750039577484,0.3092375099658966
1747314350659403800,3.49340380859375,-0.5242875218391418,0.0411125011742115,0.41071251034736633
1747314350668999000,3.5029990234375,-0.4998124837875366,-0.04207500070333481,0.4632374942302704
1747314350678593000,3.512593017578125,-0.4582875072956085,-0.10917499661445618,0.45333749055862427
1747314350688188400,3.5221884765625,-0.408237487077713,-0.1531749963760376,0.3984749913215637
1747314350697784300,3.531784423828125,-0.36547499895095825,-0.19470000267028809,0.32628750801086426
1747314350707379500,3.54137939453125,-0.3507624864578247,-0.23017500340938568,0.2494249939918518
1747314350716974000,3.55097412109375,-0.3704249858856201,-0.2387000024318695,0.18095000088214874
1747314350726569000,3.56056884765625,-0.4094749987125397,-0.2582249939441681,0.13695000112056732
1747314350736165000,3.5701650390625,-0.4620000123977661,-0.3022249937057495,0.12361250072717667
1747314350745760300,3.57976025390625,-0.5084750056266785,-0.34498751163482666,0.12594999372959137
1747314350755354600,3.589354736328125,-0.510812520980835,-0.35227498412132263,0.12594999372959137
1747314350764949800,3.59894970703125,-0.45704999566078186,-0.28517499566078186,0.11495000123977661
1747314350774545700,3.608545654296875,-0.3667125105857849,-0.12870000302791595,0.08318749815225601
1747314350784140800,3.618140869140625,-0.26042500138282776,0.06792499870061874,0.045375000685453415
1747314350793735400,3.6277353515625,-0.14794999361038208,0.2475000023841858,0.01484999991953373
1747314350803330600,3.63733056640625,-0.055137500166893005,0.3684999942779541,0.007424999959766865
1747314350812926500,3.646926513671875,-0.02461249940097332,0.4137375056743622,0.012374999932944775
1747314350822521600,3.656521484375,-0.06984999775886536,0.38554999232292175,0.012374999932944775
1747314350832116000,3.666115966796875,-0.14685000479221344,0.2854500114917755,0.02708750031888485
1747314350841711000,3.675711181640625,-0.21518750488758087,0.14121249318122864,0.057612501084804535
1747314350851307300,3.685307373046875,-0.24089999496936798,0.010449999943375587,0.07218749821186066
1747314350860902100,3.694902099609375,-0.201712504029274,-0.08112499862909317,0.0648999959230423
1747314350870496800,3.704496826171875,-0.0943249985575676,-0.1214125007390976,0.03189999982714653
1747314350880091600,3.714091552734375,0.04386249929666519,-0.08112499862909317,-0.01691249944269657
1747314350889687800,3.723687744140625,0.1574375033378601,0.006874999962747097,-0.0681999996304512
1747314350899283000,3.733282958984375,0.2124374955892563,0.06311249732971191,-0.11838749796152115
1747314350908877300,3.742877197265625,0.19772499799728394,0.07397499680519104,-0.17448750138282776
1747314350918472400,3.752472412109375,0.13296249508857727,0.03863750025629997,-0.21972499787807465
1747314350928068400,3.762068359375,0.049912501126527786,-0.016362499445676804,-0.24543750286102295
1747314350937663700,3.771663818359375,-0.04908749833703041,-0.060362499207258224,-0.25519999861717224
1747314350947258000,3.781258056640625,-0.13461250066757202,-0.045649997889995575,-0.25148749351501465
1747314350956853200,3.790853271484375,-0.1896124929189682,0.03135000169277191,-0.23319999873638153
1747314350966449200,3.80044921875,-0.1993750035762787,0.1839749962091446,-0.21972499787807465
1747314350976044300,3.810044189453125,-0.14066250622272491,0.3940750062465668,-0.2087250053882599
1747314350985638700,3.819638671875,-0.04413750022649765,0.6030749678611755,-0.18796250224113464
1747314350995234000,3.829234130859375,0.02186249941587448,0.7704125046730042,-0.18438750505447388
1747314351004829700,3.83882958984375,0.0364375002682209,0.849887490272522,-0.21119999885559082
1747314351014425000,3.848425048828125,0.011962499469518661,0.8644624948501587,-0.2686749994754791
1747314351024019200,3.858019287109375,-0.050324998795986176,0.8596500158309937,-0.3394874930381775
1747314351033614600,3.867614501953125,-0.14313749969005585,0.8486499786376953,-0.38830000162124634
1747314351043210500,3.87721044921875,-0.28847500681877136,0.8486499786376953,-0.40796250104904175
1747314351052805600,3.8868056640625,-0.44728749990463257,0.8204625248908997,-0.4310624897480011
1747314351062400000,3.89639990234375,-0.5170000195503235,0.7741249799728394,-0.48372501134872437
1747314351071995100,3.9059951171875,-0.4680500030517578,0.8436999917030334,-0.547249972820282
1747314351081591000,3.915591064453125,-0.37400001287460327,1.034274935722351,-0.5875374674797058
1747314351091186200,3.925186279296875,-0.2994749844074249,1.2640374898910522,-0.6217749714851379
1747314351100780500,3.934780517578125,-0.24323749542236328,1.4679499864578247,-0.6217749714851379
1747314351110375700,3.944375732421875,-0.1601874977350235,1.6134250164031982,-0.5483499765396118
1747314351119971600,3.9539716796875,-0.057612501084804535,1.7147624492645264,-0.4347749948501587
1747314351129566700,3.963566650390625,0.0010999999940395355,1.7965749502182007,-0.3577750027179718
1747314351139161000,3.9731611328125,-0.04413750022649765,1.8870500326156616,-0.3492499887943268
1747314351148756200,3.982756103515625,-0.1956624984741211,2.0201499462127686,-0.4054875075817108
1747314351158352400,3.992352294921875,-0.35694998502731323,2.2046749591827393,-0.492249995470047
1747314351167947300,4.001947265625,-0.4094749987125397,2.4001998901367188,-0.5130124688148499
1747314351177542000,4.0115419921875,-0.3484250009059906,2.668874979019165,-0.48124998807907104
1747314351187137000,4.021136962890625,-0.27623748779296875,2.9596874713897705,-0.5533000230789185
1747314351196733000,4.03073291015625,-0.23471249639987946,3.114924907684326,-0.7976375222206116
1747314351206328000,4.040328125,-0.22247499227523804,3.0806875228881836,-1.0907875299453735
1747314351215922400,4.04992236328125,-0.2579500079154968,2.874162435531616,-1.3535499572753906
1747314351225517800,4.059517822265625,-0.3251875042915344,2.4747250080108643,-1.5685999393463135
1747314351235113500,4.069113525390625,-0.39476248621940613,2.0263373851776123,-1.6834124326705933
1747314351244708900,4.078708984375,-0.4375250041484833,1.6805249452590942,-1.6576999425888062
1747314351254303000,4.088302978515625,-0.44728749990463257,1.519374966621399,-1.5111249685287476
1747314351263898400,4.0978984375,-0.4582875072956085,1.5719000101089478,-1.2704999446868896
1747314351273494000,4.107493896484375,-0.5084750056266785,1.7770500183105469,-1.006500005722046
1747314351283089400,4.11708935546875,-0.6220499873161316,2.049575090408325,-0.7646374702453613
1747314351292683500,4.12668359375,-0.7930999994277954,2.334199905395508,-0.5545374751091003
1747314351302279000,4.13627880859375,-0.9799624681472778,2.540724992752075,-0.40424999594688416
1747314351311875000,4.145875,-1.1204874515533447,2.68111252784729,-0.32725000381469727
1747314351321470000,4.155469970703125,-1.193774938583374,2.8094000816345215,-0.317487508058548
1747314351331064600,4.165064697265625,-1.2243000268936157,2.8888750076293945,-0.35420000553131104
1747314351340659500,4.174659423828125,-1.2402499914169312,2.921875,-0.4017750024795532
1747314351350255600,4.184255615234375,-1.2585375308990479,2.891350030899048,-0.40053749084472656
1747314351359850800,4.193850830078125,-1.3085875511169434,2.8533999919891357,-0.3749625086784363
1747314351369445000,4.203445068359375,-1.3831125497817993,2.733637571334839,-0.31501248478889465
1747314351379040300,4.213040283203125,-1.5333999395370483,2.5602500438690186,-0.28696250915527344
1747314351388636200,4.22263623046875,-1.7399250268936157,2.335437536239624,-0.2784374952316284
1747314351398231600,4.2322314453125,-1.9635000228881836,2.117912530899048,-0.2699125111103058
1747314351407826000,4.241825927734375,-2.1785500049591064,1.9468624591827393,-0.32243749499320984
1747314351417421000,4.251421142578125,-2.35441255569458,1.7648124694824219,-0.4433000087738037
1747314351427017000,4.261016845703125,-2.4937000274658203,1.6304750442504883,-0.608299970626831
1747314351436612000,4.270612060546875,-2.5902249813079834,1.6561875343322754,-0.8086374998092651
1747314351446206500,4.28020654296875,-2.678225040435791,1.807574987411499,-0.9979749917984009
1747314351455801600,4.289801513671875,-2.7832748889923096,2.0165750980377197,-1.1165000200271606
1747314351465397800,4.299397705078125,-2.911562442779541,2.252387523651123,-1.1567875146865845
1747314351474992600,4.30899267578125,-3.076425075531006,2.568774938583374,-1.1312124729156494
1747314351484587300,4.318587158203125,-3.2779998779296875,2.8888750076293945,-1.0480250120162964
1747314351494182100,4.32818212890625,-3.4772374629974365,2.7983999252319336,-1.0737375020980835
1747314351503778300,4.3377783203125,-3.8339123725891113,3.072162389755249,-1.1617374420166016
1747314351513373400,4.34737353515625,-4.1882500648498535,3.7501749992370605,-1.0432125329971313
1747314351522967800,4.3569677734375,-4.268825054168701,4.231562614440918,-0.5900124907493591
1747314351532563200,4.366563232421875,-4.161300182342529,4.552762508392334,0.03918749839067459
1747314351542159000,4.3761591796875,-3.9866750240325928,4.830100059509277,0.62933748960495
1747314351551754200,4.385754150390625,-3.785099983215332,5.054912567138672,1.0947749614715576
1747314351561348400,4.395348388671875,-3.6005749702453613,5.208912372589111,1.4539250135421753
1747314351570943700,4.40494384765625,-3.48933744430542,5.224724769592285,1.7509249448776245
1747314351580539600,4.41453955078125,-3.4344749450683594,5.103862285614014,2.011075019836426
1747314351590134800,4.424134765625,-3.3562374114990234,4.847287654876709,2.240837574005127
1747314351599729400,4.4337294921875,-3.2084250450134277,4.35984992980957,2.4349875450134277
1747314351609324300,4.44332421875,-2.9848499298095703,3.554650068283081,2.557224988937378
1747314351618920400,4.45292041015625,-2.6745123863220215,2.499199867248535,2.5767500400543213
1747314351628515600,4.462515625,-2.3178374767303467,1.3605624437332153,2.516937494277954
1747314351638110000,4.47210986328125,-1.989074945449829,0.2670249938964844,2.411750078201294
1747314351647705000,4.481705078125,-1.7423999309539795,-0.7028999924659729,2.2518374919891357
1747314351657301000,4.491301025390625,-1.6226375102996826,-1.5043874979019165,2.066075086593628
1747314351666896100,4.500896240234375,-1.5138750076293945,-2.1250624656677246,1.9487874507904053
1747314351676490500,4.510490478515625,-1.3355374336242676,-2.628312587738037,1.901075005531311
1747314351686085600,4.520085693359375,-1.1204874515533447,-2.9863624572753906,1.8852624893188477
1747314351695681800,4.529681884765625,-0.9054374694824219,-3.233175039291382,1.9280250072479248
1747314351705276700,4.539276611328125,-0.6672874689102173,-3.33451247215271,2.1015501022338867
1747314351714871300,4.548871337890625,-0.40328750014305115,-3.0804123878479004,2.412987470626831
1747314351724466200,4.558466064453125,-0.11261250078678131,-2.6149749755859375,2.813800096511841
1747314351743657700,4.57765771484375,0.5666375160217285,-1.2282874584197998,3.380574941635132
1747314351753251800,4.587251953125,0.8916875123977661,-0.3620375096797943,3.406287431716919
1747314351762847200,4.59684716796875,1.203262448310852,0.4357374906539917,3.3207623958587646
1747314351772443000,4.60644287109375,1.5134625434875488,1.2480875253677368,3.1264750957489014
1747314351782038300,4.616038330078125,1.8262749910354614,2.0385749340057373,2.7685625553131104
1747314351791632600,4.625632568359375,2.1366124153137207,2.771587371826172,2.014787435531616
1747314351810824000,4.644823974609375,2.3955249786376953,4.904624938964844,1.0496749877929688
1747314351820418800,4.654418701171875,2.608099937438965,5.662112236022949,0.9751499891281128
1747314351839608300,4.6736083984375,3.7309250831604004,7.691474914550781,1.1547249555587769
1747314351849204500,4.68320458984375,3.9214999675750732,8.045675277709961,1.5186874866485596
1747314351868394000,4.70239404296875,3.148200035095215,6.640699863433838,1.4625874757766724
1747314351877989000,4.711989013671875,2.632575035095215,5.32001256942749,1.4112999439239502
1747314351897180200,4.73118017578125,2.6716248989105225,2.783824920654297,1.0410125255584717
1747314351906774500,4.7407744140625,2.890387535095215,1.9420499801635742,0.8578624725341797
1747314351925965600,4.759965576171875,3.3192498683929443,1.042799949645996,0.685575008392334
1747314351954750500,4.78875048828125,2.4492874145507812,-0.02736249938607216,-0.48606249690055847
1747314351964346400,4.798346435546875,2.033900022506714,0.15468749403953552,-0.45925000309944153
1747314351973941500,4.80794140625,1.9093250036239624,0.10339999943971634,-0.11467500030994415
1747314351983535900,4.817535888671875,1.906849980354309,0.011687500402331352,0.31171250343322754
1747314351993131000,4.827131103515625,1.881274938583374,0.09116250276565552,0.6573874950408936
1747314352002727000,4.836726806640625,1.9045125246047974,0.03863750025629997,1.022724986076355
1747314352021916400,4.85591650390625,1.5001250505447388,-0.3620375096797943,1.7399250268936157
1747314352031511600,4.865511474609375,1.2435499429702759,-0.5685625076293945,1.9450750350952148
1747314352041107700,4.875107666015625,1.0687874555587769,-0.6723750233650208,2.124650001525879
1747314352050702600,4.88470263671875,0.8476874828338623,-0.74566251039505,2.3581249713897705
1747314352060297000,4.894296875,0.5410624742507935,-0.811662495136261,2.615799903869629
1747314352069892000,4.90389208984375,0.2844874858856201,-0.74566251039505,2.804037570953369
1747314352079488300,4.91348828125,0.10119999945163727,-0.5465624928474426,2.8516125679016113
1747314352089083400,4.92308349609375,-0.08442500233650208,-0.2961750030517578,2.778325080871582
1747314352098677800,4.932677734375,-0.3679499924182892,-0.060362499207258224,2.753849983215332
1747314352108273000,4.94227294921875,-0.5095750093460083,0.13750000298023224,2.461937427520752
1747314352117868800,4.951868896484375,-0.7673875093460083,0.17916250228881836,2.0758373737335205
1747314352127464000,4.9614638671875,-1.1547249555587769,0.03368749842047691,1.5626875162124634
1747314352137058300,4.971058349609375,-1.4625874757766724,-0.3096500039100647,0.9824374914169312
1747314352146653400,4.9806533203125,-1.6849249601364136,-0.7750874757766724,0.37152498960494995
1747314352156249300,4.990249267578125,-1.8804500102996826,-1.1330000162124634,-0.2502500116825104
1747314352185034200,5.0190341796875,-2.4974124431610107,-0.911899983882904,-1.0542124509811401
1747314352204225300,5.038225341796875,-2.9249000549316406,-1.1684750318527222,-0.9124500155448914
1747314352213819600,5.047819580078125,-3.2009999752044678,-1.2332375049591064,-0.7536374926567078
1747314352223414800,5.057414794921875,-3.5468125343322754,-1.288237452507019,-0.516587495803833
1747314352233011000,5.067010986328125,-3.815624952316284,-1.4018124341964722,-0.23319999873638153
1747314352242606000,5.076606201171875,-3.9584875106811523,-1.3932875394821167,0.02694999985396862
1747314352280986600,5.114986572265625,-4.157724857330322,-2.6454999446868896,-0.2149125039577484
1747314352290581000,5.1245810546875,-3.9426748752593994,-3.468987464904785,-0.3639625012874603
1747314352300176100,5.134176025390625,-3.6018123626708984,-4.209287643432617,-0.4347749948501587
1747314352309772300,5.143772216796875,-3.2597124576568604,-4.778537273406982,-0.41029998660087585
1747314352319367400,5.153367431640625,-2.9774250984191895,-5.404162406921387,-0.3590124845504761
1747314352328961800,5.1629619140625,-2.7563250064849854,-5.793837547302246,-0.45182499289512634
1747314352348152800,5.18215283203125,-2.531512498855591,-6.141987323760986,-0.6803500056266785
1747314352367342600,5.201342529296875,-2.119837522506714,-5.266112327575684,-0.15991249680519104
1747314352376937500,5.2109375,-1.9903124570846558,-4.311862468719482,0.44728749990463257
1747314352386533600,5.22053369140625,-1.9635000228881836,-3.306462526321411,1.1815375089645386
1747314352396128500,5.23012841796875,-2.151599884033203,-2.0272998809814453,1.8462125062942505
1747314352405723100,5.23972314453125,-2.3617000579833984,-1.2355749607086182,2.2481250762939453
1747314352415318300,5.249318359375,-2.2506000995635986,-0.9619500041007996,2.431274890899658
1747314352424914200,5.2589140625,-1.9243124723434448,-1.2355749607086182,2.507037401199341
1747314352434509600,5.268509521484375,-1.82173752784729,-0.9974250197410583,2.4447500705718994
1747314352444103700,5.278103759765625,-1.7582124471664429,-0.5075125098228455,2.353174924850464
1747314352453699000,5.287698974609375,-1.5188249349594116,-0.1629374921321869,2.21512508392334
1747314352463295000,5.297294921875,-1.1082500219345093,-0.04441250115633011,1.7654999494552612
1747314352472890000,5.30689013671875,-0.5853375196456909,-0.14836250245571136,0.8992499709129333
1747314352482484700,5.316484619140625,-0.18713749945163727,-0.40851250290870667,-0.30896249413490295
1747314352492079600,5.32607958984375,0.1451999992132187,-0.5197499990463257,-1.6784625053405762
1747314352501675800,5.33567578125,0.42625001072883606,-0.17270000278949738,-2.3259499073028564
1747314352511271000,5.34527099609375,0.699874997138977,0.15344999730587006,-2.3113749027252197
1747314352520865300,5.354865234375,0.857450008392334,0.478362500667572,-2.1756625175476074
1747314352530460400,5.36446044921875,0.9161624908447266,0.7301250100135803,-2.0498499870300293
1747314352540056300,5.374056396484375,0.9246875047683716,0.9829875230789185,-1.788462519645691
1747314352549651500,5.3836513671875,0.9344499707221985,1.3776124715805054,-1.3437875509262085
1747314352559246000,5.39324609375,0.9369249939918518,2.000624895095825,-0.8025875091552734
1747314352578437000,5.41243701171875,1.4451249837875366,3.1882123947143555,-0.2527250051498413
1747314352588032300,5.4220322265625,1.6064125299453735,3.3262624740600586,-0.17215000092983246
1747314352597626600,5.431626708984375,1.6637499332427979,2.926687479019165,-0.4115374982357025
1747314352607221800,5.4412216796875,1.8922749757766724,2.171674966812134,-0.9967374801635742
1747314352616817700,5.450817626953125,2.5067625045776367,1.2138500213623047,-1.5037000179290771
1747314352626412800,5.460412841796875,3.29229998588562,0.21326249837875366,-1.4805999994277954
1747314352636007200,5.470007080078125,3.6478750705718994,-0.5502749681472778,-1.0774500370025635
1747314352645602600,5.4796025390625,3.4560625553131104,-0.9534249901771545,-0.6754000186920166
1747314352664793600,5.498793701171875,2.5532374382019043,-0.867900013923645,0.1321374922990799
1747314352674388000,5.508387939453125,1.9130375385284424,-0.07383749634027481,0.6843374967575073
1747314352683983000,5.517983154296875,1.2275999784469604,1.117324948310852,1.1045374870300293
1747314352693579000,5.5275791015625,0.5520625114440918,2.066624879837036,1.1534874439239502
1747314352703174400,5.53717431640625,0.12443749606609344,2.562725067138672,0.8663874864578247
1747314352712768800,5.546768798828125,-0.033137500286102295,2.6787750720977783,0.44852501153945923
1747314352722364000,5.556364013671875,-0.006324999965727329,2.429487466812134,-0.032862499356269836
1747314352741555000,5.575554931640625,0.47011250257492065,1.5731375217437744,-0.9772124886512756
1747314352751149300,5.5851494140625,0.8207374811172485,1.4118499755859375,-1.2190749645233154
1747314352760744400,5.594744384765625,1.0700249671936035,1.4008499383926392,-1.3058375120162964
1747314352770340400,5.60434033203125,1.1530749797821045,1.290850043296814,-1.3278374671936035
1747314352779935500,5.613935546875,1.1042624711990356,1.095462441444397,-1.3473625183105469
1747314352789529900,5.62352978515625,0.9270250201225281,0.7961249947547913,-1.4536499977111816
1747314352799125200,5.633125244140625,0.7046874761581421,0.49678748846054077,-1.72246253490448
1747314352808721200,5.64272119140625,0.34677499532699585,0.1742125004529953,-2.1293249130249023
1747314352818316300,5.65231640625,-0.09542500227689743,-0.16541250050067902,-2.592287540435791
1747314352827910700,5.66191064453125,-0.4717625081539154,-0.3315125107765198,-2.9136250019073486
1747314352837505800,5.671505859375,-0.8383374810218811,-0.24722500145435333,-2.9404375553131104
1747314352847101700,5.681101806640625,-1.1156749725341797,-0.03712499886751175,-2.6362874507904053
1747314352856696800,5.69069677734375,-1.2170125246047974,0.3843125104904175,-2.125612497329712
1747314352866291200,5.700291259765625,-1.2903000116348267,0.8461750149726868,-1.530650019645691
1747314352875886600,5.709886474609375,-1.2450624704360962,0.9622250199317932,-0.9283999800682068
1747314352885482500,5.719482421875,-0.9849125146865845,1.3091374635696411,-0.5043500065803528
1747314352895077600,5.72907763671875,-0.681862473487854,1.8320499658584595,-0.2624875009059906
1747314352914267100,5.74826708984375,-0.5732374787330627,2.7495875358581543,0.5413374900817871
1747314352923863000,5.757863037109375,-0.6232874989509583,2.903587579727173,0.8003875017166138
1747314352933458200,5.767458251953125,-0.6623374819755554,2.6445374488830566,0.7416750192642212
1747314352943052500,5.777052490234375,-0.6500999927520752,1.9445250034332275,0.4302375018596649
1747314352952648000,5.78664794921875,-0.4974749982357025,1.121037483215332,-0.0658624991774559
1747314352962243800,5.796243896484375,-0.26042500138282776,0.27568748593330383,-0.5215374827384949
1747314352971839000,5.8058388671875,0.06943749636411667,-0.5123249888420105,-0.822112500667572
1747314352981433300,5.815433349609375,0.5348749756813049,-0.9912375211715698,-1.0394999980926514
1747314352991028700,5.82502880859375,1.0553125143051147,-1.1977624893188477,-1.2667875289916992
1747314353000624400,5.834624267578125,1.386412501335144,-1.3981000185012817,-1.5256999731063843
1747314353010219800,5.8442197265625,1.4499374628067017,-1.7157249450683594,-1.796987533569336
1747314353019814000,5.85381396484375,1.3424124717712402,-1.9967750310897827,-2.090137481689453
1747314353029409300,5.8634091796875,1.1225500106811523,-1.6876749992370605,-2.430999994277954
1747314353039005000,5.8730048828125,0.7328749895095825,-0.8251374959945679,-2.641237497329712
1747314353048600300,5.882600341796875,0.13420000672340393,0.21449999511241913,-2.605762481689453
1747314353058194700,5.892194580078125,-0.6391000151634216,1.3116124868392944,-2.334475040435791
1747314353067790000,5.9017900390625,-1.3391125202178955,2.3293874263763428,-1.7872250080108643
1747314353077386000,5.911385986328125,-1.302537441253662,2.8070623874664307,-0.757349967956543
1747314353086980900,5.92098095703125,-0.3899500072002411,2.4917750358581543,0.812624990940094
1747314353096575500,5.930575439453125,0.6461125016212463,1.9225250482559204,2.5950374603271484
1747314353106170600,5.940170654296875,0.9820249676704407,1.819949984550476,4.013487339019775
1747314353115766500,5.9497666015625,0.49211248755455017,2.031287431716919,4.894312381744385
1747314353125361700,5.959361572265625,-0.3777124881744385,2.2889626026153564,5.368412494659424
1747314353134956000,5.9689560546875,-1.218250036239624,2.6127750873565674,5.5284624099731445
1747314353144551200,5.97855126953125,-1.8376874923706055,3.0562124252319336,5.477174758911133
1747314353154147000,5.98814697265625,-2.3043625354766846,3.78193736076355,5.131362438201904
1747314353163742500,5.997742431640625,-2.5229876041412354,4.671424865722656,4.477687358856201
1747314353173336600,6.007336669921875,-2.487649917602539,5.157625198364258,3.5333375930786133
1747314353182931700,6.016931640625,-2.6159374713897705,4.781287670135498,2.749037504196167
1747314353192527600,6.026527587890625,-2.72332501411438,3.609649896621704,1.7324999570846558
1747314353202123000,6.036123046875,-2.856562376022339,2.7398250102996826,1.0202499628067017
1747314353211717400,6.04571728515625,-3.005612373352051,2.6030125617980957,0.7356249690055847
1747314353221312500,6.0553125,-2.8920373916625977,2.789875030517578,0.5597624778747559
1747314353230908400,6.064908447265625,-2.2518374919891357,2.93892502784729,0.17737500369548798
1747314353240503600,6.074503662109375,-1.1913000345230103,2.5895373821258545,-0.30896249413490295
1747314353250098200,6.08409814453125,-0.04413750022649765,1.549899935722351,-0.5398250222206116
1747314353259693300,6.093693359375,0.9270250201225281,0.227974995970726,-0.4690124988555908
1747314353269289200,6.103289306640625,1.5769875049591064,-1.1354750394821167,-0.19648750126361847
1747314353278884400,6.11288427734375,1.7407499551773071,-2.1348249912261963,0.1956624984741211
1747314353288478700,6.122478759765625,1.4511749744415283,-2.4987874031066895,0.6158624887466431
1747314353298073900,6.132073974609375,0.9380249977111816,-2.281399965286255,0.8981499671936035
1747314353307669800,6.141669677734375,0.4115374982357025,-1.608199954032898,0.9811999797821045
1747314353317265000,6.151264892578125,-0.0966624990105629,-0.6956124901771545,0.8541499972343445
1747314353326859300,6.160859375,-0.6305750012397766,0.28421249985694885,0.5755749940872192
1747314353336454400,6.170454345703125,-1.3293499946594238,1.3263249397277832,0.26413750648498535
1747314353346050600,6.180050537109375,-2.217599868774414,2.4894375801086426,0.11866249889135361
1747314353355645400,6.1896455078125,-3.091137409210205,3.6108875274658203,0.21518750488758087
1747314353365240000,6.199239990234375,-3.689812421798706,4.108087539672852,0.25671249628067017
1747314353374835200,6.208835205078125,-3.921912431716919,3.084399938583374,-0.12815000116825104
1747314353384431400,6.218431396484375,-4.013487339019775,1.7331874370574951,-0.23801249265670776
1747314353394026500,6.228026611328125,-3.993962526321411,1.287274956703186,0.17971250414848328
1747314353403620600,6.23762060546875,-3.8937249183654785,1.4668500423431396,0.7613375186920166
1747314353413216000,6.247216064453125,-3.7948625087738037,1.7685250043869019,1.2438249588012695
1747314353422812000,6.25681201171875,-3.711674928665161,1.9750499725341797,1.5358749628067017
1747314353432407000,6.266406982421875,-3.6909124851226807,1.9420499801635742,1.6141124963760376
1747314353442001400,6.27600146484375,-3.7789125442504883,1.5010875463485718,1.4613499641418457
1747314353451596500,6.285596435546875,-3.885200023651123,0.8681749701499939,1.1155375242233276
1747314353461192700,6.295192626953125,-3.9414374828338623,0.21697500348091125,0.6500999927520752
1747314353470787800,6.304787841796875,-3.874199867248535,-0.32670000195503235,0.0966624990105629
1747314353480382200,6.31438232421875,-3.622575044631958,-0.7298499941825867,-0.45801249146461487
1747314353489977300,6.323977294921875,-3.130187511444092,-1.0927125215530396,-0.9552124738693237
1747314353499573200,6.3335732421875,-2.256649971008301,-1.3810499906539917,-1.3400750160217285
1747314353509168600,6.343168701171875,-1.0654875040054321,-1.5569125413894653,-1.569700002670288
1747314353518762800,6.3527626953125,0.002199999988079071,-1.64243745803833,-1.589224934577942
1747314353528358100,6.362358154296875,0.5605875253677368,-1.7144874334335327,-1.4291750192642212
1747314353537954000,6.3719541015625,0.6168249845504761,-1.7744375467300415,-1.1495000123977661
1747314353547549200,6.381549072265625,0.3614875078201294,-1.7755374908447266,-0.8146874904632568
1747314353557143800,6.391143798828125,-0.07590000331401825,-1.6766749620437622,-0.4078249931335449
1747314353566739000,6.400739013671875,-0.5230500102043152,-1.5739624500274658,0.025849999859929085
1747314353576334800,6.4103349609375,-0.7893875241279602,-1.38462495803833,0.45471251010894775
1747314353585930000,6.419929931640625,-0.8186749815940857,-1.13423752784729,0.8370999693870544
1747314353595524400,6.4295244140625,-0.7002875208854675,-0.9521874785423279,1.114437460899353
1747314353605119500,6.439119384765625,-0.5487625002861023,-0.8849499821662903,1.2597750425338745
1747314353614715400,6.44871533203125,-0.44852501153945923,-0.8691374659538269,1.2940125465393066
1747314353624310500,6.458310546875,-0.41923749446868896,-0.8238999843597412,1.2695374488830566
1747314353633905000,6.46790478515625,-0.42899999022483826,-0.6993250250816345,1.2157750129699707
1747314353643500000,6.4775,-0.46447500586509705,-0.5245624780654907,1.1497750282287598
1747314353653096200,6.48709619140625,-0.5292375087738037,-0.36451250314712524,1.0814374685287476
1747314353662691000,6.496691162109375,-0.6465250253677368,-0.23017500340938568,1.0214874744415283
1747314353672285700,6.50628564453125,-0.7771499752998352,-0.12993749976158142,0.9811999797821045
1747314353681880800,6.515880859375,-0.8590999841690063,-0.040837500244379044,0.948199987411499
1747314353691476700,6.525476806640625,-0.9054374694824219,0.05444999784231186,0.9286749958992004
1747314353701072000,6.53507177734375,-0.9677249789237976,0.12416250258684158,0.9384375214576721
1747314353710666200,6.544666259765625,-1.0374374389648438,0.16940000653266907,0.9884874820709229
1747314353720261600,6.55426171875,-1.0496749877929688,0.18521249294281006,1.060675024986267
1747314353729857500,6.563857421875,-0.9824374914169312,0.14973749220371246,1.1449625492095947
1747314353739452700,6.57345263671875,-0.8981499671936035,0.08139999955892563,1.2732499837875366
1747314353749047000,6.583047119140625,-0.868862509727478,-0.012649999931454659,1.4368749856948853
1747314353758642200,6.59264208984375,-0.8883875012397766,-0.09569999575614929,1.5981625318527222
1747314353768238000,6.602238037109375,-0.9029625058174133,-0.09817499667406082,1.712975025177002
1747314353777833200,6.611833251953125,-0.8749125003814697,-0.0016499999910593033,1.7459750175476074
1747314353787427800,6.621427734375,-0.8186749815940857,0.15344999730587006,1.6984000205993652
1747314353797022700,6.631022705078125,-0.7698624730110168,0.2780250012874603,1.6018749475479126
1747314353806619000,6.640618896484375,-0.7320500016212463,0.3097875118255615,1.5151125192642212
1747314353816213800,6.6502138671875,-0.6721000075340271,0.2059749960899353,1.4673999547958374
1747314353825808400,6.659808349609375,-0.5707625150680542,-0.004124999977648258,1.4368749856948853
1747314353835403300,6.6694033203125,-0.4399999976158142,-0.22165000438690186,1.377062439918518
1747314353844999400,6.67899951171875,-0.31790000200271606,-0.3792249858379364,1.2523499727249146
1747314353854594800,6.6885947265625,-0.2213750034570694,-0.4782249927520752,1.069200038909912
1747314353864189000,6.69818896484375,-0.17118750512599945,-0.5380374789237976,0.8260999917984009
1747314353873784300,6.707784423828125,-0.16637499630451202,-0.5515124797821045,0.5205749869346619
1747314353883380000,6.7173798828125,-0.20061250030994415,-0.5123249888420105,0.17118750512599945
1747314353892975400,6.726975341796875,-0.23718750476837158,-0.43174999952316284,-0.18548749387264252
1747314353902569700,6.73656982421875,-0.21642500162124634,-0.35227498412132263,-0.49953749775886536
1747314353912164900,6.746164794921875,-0.1358499974012375,-0.3144625127315521,-0.7353500127792358
1747314353921760800,6.7557607421875,-0.03684999793767929,-0.3535124957561493,-0.8879749774932861
1747314353931356200,6.765356201171875,0.02419999986886978,-0.46351251006126404,-0.9539750218391418
1747314353940950500,6.774950439453125,0.03162499889731407,-0.6003249883651733,-0.9514999985694885
1747314353950545700,6.784545654296875,-0.011137500405311584,-0.7261375188827515,-0.9246875047683716
1747314353960141600,6.7941416015625,-0.10037499666213989,-0.8409500122070312,-0.905162513256073
1747314353969736700,6.80373681640625,-0.22247499227523804,-0.942425012588501,-0.9063999652862549
1747314353979331000,6.8133310546875,-0.3092375099658966,-1.0107624530792236,-0.9136874675750732
1747314353988926500,6.822926513671875,-0.3031874895095825,-1.055999994277954,-0.8794500231742859
1747314353998522000,6.832522216796875,-0.23842500150203705,-1.0621875524520874,-0.8036875128746033
1747314354008117500,6.842117431640625,-0.17737500369548798,-0.994949996471405,-0.7291625142097473
1747314354017711900,6.8517119140625,-0.13089999556541443,-0.8446624875068665,-0.6643999814987183
1747314354027307000,6.86130712890625,-0.07837499678134918,-0.6186124682426453,-0.5935875177383423
1747314354036903000,6.87090283203125,-0.02213750034570694,-0.33274999260902405,-0.5325375199317932
1747314354046498000,6.880498046875,0.025437500327825546,-0.0016499999910593033,-0.4982999861240387
1747314354056092700,6.8900927734375,0.06462500244379044,0.34402498602867126,-0.48358750343322754
1747314354065687800,6.899687744140625,0.1073874980211258,0.6788374781608582,-0.48730000853538513
1747314354075283700,6.90928369140625,0.1634874939918518,0.9829875230789185,-0.4945875108242035
1747314354084878800,6.91887890625,0.267300009727478,1.1882749795913696,-0.4823499917984009
1747314354094473200,6.92847314453125,0.46777498722076416,1.1185624599456787,-0.37248748540878296
1747314354104068400,6.938068359375,0.7303999662399292,0.5407875180244446,-0.0658624991774559
1747314354113664500,6.94766455078125,0.9662125110626221,-0.43656250834465027,0.3227125108242035
1747314354123259400,6.95725927734375,1.1495000123977661,-1.5423375368118286,0.5768125057220459
1747314354132853800,6.966853759765625,1.291124939918518,-3.0498874187469482,0.5682874917984009
1747314354142449000,6.976448974609375,1.3851749897003174,-5.334449768066406,-0.15248750150203705
1747314354152045000,6.986045166015625,1.4878875017166138,-6.813950061798096,-1.4939374923706055
1747314354161640200,6.99564013671875,1.6845124959945679,-6.7418999671936035,-2.478712558746338
1747314354171234600,7.005234619140625,2.041325092315674,-5.741312503814697,-3.011387586593628
1747314354180829700,7.01482958984375,2.2416625022888184,-4.296050071716309,-2.8756749629974365
1747314354190425900,7.02442578125,2.2013750076293945,-2.7395498752593994,-2.3259499073028564
1747314354200020700,7.034020751953125,1.9178500175476074,-1.2502875328063965,-1.5929374694824219
1747314354209615400,7.043615478515625,1.4976500272750854,-0.11769999563694,-0.9234499931335449
1747314354219210500,7.05321044921875,1.111549973487854,0.526075005531311,-0.49334999918937683
1747314354228806400,7.062806396484375,0.8562124967575073,0.7643625140190125,-0.2564375102519989
1747314354238401500,7.072401611328125,0.7341125011444092,0.7863624691963196,-0.17572499811649323
1747314354247996000,7.081995849609375,0.6656374931335449,0.7533624768257141,-0.1073874980211258
1747314354257591000,7.091591064453125,0.8244500160217285,0.5908374786376953,-0.08167500048875809
1747314354267187200,7.101187255859375,0.8427374958992004,0.4992625117301941,0.03437500074505806
1747314354276782000,7.110781982421875,0.9600250124931335,0.39778751134872437,0.10642500221729279
1747314354286376700,7.120376708984375,1.1433124542236328,0.26592499017715454,0.12966249883174896
1747314354295971600,7.1299716796875,1.2458875179290771,0.15716250240802765,0.1541374921798706
1747314354305567700,7.139567626953125,1.331412434577942,0.03739999979734421,0.25671249628067017
1747314354315163000,7.149162841796875,1.3326499462127686,0.011687500402331352,0.32147499918937683
1747314354324757200,7.15875732421875,1.2765499353408813,0.1363999992609024,0.35199999809265137
1747314354334352600,7.1683525390625,1.16902494430542,0.4918375015258789,0.3679499924182892
1747314354343948500,7.177948486328125,1.0505000352859497,1.0135124921798706,0.38128748536109924
1747314354353543700,7.187543701171875,0.9735000133514404,1.570662498474121,0.3825249969959259
1747314354363138000,7.197137939453125,0.9332125186920166,2.0678625106811523,0.3605250120162964
1747314354372733200,7.206733154296875,0.9307374954223633,2.4039125442504883,0.3409999907016754
1747314354382329000,7.2163291015625,0.9454500079154968,2.563962459564209,0.3312374949455261
1747314354391924200,7.22592431640625,0.9332125186920166,2.6274874210357666,0.31652501225471497
1747314354401518800,7.235518798828125,0.8782125115394592,2.648250102996826,0.29218751192092896
1747314354411114000,7.245114013671875,0.7731624841690063,2.5957250595092773,0.2689499855041504
1747314354420710000,7.2547099609375,0.6375874876976013,2.449012517929077,0.25423750281333923
1747314354430305000,7.264304931640625,0.4811125099658966,2.221862554550171,0.2628999948501587
1747314354439899400,7.2738994140625,0.3003000020980835,1.9225250482559204,0.30195000767707825
1747314354449494500,7.28349462890625,0.12072499841451645,1.570662498474121,0.36918750405311584
1747314354459090400,7.29309033203125,-0.03684999793767929,1.2053250074386597,0.4620000123977661
1747314354468685800,7.302685791015625,-0.18466250598430634,0.8522250056266785,0.5695250034332275
1747314354478280200,7.3122802734375,-0.353237509727478,0.5297874808311462,0.6830999851226807
1747314354487875300,7.321875244140625,-0.5413374900817871,0.21821250021457672,0.7869125008583069
1747314354497471500,7.331471435546875,-0.7258625030517578,-0.11659999936819077,0.8663874864578247
1747314354507066400,7.34106640625,-0.8663874864578247,-0.4342249929904938,0.9213874936103821
1747314354516661000,7.350660888671875,-0.9384375214576721,-0.6358000040054321,0.9762499928474426
1747314354526256000,7.360256103515625,-0.9457250237464905,-0.6797999739646912,1.0117249488830566
1747314354535852000,7.36985205078125,-0.8846749663352966,-0.6186124682426453,0.9421499967575073
1747314354545447200,7.379447265625,-0.7088124752044678,-0.5257999897003174,0.6721000075340271
1747314354555041500,7.38904150390625,-0.3484250009059906,-0.3950375020503998,0.1467124968767166
1747314354564636700,7.39863671875,0.18672500550746918,-0.09941250085830688,-0.3712500035762787
1747314354574232600,7.408232666015625,0.6949250102043152,0.5358374714851379,-0.42253750562667847
1747314354583828000,7.417827880859375,1.066312551498413,1.4276624917984009,-0.040150001645088196
1747314354593422300,7.42742236328125,1.277787446975708,2.072812557220459,0.43876248598098755
1747314354603017500,7.437017578125,1.2251249551773071,2.076387405395508,0.7343875169754028
1747314354612613400,7.44661328125,0.909974992275238,1.6389999389648438,0.8089125156402588
1747314354622208800,7.456208740234375,0.5520625114440918,1.1650375127792358,0.7001500129699707
1747314354631803100,7.46580322265625,0.3394874930381775,0.783887505531311,0.4717625081539154
1747314354641398300,7.475398193359375,0.26496249437332153,0.4380750060081482,0.24447499215602875
1747314354650994200,7.484994140625,0.2747249901294708,0.04468749836087227,0.04661250114440918
1747314354660589300,7.49458935546875,0.27953749895095825,-0.4342249929904938,-0.1391499936580658
1747314354670183700,7.50418359375,0.2527250051498413,-0.7836124897003174,-0.17448750138282776
1747314354679778800,7.51377880859375,0.18191249668598175,-0.7884249687194824,0.04166249930858612
1747314354689374700,7.523374755859375,0.06091250106692314,-0.5795624852180481,0.2176624983549118
1747314354698969900,7.532969970703125,0.09748750180006027,-0.2424124926328659,0.0611874982714653
1747314354708564500,7.542564453125,0.36506250500679016,0.4575999975204468,-0.14891250431537628
1747314354718159400,7.552159423828125,0.44206249713897705,1.3483250141143799,-0.0193875003606081
1747314354727755500,7.561755615234375,0.022962499409914017,1.9102874994277954,0.3592875003814697
1747314354737351000,7.571350830078125,-0.619575023651123,1.8723374605178833,0.7246249914169312
1747314354746945000,7.580945068359375,-1.1827750205993652,1.3678499460220337,0.9739124774932861
1747314354756540400,7.59054052734375,-1.6324000358581543,0.7716500163078308,1.0667250156402588
1747314354766136300,7.60013623046875,-1.9549750089645386,0.3489750027656555,0.978725016117096
1747314354775731500,7.6097314453125,-2.1735999584198,0.22921249270439148,0.8260999917984009
1747314354785325800,7.619325927734375,-2.2640750408172607,0.4295499920845032,0.7013875246047974
1747314354794921000,7.6289208984375,-2.1723625659942627,0.7961249947547913,0.5926250219345093
1747314354804517000,7.63851708984375,-1.9024499654769897,1.0624624490737915,0.5291000008583069
1747314354814112300,7.6481123046875,-1.4833500385284424,1.1259875297546387,0.5291000008583069
1747314354833301800,7.6673017578125,-0.9616749882698059,0.6726499795913696,0.5242875218391418
1747314354852493000,7.6864931640625,-1.0740125179290771,0.017875000834465027,0.4118124842643738
1747314354862087200,7.696087158203125,-1.0337250232696533,0.10092499852180481,0.41923749446868896
1747314354871682600,7.7056826171875,-0.8920999765396118,0.32202500104904175,0.43876248598098755
1747314354881278200,7.7152783203125,-0.7503374814987183,0.5273125171661377,0.432574987411499
1747314354900468000,7.734468017578125,-0.550000011920929,0.8131750226020813,0.41676250100135803
1747314354910063000,7.74406298828125,-0.46076250076293945,0.8657000064849854,0.4460499882698059
1747314354919659300,7.7536591796875,-0.40094998478889465,0.8254125118255615,0.4815250039100647
1747314354929254400,7.76325439453125,-0.35571250319480896,0.6604124903678894,0.5095750093460083
1747314354938848800,7.772848876953125,-0.3007124960422516,0.40755000710487366,0.5132874846458435
1747314354948444000,7.78244384765625,-0.22247499227523804,0.12416250258684158,0.48399999737739563
1747314354958039800,7.792039794921875,-0.14066250622272491,-0.14464999735355377,0.42899999022483826
1747314354967635000,7.801635009765625,-0.07961250096559525,-0.3792249858379364,0.35804998874664307
1747314354977229300,7.811229248046875,-0.05156249925494194,-0.5428500175476074,0.27994999289512634
1747314354986824400,7.820824462890625,-0.06861250102519989,-0.6443250179290771,0.21518750488758087
1747314354996420400,7.83042041015625,-0.13695000112056732,-0.7298499941825867,0.1956624984741211
1747314355006015700,7.840015625,-0.23718750476837158,-0.8091874718666077,0.233474999666214
1747314355015610000,7.849610107421875,-0.32023748755455017,-0.8349000215530396,0.2934249937534332
1747314355025205200,7.859205322265625,-0.34595000743865967,-0.8056125044822693,0.3349500000476837
1747314355034801400,7.868801513671875,-0.31776249408721924,-0.7506124973297119,0.3312374949455261
1747314355044396500,7.878396484375,-0.24818749725818634,-0.6736124753952026,0.281187504529953
1747314355053991000,7.887990966796875,-0.1601874977350235,-0.5625125169754028,0.1919499933719635
1747314355063586000,7.8975859375,-0.07108750194311142,-0.4232249855995178,0.08813749998807907
1747314355073182000,7.907181884765625,-0.0038499999791383743,-0.2887499928474426,0.0013749999925494194
1747314355082777000,7.916777099609375,0.027912499383091927,-0.20446249842643738,-0.04386249929666519
1747314355092371500,7.926371337890625,-0.006324999965727329,-0.19346250593662262,-0.035337500274181366
1747314355101966600,7.935966552734375,-0.10161250084638596,-0.2424124926328659,0.006324999965727329
1747314355111562500,7.9455625,-0.20295000076293945,-0.3205125033855438,0.04908749833703041
1747314355121158000,7.955157958984375,-0.2849000096321106,-0.4292750060558319,0.07342500239610672
1747314355130752300,7.964752197265625,-0.34966251254081726,-0.5758500099182129,0.07961250096559525
1747314355140347400,7.974347412109375,-0.3801875114440918,-0.7408499717712402,0.09418749809265137
1747314355149943600,7.983943603515625,-0.3704249858856201,-0.8666625022888184,0.14794999361038208
1747314355159538400,7.993538330078125,-0.3422375023365021,-0.9204249978065491,0.2139499932527542
1747314355169133000,8.003133056640625,-0.2994749844074249,-0.9106624722480774,0.25066250562667847
1747314355178728200,8.012728271484375,-0.2457125037908554,-0.8764249682426453,0.23966249823570251
1747314355188324000,8.022323974609375,-0.2616625130176544,-0.8568999767303467,0.17366249859333038
1747314355197919200,8.031919189453125,-0.3312374949455261,-0.806850016117096,0.062424998730421066
1747314355207513600,8.041513671875,-0.3899500072002411,-0.680899977684021,-0.04867500066757202
1747314355217108700,8.051108642578125,-0.4094749987125397,-0.5123249888420105,-0.11591249704360962
1747314355226704600,8.06070458984375,-0.4119499921798706,-0.28146249055862427,-0.14643749594688416
1747314355236299800,8.0702998046875,-0.3899500072002411,0.0019249999895691872,-0.15015000104904175
1747314355245894100,8.07989404296875,-0.35694998502731323,0.29397499561309814,-0.14891250431537628
1747314355255489500,8.089489501953125,-0.2946625053882599,0.5200250148773193,-0.15138749778270721
1747314355265085400,8.09908544921875,-0.20913749933242798,0.6323624849319458,-0.1611499935388565
1747314355274680600,8.1086806640625,-0.16266250610351562,0.6396499872207642,-0.17338749766349792
1747314355284275000,8.11827490234375,-0.17613749206066132,0.5638874769210815,-0.19043749570846558
1747314355293870000,8.1278701171875,-0.20913749933242798,0.42473748326301575,-0.21367499232292175
1747314355303466200,8.13746630859375,-0.24089999496936798,0.22921249270439148,-0.23319999873638153
1747314355313061400,8.147061279296874,-0.28847500681877136,-0.013887500390410423,-0.24172499775886536
1747314355322655700,8.15665576171875,-0.35571250319480896,-0.28517499566078186,-0.23196250200271606
1747314355332251000,8.1662509765625,-0.44123750925064087,-0.5575624704360962,-0.21119999885559082
1747314355341846800,8.1758466796875,-0.5157625079154968,-0.7726125121116638,-0.18191249668598175
1747314355351442000,8.18544189453125,-0.5597624778747559,-0.8959500193595886,-0.15138749778270721
1747314355361036300,8.195036376953125,-0.5975750088691711,-0.9241374731063843,-0.12691250443458557
1747314355370631400,8.20463134765625,-0.6318125128746033,-0.8666625022888184,-0.11219999939203262
1747314355380227600,8.2142275390625,-0.6440500020980835,-0.7335624694824219,-0.1097249984741211
1747314355389822700,8.22382275390625,-0.6415749788284302,-0.5600374937057495,-0.12072499841451645
1747314355399417000,8.2334169921875,-0.6280999779701233,-0.38046249747276306,-0.1391499936580658
1747314355409012200,8.24301220703125,-0.5975750088691711,-0.23017500340938568,-0.14038750529289246
1747314355418608400,8.2526083984375,-0.5402374863624573,-0.14464999735355377,-0.10615000128746033
1747314355428203300,8.262203369140625,-0.4680500030517578,-0.1434125006198883,-0.045099999755620956
1747314355437798000,8.2717978515625,-0.4119499921798706,-0.20198750495910645,0.03189999982714653
1747314355447393000,8.28139306640625,-0.38871249556541443,-0.22893749177455902,0.10161250084638596
1747314355456989000,8.290989013671876,-0.37894999980926514,-0.17641249299049377,0.13571250438690186
1747314355466584000,8.300583984375,-0.3581874966621399,-0.045649997889995575,0.14066250622272491
1747314355476178400,8.310178466796875,-0.29823750257492065,0.1461624950170517,0.13089999556541443
1747314355485773800,8.31977392578125,-0.20295000076293945,0.3489750027656555,0.12113749980926514
1747314355495369500,8.329369384765625,-0.08442500233650208,0.4345000088214874,0.16637499630451202
1747314355504964900,8.33896484375,0.08415000140666962,0.16568750143051147,0.3899500072002411
1747314355514559000,8.34855908203125,0.3297249972820282,-0.46598750352859497,0.7503374814987183
1747314355524154400,8.358154296875,0.591112494468689,-1.2062875032424927,1.005674958229065
1747314355533750300,8.367750244140625,0.8269249796867371,-2.0945374965667725,1.0764875411987305
1747314355543345400,8.377345458984376,1.006500005722046,-3.8476624488830566,0.7930999994277954
1747314355552939800,8.386939697265625,1.1103124618530273,-5.859837532043457,-0.5898749828338623
1747314355562535000,8.396534912109376,1.2875499725341797,-5.889124870300293,-2.1634249687194824
1747314355572130800,8.406130859375,1.613700032234192,-4.435337543487549,-3.0186750888824463
1747314355581726200,8.415726318359376,1.7577999830245972,-2.8336000442504883,-3.082200050354004
1747314355591320600,8.425320556640624,1.6429874897003174,-1.4151500463485718,-2.659524917602539
1747314355600915700,8.434915771484375,1.4573625326156616,-0.3474625051021576,-2.0743250846862793
1747314355610511600,8.44451171875,1.4108874797821045,0.2536875009536743,-1.706512451171875
1747314355620107000,8.45410693359375,1.331412434577942,0.40507498383522034,-1.355887532234192
1747314355629701000,8.463701171875,1.2215499877929688,0.2340250015258789,-1.0810250043869019
1747314355639296500,8.473296630859375,1.120074987411499,-0.16417500376701355,-0.8623999953269958
1747314355648892400,8.482892333984376,1.0712624788284302,-0.72861248254776,-0.6411625146865845
1747314355658487600,8.492487548828125,1.0907875299453735,-1.288100004196167,-0.4567750096321106
1747314355668082000,8.50208203125,1.1653125286102295,-1.6791499853134155,-0.3357749879360199
1747314355677677000,8.511677001953124,1.2178374528884888,-1.9112499952316284,-0.26124998927116394
1747314355687273000,8.52127294921875,1.2801250219345093,-1.966249942779541,-0.2147749960422516
1747314355696868000,8.5308681640625,1.398650050163269,-1.817199945449829,-0.170912504196167
1747314355706462500,8.54046240234375,1.5061750411987305,-1.445812463760376,-0.11838749796152115
1747314355716057600,8.5500576171875,1.548937439918518,-0.8226624727249146,-0.05115000158548355
1747314355725653800,8.55965380859375,1.5549875497817993,-0.03959999978542328,0.02708750031888485
1747314355735249000,8.569248779296874,1.547700047492981,0.7251750230789185,0.07590000331401825
1747314355744843300,8.57884326171875,1.530650019645691,1.316562533378601,0.06366249918937683
1747314355754438400,8.5884384765625,1.4951750040054321,1.6634750366210938,0.00013749999925494194
1747314355764034600,8.59803466796875,1.4365999698638916,1.8370000123977661,-0.07067500054836273
1747314355773629700,8.607629638671876,1.3571250438690186,1.9017624855041504,-0.10848750174045563
1747314355783224000,8.61722412109375,1.3021249771118164,1.9237624406814575,-0.11715000122785568
1747314355792819200,8.626819091796875,1.307075023651123,1.948099970817566,-0.11715000122785568
1747314355802415000,8.6364150390625,1.352312445640564,1.9762874841690063,-0.11715000122785568
1747314355812010200,8.64601025390625,1.4011249542236328,2.0018625259399414,-0.11096250265836716
1747314355821604900,8.65560498046875,1.4256000518798828,1.965287446975708,-0.10615000128746033
1747314355831200000,8.665199951171875,1.3974125385284424,1.7661875486373901,-0.13296249508857727
1747314355840796000,8.6747958984375,1.3571250438690186,1.4753749370574951,-0.1574375033378601
1747314355850391300,8.684391357421875,1.3303124904632568,1.2457499504089355,-0.15496249496936798
1747314355859985400,8.6939853515625,1.264312505722046,1.1259875297546387,-0.11096250265836716
1747314355869580800,8.703580810546875,1.111549973487854,1.1345125436782837,-0.02914999984204769
1747314355879176700,8.7131767578125,0.8806874752044678,1.2713249921798706,0.06737499684095383
1747314355898366200,8.7323662109375,0.4395875036716461,1.7967125177383423,0.21037499606609344
1747314355907961300,8.74196142578125,0.2807750105857849,2.0030999183654785,0.2457125037908554
1747314355917557200,8.75155712890625,0.15867500007152557,2.132625102996826,0.27018749713897705
1747314355927152400,8.76115234375,0.06091250106692314,2.196150064468384,0.2824249863624573
1747314355936747000,8.7707470703125,-0.007562499959021807,2.2071499824523926,0.2909500002861023
1747314355946342100,8.780342041015626,-0.035612501204013824,2.203437566757202,0.2946625053882599
1747314355955938000,8.78993798828125,-0.04166249930858612,2.215674877166748,0.296999990940094
1747314355965533400,8.799533447265626,-0.04661250114440918,2.287862539291382,0.33742499351501465
1747314355975127800,8.8091279296875,-0.10766249895095825,2.4221999645233154,0.5218124985694885
1747314355984723000,8.818722900390625,-0.31171250343322754,2.461250066757202,0.8186749815940857
1747314355994318800,8.82831884765625,-0.5597624778747559,2.221862554550171,1.0509124994277954
1747314356003914000,8.8379140625,-0.7771499752998352,1.7269999980926514,1.1534874439239502
1747314356013508400,8.84750830078125,-0.8639125227928162,1.0404624938964844,1.1070125102996826
1747314356023103500,8.857103515625,-0.7943375110626221,0.254925012588501,0.8601999878883362
1747314356032699600,8.86669970703125,-0.6330500245094299,-0.4830375015735626,0.5157625079154968
1747314356042294800,8.876294677734375,-0.45100000500679016,-1.051187515258789,0.13461250066757202
1747314356051889200,8.88588916015625,-0.21889999508857727,-1.4103374481201172,-0.2905375063419342
1747314356061484500,8.895484619140625,0.0193875003606081,-1.525149941444397,-0.5874000191688538
1747314356071080400,8.90508056640625,0.1671999990940094,-1.4151500463485718,-0.5422999858856201
1747314356080675600,8.914675537109375,0.20624999701976776,-1.1244750022888184,-0.1634874939918518
1747314356090269700,8.924269775390625,0.227012500166893,-0.7786625027656555,0.3422375023365021
1747314356099865000,8.933864990234374,0.31872498989105225,-0.5770875215530396,0.7601000070571899
1747314356109461000,8.9434609375,0.42858749628067017,-0.645562469959259,1.0166749954223633
1747314356119056100,8.95305615234375,0.5533000230789185,-0.9827125072479248,1.0704375505447388
1747314356128650500,8.962650390625,0.6241124868392944,-1.4323375225067139,0.966487467288971
1747314356138245600,8.97224560546875,0.6241124868392944,-1.7755374908447266,0.7821000218391418
1747314356147841800,8.981841796875,0.5471125245094299,-1.940537452697754,0.6171000003814697
1747314356157437000,8.99143701171875,0.4188250005245209,-1.9552500247955322,0.4632374942302704
1747314356167031300,9.00103125,0.258774995803833,-1.707200050354004,0.30566251277923584
1747314356176626400,9.01062646484375,0.11591249704360962,-1.034000039100647,0.1956624984741211
1747314356186222300,9.020222412109375,0.09143749624490738,-0.02983750030398369,0.1504250019788742
1747314356195817700,9.029817626953125,0.24172499775886536,1.1455124616622925,0.09790000319480896
1747314356205412000,9.039412109375,0.5215374827384949,2.157099962234497,0.006324999965727329
1747314356215007200,9.04900732421875,0.7206375002861023,2.634774923324585,-0.05472499877214432
1747314356224603100,9.05860302734375,0.6901124715805054,2.6384875774383545,-0.05362499877810478
1747314356234198300,9.0681982421875,0.39682498574256897,2.3623874187469482,-0.015675000846385956
1747314356243793000,9.07779296875,-0.02461249940097332,1.9470000267028809,0.055137500166893005
1747314356253387800,9.0873876953125,-0.36547499895095825,1.5291374921798706,0.16266250610351562
1747314356262984000,9.09698388671875,-0.4998124837875366,1.2115124464035034,0.28600001335144043
1747314356272579000,9.1065791015625,-0.43876248598098755,1.0001749992370605,0.4021874964237213
1747314356282173400,9.11617333984375,-0.32023748755455017,0.775362491607666,0.49004998803138733
1747314356291768600,9.1257685546875,-0.27871251106262207,0.4833124876022339,0.49623748660087585
1747314356301364700,9.13536474609375,-0.3667125105857849,0.18768750131130219,0.4021874964237213
1747314356310959900,9.1449599609375,-0.5413374900817871,-0.01993750035762787,0.21037499606609344
1747314356320554200,9.15455419921875,-0.7100499868392944,-0.03464999794960022,-0.07562500238418579
1747314356330149400,9.1641494140625,-0.8101499676704407,0.1106875017285347,-0.38830000162124634
1747314356339745500,9.17374560546875,-0.8223875164985657,0.2866874933242798,-0.6180624961853027
1747314356349340400,9.18334033203125,-0.7673875093460083,0.42473748326301575,-0.7108749747276306
1747314356358935000,9.19293505859375,-0.694100022315979,0.47850000858306885,-0.6693499684333801
1747314356368530400,9.202530517578126,-0.62933748960495,0.4185499846935272,-0.5300624966621399
1747314356378126300,9.212126220703125,-0.558525025844574,0.3172124922275543,-0.36629998683929443
1747314356387721500,9.221721435546876,-0.4778124988079071,0.24997499585151672,-0.22824999690055847
1747314356397315800,9.23131591796875,-0.4241875112056732,0.24268749356269836,-0.12925000488758087
1747314356406911000,9.240910888671875,-0.39723750948905945,0.2769249975681305,-0.05967500060796738
1747314356416507000,9.2505068359375,-0.38871249556541443,0.3147374987602234,-0.0010999999940395355
1747314356426102300,9.260102294921875,-0.41676250100135803,0.35378751158714294,0.05637500062584877
1747314356435696600,9.269696533203126,-0.46447500586509705,0.43078750371932983,0.11013749986886978
1747314356445291800,9.279291748046875,-0.5132874846458435,0.5455999970436096,0.15661250054836273
1747314356454887700,9.2888876953125,-0.5609999895095825,0.6518874764442444,0.19071249663829803
1747314356464483000,9.298483154296875,-0.6098124980926514,0.7081249952316284,0.20666250586509705
1747314356474077400,9.308077392578125,-0.6428124904632568,0.6788374781608582,0.2139499932527542
1747314356483672600,9.317672607421875,-0.6465250253677368,0.5565999746322632,0.233474999666214
1747314356493268700,9.327268798828126,-0.6158624887466431,0.3770250082015991,0.28971248865127563
1747314356502863600,9.336863525390624,-0.5475249886512756,0.15963749587535858,0.3984749913215637
1747314356512458200,9.346458251953125,-0.4877125024795532,-0.08470000326633453,0.5425750017166138
1747314356522053000,9.35605322265625,-0.4717625081539154,-0.32670000195503235,0.6928625106811523
1747314356531649300,9.365649169921875,-0.48276248574256897,-0.5123249888420105,0.8175749778747559
1747314356541244400,9.375244384765624,-0.491287499666214,-0.6051374673843384,0.8969125151634216
1747314356550838800,9.3848388671875,-0.48028749227523804,-0.6150375008583069,0.9274374842643738
1747314356560434000,9.394433837890626,-0.4497624933719635,-0.5746124982833862,0.9249625205993652
1747314356570030000,9.404030029296875,-0.4179999828338623,-0.5306124687194824,0.9176750183105469
1747314356579625200,9.413625244140626,-0.38747498393058777,-0.5208500027656555,0.9311500191688538
1747314356589219300,9.42321923828125,-0.35694998502731323,-0.5660874843597412,0.9811999797821045
1747314356598814700,9.432814697265625,-0.3227125108242035,-0.6601374745368958,1.0594375133514404
1747314356608410600,9.44241064453125,-0.27871251106262207,-0.7786625027656555,1.143725037574768
1747314356618005800,9.452005859375,-0.21271249651908875,-0.8911374807357788,1.2084875106811523
1747314356627600400,9.461600341796874,-0.1358499974012375,-0.9802374839782715,1.2280124425888062
1747314356637195500,9.471195556640625,-0.07342500239610672,-1.0535249710083008,1.1913000345230103
1747314356646791400,9.48079150390625,-0.03437500074505806,-1.125712513923645,1.1107250452041626
1747314356656386800,9.49038671875,-0.02461249940097332,-1.2062875032424927,1.0069124698638916
1747314356665981000,9.49998095703125,-0.03684999793767929,-1.267337441444397,0.8969125151634216
1747314356675576300,9.509576416015625,-0.04413750022649765,-1.2600499391555786,0.7893875241279602
1747314356685172200,9.519172119140626,-0.040562499314546585,-1.1255749464035034,0.6795250177383423
1747314356694767400,9.528767333984375,-0.052662499248981476,-0.8604750037193298,0.5414749979972839
1747314356704361700,9.53836181640625,-0.08813749998807907,-0.49527499079704285,0.3716624975204468
1747314356713956900,9.547956787109374,-0.14066250622272491,-0.0859375,0.1896124929189682
1747314356723552800,9.557552734375,-0.1821874976158142,0.2952125072479248,0.030799999833106995
1747314356733148000,9.56714794921875,-0.1956624984741211,0.5762624740600586,-0.07548750191926956
1747314356742742300,9.5767421875,-0.1919499933719635,0.719124972820282,-0.13420000672340393
1747314356761933300,9.595933349609375,-0.21037499606609344,0.692312479019165,-0.2662000060081482
1747314356771528700,9.60552880859375,-0.24213749170303345,0.6115999817848206,-0.3858250081539154
1747314356781123000,9.615123046875,-0.2714250087738037,0.534600019454956,-0.5215374827384949
1747314356790718200,9.62471826171875,-0.2824249863624573,0.4735499918460846,-0.6461125016212463
1747314356800314400,9.634314453125,-0.281187504529953,0.4222624897956848,-0.735212504863739
1747314356809909500,9.643909423828125,-0.27871251106262207,0.3844499886035919,-0.7866374850273132
1747314356819503900,9.65350390625,-0.27018749713897705,0.3452624976634979,-0.8036875128746033
1747314356829099000,9.66309912109375,-0.25423750281333923,0.30002498626708984,-0.7939249873161316
1747314356838695000,9.67269482421875,-0.22866250574588776,0.23897500336170197,-0.7621625065803528
1747314356848290300,9.682290283203125,-0.20666250586509705,0.13887499272823334,-0.7132124900817871
1747314356857884400,9.691884521484376,-0.1956624984741211,-0.008937500417232513,-0.6546375155448914
1747314356867479600,9.7014794921875,-0.1919499933719635,-0.1886499971151352,-0.599637508392334
1747314356877075700,9.71107568359375,-0.16266250610351562,-0.3987500071525574,-0.5495874881744385
1747314356896265200,9.73026513671875,-0.09308750182390213,-0.9240000247955322,-0.39201250672340393
1747314356905860600,9.739860595703124,-0.11990000307559967,-1.1770000457763672,-0.297962486743927
1747314356915456500,9.74945654296875,-0.17242500185966492,-1.3688124418258667,-0.227012500166893
1747314356925051600,9.7590517578125,-0.2176624983549118,-1.4933874607086182,-0.18301250040531158
1747314356934646000,9.76864599609375,-0.25066250562667847,-1.5398625135421753,-0.16967499256134033
1747314356944241400,9.778241455078126,-0.281187504529953,-1.4946249723434448,-0.19043749570846558
1747314356953837000,9.787837158203125,-0.3166624903678894,-1.3528624773025513,-0.23196250200271606
1747314356963432400,9.797432373046876,-0.33976250886917114,-1.1232374906539917,-0.2844874858856201
1747314356973026800,9.80702685546875,-0.3287625014781952,-0.8251374959945679,-0.33701249957084656
1747314356982622000,9.8166220703125,-0.2628999948501587,-0.490325003862381,-0.3760625123977661
1747314356992218000,9.826218017578125,-0.13942499458789825,-0.14822499454021454,-0.3895374834537506
1747314357001813200,9.835813232421875,0.03891250118613243,0.16087499260902405,-0.36024999618530273
1747314357011407600,9.84540771484375,0.2662000060081482,0.39778751134872437,-0.2747249901294708
1747314357021002800,9.855002685546875,0.5007749795913696,0.5138375163078308,-0.11715000122785568
1747314357030598700,9.8645986328125,0.6498249769210815,0.46502500772476196,0.1260875016450882
1747314357040194000,9.874194091796875,0.7133499979972839,0.2451625019311905,0.45100000500679016
1747314357049788200,9.8837880859375,0.7341125011444092,-0.07617499679327011,0.768625020980835
1747314357059383600,9.893383544921875,0.7401624917984009,-0.46584999561309814,1.0203875303268433
1747314357068979700,9.902979736328126,0.7536374926567078,-0.9546625018119812,1.1767250299453735
1747314357078574600,9.91257470703125,0.7584499716758728,-1.424912452697754,0.948199987411499
1747314357088169200,9.922169189453125,0.735212504863739,-1.191575050354004,-0.43353748321533203
1747314357097764400,9.931764404296874,0.7816874980926514,-0.45374998450279236,-2.3417625427246094
1747314357107360300,9.9413603515625,0.809737503528595,-0.45980000495910645,-3.469399929046631
1747314357116955400,9.950955322265624,0.7939249873161316,-0.7114250063896179,-3.987499952316284
1747314357126549800,9.9605498046875,0.8159250020980835,-1.118287444114685,-4.052262306213379
1747314357136145000,9.970144775390626,0.8171625137329102,-1.6534374952316284,-3.7772624492645264
1747314357145741000,9.979740966796875,0.8476874828338623,-2.2081124782562256,-3.3057749271392822
1747314357155336200,9.989336181640626,0.7853999733924866,-2.6565001010894775,-2.7193374633789062
1747314357164930800,9.998930908203125,0.6228749752044678,-2.9886999130249023,-2.0693750381469727
1747314357174525700,10.008525634765626,0.4310624897480011,-2.9826500415802,-1.3571250438690186
1747314357184121900,10.018121826171875,0.2747249901294708,-2.7640249729156494,-0.8232125043869019
1747314357193717000,10.027717041015626,0.13791249692440033,-2.2068750858306885,-0.26496249437332153
1747314357203311400,10.037311279296874,0.05238749831914902,-1.475100040435791,0.23237499594688416
1747314357212906500,10.046906494140625,0.04372499883174896,-0.7578999996185303,0.6122875213623047
1747314357222502400,10.05650244140625,0.07919999957084656,-0.055412501096725464,0.8822000026702881
1747314357232097800,10.066097900390625,0.12925000488758087,0.7631250023841858,1.1070125102996826
1747314357241692000,10.07569189453125,0.17201249301433563,1.6549500226974487,1.2878249883651733
1747314357251287300,10.085287353515625,0.2147749960422516,2.441725015640259,1.4075875282287598
1747314357260883200,10.09488330078125,0.27719998359680176,2.6372499465942383,1.4308249950408936
1747314357270478300,10.104478271484375,0.5410624742507935,0.7691749930381775,1.048437476158142
1747314357280072700,10.11407275390625,0.9527375102043152,-1.091475009918213,0.6367624998092651
1747314357289668000,10.123668212890625,1.2703624963760376,-1.8562500476837158,0.519474983215332
1747314357299264000,10.133263916015625,1.4256000518798828,-1.8550125360488892,0.5865749716758728
1747314357308859400,10.142859375,1.352312445640564,-1.1635249853134155,0.7308124899864197
1747314357318453500,10.15245361328125,1.120074987411499,0.10711249709129333,0.8676249980926514
1747314357328049000,10.162048828125,0.9307374954223633,1.5119500160217285,0.9299125075340271
1747314357337644800,10.171644775390625,0.8244500160217285,2.5614874362945557,0.9079124927520752
1747314357347240000,10.181239990234374,0.7621625065803528,3.183262586593628,0.8333874940872192
1747314357356834300,10.190834228515625,0.726687490940094,3.4570250511169434,0.7430499792098999
1747314357366429400,10.200429443359376,0.6754000186920166,3.441075086593628,0.6648125052452087
1747314357376025300,10.210025390625,0.5923500061035156,3.2187373638153076,0.6158624887466431
1747314357385620500,10.219620361328126,0.4908750057220459,2.885162591934204,0.5950999855995178
1747314357395215000,10.229215087890625,0.3895374834537506,2.4784374237060547,0.602524995803833
1747314357404810200,10.238810302734375,0.3100624978542328,2.023862600326538,0.6183375120162964
1747314357414406100,10.24840625,0.25753748416900635,1.5646125078201294,0.6355249881744385
1747314357424001300,10.258001220703125,0.21972499787807465,1.1638000011444092,0.6696249842643738
1747314357433596000,10.267595947265624,0.14643749594688416,0.8339374661445618,0.7233874797821045
1747314357443191000,10.27719091796875,0.007149999961256981,0.5578374862670898,0.7979124784469604
1747314357452787000,10.286786865234374,-0.16637499630451202,0.33178749680519104,0.8810999989509583
1747314357462382000,10.296382080078125,-0.3166624903678894,0.13763749599456787,0.9469624757766724
1747314357471976400,10.3059765625,-0.40094998478889465,-0.03341250121593475,0.9763875007629395
1747314357481571600,10.315571533203125,-0.4314749836921692,-0.15070000290870667,0.9494374990463257
1747314357491167700,10.325167724609376,-0.4375250041484833,-0.16417500376701355,0.8504375219345093
1747314357500763000,10.334762939453125,-0.42899999022483826,-0.023649999871850014,0.677049994468689
1747314357510357500,10.344357421875,-0.40700000524520874,0.3086875081062317,0.4582875072956085
1747314357519952400,10.353952392578124,-0.36547499895095825,0.7899374961853027,0.233474999666214
1747314357529548500,10.363548583984375,-0.28971248865127563,1.2982749938964844,0.050324998795986176
1747314357539143700,10.373143798828124,-0.1639000028371811,1.7392375469207764,-0.06091250106692314
1747314357548738000,10.382738037109375,0.014437500387430191,2.030050039291382,-0.06943749636411667
1747314357558333200,10.392333251953126,0.21367499232292175,2.100862503051758,0.03437500074505806
1747314357567929000,10.40192919921875,0.4090625047683716,1.9579999446868896,0.2213750034570694
1747314357577524200,10.411524169921876,0.591112494468689,1.6829999685287476,0.4314749836921692
1747314357587118600,10.42111865234375,0.7328749895095825,1.3898500204086304,0.6183375120162964
1747314357596714000,10.4307138671875,0.7976375222206116,1.1613249778747559,0.7613375186920166
1747314357606309600,10.4403095703125,0.7756375074386597,1.0012749433517456,0.8370999693870544
1747314357615905000,10.449905029296875,0.6961625218391418,0.863224983215332,0.8163374662399292
1747314357625499400,10.45949951171875,0.6106374859809875,0.7020750045776367,0.7038624882698059
1747314357635094800,10.4690947265625,0.564300000667572,0.4833124876022339,0.5328124761581421
1747314357644690700,10.478690673828124,0.5788750052452087,0.22439999878406525,0.3409999907016754
1747314357654286000,10.4882861328125,0.6326375007629395,-0.005362499970942736,0.16637499630451202
1747314357663880200,10.497880126953126,0.6656374931335449,-0.10312499850988388,0.03932499885559082
1747314357673475600,10.5074755859375,0.6253499984741211,-0.006599999964237213,-0.014437500387430191
1747314357683071500,10.517071533203126,0.5128750205039978,0.2952125072479248,0.02461249940097332
1747314357692666600,10.52666650390625,0.3480125069618225,0.7288874983787537,0.12966249883174896
1747314357702261000,10.536260986328125,0.15001249313354492,1.1760375499725342,0.2616625130176544
1747314357711856400,10.5458564453125,-0.05884999781847,1.5719000101089478,0.3959999978542328
1747314357721452300,10.555452392578125,-0.2677125036716461,1.8602374792099,0.49623748660087585
1747314357731047400,10.56504736328125,-0.42294999957084656,1.9787625074386597,0.5450500249862671
1747314357740641800,10.574641845703125,-0.4657124876976013,1.920050024986267,0.5755749940872192
1747314357750237200,10.5842373046875,-0.3862375020980835,1.6854749917984009,0.5768125057220459
1747314357759832800,10.593832763671875,-0.17971250414848328,1.4228500127792358,0.5292375087738037
1747314357769428200,10.60342822265625,0.10119999945163727,1.202987551689148,0.5207124948501587
1747314357779022600,10.613022705078125,0.36024999618530273,0.9244124889373779,0.510949969291687
1747314357788617700,10.62261767578125,0.5556374788284302,0.6055499911308289,0.45100000500679016
1747314357798214000,10.6322138671875,0.599637508392334,0.390500009059906,0.408237487077713
1747314357807809000,10.64180908203125,0.405349999666214,0.3111625015735626,0.4204750061035156
1747314357817403400,10.6514033203125,0.062150001525878906,0.32573750615119934,0.4852375090122223
1747314357826998800,10.660998779296875,-0.21889999508857727,0.3917374908924103,0.519474983215332
1747314357836594400,10.670594482421874,-0.3704249858856201,0.4197874963283539,0.46447500586509705
1747314357846189800,10.68018994140625,-0.4339500069618225,0.35997501015663147,0.31418749690055847
1747314357855784200,10.6897841796875,-0.42528748512268066,0.2915000021457672,0.1163249984383583
1747314357865379300,10.69937939453125,-0.36918750405311584,0.26221248507499695,-0.08291249722242355
1747314357874975200,10.708975341796876,-0.41552498936653137,0.2134000062942505,-0.2685374915599823
1747314357894164700,10.728164794921875,-0.8138625025749207,0.1681624948978424,-0.5324000120162964
1747314357903760000,10.737759765625,-0.9849125146865845,0.2891624867916107,-0.5458750128746033
1747314357913356000,10.74735595703125,-1.0911999940872192,0.4820750057697296,-0.48358750343322754
1747314357922951400,10.756951416015625,-1.1571999788284302,0.7008374929428101,-0.3723500072956085
1747314357932545800,10.7665458984375,-1.2280124425888062,0.9096999764442444,-0.2465374916791916
1747314357942141000,10.776140869140624,-1.280537486076355,1.0819875001907349,-0.15619999170303345
1747314357951736800,10.78573681640625,-1.2560625076293945,1.202987551689148,-0.11096250265836716
1747314357961332000,10.79533203125,-1.1375374794006348,1.2713249921798706,-0.09872499853372574
1747314357970926300,10.80492626953125,-0.9446250200271606,1.2810875177383423,-0.09624999761581421
1747314357980521500,10.814521484375,-0.7478625178337097,1.2065625190734863,-0.09143749624490738
1747314357990117400,10.824117431640625,-0.6037625074386597,1.0892750024795532,-0.08167500048875809
1747314357999712800,10.833712646484376,-0.5145249962806702,0.980650007724762,-0.06091250106692314
1747314358009307100,10.84330712890625,-0.46447500586509705,0.9036499857902527,-0.030387500301003456
1747314358018902300,10.85290234375,-0.4534749984741211,0.8596500158309937,-0.008387500420212746
1747314358028498400,10.86249853515625,-0.46447500586509705,0.8291249871253967,0.006324999965727329
1747314358038093600,10.872093505859375,-0.466949999332428,0.7618874907493591,0.02461249940097332
1747314358047688000,10.88168798828125,-0.455949991941452,0.6360750198364258,0.057612501084804535
1747314358057283300,10.891283447265625,-0.4302375018596649,0.43326249718666077,0.10408750176429749
1747314358066879000,10.90087890625,-0.36547499895095825,0.13763749599456787,0.16637499630451202
1747314358076474400,10.910474365234375,-0.2591874897480011,-0.21917499601840973,0.23594999313354492
1747314358086068500,10.920068359375,-0.1321374922990799,-0.5807999968528748,0.2971374988555908
1747314358095663900,10.929663818359375,-0.02461249940097332,-0.8984249830245972,0.3349500000476837
1747314358105259800,10.939259765625,0.04743750020861626,-1.1463375091552734,0.34966251254081726
1747314358114855000,10.94885498046875,0.10491249710321426,-1.3271499872207642,0.353237509727478
1747314358124449300,10.95844921875,0.15619999170303345,-1.4738625288009644,0.3484250009059906
1747314358134044400,10.96804443359375,0.19167499244213104,-1.5984375476837158,0.3361875116825104
1747314358143640600,10.977640625,0.20624999701976776,-1.720537543296814,0.31790000200271606
1747314358153235700,10.987235595703124,0.18301250040531158,-1.8440124988555908,0.2934249937534332
1747314358162830300,10.996830322265625,0.13420000672340393,-1.9673500061035156,0.26413750648498535
1747314358172425200,11.00642529296875,0.07438749819993973,-2.0883500576019287,0.24089999496936798
1747314358182021400,11.016021484375,0.01691249944269657,-2.1958749294281006,0.2274249941110611
1747314358191616500,11.025616455078126,-0.02956249937415123,-2.2801625728607178,0.23471249639987946
1747314358201211000,11.0352109375,-0.07108750194311142,-2.3436875343322754,0.272662490606308
1747314358210806000,11.044805908203125,-0.1321374922990799,-2.3986876010894775,0.3484250009059906
1747314358220402000,11.05440185546875,-0.2274249941110611,-2.436500072479248,0.46076250076293945
1747314358229997300,11.063997314453125,-0.31418749690055847,-2.43292498588562,0.5902875065803528
1747314358239591700,11.073591796875,-0.392425000667572,-2.3876874446868896,0.7002875208854675
1747314358249186800,11.083186767578125,-0.43505001068115234,-2.3021624088287354,0.7662875056266785
1747314358258782700,11.09278271484375,-0.5414749979972839,-2.1958749294281006,0.7723374962806702
1747314358268377900,11.1023779296875,-0.7748125195503235,-2.048062562942505,0.7185750007629395
1747314358277972500,11.111972412109376,-1.0276750326156616,-1.8354874849319458,0.6428124904632568
1747314358287567400,11.1215673828125,-1.2047749757766724,-1.550724983215332,0.5927624702453613
1747314358297163500,11.13116357421875,-1.2780624628067017,-1.1952874660491943,0.5988125205039978
1747314358306758700,11.140758544921875,-1.2622499465942383,-0.7981874942779541,0.6513375043869019
1747314358316353000,11.15035302734375,-1.1950124502182007,-0.4012250006198883,0.7185750007629395
1747314358325948400,11.159948486328124,-1.1119624376296997,-0.057887498289346695,0.7576249837875366
1747314358335544300,11.16954443359375,-1.039912462234497,0.19744999706745148,0.7466250061988831
1747314358345139500,11.179139404296874,-0.9971500039100647,0.3489750027656555,0.6892874836921692
1747314358354734000,11.188734130859375,-0.9739124774932861,0.43078750371932983,0.5927624702453613
1747314358364329000,11.198328857421876,-0.948199987411499,0.4930749833583832,0.466949999332428
1747314358373925000,11.207925048828125,-0.90420001745224,0.5590749979019165,0.3349500000476837
1747314358383520500,11.2175205078125,-0.8419125080108643,0.6311249732971191,0.22013749182224274
1747314358393114600,11.227114501953125,-0.7551500201225281,0.719124972820282,0.12484999746084213
1747314358402710000,11.2367099609375,-0.6391000151634216,0.8303624987602234,0.045375000685453415
1747314358412306000,11.246305908203125,-0.4987125098705292,0.9451749920845032,-0.01691249944269657
1747314358421901000,11.255901123046876,-0.344712495803833,1.015987515449524,-0.062150001525878906
1747314358431495400,11.265495361328124,-0.17971250414848328,0.9879375100135803,-0.09748750180006027
1747314358441090600,11.275090576171875,0.005912499967962503,0.8644624948501587,-0.15496249496936798
1747314358450686700,11.284686767578124,0.20996250212192535,0.7350749969482422,-0.26124998927116394
1747314358460281900,11.29428173828125,0.42625001072883606,0.5970249772071838,-0.3590124845504761
1747314358469876500,11.30387646484375,0.6338750123977661,0.3587374985218048,-0.36134999990463257
1747314358479471600,11.3134716796875,0.7621625065803528,0.04358749836683273,-0.3357749879360199
1747314358489067500,11.323067626953126,0.7462124824523926,-0.2447499930858612,-0.3760625123977661
1747314358498662700,11.33266259765625,0.6631624698638916,-0.4683249890804291,-0.47382500767707825
1747314358508257000,11.342257080078125,0.6265875101089478,-0.6308500170707703,-0.5849249958992004
1747314358517852200,11.35185205078125,0.6631624698638916,-0.7603750228881836,-0.6814500093460083
1747314358527448300,11.3614482421875,0.7341125011444092,-0.9204249978065491,-0.7364500164985657
1747314358537043500,11.37104345703125,0.7988749742507935,-1.1292874813079834,-0.7254499793052673
1747314358546637800,11.380637939453125,0.830637514591217,-1.376099944114685,-0.6461125016212463
1747314358556233200,11.390233154296874,0.8414999842643738,-1.633912444114685,-0.5373499989509583
1747314358565829000,11.3998291015625,0.8562124967575073,-1.8562500476837158,-0.4273499846458435
1747314358575424300,11.40942431640625,0.8952624797821045,-2.01134991645813,-0.3040125072002411
1747314358584940800,11.41894091796875,0.9697874784469604,-2.083400011062622,-0.1634874939918518
1747314358594613800,11.42861376953125,1.057787537574768,-2.0822999477386475,-0.0193875003606081
1747314358604210000,11.4382099609375,1.1262625455856323,-2.0455875396728516,0.11866249889135361
1747314358613805000,11.44780517578125,1.1457874774932861,-2.038300037384033,0.2677125036716461
1747314358623399700,11.457399658203125,1.1213124990463257,-2.1689250469207764,0.43642500042915344
1747314358632994600,11.46699462890625,1.0687874555587769,-2.5635499954223633,0.48399999737739563
1747314358642590700,11.4765908203125,1.0602624416351318,-3.1109375953674316,-0.20624999701976776
1747314358652185900,11.486185791015625,1.1750749349594116,-3.129225015640259,-1.6955125331878662
1747314358661780200,11.4957802734375,1.46465003490448,-2.752887487411499,-2.8463873863220215
1747314358680971300,11.51497119140625,1.3851749897003174,-2.0333499908447266,-3.2165374755859375
1747314358690566700,11.524566650390625,1.177549958229065,-1.8354874849319458,-2.7743375301361084
1747314358700161000,11.5341611328125,0.9747374653816223,-1.64614999294281,-2.234375
1747314358709756200,11.543756103515625,0.7926874756813049,-1.5349124670028687,-1.727275013923645
1747314358719352300,11.553352294921876,0.32725000381469727,-1.4664374589920044,-1.2960749864578247
1747314358728947500,11.562947509765625,0.19401249289512634,-1.4213374853134155,-0.9649749994277954
1747314358738541800,11.572541748046875,0.05967500060796738,-1.2588125467300415,-0.6863999962806702
1747314358748137000,11.582136962890624,-0.03684999793767929,-0.994949996471405,-0.42858749628067017
1747314358757732900,11.59173291015625,-0.07713750004768372,-0.6467999815940857,-0.16843749582767487
1747314358767328300,11.601328369140624,-0.08084999769926071,-0.3730374872684479,0.10161250084638596
1747314358776922400,11.61092236328125,-0.04908749833703041,-0.5660874843597412,0.2934249937534332
1747314358786517800,11.620517822265626,0.11219999939203262,-1.13052499294281,0.34347498416900635
1747314358796113700,11.63011376953125,0.36629998683929443,-1.5166250467300415,0.34718748927116394
1747314358805708800,11.639708740234376,0.647350013256073,-1.5263874530792236,0.3264249861240387
1747314358815303400,11.649303466796875,0.9356874823570251,-1.2380499839782715,0.23237499594688416
1747314358824898300,11.658898193359375,1.0737375020980835,-0.8458999991416931,0.07961250096559525
1747314358834494500,11.668494384765625,1.0467875003814697,-0.4670875072479248,-0.1451999992132187
1747314358844089600,11.678089599609375,0.853737473487854,-0.11522500216960907,-0.36629998683929443
1747314358853684000,11.68768408203125,0.6606875061988831,0.21697500348091125,-0.5031124949455261
1747314358863279400,11.697279296875,0.5740625262260437,0.46131250262260437,-0.516587495803833
1747314358872875300,11.706875244140624,0.5556374788284302,0.5640249848365784,-0.4188250005245209
1747314358882470400,11.716470458984375,0.5520625114440918,0.5505499839782715,-0.25148749351501465
1747314358892064800,11.726064697265626,0.5141124725341797,0.47107499837875366,-0.06572499871253967
1747314358901660000,11.735659912109375,0.4372499883174896,0.36121249198913574,0.09790000319480896
1747314358911255800,11.745255859375,0.3235374987125397,0.254925012588501,0.2237125039100647
1747314358920851200,11.754851318359375,0.195250004529953,0.164450004696846,0.3044250011444092
1747314358930445600,11.764445556640625,0.07919999957084656,0.1143999993801117,0.3409999907016754
1747314358940040700,11.774040771484374,-0.025849999859929085,0.13144999742507935,0.3312374949455261
1747314358949636900,11.783636962890625,-0.12966249883174896,0.2157374918460846,0.28847500681877136
1747314358959232000,11.79323193359375,-0.2531374990940094,0.33797499537467957,0.2311374992132187
1747314358968826400,11.802826416015625,-0.392425000667572,0.4405499994754791,0.1821874976158142
1747314358978421800,11.812421875,-0.527999997138977,0.4772624969482422,0.15661250054836273
1747314358988017700,11.822017578125,-0.6428124904632568,0.44302499294281006,0.16885000467300415
1747314358997612800,11.83161279296875,-0.7308124899864197,0.35378751158714294,0.21889999508857727
1747314359007207200,11.841207275390625,-0.8016250133514404,0.22921249270439148,0.28971248865127563
1747314359016802300,11.85080224609375,-0.8798624873161316,0.07768750190734863,0.353237509727478
1747314359026398200,11.860398193359375,-0.9689624905586243,-0.1116499975323677,0.40094998478889465
1747314359035993300,11.869993408203126,-1.0471999645233154,-0.3205125033855438,0.4375250041484833
1747314359045588000,11.879587890625,-1.0789624452590942,-0.5405125021934509,0.4852375090122223
1747314359055183000,11.88918310546875,-1.0630124807357788,-0.7726125121116638,0.558525025844574
1747314359064779300,11.898779296875,-1.0081499814987183,-1.0071874856948853,0.6403374671936035
1747314359074374400,11.90837451171875,-0.8724374771118164,-1.2538625001907349,0.6868125200271606
1747314359083968800,11.91796875,-0.5902875065803528,-1.5398625135421753,0.6415749788284302
1747314359093564000,11.92756396484375,-0.18095000088214874,-1.8635374307632446,0.48028749227523804
1747314359103159800,11.937159912109376,0.2404875010251999,-2.0883500576019287,0.26413750648498535
1747314359112755000,11.9467548828125,0.5410624742507935,-2.1348249912261963,0.1223749965429306
1747314359122349300,11.956349365234376,0.6668750047683716,-1.9905874729156494,0.0943249985575676
1747314359131944700,11.96594482421875,0.6253499984741211,-1.6399624347686768,0.1284250020980835
1747314359141540600,11.97554052734375,0.45182499289512634,-1.1525249481201172,0.16266250610351562
1747314359151136000,11.985135986328125,0.267300009727478,-0.6736124753952026,0.17242500185966492
1747314359160730400,11.99473046875,0.14891250431537628,-0.23375000059604645,0.1381874978542328
1747314359170325500,12.004325439453124,0.04262499883770943,0.08635000139474869,0.04908749833703041
1747314359179921400,12.01392138671875,-0.04661250114440918,0.27816250920295715,-0.05115000158548355
1747314359189516800,12.023516845703124,-0.07713750004768372,0.3770250082015991,-0.12815000116825104
1747314359199111200,12.033111083984375,-0.016087500378489494,0.5029749870300293,-0.17572499811649323
1747314359208706300,12.042706298828126,0.14396250247955322,0.766837477684021,-0.2012999951839447
1747314359218302200,12.05230224609375,0.3235374987125397,1.099174976348877,-0.29782500863075256
1747314359227897300,12.0618974609375,0.5190625190734863,1.4168000221252441,-0.45058751106262207
1747314359237491700,12.07149169921875,0.8061624765396118,1.7661875486373901,-0.44206249713897705
1747314359247086800,12.0810869140625,1.0517375469207764,2.163287401199341,-0.1280124932527542
1747314359256683000,12.09068310546875,0.993025004863739,2.41367506980896,0.3227125108242035
1747314359266278100,12.100278076171875,0.5861625075340271,2.290337562561035,0.7050999999046326
1747314359275872800,12.109872802734374,0.06462500244379044,1.8345249891281128,0.9116249680519104
1747314359285467600,12.119467529296875,-0.3704249858856201,1.1602250337600708,0.9079124927520752
1747314359295063800,12.129063720703124,-0.6795250177383423,0.4174500107765198,0.7125250101089478
1747314359304659000,12.138658935546875,-0.8481000065803528,-0.21793749928474426,0.3984749913215637
1747314359314253300,12.14825341796875,-0.8529124855995178,-0.5917999744415283,0.11137499660253525
1747314359323848700,12.1578486328125,-0.7063375115394592,-0.5917999744415283,-0.0193875003606081
1747314359333444400,12.1674443359375,-0.491287499666214,-0.30951249599456787,-0.04619999974966049
1747314359343039700,12.177039794921875,-0.3386625051498413,0.014299999922513962,-0.11701250076293945
1747314359352634000,12.186634033203125,-0.3409999907016754,0.26963749527931213,-0.2624875009059906
1747314359362229200,12.196229248046874,-0.47671249508857727,0.4515500068664551,-0.4078249931335449
1747314359371825200,12.2058251953125,-0.6171000003814697,0.5700749754905701,-0.5043500065803528
1747314359381420300,12.215420166015624,-0.7112874984741211,0.6263124942779541,-0.5458750128746033
1747314359391015000,12.225014892578125,-0.7478625178337097,0.6300249695777893,-0.5531625151634216
1747314359400610000,12.234610107421876,-0.7112874984741211,0.6103624701499939,-0.5361124873161316
1747314359410206000,12.2442060546875,-0.6147624850273132,0.565262496471405,-0.5018749833106995
1747314359419801000,12.253801025390626,-0.4974749982357025,0.4797374904155731,-0.45182499289512634
1747314359429395700,12.263395751953125,-0.3959999978542328,0.3550249934196472,-0.38458749651908875
1747314359438990800,12.272990966796876,-0.35199999809265137,0.19511249661445618,-0.3003000020980835
1747314359448586800,12.282586669921875,-0.36547499895095825,0.014299999922513962,-0.20019999146461487
1747314359458182000,12.292181884765625,-0.4119499921798706,-0.15441249310970306,-0.08772499859333038
1747314359467776500,12.301776611328124,-0.4692874848842621,-0.29727500677108765,0.03684999793767929
1747314359477371600,12.31137158203125,-0.5242875218391418,-0.4292750060558319,0.1639000028371811
1747314359486967800,12.3209677734375,-0.5670499801635742,-0.6076124906539917,0.2751374840736389
1747314359496562700,12.330562744140625,-0.5841000080108643,-0.8654249906539917,0.35089999437332153
1747314359506083300,12.340083251953125,-0.5830000042915344,-1.1635249853134155,0.3936625123023987
1747314359515752400,12.34975244140625,-0.5890499949455261,-1.4236749410629272,0.41318750381469727
