time,seconds_elapsed,z,y,x
1747314347291504600,0.125504638671875,9.616950035095215,5.64900016784668,1.0500000715255737
1747314347301099000,0.13509912109375,9.763050079345703,5.544000148773193,0.8970000147819519
1747314347310694100,0.144694091796875,9.69795036315918,5.439000129699707,0.6600000262260437
1747314347320290300,0.154290283203125,9.418050765991211,5.424000263214111,0.47805002331733704
1747314347329885200,0.16388525390625,8.956050872802734,5.440950393676758,0.3940500319004059
1747314347339479800,0.173479736328125,8.491050720214844,5.3359503746032715,0.32505002617836
1747314347349075000,0.183074951171875,8.257050514221191,4.9930500984191895,0.3540000021457672
1747314347358670800,0.1926708984375,8.494050025939941,4.677000045776367,0.4849500358104706
1747314347368266000,0.202265869140625,8.752050399780273,4.392000198364258,0.5020500421524048
1747314347377860400,0.2118603515625,8.914950370788574,4.014000415802002,0.5640000104904175
1747314347387455500,0.22145556640625,8.896050453186035,3.6979501247406006,0.5790000557899475
1747314347397051400,0.231051513671875,8.781000137329102,3.4420502185821533,0.6550500392913818
1747314347406646500,0.240646484375,9.1399507522583,3.2380502223968506,0.8730000257492065
1747314347416241200,0.2502412109375,9.495000839233398,2.797950029373169,0.531000018119812
1747314347425836000,0.2598359375,9.853950500488281,2.1060001850128174,-0.4230000078678131
1747314347435432200,0.26943212890625,10.135950088500977,1.88100004196167,0.3850500285625458
1747314347445027300,0.27902734375,9.787050247192383,1.6920000314712524,1.2540000677108765
1747314347454621700,0.28862158203125,9.030000686645508,1.6270500421524048,1.9240500926971436
1747314347464216800,0.298216796875,8.058000564575195,1.7730001211166382,2.0850000381469727
1747314347473812700,0.307812744140625,7.108050346374512,2.1010501384735107,1.8979500532150269
1747314347483408000,0.317407958984375,6.363000392913818,2.6020500659942627,1.6009501218795776
1747314347493002200,0.327002197265625,5.764050483703613,3.115950107574463,1.38795006275177
1747314347502597400,0.336597412109375,5.5320000648498535,3.601950168609619,1.659000039100647
1747314347512193500,0.346193603515625,5.436000347137451,3.6000001430511475,2.02305006980896
1747314347521788400,0.355788330078125,4.962000370025635,3.0210001468658447,1.8499500751495361
1747314347531382800,0.3653828125,5.338050365447998,2.8309500217437744,2.3959500789642334
1747314347540978000,0.37497802734375,4.764000415802002,2.4529500007629395,2.101950168609619
1747314347550574000,0.384573974609375,5.227950096130371,2.53695011138916,1.7400001287460327
1747314347560169200,0.394169189453125,6.720000267028809,2.9509501457214355,1.6180500984191895
1747314347569763300,0.403763427734375,8.688000679016113,3.085050106048584,2.311950206756592
1747314347579358500,0.4133583984375,10.632000923156738,2.635050058364868,2.9730000495910645
1747314347588954400,0.422954345703125,12.26205062866211,2.4220499992370605,2.511000156402588
1747314347598549500,0.432549560546875,11.724000930786133,2.1040501594543457,2.0940001010894775
1747314347608144000,0.442143798828125,11.319000244140625,1.8520500659942627,1.7539501190185547
1747314347617739000,0.451739013671875,10.81095027923584,1.807050108909607,1.7640000581741333
1747314347627335000,0.4613349609375,10.084050178527832,2.3910000324249268,2.4559500217437744
1747314347636930000,0.470929931640625,8.12700080871582,3.046950101852417,2.884050130844116
1747314347646524400,0.4805244140625,5.749950408935547,3.910950183868408,2.140050172805786
1747314347656119600,0.49011962890625,3.913950204849243,5.713950157165527,0.9190500378608704
1747314347665715500,0.499715576171875,3.6529502868652344,7.07205057144165,-0.036000002175569534
1747314347675310600,0.509310546875,5.676000118255615,7.2870001792907715,-1.446000099182129
1747314347684905000,0.518905029296875,9.234000205993652,6.504000186920166,-2.4850502014160156
1747314347694500000,0.5285,12.526050567626953,5.3959503173828125,-2.2960500717163086
1747314347704096000,0.538095947265625,14.89905071258545,4.630050182342529,-1.9200000762939453
1747314347713691100,0.547691162109375,16.171951293945312,4.14300012588501,-1.8240001201629639
1747314347723285500,0.557285400390625,16.069049835205078,3.681000232696533,-2.260050058364868
1747314347732880600,0.566880615234375,15.340950965881348,3.475050210952759,-2.530050039291382
1747314347742476500,0.5764765625,14.44800090789795,3.634050130844116,-2.2260000705718994
1747314347752071700,0.58607177734375,12.865950584411621,3.8179502487182617,-2.0299501419067383
1747314347761666000,0.595666015625,11.392951011657715,4.330049991607666,-1.5510001182556152
1747314347771261200,0.60526123046875,9.580950736999512,4.7059502601623535,-1.4940000772476196
1747314347780857000,0.614857177734375,8.463000297546387,4.630050182342529,-1.8619500398635864
1747314347790452200,0.6244521484375,8.365050315856934,4.795050144195557,-2.389050006866455
1747314347800046600,0.634046630859375,8.970000267028809,4.603050231933594,-2.6479501724243164
1747314347809641700,0.643641845703125,10.018950462341309,4.153050422668457,-2.3869500160217285
1747314347819238000,0.65323779296875,10.845000267028809,3.7770001888275146,-1.7430000305175781
1747314347828832800,0.662832763671875,11.140050888061523,3.376950263977051,-1.0699501037597656
1747314347838427100,0.67242724609375,11.142000198364258,3.1240501403808594,-0.6460500359535217
1747314347848022300,0.682022216796875,10.431000709533691,2.7810001373291016,-0.3160500228404999
1747314347857618200,0.6916181640625,9.325050354003906,1.8690000772476196,0.8059500455856323
1747314347867213300,0.70121337890625,7.087950229644775,2.341050148010254,-1.5750000476837158
1747314347876808000,0.710807861328125,6.7099504470825195,2.593950033187866,-2.578050136566162
1747314347895999000,0.7299990234375,6.496950149536133,2.839050054550171,-3.3130502700805664
1747314347905593900,0.73959375,6.5209503173828125,2.5390501022338867,-2.470950126647949
1747314347915188500,0.7491884765625,6.982950210571289,2.824050188064575,0.5089499950408936
1747314347924783600,0.75878369140625,7.045050144195557,5.08905029296875,10.549050331115723
1747314347934379500,0.768379638671875,7.761000156402588,6.528000354766846,13.744950294494629
1747314347943974700,0.777974609375,6.59505033493042,4.273050308227539,1.120050072669983
1747314347953569000,0.787569091796875,6.363000392913818,3.574050188064575,-3.1459500789642334
1747314347963164200,0.7971640625,7.4569501876831055,4.378050327301025,-1.9459501504898071
1747314347972760000,0.806760009765625,7.98900032043457,4.6180500984191895,-1.2490500211715698
1747314347982355200,0.816355224609375,8.07194995880127,4.096050262451172,-1.2780001163482666
1747314347991949600,0.825949462890625,7.735050201416016,3.805950164794922,-1.0530000925064087
1747314348001544700,0.835544677734375,7.102950572967529,3.925950288772583,-0.547950029373169
1747314348011140600,0.845140625,7.2460503578186035,3.9970502853393555,0.17205001413822174
1747314348020735700,0.85473583984375,8.07194995880127,3.7819502353668213,0.27195000648498535
1747314348030330000,0.864330078125,9.175950050354004,3.5659501552581787,-0.013950000517070293
1747314348039925200,0.87392529296875,9.97800064086914,3.574050188064575,-0.37605002522468567
1747314348049521200,0.883521240234375,10.219950675964355,3.7129502296447754,-0.7300500273704529
1747314348059116500,0.893116455078125,9.793950080871582,3.922950267791748,-1.1680500507354736
1747314348068710700,0.902710693359375,9.295950889587402,4.198950290679932,-1.2520500421524048
1747314348078306000,0.91230615234375,9.370050430297852,4.3279500007629395,-0.8590500354766846
1747314348087901700,0.921901611328125,9.681000709533691,3.957000255584717,-0.5239500403404236
1747314348097497000,0.9314970703125,10.13895034790039,3.5430002212524414,-0.17400000989437103
1747314348107091200,0.94109130859375,10.741950035095215,3.4990501403808594,0.5520000457763672
1747314348116686300,0.950686279296875,10.809000968933105,3.507000207901001,1.2079501152038574
1747314348126282200,0.9602822265625,10.390050888061523,3.43500018119812,1.1970000267028809
1747314348135877600,0.969877685546875,9.885000228881836,3.4519500732421875,0.8760000467300415
1747314348145471700,0.9794716796875,9.391950607299805,3.4080002307891846,0.5400000214576721
1747314348155067000,0.98906689453125,9.370050430297852,3.8749501705169678,0.18405000865459442
1747314348164663000,0.9986630859375,9.544950485229492,4.087950229644775,0.10500000417232513
1747314348174258200,1.008258056640625,9.823050498962402,3.684000253677368,-0.13095000386238098
1747314348183852500,1.0178525390625,10.83495044708252,3.277050256729126,-0.7489500641822815
1747314348193447700,1.02744775390625,12.17400074005127,2.92995023727417,-1.1080501079559326
1747314348203043600,1.037043701171875,13.206000328063965,2.470050096511841,-1.2280501127243042
1747314348212638700,1.046638671875,13.630050659179688,2.118000030517578,-1.225950002670288
1747314348222233000,1.056233154296875,13.480950355529785,1.9690500497817993,-0.7630500197410583
1747314348231828200,1.065828125,12.648000717163086,2.038950204849243,-0.26295000314712524
1747314348241424100,1.075424072265625,11.464950561523438,2.095950126647949,-0.547950029373169
1747314348251019300,1.085019287109375,10.042950630187988,2.557950019836426,-0.5959500074386597
1747314348260614000,1.09461376953125,8.431950569152832,3.0400500297546387,-0.8760000467300415
1747314348270208800,1.104208740234375,6.547050476074219,2.8410000801086426,-1.4149500131607056
1747314348279805000,1.113804931640625,7.2270002365112305,3.5689501762390137,-1.5420000553131104
1747314348289399800,1.12339990234375,7.9069504737854,3.9930002689361572,-1.3860000371932983
1747314348298994400,1.132994384765625,7.324950218200684,3.8200502395629883,-1.4410500526428223
1747314348308589600,1.142589599609375,7.81095027923584,4.105050086975098,-1.5319501161575317
1747314348318185500,1.152185546875,8.175000190734863,4.096050262451172,-1.081950068473816
1747314348327780600,1.161780517578125,8.187000274658203,3.5500502586364746,-0.9480000734329224
1747314348337375000,1.171375,8.464950561523438,3.1429500579833984,-0.9880500435829163
1747314348346970000,1.18097021484375,8.688000679016113,2.926950216293335,-1.1130000352859497
1747314348356566000,1.19056591796875,9.030000686645508,3.016050100326538,-1.6800000667572021
1747314348366161200,1.2001611328125,8.980050086975098,3.258000135421753,-2.190000057220459
1747314348375755800,1.209755859375,8.817000389099121,3.394050121307373,-2.4679501056671143
1747314348385351000,1.219350830078125,8.719050407409668,3.3580501079559326,-2.4850502014160156
1747314348394946800,1.22894677734375,8.857950210571289,3.157050132751465,-2.2480502128601074
1747314348404542000,1.2385419921875,9.187950134277344,2.8819501399993896,-1.9609501361846924
1747314348414136300,1.24813623046875,9.375,2.659050226211548,-1.4839500188827515
1747314348423731500,1.2577314453125,9.322050094604492,2.5849502086639404,-0.8160000443458557
1747314348433327400,1.267327392578125,9.22605037689209,2.496000051498413,-0.3730500042438507
1747314348442922500,1.276922607421875,9.229050636291504,2.2829999923706055,-0.09300000220537186
1747314348452516900,1.286516845703125,9.693000793457031,2.070000171661377,0.30300000309944153
1747314348462112000,1.296112060546875,9.793950080871582,2.009999990463257,0.4140000343322754
1747314348471708000,1.3057080078125,9.142950057983398,2.1559500694274902,0.10005000233650208
1747314348481303000,1.315302978515625,8.482049942016602,2.4820501804351807,-0.1789500117301941
1747314348490897400,1.3248974609375,8.203949928283691,2.829000234603882,-0.37605002522468567
1747314348500492800,1.334492919921875,8.09595012664795,3.037050247192383,-0.40905001759529114
1747314348510088700,1.344088623046875,8.206950187683105,3.0330002307891846,-0.4330500066280365
1747314348519683800,1.353683837890625,8.5420503616333,2.9010000228881836,-0.45705002546310425
1747314348529278200,1.3632783203125,9.061050415039062,2.785950183868408,-0.3850500285625458
1747314348538873300,1.372873291015625,9.547050476074219,2.680950164794922,-0.28905001282691956
1747314348548469200,1.38246923828125,9.756000518798828,2.640000104904175,-0.2749500274658203
1747314348558064400,1.392064453125,9.937950134277344,2.6520001888275146,-0.10695000737905502
1747314348567658800,1.40165869140625,9.97605037689209,2.707050085067749,-0.13095000386238098
1747314348577254000,1.41125390625,9.853950500488281,2.764050245285034,-0.21300001442432404
1747314348586849800,1.420849853515625,9.865950584411621,2.8819501399993896,-0.226950004696846
1747314348596445000,1.43044482421875,9.765000343322754,3.028050184249878,-0.5290500521659851
1747314348606039300,1.440039306640625,9.696000099182129,3.195000171661377,-0.8740500211715698
1747314348615634400,1.449634521484375,9.693000793457031,3.30495023727417,-1.0459500551223755
1747314348625230300,1.459230224609375,9.769950866699219,3.322050094604492,-1.0630500316619873
1747314348634825500,1.468825439453125,10.01400089263916,3.1710002422332764,-0.9550500512123108
1747314348644419800,1.478419921875,10.324950218200684,2.9610002040863037,-0.8620500564575195
1747314348654015000,1.488014892578125,10.737000465393066,2.8189501762390137,-0.5860500335693359
1747314348663611000,1.49761083984375,11.118000984191895,2.9440500736236572,-0.07605000585317612
1747314348673206000,1.5072060546875,10.729950904846191,3.1090500354766846,0.2050500065088272
1747314348682800600,1.516800537109375,10.00200080871582,3.076050043106079,-0.26295000314712524
1747314348692395800,1.526395751953125,9.619050025939941,3.195000171661377,-1.1680500507354736
1747314348701991700,1.53599169921875,9.520950317382812,3.5500502586364746,-1.9939501285552979
1747314348711586800,1.5455869140625,9.898950576782227,3.885000228881836,-2.2770001888275146
1747314348721181200,1.55518115234375,10.504950523376465,4.017000198364258,-2.0179500579833984
1747314348730776300,1.5647763671875,10.665000915527344,3.8200502395629883,-1.615950107574463
1747314348740372200,1.574372314453125,10.408950805664062,3.406050205230713,-1.1610000133514404
1747314348749967400,1.58396728515625,10.500000953674316,2.994000196456909,-0.895050048828125
1747314348759561700,1.593561767578125,11.134950637817383,2.620950222015381,-0.8590500354766846
1747314348769156900,1.603156982421875,11.755050659179688,2.187000036239624,-1.0720500946044922
1747314348778752800,1.612752685546875,12.432000160217285,1.519050121307373,-1.7160000801086426
1747314348788348000,1.622347900390625,12.844050407409668,1.867050051689148,-0.5580000281333923
1747314348797942300,1.6319423828125,12.301050186157227,2.2710001468658447,0.0880500078201294
1747314348807537400,1.641537353515625,11.046000480651855,2.2450501918792725,-0.1270500123500824
1747314348817133300,1.65113330078125,9.652950286865234,2.1949501037597656,-0.3540000021457672
1747314348826728400,1.660728515625,8.398050308227539,2.4100501537323,-0.3130500018596649
1747314348836322800,1.67032275390625,7.600950241088867,2.7430500984191895,-0.2460000067949295
1747314348845918000,1.67991796875,7.165050506591797,2.9610002040863037,-0.4020000100135803
1747314348855513900,1.689513916015625,7.183950424194336,3.037050247192383,-0.6079500317573547
1747314348865109000,1.69910888671875,7.740000247955322,2.92995023727417,-0.6409500241279602
1747314348874703600,1.70870361328125,8.395950317382812,2.6490001678466797,-0.42795002460479736
1747314348884298800,1.718298828125,8.881950378417969,2.308950185775757,-0.12405000627040863
1747314348893894700,1.727894775390625,9.195000648498535,1.9500000476837158,-0.009000000543892384
1747314348903489800,1.73748974609375,9.43695068359375,1.7779500484466553,0.10005000233650208
1747314348913084200,1.747084228515625,9.576000213623047,1.821000099182129,0.19995000958442688
1747314348922679300,1.75667919921875,9.504000663757324,1.90500009059906,0.04005000367760658
1747314348932275200,1.766275146484375,9.313050270080566,1.9930500984191895,-0.1099500060081482
1747314348941870300,1.775870361328125,8.773950576782227,2.2039501667022705,0.009000000543892384
1747314348951464700,1.785464599609375,8.190000534057617,2.4460501670837402,0.1189500093460083
1747314348961059800,1.795059814453125,7.81095027923584,2.5990500450134277,0.09000000357627869
1747314348970655700,1.80465576171875,7.761000156402588,2.748000144958496,0.1789500117301941
1747314348989845200,1.82384521484375,8.587050437927246,2.9130001068115234,0.2939999997615814
1747314348999440600,1.833440673828125,8.805000305175781,2.8219501972198486,0.40905001759529114
1747314349009036500,1.84303662109375,8.701950073242188,2.616000175476074,0.6409500241279602
1747314349018631700,1.852631591796875,8.593950271606445,2.448000192642212,0.8209500312805176
1747314349028226000,1.86222607421875,8.84595012664795,2.3959500789642334,0.7459500432014465
1747314349037821000,1.871821044921875,9.657000541687012,2.356950044631958,0.25995001196861267
1747314349047417000,1.8814169921875,10.912050247192383,2.308950185775757,-0.4020000100135803
1747314349057012200,1.89101220703125,11.869950294494629,2.2300500869750977,-0.9720000624656677
1747314349066606600,1.900606689453125,12.094950675964355,2.1250500679016113,-1.0600500106811523
1747314349085797600,1.919797607421875,11.383950233459473,1.8859500885009766,-0.9049500226974487
1747314349095392800,1.929392822265625,10.80405044555664,2.01705002784729,-0.9670500755310059
1747314349104987100,1.938987060546875,10.20300006866455,2.179949998855591,-1.125
1747314349114582300,1.948582275390625,9.865950584411621,2.338050127029419,-1.2780001163482666
1747314349124178200,1.95817822265625,9.95205020904541,2.428950071334839,-1.3639500141143799
1747314349133773300,1.967773193359375,9.894000053405762,2.4600000381469727,-1.3429501056671143
1747314349143367700,1.97736767578125,9.523050308227539,2.5630500316619873,-1.2229501008987427
1747314349152963000,1.986963134765625,9.10200023651123,2.6610000133514404,-1.0630500316619873
1747314349162559000,1.99655908203125,8.809950828552246,2.6419501304626465,-0.856950044631958
1747314349172154000,2.006154052734375,8.544000625610352,2.6260502338409424,-0.6270000338554382
1747314349181748500,2.01574853515625,8.367000579833984,2.7120001316070557,-0.39000001549720764
1747314349191343600,2.025343505859375,8.410050392150879,2.8189501762390137,-0.39705002307891846
1747314349200939500,2.034939453125,8.467050552368164,2.86995005607605,-0.48795002698898315
1747314349210534700,2.04453466796875,8.3860502243042,2.9610002040863037,-0.5220000147819519
1747314349220129000,2.05412890625,8.470050811767578,3.0400500297546387,-0.5359500050544739
1747314349229724200,2.06372412109375,8.59695053100586,2.9920501708984375,-0.505050003528595
1747314349239320000,2.073320068359375,8.692950248718262,2.9770500659942627,-0.5020500421524048
1747314349248915200,2.082915283203125,8.80305004119873,3.0450000762939453,-0.5580000281333923
1747314349258509600,2.092509521484375,8.81505012512207,3.1590001583099365,-0.687000036239624
1747314349268104700,2.102104736328125,8.878950119018555,3.2700002193450928,-0.8419500589370728
1747314349277700600,2.11170068359375,9.12405014038086,3.274050235748291,-0.8449500203132629
1747314349287295700,2.121295654296875,9.42300033569336,3.2029502391815186,-0.9190500378608704
1747314349296890000,2.13089013671875,9.700950622558594,3.1210501194000244,-0.8760000467300415
1747314349306485200,2.1404853515625,9.829950332641602,3.0919501781463623,-0.739050030708313
1747314349316081400,2.150081298828125,9.823050498962402,3.037050247192383,-0.6370500326156616
1747314349325676500,2.159676513671875,9.7339506149292,3.076050043106079,-0.7129500508308411
1747314349335271000,2.16927099609375,9.592950820922852,3.2310001850128174,-0.9310500621795654
1747314349344866000,2.178865966796875,9.373050689697266,3.3319501876831055,-1.0339500904083252
1747314349354462000,2.1884619140625,9.190950393676758,3.4200000762939453,-1.0770000219345093
1747314349364057000,2.19805712890625,9.049050331115723,3.4560000896453857,-0.9450000524520874
1747314349373651500,2.2076513671875,9.106950759887695,3.5209500789642334,-1.0270500183105469
1747314349383246600,2.21724658203125,9.313050270080566,3.553950071334839,-1.1610000133514404
1747314349392842500,2.226842529296875,9.337050437927246,3.454050064086914,-1.0840500593185425
1747314349402437600,2.236437744140625,9.382050514221191,3.43500018119812,-1.0270500183105469
1747314349412032000,2.246031982421875,9.571050643920898,3.3990001678466797,-1.0080000162124634
1747314349421627100,2.255627197265625,9.751049995422363,3.255000114440918,-0.9670500755310059
1747314349431223000,2.26522314453125,9.874950408935547,3.2119500637054443,-0.9240000247955322
1747314349440818400,2.274818359375,9.71505069732666,3.265050172805786,-0.8640000224113464
1747314349450412800,2.284412841796875,9.577950477600098,3.3199501037597656,-0.8809500336647034
1747314349460008000,2.294008056640625,9.484950065612793,3.3580501079559326,-0.8689500689506531
1747314349469603800,2.303603759765625,9.507000923156738,3.412950277328491,-0.8520000576972961
1747314349479199000,2.313198974609375,9.657000541687012,3.5590500831604004,-0.7660500407218933
1747314349488793300,2.32279345703125,9.466050148010254,3.664950132369995,-0.6409500241279602
1747314349498388700,2.332388671875,8.985000610351562,3.624000072479248,-0.5410500168800354
1747314349507984600,2.341984619140625,8.56095027923584,3.624000072479248,-0.48600003123283386
1747314349517579500,2.35157958984375,8.35004997253418,3.753000259399414,-0.6130500435829163
1747314349527174100,2.361174072265625,8.379000663757324,3.894000291824341,-1.0870500802993774
1747314349536769000,2.37076904296875,8.659049987792969,3.894000291824341,-1.4910000562667847
1747314349546365200,2.380365234375,9.279000282287598,3.7770001888275146,-1.8220500946044922
1747314349555960000,2.3899599609375,10.042950630187988,3.5590500831604004,-1.891050100326538
1747314349565554700,2.3995546875,10.660950660705566,3.3439502716064453,-1.8430501222610474
1747314349575149800,2.40914990234375,10.998000144958496,3.166950225830078,-1.977000117301941
1747314349584745700,2.418745849609375,11.130000114440918,3.0640501976013184,-2.0869500637054443
1747314349594340900,2.4283408203125,11.104050636291504,3.0400500297546387,-2.0350501537323
1747314349603935200,2.437935302734375,10.7760009765625,3.0610501766204834,-1.984950065612793
1747314349613530600,2.447530517578125,10.294050216674805,3.1500000953674316,-2.041949987411499
1747314349623126300,2.457126220703125,9.684000015258789,3.3030002117156982,-2.0490000247955322
1747314349632721700,2.4667216796875,9.127950668334961,3.466050148010254,-2.0899500846862793
1747314349642315800,2.476315673828125,8.743050575256348,3.5089502334594727,-1.9990501403808594
1747314349651911000,2.485910888671875,8.539050102233887,3.3580501079559326,-1.738050103187561
1747314349661507000,2.495507080078125,8.520000457763672,3.1710002422332764,-1.333050012588501
1747314349671102200,2.505102294921875,8.5420503616333,3.028050184249878,-1.2300000190734863
1747314349680696600,2.514696533203125,8.56095027923584,3.00600004196167,-1.2060000896453857
1747314349690292000,2.5242919921875,8.56095027923584,3.0349502563476562,-1.221000075340271
1747314349699887600,2.5338876953125,8.683050155639648,2.9659502506256104,-1.276050090789795
1747314349709483000,2.54348291015625,8.958000183105469,2.845950126647949,-1.2780001163482666
1747314349719077000,2.5530771484375,9.259950637817383,2.7739500999450684,-1.3840500116348267
1747314349728672500,2.562672607421875,9.315000534057617,2.8630502223968506,-1.5220500230789185
1747314349738268200,2.57226806640625,9.061050415039062,2.9700000286102295,-1.615950107574463
1747314349747863600,2.581863525390625,8.776050567626953,3.016050100326538,-1.6489500999450684
1747314349757458000,2.5914580078125,8.440950393676758,3.0420000553131104,-1.6660500764846802
1747314349767053000,2.601052978515625,8.107950210571289,3.1090500354766846,-1.64205002784729
1747314349776649000,2.61064892578125,7.855050563812256,3.1690502166748047,-1.7160000801086426
1747314349786244000,2.620244140625,7.933950424194336,3.145050048828125,-1.7830500602722168
1747314349795838200,2.629838134765625,8.40000057220459,3.0010502338409424,-1.8619500398635864
1747314349805433600,2.63943359375,9.076050758361816,2.7720000743865967,-1.9150501489639282
1747314349815029800,2.64902978515625,9.8899507522583,2.5320000648498535,-1.90500009059906
1747314349824624600,2.658624755859375,10.639050483703613,2.2829999923706055,-1.9009500741958618
1747314349834219300,2.66821923828125,11.259000778198242,2.158950090408325,-2.0440499782562256
1747314349843814400,2.677814453125,11.563050270080566,2.1250500679016113,-2.0179500579833984
1747314349853410300,2.687410400390625,11.476950645446777,2.0749499797821045,-1.7860500812530518
1747314349863005400,2.69700537109375,10.974000930786133,2.0440499782562256,-1.4119501113891602
1747314349872599800,2.706599853515625,10.231950759887695,2.107950210571289,-1.0000500679016113
1747314349882195000,2.71619482421875,9.391950607299805,2.259000062942505,-0.8070000410079956
1747314349891790800,2.725790771484375,8.652000427246094,2.53695011138916,-0.7750500440597534
1747314349901386000,2.735385986328125,8.187000274658203,2.8429501056671143,-0.9450000524520874
1747314349910980400,2.74498046875,8.02500057220459,3.0520501136779785,-0.9690000414848328
1747314349920575500,2.754575439453125,7.858950138092041,3.097050189971924,-0.7750500440597534
1747314349930171600,2.764171630859375,7.639050483703613,3.1590001583099365,-0.6130500435829163
1747314349939766500,2.7737666015625,7.467000484466553,3.295950174331665,-0.5959500074386597
1747314349949361200,2.783361083984375,7.206000328063965,3.4710001945495605,-0.6600000262260437
1747314349958956300,2.792956298828125,6.957000255584717,3.643050193786621,-0.8230500221252441
1747314349968552200,2.80255224609375,6.853950500488281,3.8200502395629883,-0.9289500713348389
1747314349978147300,2.812147216796875,6.970950126647949,3.8989500999450684,-1.065000057220459
1747314349987741700,2.82174169921875,7.270050525665283,3.8830502033233643,-1.0990500450134277
1747314349997336800,2.8313369140625,7.576950550079346,3.80400013923645,-1.0530000925064087
1747314350006932700,2.8409326171875,8.08395004272461,3.703050136566162,-1.081950068473816
1747314350016528000,2.85052783203125,8.652000427246094,3.595050096511841,-1.0390501022338867
1747314350026122200,2.860122314453125,9.088050842285156,3.5430002212524414,-1.0939500331878662
1747314350035717400,2.86971728515625,9.492000579833984,3.5689501762390137,-1.2520500421524048
1747314350045313300,2.879313232421875,9.67905044555664,3.5280001163482666,-1.234950065612793
1747314350054908700,2.88890869140625,9.751049995422363,3.475050210952759,-1.180050015449524
1747314350064503000,2.8985029296875,9.796050071716309,3.4560000896453857,-1.111050009727478
1747314350074098200,2.90809814453125,9.849000930786133,3.432000160217285,-0.9859500527381897
1747314350083694000,2.917694091796875,9.90195083618164,3.337050199508667,-0.8449500203132629
1747314350093289200,2.927289306640625,9.982950210571289,3.217050075531006,-0.6940500140190125
1747314350102883600,2.936883544921875,10.143000602722168,3.1930501461029053,-0.6150000095367432
1747314350112478700,2.946478759765625,10.218000411987305,3.1930501461029053,-0.6100500226020813
1747314350122074600,2.95607470703125,10.21095085144043,3.235950231552124,-0.6199500560760498
1747314350131669800,2.965669677734375,10.045050621032715,3.235950231552124,-0.6010500192642212
1747314350141264100,2.97526416015625,9.775050163269043,3.262050151824951,-0.5860500335693359
1747314350150859300,2.984859375,9.538050651550293,3.376950263977051,-0.5809500217437744
1747314350160455200,2.994455078125,9.490050315856934,3.4180500507354736,-0.5580000281333923
1747314350170050600,3.004050537109375,9.468000411987305,3.3889501094818115,-0.6340500116348267
1747314350179645000,3.01364501953125,9.496950149536133,3.385050058364868,-0.739050030708313
1747314350189240000,3.023239990234375,9.724050521850586,3.3799500465393066,-0.8740500211715698
1747314350198836000,3.0328359375,10.01400089263916,3.3700501918792725,-0.9960000514984131
1747314350208431000,3.04243115234375,10.081050872802734,3.604950189590454,-0.8860500454902649
1747314350218025500,3.052025390625,9.325050354003906,3.8749501705169678,-0.7680000066757202
1747314350227620900,3.061620849609375,8.628000259399414,3.8370001316070557,-0.8230500221252441
1747314350237216500,3.071216552734375,8.709000587463379,3.832050085067749,-1.2109500169754028
1747314350246812000,3.08081201171875,9.415950775146484,3.873000144958496,-1.6180500984191895
1747314350256406000,3.090406005859375,10.440000534057617,3.6910502910614014,-1.6950000524520874
1747314350266001400,3.10000146484375,11.383950233459473,3.3700501918792725,-1.4820001125335693
1747314350275597300,3.109597412109375,11.767050743103027,3.1240501403808594,-1.1509500741958618
1747314350285192400,3.1191923828125,11.769001007080078,2.8789501190185547,-1.0290000438690186
1747314350294786800,3.128786865234375,11.88900089263916,2.7910501956939697,-1.0990500450134277
1747314350304382000,3.1383818359375,11.893950462341309,2.839050054550171,-1.2930001020431519
1747314350313977900,3.147977783203125,11.785950660705566,2.9100000858306885,-1.4599500894546509
1747314350323573000,3.157572998046875,11.463000297546387,2.9130001068115234,-1.3860000371932983
1747314350333167600,3.167167724609375,10.95300006866455,2.8630502223968506,-1.1560500860214233
1747314350342762500,3.176762451171875,10.491000175476074,2.77905011177063,-0.8280000686645508
1747314350352358700,3.186358642578125,10.15095043182373,2.700000047683716,-0.5770500302314758
1747314350361953800,3.195953857421875,9.910950660705566,2.6830501556396484,-0.4549500346183777
1747314350371548200,3.205548095703125,9.823050498962402,2.6929500102996826,-0.4549500346183777
1747314350381143300,3.215143310546875,9.748050689697266,2.680950164794922,-0.4759500324726105
1747314350390739200,3.2247392578125,9.693000793457031,2.659050226211548,-0.48795002698898315
1747314350400334300,3.234334228515625,9.543000221252441,2.5540502071380615,-0.361050009727478
1747314350409928700,3.2439287109375,9.4350004196167,2.419950008392334,-0.21495001018047333
1747314350419523800,3.25352392578125,9.361050605773926,2.3310000896453857,-0.08295000344514847
1747314350429119700,3.26311962890625,9.235950469970703,2.2519500255584717,0.05205000191926956
1747314350438715000,3.27271484375,8.992050170898438,2.1919500827789307,0.1770000010728836
1747314350448309500,3.2823095703125,8.86305046081543,2.16795015335083,0.21000000834465027
1747314350457904600,3.291904541015625,8.85300064086914,2.1559500694274902,0.26805001497268677
1747314350467500500,3.30150048828125,8.913000106811523,2.1060001850128174,0.3730500042438507
1747314350477095700,3.311095703125,8.932050704956055,2.020050048828125,0.5910000205039978
1747314350486690000,3.32068994140625,8.812050819396973,1.977000117301941,0.7459500432014465
1747314350496285200,3.33028515625,8.767050743103027,2.0340001583099365,0.8970000147819519
1747314350505881000,3.339881103515625,8.61405086517334,2.0749499797821045,0.9430500268936157
1747314350515476200,3.349476318359375,8.56605052947998,2.1850500106811523,0.8130000233650208
1747314350525070600,3.359070556640625,8.611050605773926,2.2759501934051514,0.7660500407218933
1747314350534665700,3.368665771484375,8.57295036315918,2.3359501361846924,0.7579500079154968
1747314350544261600,3.37826171875,8.61405086517334,2.470050096511841,0.5670000314712524
1747314350553856800,3.387856689453125,8.665950775146484,2.593950033187866,0.33900001645088196
1747314350563451400,3.397451416015625,8.764050483703613,2.668950080871582,0.05400000140070915
1747314350573046300,3.40704638671875,8.958000183105469,2.665950059890747,-0.11700000613927841
1747314350582642400,3.416642333984375,9.27405071258545,2.5660500526428223,-0.28200000524520874
1747314350592237600,3.426237548828125,9.880050659179688,2.4120001792907715,-0.3660000264644623
1747314350601832000,3.43583203125,10.680000305175781,2.2350001335144043,-0.46905001997947693
1747314350611427300,3.44542724609375,11.31195068359375,2.092050075531006,-0.5809500217437744
1747314350621023000,3.45502294921875,11.779050827026367,1.9930500984191895,-0.7350000143051147
1747314350630618400,3.464618408203125,12.052050590515137,1.960050106048584,-0.8419500589370728
1747314350640212500,3.47421240234375,11.973000526428223,1.990950107574463,-0.8710500597953796
1747314350649808000,3.483807861328125,11.488950729370117,2.0940001010894775,-0.9070500135421753
1747314350659403800,3.49340380859375,10.584000587463379,2.3310000896453857,-1.0120500326156616
1747314350668999000,3.5029990234375,9.472949981689453,2.635050058364868,-1.0960500240325928
1747314350678593000,3.512593017578125,8.544000625610352,2.9220001697540283,-1.1080501079559326
1747314350688188400,3.5221884765625,7.953000545501709,3.0349502563476562,-0.9960000514984131
1747314350697784300,3.531784423828125,7.609950542449951,2.949000120162964,-0.7990500330924988
1747314350707379500,3.54137939453125,7.492950439453125,2.8219501972198486,-0.4429500102996826
1747314350716974000,3.55097412109375,7.669950485229492,2.707050085067749,-0.32505002617836
1747314350726569000,3.56056884765625,8.11305046081543,2.716050148010254,-0.04800000041723251
1747314350736165000,3.5701650390625,8.41200065612793,2.7930002212524414,0.0499500036239624
1747314350745760300,3.57976025390625,8.341050148010254,3.0919501781463623,-0.286950021982193
1747314350755354600,3.589354736328125,7.957950592041016,3.526050090789795,-0.7540500164031982
1747314350764949800,3.59894970703125,7.311000347137451,3.8299500942230225,-1.0960500240325928
1747314350774545700,3.608545654296875,7.051950454711914,3.892050266265869,-1.2880500555038452
1747314350784140800,3.618140869140625,7.098000526428223,3.9499502182006836,-1.446000099182129
1747314350793735400,3.6277353515625,7.504950523376465,3.8370001316070557,-1.5730500221252441
1747314350803330600,3.63733056640625,7.978950500488281,3.496950149536133,-1.204050064086914
1747314350812926500,3.646926513671875,8.410050392150879,3.0900001525878906,-0.5860500335693359
1747314350822521600,3.656521484375,9.097050666809082,2.986950159072876,-0.3469500243663788
1747314350832116000,3.666115966796875,9.660000801086426,2.986950159072876,-0.44700002670288086
1747314350841711000,3.675711181640625,9.526050567626953,3.1930501461029053,-0.8179500102996826
1747314350851307300,3.685307373046875,9.270000457763672,3.5590500831604004,-1.4220000505447388
1747314350860902100,3.694902099609375,8.793000221252441,3.8749501705169678,-2.2360501289367676
1747314350870496800,3.704496826171875,8.295000076293945,4.183950424194336,-2.5260000228881836
1747314350880091600,3.714091552734375,7.984050273895264,4.2370500564575195,-2.230950117111206
1747314350889687800,3.723687744140625,7.9960503578186035,3.9379501342773438,-1.6540501117706299
1747314350899283000,3.733282958984375,7.974000453948975,3.5659501552581787,-0.9529500603675842
1747314350908877300,3.742877197265625,8.235000610351562,3.1879501342773438,-0.5809500217437744
1747314350918472400,3.752472412109375,8.395950317382812,3.1020002365112305,-0.45705002546310425
1747314350928068400,3.762068359375,8.5420503616333,2.8789501190185547,-0.22005000710487366
1747314350937663700,3.771663818359375,8.431950569152832,2.889000177383423,-0.26805001497268677
1747314350947258000,3.781258056640625,8.27595043182373,3.025050163269043,-0.48795002698898315
1747314350956853200,3.790853271484375,7.777950286865234,3.1930501461029053,-0.8089500665664673
1747314350966449200,3.80044921875,7.380000114440918,3.5590500831604004,-1.4100000858306885
1747314350976044300,3.810044189453125,7.3399505615234375,3.844050168991089,-1.8649500608444214
1747314350985638700,3.819638671875,7.206000328063965,3.6979501247406006,-1.752000093460083
1747314350995234000,3.829234130859375,7.087950229644775,3.4420502185821533,-1.2540000677108765
1747314351004829700,3.83882958984375,6.8680500984191895,3.274050235748291,-1.081950068473816
1747314351014425000,3.848425048828125,6.601950168609619,3.025050163269043,-0.9720000624656677
1747314351024019200,3.858019287109375,6.724050521850586,2.7499501705169678,-0.9139500260353088
1747314351033614600,3.867614501953125,6.877950191497803,2.1919500827789307,-0.9960000514984131
1747314351043210500,3.87721044921875,7.129050254821777,2.009999990463257,-0.5910000205039978
1747314351052805600,3.8868056640625,6.885000228881836,2.2710001468658447,-1.6230000257492065
1747314351062400000,3.89639990234375,6.49500036239624,2.8819501399993896,-3.072000026702881
1747314351071995100,3.9059951171875,6.4800004959106445,3.322050094604492,-3.664950132369995
1747314351081591000,3.915591064453125,6.418050289154053,3.114000082015991,-3.696000099182129
1747314351091186200,3.925186279296875,7.021050453186035,2.9200501441955566,-3.607950210571289
1747314351100780500,3.934780517578125,8.02500057220459,2.8510501384735107,-4.2109503746032715
1747314351110375700,3.944375732421875,8.527050018310547,2.8650002479553223,-4.666050434112549
1747314351119971600,3.9539716796875,7.990950584411621,2.5470001697540283,-4.482000350952148
1747314351129566700,3.963566650390625,6.8680500984191895,1.8379501104354858,-3.724950075149536
1747314351139161000,3.9731611328125,6.100050449371338,1.1149500608444214,-2.8180501461029053
1747314351148756200,3.982756103515625,5.518050193786621,0.8419500589370728,-2.7460501194000244
1747314351158352400,3.992352294921875,6.2719502449035645,0.8749500513076782,-4.186950206756592
1747314351167947300,4.001947265625,6.784050464630127,1.4239500761032104,-5.752950191497803
1747314351177542000,4.0115419921875,6.070950508117676,1.555050015449524,-6.249000072479248
1747314351187137000,4.021136962890625,4.974000453948975,1.5670500993728638,-6.51900053024292
1747314351196733000,4.03073291015625,5.45805025100708,1.3540500402450562,-6.843000411987305
1747314351206328000,4.040328125,6.784050464630127,0.7410000562667847,-7.24500036239624
1747314351215922400,4.04992236328125,8.42400074005127,0.3679500222206116,-7.24500036239624
1747314351225517800,4.059517822265625,9.799050331115723,-0.028950002044439316,-7.168050289154053
1747314351235113500,4.069113525390625,10.936050415039062,-0.06000000238418579,-6.996000289916992
1747314351244708900,4.078708984375,11.146950721740723,-0.05295000225305557,-6.7009501457214355
1747314351254303000,4.088302978515625,10.837950706481934,-0.12495000660419464,-6.129000186920166
1747314351263898400,4.0978984375,9.868050575256348,-0.2950500249862671,-5.224050045013428
1747314351273494000,4.107493896484375,8.653950691223145,-0.6180000305175781,-4.1509504318237305
1747314351283089400,4.11708935546875,7.7059502601623535,-0.9000000357627869,-3.2149500846862793
1747314351292683500,4.12668359375,6.7699503898620605,-1.1179500818252563,-2.9280002117156982
1747314351302279000,4.13627880859375,5.848050117492676,-1.180050015449524,-3.5220000743865967
1747314351311875000,4.145875,4.77495002746582,-0.9409500360488892,-4.35705041885376
1747314351321470000,4.155469970703125,4.25100040435791,-0.8500500321388245,-4.858050346374512
1747314351331064600,4.165064697265625,4.1509504318237305,-1.111050009727478,-5.188050270080566
1747314351340659500,4.174659423828125,4.7059502601623535,-1.3620001077651978,-5.214000225067139
1747314351350255600,4.184255615234375,4.725000381469727,-1.810050129890442,-4.768950462341309
1747314351359850800,4.193850830078125,4.795050144195557,-2.3389501571655273,-4.453050136566162
1747314351369445000,4.203445068359375,4.479000091552734,-2.9670002460479736,-3.787050247192383
1747314351379040300,4.213040283203125,4.096050262451172,-3.6750001907348633,-3.016050100326538
1747314351388636200,4.22263623046875,4.207950115203857,-4.054049968719482,-3.0360002517700195
1747314351398231600,4.2322314453125,3.664950132369995,-4.225950241088867,-3.321000099182129
1747314351407826000,4.241825927734375,3.1110000610351562,-4.384050369262695,-3.81600022315979
1747314351417421000,4.251421142578125,2.605950117111206,-4.62600040435791,-4.162950038909912
1747314351427017000,4.261016845703125,1.7779500484466553,-4.7310004234313965,-4.6780500411987305
1747314351436612000,4.270612060546875,1.4929500818252563,-4.9609503746032715,-4.9870500564575195
1747314351446206500,4.28020654296875,1.8930001258850098,-5.478000164031982,-4.815000057220459
1747314351455801600,4.289801513671875,2.5060501098632812,-6.256050109863281,-4.840950012207031
1747314351465397800,4.299397705078125,2.8120501041412354,-7.096950531005859,-5.0970001220703125
1747314351474992600,4.30899267578125,3.415950059890747,-7.888950347900391,-5.338950157165527
1747314351484587300,4.318587158203125,2.48895001411438,-8.718000411987305,-6.739950180053711
1747314351494182100,4.32818212890625,2.926950216293335,-8.657999992370605,-6.328050136566162
1747314351503778300,4.3377783203125,5.580000400543213,-8.904000282287598,-6.0360002517700195
1747314351513373400,4.34737353515625,8.427000045776367,-9.271050453186035,-9
1747314351522967800,4.3569677734375,9.523050308227539,-8.952000617980957,-11.698050498962402
1747314351532563200,4.366563232421875,9.19800090789795,-8.509050369262695,-13.276050567626953
1747314351542159000,4.3761591796875,8.01300048828125,-8.305950164794922,-14.19105052947998
1747314351551754200,4.385754150390625,6.79395055770874,-8.293950080871582,-14.647951126098633
1747314351561348400,4.395348388671875,6.13800048828125,-8.596050262451172,-14.668951034545898
1747314351570943700,4.40494384765625,6.090000152587891,-8.940000534057617,-14.830050468444824
1747314351580539600,4.41453955078125,6.094950199127197,-8.938050270080566,-16.096050262451172
1747314351590134800,4.424134765625,6.22605037689209,-8.48805046081543,-18.052949905395508
1747314351599729400,4.4337294921875,6.043950080871582,-8.124000549316406,-20.02800178527832
1747314351609324300,4.44332421875,5.500950336456299,-7.927950382232666,-21.730051040649414
1747314351618920400,4.45292041015625,4.840050220489502,-7.674000263214111,-22.426950454711914
1747314351628515600,4.462515625,4.0980000495910645,-7.249950408935547,-22.063051223754883
1747314351638110000,4.47210986328125,2.949000120162964,-7.261950492858887,-21.225000381469727
1747314351647705000,4.481705078125,1.9810501337051392,-7.573050498962402,-18.780000686645508
1747314351657301000,4.491301025390625,1.9789501428604126,-6.67995023727417,-18.358951568603516
1747314351666896100,4.500896240234375,1.8229501247406006,-6.1080002784729,-18.69900131225586
1747314351676490500,4.510490478515625,1.3999500274658203,-6.23205041885376,-18.151050567626953
1747314351686085600,4.520085693359375,1.4640001058578491,-6.517050266265869,-17.209951400756836
1747314351695681800,4.529681884765625,2.2710001468658447,-6.67995023727417,-16.750051498413086
1747314351705276700,4.539276611328125,3.0300002098083496,-6.505050182342529,-16.171051025390625
1747314351714871300,4.548871337890625,3.255000114440918,-6.019050121307373,-15.546000480651855
1747314351724466200,4.558466064453125,2.1469500064849854,-5.773050308227539,-15.093000411987305
1747314351734062300,4.568062255859375,-0.031050002202391624,-5.404050350189209,-14.085000991821289
1747314351743657700,4.57765771484375,-2.1379501819610596,-4.858050346374512,-12.931050300598145
1747314351753251800,4.587251953125,-3.1080000400543213,-4.249950408935547,-11.88705062866211
1747314351762847200,4.59684716796875,-4.159049987792969,-3.6180002689361572,-11.059050559997559
1747314351772443000,4.60644287109375,-5.775000095367432,-2.7990000247955322,-10.326000213623047
1747314351782038300,4.616038330078125,-9.976950645446777,-1.686000108718872,-9.108000755310059
1747314351791632600,4.625632568359375,-13.470000267028809,-0.4759500324726105,-7.687950134277344
1747314351810824000,4.644823974609375,-6.87600040435791,-0.4740000367164612,-8.6089506149292
1747314351820418800,4.654418701171875,-3.370950222015381,-1.336050033569336,-13.530000686645508
1747314351839608300,4.6736083984375,2.8500001430511475,-3.121950149536133,-13.249950408935547
1747314351849204500,4.68320458984375,4.427999973297119,-4.951050281524658,-11.278950691223145
1747314351868394000,4.70239404296875,6.234000205993652,-6.1650004386901855,-4.479000091552734
1747314351877989000,4.711989013671875,5.284950256347656,-3.7609500885009766,-6.889950275421143
1747314351897180200,4.73118017578125,0.6910500526428223,0.42000001668930054,-13.177950859069824
1747314351906774500,4.7407744140625,0.6720000505447388,1.0810500383377075,-13.44105052947998
1747314351925965600,4.759965576171875,-1.2139500379562378,-0.286950021982193,-11.47095012664795
1747314351954750500,4.78875048828125,1.4449501037597656,3.5190000534057617,-9.172050476074219
1747314351964346400,4.798346435546875,4.6369500160217285,-0.07200000435113907,-11.368050575256348
1747314351973941500,4.80794140625,6.067950248718262,0.6289500594139099,-11.671950340270996
1747314351983535900,4.817535888671875,5.740050315856934,1.9000500440597534,-11.088000297546387
1747314351993131000,4.827131103515625,5.428950309753418,2.2740001678466797,-11.881950378417969
1747314352002727000,4.836726806640625,6.12600040435791,0.46605002880096436,-9.931050300598145
1747314352012322000,4.846322021484375,5.82705020904541,-1.0219500064849854,-7.600950241088867
1747314352021916400,4.85591650390625,4.950000286102295,-2.302950143814087,-7.092000484466553
1747314352031511600,4.865511474609375,4.267950057983398,-4.077000141143799,-6.490950107574463
1747314352041107700,4.875107666015625,3.922950267791748,-5.947050094604492,-5.748000144958496
1747314352050702600,4.88470263671875,3.327000141143799,-7.5199503898620605,-5.029950141906738
1747314352060297000,4.894296875,1.8160500526428223,-8.077950477600098,-5.221950054168701
1747314352069892000,4.90389208984375,0.17100000381469727,-7.827000141143799,-5.467950344085693
1747314352079488300,4.91348828125,-0.9460500478744507,-7.663950443267822,-5.478000164031982
1747314352089083400,4.92308349609375,-2.293950080871582,-7.281000137329102,-5.110950469970703
1747314352098677800,4.932677734375,-3.4810502529144287,-6.714000225067139,-6.2989501953125
1747314352108273000,4.94227294921875,-3.378000259399414,-6.98205041885376,-4.588950157165527
1747314352117868800,4.951868896484375,-3.8020501136779785,-7.212000370025635,-3.7320001125335693
1747314352127464000,4.9614638671875,-3.1560001373291016,-6.874050140380859,-4.611000061035156
1747314352137058300,4.971058349609375,-2.7270002365112305,-6.441000461578369,-4.543950080871582
1747314352146653400,4.9806533203125,-3.223050117492676,-6.046050071716309,-5.134950160980225
1747314352156249300,4.990249267578125,-1.7670000791549683,-6.642000198364258,-4.351950168609619
1747314352185034200,5.0190341796875,4.255949974060059,-8.293950080871582,-5.317050457000732
1747314352204225300,5.038225341796875,5.821950435638428,-9.192000389099121,-6.463950157165527
1747314352213819600,5.047819580078125,7.024050235748291,-9.709050178527832,-7.057950496673584
1747314352223414800,5.057414794921875,7.330050468444824,-10.128000259399414,-8.515950202941895
1747314352233011000,5.067010986328125,6.60705041885376,-9.699000358581543,-10.312050819396973
1747314352242606000,5.076606201171875,5.500950336456299,-8.964000701904297,-11.491950988769531
1747314352252200200,5.0862001953125,4.668000221252441,-8.485050201416016,-12.160050392150879
1747314352280986600,5.114986572265625,6.796050548553467,-7.891950607299805,-16.293001174926758
1747314352290581000,5.1245810546875,7.780050277709961,-7.449000358581543,-17.302949905395508
1747314352300176100,5.134176025390625,8.443950653076172,-6.97005033493042,-16.49595069885254
1747314352309772300,5.143772216796875,8.695050239562988,-6.733050346374512,-15.595951080322266
1747314352319367400,5.153367431640625,7.024050235748291,-6.757050514221191,-14.892001152038574
1747314352328961800,5.1629619140625,5.854950428009033,-6.6469502449035645,-13.032000541687012
1747314352338557000,5.172556884765625,7.189050197601318,-6.252000331878662,-11.60205078125
1747314352348152800,5.18215283203125,7.639050483703613,-5.524050235748291,-11.437050819396973
1747314352367342600,5.201342529296875,10.56195068359375,-5.800950050354004,-9.856950759887695
1747314352376937500,5.2109375,12.612000465393066,-6.766050338745117,-7.716000556945801
1747314352386533600,5.22053369140625,12.303000450134277,-7.357950210571289,-4.771050453186035
1747314352396128500,5.23012841796875,10.888050079345703,-6.643950462341309,-5.680950164794922
1747314352405723100,5.23972314453125,9.8899507522583,-5.619000434875488,-9.679950714111328
1747314352415318300,5.249318359375,8.881950378417969,-3.9979500770568848,-11.125950813293457
1747314352424914200,5.2589140625,6.183000087738037,-3.1650002002716064,-7.654050350189209
1747314352434509600,5.268509521484375,3.9780001640319824,-1.9150501489639282,-6.66795015335083
1747314352444103700,5.278103759765625,3.621000289916992,-0.4620000123977661,-8.527950286865234
1747314352453699000,5.287698974609375,-0.0580500029027462,1.1890500783920288,-10.711950302124023
1747314352463295000,5.297294921875,-4.747950077056885,2.997000217437744,-12.370950698852539
1747314352472890000,5.30689013671875,-10.032000541687012,3.7009501457214355,-12.129000663757324
1747314352482484700,5.316484619140625,-12.570000648498535,3.58305025100708,-10.000950813293457
1747314352492079600,5.32607958984375,-7.213950157165527,0.8710500597953796,-9.570000648498535
1747314352501675800,5.33567578125,-1.3620001077651978,-2.0470499992370605,-8.204999923706055
1747314352511271000,5.34527099609375,-0.3829500079154968,-4.236000061035156,-6.177000522613525
1747314352520865300,5.354865234375,0.25005000829696655,-5.9350504875183105,-5.131050109863281
1747314352530460400,5.36446044921875,1.8450000286102295,-7.420050144195557,-4.2109503746032715
1747314352540056300,5.374056396484375,4.085999965667725,-7.923000335693359,-3.306000232696533
1747314352549651500,5.3836513671875,4.656000137329102,-8.088000297546387,-2.3650500774383545
1747314352559246000,5.39324609375,3.4830002784729004,-5.701050281524658,-4.9609503746032715
1747314352568841000,5.402841064453125,1.9789501428604126,-3.5940001010894775,-9.196050643920898
1747314352578437000,5.41243701171875,3.3889501094818115,-4.966050148010254,-8.914050102233887
1747314352588032300,5.4220322265625,3.118950128555298,-4.540050029754639,-9.510000228881836
1747314352597626600,5.431626708984375,0.9690000414848328,-2.701050043106079,-12.345000267028809
1747314352607221800,5.4412216796875,1.9530000686645508,0.09495000541210175,-17.83500099182129
1747314352616817700,5.450817626953125,8.530050277709961,-0.7110000252723694,-22.378950119018555
1747314352626412800,5.460412841796875,13.507050514221191,-3.6250500679016113,-18.553050994873047
1747314352636007200,5.470007080078125,14.203950881958008,-6.457050323486328,-10.104000091552734
1747314352645602600,5.4796025390625,12.349050521850586,-6.927000522613525,-7.114950180053711
1747314352655198500,5.489198486328125,12.267000198364258,-7.33905029296875,-2.650050163269043
1747314352664793600,5.498793701171875,10.954950332641602,-7.722000598907471,0.22005000710487366
1747314352674388000,5.508387939453125,8.42400074005127,-7.594950199127197,0.9259500503540039
1747314352683983000,5.517983154296875,4.360949993133545,-7.137000560760498,0.9430500268936157
1747314352693579000,5.5275791015625,1.048050045967102,-6.225000381469727,-2.0299501419067383
1747314352703174400,5.53717431640625,-0.5149500370025635,-4.798050403594971,-4.696950435638428
1747314352712768800,5.546768798828125,-1.4610000848770142,-3.879000186920166,-7.6710004806518555
1747314352722364000,5.556364013671875,-2.265000104904175,-4.449000358581543,-10.369050025939941
1747314352731959800,5.565959716796875,-1.204050064086914,-3.699000120162964,-11.430000305175781
1747314352741555000,5.575554931640625,-0.04605000093579292,-4.140000343322754,-11.703001022338867
1747314352751149300,5.5851494140625,0.9370500445365906,-5.3680500984191895,-11.200050354003906
1747314352760744400,5.594744384765625,1.549950122833252,-6.390000343322754,-10.329000473022461
1747314352770340400,5.60434033203125,2.1010501384735107,-7.762050151824951,-9.084000587463379
1747314352779935500,5.613935546875,1.5600000619888306,-7.908000469207764,-7.249950408935547
1747314352789529900,5.62352978515625,0.4129500091075897,-8.244000434875488,-5.521050453186035
1747314352799125200,5.633125244140625,-1.0489500761032104,-8.196000099182129,-2.6640000343322754
1747314352808721200,5.64272119140625,-2.0689501762390137,-8.845050811767578,-0.8590500354766846
1747314352818316300,5.65231640625,-0.9000000357627869,-11.725050926208496,-1.0440000295639038
1747314352827910700,5.66191064453125,2.032050132751465,-12.421950340270996,-0.4519500136375427
1747314352837505800,5.671505859375,5.044050216674805,-12.66300106048584,-0.5929500460624695
1747314352847101700,5.681101806640625,5.869950294494629,-11.719950675964355,-2.461050033569336
1747314352856696800,5.69069677734375,5.554050445556641,-10.630950927734375,-2.6020500659942627
1747314352866291200,5.700291259765625,7.549950122833252,-11.682000160217285,-4.573050022125244
1747314352875886600,5.709886474609375,5.853000164031982,-11.869050979614258,-7.915050506591797
1747314352885482500,5.719482421875,1.0879501104354858,-9.508050918579102,-8.842050552368164
1747314352895077600,5.72907763671875,1.7299500703811646,-7.870050430297852,-7.317000389099121
1747314352904672000,5.738672119140625,3.43500018119812,-7.686000347137451,-7.4239501953125
1747314352914267100,5.74826708984375,2.845950126647949,-8.281949996948242,-8.740950584411621
1747314352923863000,5.757863037109375,1.5169501304626465,-8.605050086975098,-10.18005084991455
1747314352933458200,5.767458251953125,0.5520000457763672,-8.14995002746582,-12.808950424194336
1747314352943052500,5.777052490234375,-1.4100000858306885,-6.4069504737854,-16.68494987487793
1747314352952648000,5.78664794921875,-0.6349500417709351,-4.840950012207031,-18.55500030517578
1747314352962243800,5.796243896484375,0.6910500526428223,-3.787950277328491,-19.951051712036133
1747314352971839000,5.8058388671875,0.39900001883506775,-2.6479501724243164,-21.09105110168457
1747314352981433300,5.815433349609375,-0.4410000145435333,-1.7929500341415405,-21.144001007080078
1747314352991028700,5.82502880859375,-0.673050045967102,-1.9390500783920288,-18.451950073242188
1747314353000624400,5.834624267578125,-0.5560500025749207,-2.8560001850128174,-14.755950927734375
1747314353010219800,5.8442197265625,-0.7969500422477722,-3.727950096130371,-11.902050971984863
1747314353019814000,5.85381396484375,-2.77305006980896,-2.7990000247955322,-10.072050094604492
1747314353029409300,5.8634091796875,-2.2390501499176025,-2.16195011138916,-8.06100082397461
1747314353039005000,5.8730048828125,-0.2659500241279602,-2.9880001544952393,-5.413050174713135
1747314353048600300,5.882600341796875,1.2630000114440918,-4.120950222015381,-2.3749501705169678
1747314353058194700,5.892194580078125,2.1439499855041504,-5.416050434112549,-0.24900001287460327
1747314353067790000,5.9017900390625,5.020050048828125,-6.967050552368164,-1.50600004196167
1747314353077386000,5.911385986328125,9.41100025177002,-8.145000457763672,-4.35705041885376
1747314353086980900,5.92098095703125,11.587050437927246,-9.366000175476074,-3.89805006980896
1747314353096575500,5.930575439453125,8.965950012207031,-10.633050918579102,0.598050057888031
1747314353106170600,5.940170654296875,5.439000129699707,-10.96095085144043,5.092050075531006
1747314353115766500,5.9497666015625,2.7499501705169678,-10.17300033569336,6.361050128936768
1747314353125361700,5.959361572265625,0.4350000321865082,-8.952000617980957,5.307000160217285
1747314353134956000,5.9689560546875,-1.2360000610351562,-7.6900506019592285,3.487950086593628
1747314353144551200,5.97855126953125,-3.3930001258850098,-6.772950172424316,1.5529500246047974
1747314353154147000,5.98814697265625,-7.018050193786621,-6.469050407409668,-1.1179500818252563
1747314353163742500,5.997742431640625,-7.935000419616699,-5.835000514984131,-3.5809502601623535
1747314353173336600,6.007336669921875,-6.574950218200684,-5.406000137329102,-5.013000011444092
1747314353182931700,6.016931640625,-6.457050323486328,-6.048000335693359,-6.771000385284424
1747314353192527600,6.026527587890625,-5.148000240325928,-6.508050441741943,-8.03700065612793
1747314353202123000,6.036123046875,-3.4549500942230225,-6.639000415802002,-8.193000793457031
1747314353211717400,6.04571728515625,-3.7380001544952393,-7.494000434875488,-9.490950584411621
1747314353221312500,6.0553125,-6.607950210571289,-8.026050567626953,-12.349050521850586
1747314353230908400,6.064908447265625,-7.474950313568115,-8.646000862121582,-14.997000694274902
1747314353240503600,6.074503662109375,-4.795950412750244,-9.702000617980957,-14.75100040435791
1747314353250098200,6.08409814453125,-1.8630000352859497,-10.558950424194336,-13.360050201416016
1747314353259693300,6.093693359375,0.753000020980835,-10.518000602722168,-10.206000328063965
1747314353269289200,6.103289306640625,2.1730501651763916,-10.03695011138916,-6.19605016708374
1747314353278884400,6.11288427734375,1.7869501113891602,-9.27495002746582,-2.77905011177063
1747314353288478700,6.122478759765625,0.46095001697540283,-8.586000442504883,-1.1440500020980835
1747314353298073900,6.132073974609375,-1.152000069618225,-8.071050643920898,-1.4910000562667847
1747314353307669800,6.141669677734375,-2.6170501708984375,-7.711950302124023,-1.9150501489639282
1747314353317265000,6.151264892578125,-3.5719501972198486,-7.6900506019592285,-2.2960500717163086
1747314353326859300,6.160859375,-3.747000217437744,-8.46405029296875,-1.374000072479248
1747314353336454400,6.170454345703125,-2.562000036239624,-9.124950408935547,-0.22500000894069672
1747314353346050600,6.180050537109375,-1.2430500984191895,-8.884950637817383,-0.7350000143051147
1747314353355645400,6.1896455078125,-2.320050001144409,-8.623950004577637,-3.2560501098632812
1747314353365240000,6.199239990234375,-8.494950294494629,-9.841050148010254,-7.852950572967529
1747314353374835200,6.208835205078125,-4.426949977874756,-10.243050575256348,-8.017950057983398
1747314353384431400,6.218431396484375,1.3830000162124634,-9.502950668334961,-7.897950172424316
1747314353394026500,6.228026611328125,3.0109500885009766,-9.490950584411621,-6.979050159454346
1747314353403620600,6.23762060546875,2.359950065612793,-9.409950256347656,-5.188050270080566
1747314353413216000,6.247216064453125,1.2610501050949097,-9.31095027923584,-3.727950096130371
1747314353422812000,6.25681201171875,0.4630500078201294,-9.321000099182129,-2.3269500732421875
1747314353432407000,6.266406982421875,0.06599999964237213,-10.743000984191895,-0.5650500059127808
1747314353442001400,6.27600146484375,-0.48900002241134644,-12.831000328063965,0.3060000240802765
1747314353451596500,6.285596435546875,-0.7969500422477722,-14.308051109313965,0.6910500526428223
1747314353461192700,6.295192626953125,-1.1179500818252563,-15.448050498962402,0.5089499950408936
1747314353470787800,6.304787841796875,-1.1920500993728638,-15.928950309753418,-0.33000001311302185
1747314353480382200,6.31438232421875,-0.5509500503540039,-15.927000999450684,-1.1610000133514404
1747314353489977300,6.323977294921875,0.08700000494718552,-15.349950790405273,-2.892000198364258
1747314353499573200,6.3335732421875,0.8460000157356262,-14.071050643920898,-5.155050277709961
1747314353509168600,6.343168701171875,1.8139500617980957,-12.418951034545898,-4.79295015335083
1747314353518762800,6.3527626953125,2.7619500160217285,-10.76205062866211,-1.4050500392913818
1747314353528358100,6.362358154296875,3.307950258255005,-10.008000373840332,1.7230501174926758
1747314353537954000,6.3719541015625,3.2890501022338867,-9.678000450134277,3.4230000972747803
1747314353547549200,6.381549072265625,3.58305025100708,-9.517050743103027,4.22504997253418
1747314353557143800,6.391143798828125,4.048050403594971,-9.232050895690918,4.113000392913818
1747314353566739000,6.400739013671875,4.206000328063965,-8.563950538635254,2.650050163269043
1747314353576334800,6.4103349609375,3.925950288772583,-8.245950698852539,0.9379500150680542
1747314353585930000,6.419929931640625,3.0900001525878906,-8.386950492858887,0.07800000160932541
1747314353595524400,6.4295244140625,2.0340001583099365,-8.854050636291504,0.12105000764131546
1747314353605119500,6.439119384765625,1.2060000896453857,-9.321000099182129,0.6000000238418579
1747314353614715400,6.44871533203125,0.5850000381469727,-9.580050468444824,1.0049999952316284
1747314353624310500,6.458310546875,0.13095000386238098,-9.673050880432129,1.0429500341415405
1747314353633905000,6.46790478515625,-0.1680000126361847,-9.651000022888184,1.0049999952316284
1747314353643500000,6.4775,-0.3040500283241272,-9.430950164794922,0.9499500393867493
1747314353653096200,6.48709619140625,-0.3379500210285187,-9.651000022888184,1.3260000944137573
1747314353662691000,6.496691162109375,-0.1870500147342682,-9.940950393676758,1.287000060081482
1747314353672285700,6.50628564453125,-0.20400001108646393,-9.976950645446777,0.6940500140190125
1747314353681880800,6.515880859375,-0.22995001077651978,-10.0420503616333,0.3660000264644623
1747314353691476700,6.525476806640625,0.05895000323653221,-10.513050079345703,0.6150000095367432
1747314353701072000,6.53507177734375,0.3559500277042389,-11.002050399780273,0.6910500526428223
1747314353710666200,6.544666259765625,0.49500003457069397,-11.112000465393066,0.11400000751018524
1747314353720261600,6.55426171875,0.6000000238418579,-10.671000480651855,-0.7950000166893005
1747314353729857500,6.563857421875,0.7960500121116638,-10.63800048828125,-1.1230500936508179
1747314353739452700,6.57345263671875,0.9469500184059143,-11.065950393676758,-0.6460500359535217
1747314353749047000,6.583047119140625,0.973050057888031,-10.719000816345215,-0.6199500560760498
1747314353758642200,6.59264208984375,0.6409500241279602,-10.35300064086914,-1.0030500888824463
1747314353768238000,6.602238037109375,0.1189500093460083,-9.61305046081543,-1.4860501289367676
1747314353777833200,6.611833251953125,-0.42195001244544983,-9.205950736999512,-1.7239500284194946
1747314353787427800,6.621427734375,-0.7609500288963318,-9.430950164794922,-1.5010501146316528
1747314353797022700,6.631022705078125,-0.7350000143051147,-9.781050682067871,-1.467000126838684
1747314353806619000,6.640618896484375,-0.43605002760887146,-10.401000022888184,-1.7710500955581665
1747314353816213800,6.6502138671875,-0.30705001950263977,-11.031000137329102,-2.1280500888824463
1747314353825808400,6.659808349609375,-0.5320500135421753,-11.269950866699219,-2.1040501594543457
1747314353835403300,6.6694033203125,-1.0200001001358032,-10.908000946044922,-1.53000009059906
1747314353844999400,6.67899951171875,-1.5180001258850098,-10.402950286865234,-0.8470500111579895
1747314353854594800,6.6885947265625,-1.9369500875473022,-9.994050025939941,-0.07095000147819519
1747314353864189000,6.69818896484375,-2.3010001182556152,-9.757050514221191,0.4710000157356262
1747314353873784300,6.707784423828125,-2.442000150680542,-9.556050300598145,0.8400000333786011
1747314353883380000,6.7173798828125,-2.263050079345703,-9.414000511169434,0.8470500111579895
1747314353892975400,6.726975341796875,-1.8030000925064087,-9.610950469970703,0.3559500277042389
1747314353902569700,6.73656982421875,-1.128000020980835,-9.855000495910645,-0.07395000010728836
1747314353912164900,6.746164794921875,-0.453000009059906,-10.281000137329102,-0.1770000010728836
1747314353921760800,6.7557607421875,0.2070000171661377,-10.705050468444824,0.15495000779628754
1747314353931356200,6.765356201171875,0.7939500212669373,-11.053950309753418,0.51705002784729
1747314353940950500,6.774950439453125,1.1359500885009766,-11.301000595092773,0.7699500322341919
1747314353950545700,6.784545654296875,1.2889500856399536,-11.550000190734863,0.9280500411987305
1747314353960141600,6.7941416015625,1.3519500494003296,-11.3899507522583,1.0890001058578491
1747314353969736700,6.80373681640625,1.3470001220703125,-11.232000350952148,0.6700500249862671
1747314353979331000,6.8133310546875,1.4760000705718994,-11.66295051574707,-0.29205000400543213
1747314353988926500,6.822926513671875,1.5360000133514404,-12.211050987243652,-0.9529500603675842
1747314353998522000,6.832522216796875,1.2820500135421753,-12.235050201416016,-1.0270500183105469
1747314354008117500,6.842117431640625,1.0519500970840454,-12.241950988769531,-0.9670500755310059
1747314354017711900,6.8517119140625,1.0140000581741333,-12.405000686645508,-1.194000005722046
1747314354027307000,6.86130712890625,0.9450000524520874,-12.505050659179688,-1.3639500141143799
1747314354036903000,6.87090283203125,0.778950035572052,-12.469050407409668,-1.5889500379562378
1747314354046498000,6.880498046875,0.6169500350952148,-12.345000267028809,-1.7830500602722168
1747314354056092700,6.8900927734375,0.527999997138977,-12.100950241088867,-2.083050012588501
1747314354065687800,6.899687744140625,0.47505003213882446,-11.791950225830078,-2.3959500789642334
1747314354075283700,6.90928369140625,0.5809500217437744,-11.52405071258545,-2.7150001525878906
1747314354084878800,6.91887890625,1.201050043106079,-11.305950164794922,-3.2749502658843994
1747314354094473200,6.92847314453125,2.7330000400543213,-11.053950309753418,-3.4519500732421875
1747314354104068400,6.938068359375,3.2500500679016113,-10.61205005645752,-2.722050189971924
1747314354113664500,6.94766455078125,1.9429501295089722,-10.14900016784668,-1.8649500608444214
1747314354123259400,6.95725927734375,-0.34995001554489136,-9.78795051574707,-1.1730000972747803
1747314354132853800,6.966853759765625,-8.148000717163086,-9.478950500488281,-0.08595000207424164
1747314354142449000,6.976448974609375,-16.867950439453125,-9.369000434875488,1.1440500020980835
1747314354152045000,6.986045166015625,-14.299050331115723,-9.486000061035156,1.4140501022338867
1747314354161640200,6.99564013671875,-8.908950805664062,-9.982050895690918,1.2490500211715698
1747314354171234600,7.005234619140625,-3.280050039291382,-10.840950965881348,2.1540000438690186
1747314354180829700,7.01482958984375,1.3180500268936157,-11.940000534057617,3.5190000534057617
1747314354190425900,7.02442578125,4.06695032119751,-12.655950546264648,4.498050212860107
1747314354200020700,7.034020751953125,4.486050128936768,-13.093950271606445,4.809000015258789
1747314354209615400,7.043615478515625,3.327000141143799,-13.183050155639648,4.13700008392334
1747314354219210500,7.05321044921875,1.957050085067749,-12.951000213623047,2.5759501457214355
1747314354228806400,7.062806396484375,0.9450000524520874,-12.892951011657715,0.7339500188827515
1747314354238401500,7.072401611328125,0.5470499992370605,-12.699000358581543,-0.8880000710487366
1747314354247996000,7.081995849609375,0.5879999995231628,-12.003000259399414,-2.095050096511841
1747314354257591000,7.091591064453125,0.625950038433075,-11.056950569152832,-2.7649500370025635
1747314354267187200,7.101187255859375,0.6720000505447388,-10.171050071716309,-3.1410000324249268
1747314354276782000,7.110781982421875,0.595050036907196,-9.505050659179688,-3.6010501384735107
1747314354286376700,7.120376708984375,0.45900002121925354,-9.115050315856934,-3.8299500942230225
1747314354295971600,7.1299716796875,-0.0070500001311302185,-8.907000541687012,-3.718050241470337
1747314354305567700,7.139567626953125,-0.1579500138759613,-8.974050521850586,-3.0520501136779785
1747314354315163000,7.149162841796875,-0.4120500087738037,-9.280050277709961,-1.812000036239624
1747314354324757200,7.15875732421875,-0.7830000519752502,-9.490950584411621,-0.7249500155448914
1747314354334352600,7.1683525390625,-0.8190000653266907,-9.622950553894043,0.037950001657009125
1747314354343948500,7.177948486328125,-0.8089500665664673,-9.58395004272461,0.32295000553131104
1747314354353543700,7.187543701171875,-0.8050500154495239,-9.307050704956055,0.3559500277042389
1747314354363138000,7.197137939453125,-0.3829500079154968,-8.860950469970703,0.4519500136375427
1747314354372733200,7.206733154296875,0.10200000554323196,-8.14995002746582,0.49695003032684326
1747314354382329000,7.2163291015625,0.28395000100135803,-7.473000526428223,0.8760000467300415
1747314354391924200,7.22592431640625,0.3150000274181366,-7.068000316619873,1.3980001211166382
1747314354401518800,7.235518798828125,0.38700002431869507,-7.128000259399414,2.0179500579833984
1747314354411114000,7.245114013671875,0.556950032711029,-7.398000240325928,2.521050214767456
1747314354420710000,7.2547099609375,0.9109500646591187,-7.7719502449035645,2.9830501079559326
1747314354430305000,7.264304931640625,1.3420500755310059,-8.155050277709961,3.5329501628875732
1747314354439899400,7.2738994140625,1.7080501317977905,-8.284049987792969,3.8010001182556152
1747314354449494500,7.28349462890625,1.8450000286102295,-8.053950309753418,3.6790502071380615
1747314354459090400,7.29309033203125,1.765950083732605,-7.498950481414795,3.6100502014160156
1747314354468685800,7.302685791015625,1.3680000305175781,-6.630000114440918,3.5719501972198486
1747314354478280200,7.3122802734375,0.736050009727478,-5.791950225830078,3.44700026512146
1747314354487875300,7.321875244140625,0.09495000541210175,-5.562000274658203,3.145050048828125
1747314354497471500,7.331471435546875,-0.37800002098083496,-6.156000137329102,2.367000102996826
1747314354507066400,7.34106640625,-0.7609500288963318,-7.044000148773193,1.0530000925064087
1747314354516661000,7.350660888671875,-1.5040500164031982,-7.984950542449951,-0.3730500042438507
1747314354526256000,7.360256103515625,-3.132000207901001,-9.031050682067871,-2.0659501552581787
1747314354535852000,7.36985205078125,-5.7270002365112305,-10.260000228881836,-4.599000453948975
1747314354545447200,7.379447265625,-9.349950790405273,-11.557050704956055,-8.27400016784668
1747314354555041500,7.38904150390625,-10.954050064086914,-12.976950645446777,-12.529050827026367
1747314354564636700,7.39863671875,-6.793050289154053,-14.236050605773926,-14.361001014709473
1747314354574232600,7.408232666015625,-2.1790502071380615,-14.635951042175293,-14.674050331115723
1747314354583828000,7.417827880859375,0.6499500274658203,-13.846050262451172,-13.90095043182373
1747314354593422300,7.42742236328125,0.9570000171661377,-12.430950164794922,-10.74000072479248
1747314354603017500,7.437017578125,0.8059500455856323,-10.71405029296875,-6.948000431060791
1747314354612613400,7.44661328125,0.08295000344514847,-8.976000785827637,-4.965000152587891
1747314354622208800,7.456208740234375,-1.0939500331878662,-8.104949951171875,-3.3760502338409424
1747314354631803100,7.46580322265625,-1.3480501174926758,-8.065950393676758,-1.90500009059906
1747314354641398300,7.475398193359375,-1.2930001020431519,-9.436050415039062,-0.7630500197410583
1747314354650994200,7.484994140625,-1.2360000610351562,-13.564050674438477,0.598050057888031
1747314354660589300,7.49458935546875,-1.0780500173568726,-17.161951065063477,1.7209501266479492
1747314354670183700,7.50418359375,-1.1610000133514404,-19.138050079345703,2.69100022315979
1747314354679778800,7.51377880859375,-2.0880000591278076,-19.05900001525879,2.8750500679016113
1747314354689374700,7.523374755859375,-6.460050106048584,-17.365951538085938,0.44505003094673157
1747314354698969900,7.532969970703125,-7.855950355529785,-15.261000633239746,-4.147050380706787
1747314354708564500,7.542564453125,-0.18195000290870667,-13.702950477600098,-4.654050350189209
1747314354718159400,7.552159423828125,6.547050476074219,-12.343050956726074,0.06599999964237213
1747314354727755500,7.561755615234375,7.576950550079346,-11.244000434875488,3.4999501705169678
1747314354737351000,7.571350830078125,6.4609503746032715,-10.336050033569336,4.065000057220459
1747314354746945000,7.580945068359375,4.050000190734863,-9.2920503616333,4.410000324249268
1747314354756540400,7.59054052734375,0.9160500168800354,-7.867950439453125,4.603950023651123
1747314354766136300,7.60013623046875,-0.4549500346183777,-7.216050148010254,5.278950214385986
1747314354775731500,7.6097314453125,-0.40995001792907715,-7.456050395965576,5.260050296783447
1747314354785325800,7.619325927734375,-0.7950000166893005,-7.645050525665283,4.366950035095215
1747314354794921000,7.6289208984375,-0.33105000853538513,-8.196000099182129,2.9800500869750977
1747314354804517000,7.63851708984375,1.0429500341415405,-8.860950469970703,1.3260000944137573
1747314354814112300,7.6481123046875,1.9309500455856323,-9.343050003051758,0.7969500422477722
1747314354823706600,7.65770654296875,2.02905011177063,-9.832950592041016,1.9890000820159912
1747314354833301800,7.6673017578125,1.6320000886917114,-9.86205005645752,2.4079501628875732
1747314354852493000,7.6864931640625,1.3399500846862793,-8.008950233459473,-0.8299500346183777
1747314354862087200,7.696087158203125,1.0860000848770142,-7.216050148010254,-2.329050064086914
1747314354871682600,7.7056826171875,0.7990500330924988,-6.910050392150879,-2.3940000534057617
1747314354881278200,7.7152783203125,0.922950029373169,-7.116000175476074,-1.4700000286102295
1747314354890873600,7.72487353515625,1.3759500980377197,-7.566000461578369,-0.5670000314712524
1747314354900468000,7.734468017578125,1.864050030708313,-7.884000301361084,0.23595000803470612
1747314354910063000,7.74406298828125,2.0940001010894775,-8.188050270080566,1.01895010471344
1747314354919659300,7.7536591796875,2.0719501972198486,-8.44005012512207,1.5799500942230225
1747314354929254400,7.76325439453125,1.76295006275177,-8.854050636291504,1.8000000715255737
1747314354938848800,7.772848876953125,1.467000126838684,-9.369000434875488,1.7569501399993896
1747314354948444000,7.78244384765625,1.2679500579833984,-9.928950309753418,1.812000036239624
1747314354958039800,7.792039794921875,1.0669500827789307,-10.504050254821777,1.9720500707626343
1747314354967635000,7.801635009765625,0.7960500121116638,-11.014050483703613,2.11395001411438
1747314354977229300,7.811229248046875,0.6720000505447388,-11.554950714111328,2.218950033187866
1747314354986824400,7.820824462890625,0.8629500269889832,-11.896950721740723,2.311950206756592
1747314354996420400,7.83042041015625,1.311000108718872,-11.359050750732422,2.1450002193450928
1747314355006015700,7.840015625,1.5529500246047974,-10.509000778198242,1.4380500316619873
1747314355015610000,7.849610107421875,1.503000020980835,-9.726000785827637,0.5119500160217285
1747314355025205200,7.859205322265625,1.2300000190734863,-9.088950157165527,-0.31095001101493835
1747314355034801400,7.868801513671875,0.8850000500679016,-8.659950256347656,-0.9240000247955322
1747314355044396500,7.878396484375,0.5520000457763672,-8.380050659179688,-1.333050012588501
1747314355053991000,7.887990966796875,0.29805001616477966,-8.356050491333008,-1.615950107574463
1747314355063586000,7.8975859375,0.22395001351833344,-8.47605037689209,-1.7260501384735107
1747314355073182000,7.907181884765625,0.30105000734329224,-8.9239501953125,-1.76895010471344
1747314355082777000,7.916777099609375,0.5160000324249268,-9.510000228881836,-1.4860501289367676
1747314355092371500,7.926371337890625,0.753000020980835,-10.264050483703613,-0.9690000414848328
1747314355101966600,7.935966552734375,0.8419500589370728,-11.241000175476074,-0.6480000019073486
1747314355111562500,7.9455625,0.909000039100647,-12.201000213623047,-0.39705002307891846
1747314355121158000,7.955157958984375,0.8989500403404236,-12.738000869750977,-0.20595000684261322
1747314355130752300,7.964752197265625,0.9900000691413879,-12.547950744628906,-0.33705002069473267
1747314355140347400,7.974347412109375,1.1650500297546387,-11.605050086975098,-0.6510000228881836
1747314355149943600,7.983943603515625,1.0500000715255737,-10.441950798034668,-0.6480000019073486
1747314355159538400,7.993538330078125,0.6310500502586365,-9.62505054473877,-0.5119500160217285
1747314355169133000,8.003133056640625,0.28095000982284546,-9.181950569152832,-0.5100000500679016
1747314355178728200,8.012728271484375,-0.05295000225305557,-9.414000511169434,0.3940500319004059
1747314355188324000,8.022323974609375,-0.31095001101493835,-9.715950012207031,0.8610000610351562
1747314355197919200,8.031919189453125,-0.37800002098083496,-9.919950485229492,0.8520000576972961
1747314355207513600,8.041513671875,-0.016950000077486038,-9.654000282287598,0.5430000424385071
1747314355217108700,8.051108642578125,0.2460000067949295,-9.393000602722168,0.31995001435279846
1747314355226704600,8.06070458984375,0.46605002880096436,-8.992950439453125,-0.021000001579523087
1747314355236299800,8.0702998046875,0.6070500016212463,-8.9239501953125,-0.20805001258850098
1747314355245894100,8.07989404296875,0.6930000185966492,-9.03795051574707,-0.4330500066280365
1747314355255489500,8.089489501953125,0.7770000100135803,-9.490950584411621,-0.5550000071525574
1747314355265085400,8.09908544921875,0.9330000281333923,-10.07805061340332,-0.1099500060081482
1747314355274680600,8.1086806640625,1.048050045967102,-10.705050468444824,0.5020500421524048
1747314355284275000,8.11827490234375,1.0840500593185425,-11.089950561523438,0.7300500273704529
1747314355293870000,8.1278701171875,1.1980500221252441,-11.080950736999512,0.8160000443458557
1747314355303466200,8.13746630859375,1.3560000658035278,-10.834050178527832,1.1149500608444214
1747314355313061400,8.147061279296874,1.495050072669983,-9.960000038146973,1.4119501113891602
1747314355322655700,8.15665576171875,1.5670500993728638,-9.498000144958496,1.672950029373169
1747314355332251000,8.1662509765625,1.6170001029968262,-9.070050239562988,1.5919500589370728
1747314355341846800,8.1758466796875,1.633950114250183,-9.241950035095215,1.2799500226974487
1747314355351442000,8.18544189453125,1.6219500303268433,-9.931950569152832,1.1389501094818115
1747314355361036300,8.195036376953125,1.6560001373291016,-10.882050514221191,0.9619500637054443
1747314355370631400,8.20463134765625,1.6050000190734863,-11.635950088500977,0.6000000238418579
1747314355380227600,8.2142275390625,1.5240000486373901,-12.100950241088867,0.30105000734329224
1747314355389822700,8.22382275390625,1.4449501037597656,-12.3589506149292,0.0499500036239624
1747314355399417000,8.2334169921875,1.5529500246047974,-12.127050399780273,-0.226950004696846
1747314355409012200,8.24301220703125,1.7850000858306885,-11.299050331115723,-0.5020500421524048
1747314355418608400,8.2526083984375,1.9290001392364502,-10.729050636291504,-0.7350000143051147
1747314355428203300,8.262203369140625,1.9650001525878906,-10.38900089263916,-0.6990000605583191
1747314355437798000,8.2717978515625,1.665000081062317,-10.462950706481934,-0.7200000286102295
1747314355447393000,8.28139306640625,1.1479500532150269,-10.582950592041016,-0.8880000710487366
1747314355456989000,8.290989013671876,0.7150500416755676,-10.851000785827637,-1.225950002670288
1747314355466584000,8.300583984375,0.48000001907348633,-11.584050178527832,-1.696950078010559
1747314355476178400,8.310178466796875,0.43695002794265747,-12.675000190734863,-1.9870500564575195
1747314355485773800,8.31977392578125,0.8110500574111938,-13.779000282287598,-2.0470499992370605
1747314355495369500,8.329369384765625,2.158950090408325,-14.574000358581543,-2.329050064086914
1747314355504964900,8.33896484375,3.3289501667022705,-14.41395092010498,-2.6359500885009766
1747314355514559000,8.34855908203125,2.3959500789642334,-13.52505111694336,-2.1310501098632812
1747314355524154400,8.358154296875,0.7770000100135803,-12.83595085144043,-1.3570500612258911
1747314355533750300,8.367750244140625,-2.2699501514434814,-12.004950523376465,-0.40905001759529114
1747314355543345400,8.377345458984376,-18.11505126953125,-10.807950973510742,1.3759500980377197
1747314355552939800,8.386939697265625,-22.911001205444336,-9.880950927734375,1.7500500679016113
1747314355562535000,8.396534912109376,-14.22195053100586,-9.738000869750977,1.8000000715255737
1747314355572130800,8.406130859375,-5.908950328826904,-10.06605052947998,2.7460501194000244
1747314355581726200,8.415726318359376,-0.37095001339912415,-10.354950904846191,3.684000253677368
1747314355591320600,8.425320556640624,1.9120501279830933,-10.317000389099121,3.454050064086914
1747314355600915700,8.434915771484375,2.4000000953674316,-10.506000518798828,2.530050039291382
1747314355610511600,8.44451171875,2.914950132369995,-11.232000350952148,2.25
1747314355620107000,8.45410693359375,3.375000238418579,-12.0600004196167,2.3910000324249268
1747314355629701000,8.463701171875,3.9210002422332764,-12.750000953674316,2.269050121307373
1747314355639296500,8.473296630859375,4.813950061798096,-12.93600082397461,1.8379501104354858
1747314355648892400,8.482892333984376,4.752000331878662,-12.47700023651123,0.9499500393867493
1747314355658487600,8.492487548828125,3.355950117111206,-11.392050743103027,-0.08295000344514847
1747314355668082000,8.50208203125,1.5310500860214233,-9.742050170898438,-0.16695000231266022
1747314355677677000,8.511677001953124,-0.2850000262260437,-8.683950424194336,-0.8329500555992126
1747314355687273000,8.52127294921875,-1.6900501251220703,-8.695950508117676,-2.253000020980835
1747314355696868000,8.5308681640625,-2.950050115585327,-9.184950828552246,-2.932950258255005
1747314355706462500,8.54046240234375,-3.5340001583099365,-9.570000648498535,-2.8540501594543457
1747314355716057600,8.5500576171875,-3.343050241470337,-9.86400032043457,-2.7960002422332764
1747314355725653800,8.55965380859375,-2.8780500888824463,-10.281000137329102,-2.5500001907348633
1747314355735249000,8.569248779296874,-2.430000066757202,-10.783950805664062,-1.9870500564575195
1747314355744843300,8.57884326171875,-1.7910001277923584,-11.643000602722168,-1.294950008392334
1747314355754438400,8.5884384765625,-1.0009500980377197,-12.484050750732422,-0.6079500317573547
1747314355764034600,8.59803466796875,-0.04305000230669975,-13.006051063537598,-0.1360500007867813
1747314355773629700,8.607629638671876,0.5470499992370605,-13.164000511169434,-0.14805001020431519
1747314355783224000,8.61722412109375,0.5590500235557556,-12.841050148010254,-0.5119500160217285
1747314355792819200,8.626819091796875,0.36000001430511475,-12.496050834655762,-0.814050018787384
1747314355802415000,8.6364150390625,0.18105000257492065,-12.172950744628906,-0.921000063419342
1747314355812010200,8.64601025390625,-0.05295000225305557,-12.241950988769531,-0.7780500650405884
1747314355821604900,8.65560498046875,-0.8089500665664673,-12.762001037597656,-0.1270500123500824
1747314355831200000,8.665199951171875,-1.0300500392913818,-13.357950210571289,0.037950001657009125
1747314355840796000,8.6747958984375,-1.1059499979019165,-13.710000991821289,-0.26100000739097595
1747314355850391300,8.684391357421875,-0.8410500288009644,-13.585050582885742,-0.21495001018047333
1747314355859985400,8.6939853515625,-0.6109500527381897,-12.474000930786133,0.3630000054836273
1747314355869580800,8.703580810546875,-0.4600500166416168,-10.62600040435791,1.0069500207901
1747314355879176700,8.7131767578125,-0.49605002999305725,-8.341950416564941,1.218000054359436
1747314355898366200,8.7323662109375,-0.6660000085830688,-4.413000106811523,1.1340000629425049
1747314355907961300,8.74196142578125,-0.5530500411987305,-2.9380500316619873,1.0890001058578491
1747314355917557200,8.75155712890625,-0.6799500584602356,-1.8240001201629639,1.1440500020980835
1747314355927152400,8.76115234375,-0.8260500431060791,-1.1010000705718994,1.0429500341415405
1747314355936747000,8.7707470703125,-1.1089500188827515,-0.6199500560760498,0.781950056552887
1747314355946342100,8.780342041015626,-1.5520501136779785,-0.3540000021457672,0.7800000309944153
1747314355955938000,8.78993798828125,-2.007000207901001,-0.1770000010728836,1.1290500164031982
1747314355965533400,8.799533447265626,-1.968000054359436,-0.4050000309944153,1.8409501314163208
1747314355975127800,8.8091279296875,-1.9369500875473022,-2.004000186920166,3.0330002307891846
1747314355984723000,8.818722900390625,-2.6959500312805176,-4.111050128936768,3.198000192642212
1747314355994318800,8.82831884765625,-3.8310000896453857,-5.859000205993652,1.9360500574111938
1747314356003914000,8.8379140625,-4.759950160980225,-7.120950222015381,0.0690000057220459
1747314356013508400,8.84750830078125,-5.284050464630127,-8.089950561523438,-1.6279500722885132
1747314356023103500,8.857103515625,-5.362950325012207,-8.847000122070312,-2.800950050354004
1747314356032699600,8.86669970703125,-5.968950271606445,-9.733050346374512,-3.579000234603882
1747314356042294800,8.876294677734375,-7.153950214385986,-10.771950721740723,-4.4239501953125
1747314356051889200,8.88588916015625,-6.783000469207764,-11.596050262451172,-5.076000213623047
1747314356061484500,8.895484619140625,-4.2619500160217285,-12.007050514221191,-4.69005012512207
1747314356071080400,8.90508056640625,-0.9670500755310059,-11.902050971984863,-3.9619503021240234
1747314356080675600,8.914675537109375,1.1190000772476196,-11.446950912475586,-3.724950075149536
1747314356090269700,8.924269775390625,1.4020500183105469,-11.052000999450684,-4.192049980163574
1747314356099865000,8.933864990234374,0.7000500559806824,-10.816950798034668,-4.170000076293945
1747314356109461000,8.9434609375,-0.8359500169754028,-10.360050201416016,-3.856950283050537
1747314356119056100,8.95305615234375,-2.3269500732421875,-10.401000022888184,-2.9830501079559326
1747314356128650500,8.962650390625,-3.015000104904175,-11.169000625610352,-2.313000202178955
1747314356138245600,8.97224560546875,-3.220050096511841,-12.133950233459473,-2.032050132751465
1747314356147841800,8.981841796875,-4.0320000648498535,-13.46505069732666,-1.9390500783920288
1747314356157437000,8.99143701171875,-5.7270002365112305,-14.992950439453125,-2.182950019836426
1747314356167031300,9.00103125,-6.288000106811523,-15.751951217651367,-2.6329500675201416
1747314356176626400,9.01062646484375,-4.582950115203857,-15.169950485229492,-3.7830002307891846
1747314356186222300,9.020222412109375,-3.6660001277923584,-13.91295051574707,-5.533050060272217
1747314356195817700,9.029817626953125,-3.5440502166748047,-12.8860502243042,-7.3810505867004395
1747314356205412000,9.039412109375,-1.125,-11.887950897216797,-6.78000020980835
1747314356215007200,9.04900732421875,1.4830501079559326,-11.019000053405762,-4.182000160217285
1747314356224603100,9.05860302734375,2.3170502185821533,-10.531950950622559,-0.8020500540733337
1747314356234198300,9.0681982421875,2.199000120162964,-10.140000343322754,1.480950117111206
1747314356243793000,9.07779296875,1.6219500303268433,-9.699000358581543,1.612950086593628
1747314356253387800,9.0873876953125,0.8389500379562378,-9.31095027923584,0.9000000357627869
1747314356262984000,9.09698388671875,0.04200000315904617,-8.598000526428223,0.7099500298500061
1747314356272579000,9.1065791015625,-0.30900001525878906,-8.113950729370117,1.1460000276565552
1747314356282173400,9.11617333984375,-0.6490500569343567,-8.482950210571289,2.158950090408325
1747314356291768600,9.1257685546875,-0.9340500235557556,-8.809050559997559,3.0040502548217773
1747314356301364700,9.13536474609375,-1.2360000610351562,-9.405000686645508,3.385050058364868
1747314356310959900,9.1449599609375,-1.6260000467300415,-10.056000709533691,2.937000036239624
1747314356320554200,9.15455419921875,-1.7119500637054443,-10.48905086517334,2.041949987411499
1747314356330149400,9.1641494140625,-1.068000078201294,-10.93005084991455,1.0500000715255737
1747314356339745500,9.17374560546875,-0.11700000613927841,-11.040000915527344,0.286950021982193
1747314356349340400,9.18334033203125,0.7579500079154968,-10.851000785827637,-0.07605000585317612
1747314356358935000,9.19293505859375,1.4880000352859497,-10.281000137329102,-0.0019500000635161996
1747314356368530400,9.202530517578126,1.7470500469207764,-9.654000282287598,-0.14805001020431519
1747314356378126300,9.212126220703125,1.5859500169754028,-9.249000549316406,-0.43800002336502075
1747314356387721500,9.221721435546876,1.2340500354766846,-9.187050819396973,-0.49800002574920654
1747314356397315800,9.23131591796875,0.9180000424385071,-9.265950202941895,-0.547950029373169
1747314356406911000,9.240910888671875,0.8130000233650208,-9.33495044708252,-0.5770500302314758
1747314356416507000,9.2505068359375,0.7770000100135803,-9.376049995422363,-0.37800002098083496
1747314356426102300,9.260102294921875,0.8250000476837158,-9.606000900268555,-0.32805001735687256
1747314356435696600,9.269696533203126,0.820050060749054,-10.144950866699219,-0.5580000281333923
1747314356445291800,9.279291748046875,0.8269500136375427,-10.659000396728516,-0.7200000286102295
1747314356454887700,9.2888876953125,0.7030500173568726,-11.092950820922852,-0.8500500321388245
1747314356464483000,9.298483154296875,0.6289500594139099,-11.46405029296875,-1.1320500373840332
1747314356474077400,9.308077392578125,0.6570000052452087,-11.610000610351562,-1.4580000638961792
1747314356483672600,9.317672607421875,0.8250000476837158,-11.265000343322754,-1.7310000658035278
1747314356493268700,9.327268798828126,1.0999500751495361,-10.687950134277344,-2.0160000324249268
1747314356502863600,9.336863525390624,1.2630000114440918,-10.14900016784668,-1.912950038909912
1747314356512458200,9.346458251953125,1.1770501136779785,-9.697050094604492,-1.5319501161575317
1747314356522053000,9.35605322265625,0.922950029373169,-9.36405086517334,-1.3810501098632812
1747314356531649300,9.365649169921875,0.5590500235557556,-9.205950736999512,-1.4580000638961792
1747314356541244400,9.375244384765624,0.1660500019788742,-9.22800064086914,-1.672950029373169
1747314356550838800,9.3848388671875,-0.08895000070333481,-9.34695053100586,-1.8720000982284546
1747314356560434000,9.394433837890626,-0.15105000138282776,-9.517050743103027,-1.9170000553131104
1747314356570030000,9.404030029296875,-0.025950001552700996,-9.646950721740723,-1.9270501136779785
1747314356579625200,9.413625244140626,0.18105000257492065,-9.721050262451172,-1.9369500875473022
1747314356589219300,9.42321923828125,0.3559500277042389,-9.76395034790039,-1.9699500799179077
1747314356598814700,9.432814697265625,0.33900001645088196,-9.814050674438477,-2.032050132751465
1747314356608410600,9.44241064453125,0.1279500126838684,-9.856950759887695,-2.1229500770568848
1747314356618005800,9.452005859375,-0.26295000314712524,-9.86205005645752,-2.095050096511841
1747314356627600400,9.461600341796874,-0.7180500626564026,-9.904950141906738,-1.7860500812530518
1747314356637195500,9.471195556640625,-1.0849500894546509,-10.03695011138916,-1.5220500230789185
1747314356646791400,9.48079150390625,-1.294950008392334,-10.176000595092773,-1.3120501041412354
1747314356656386800,9.49038671875,-1.4629501104354858,-10.342950820922852,-1.0049999952316284
1747314356665981000,9.49998095703125,-1.6950000524520874,-10.37700080871582,-0.9450000524520874
1747314356675576300,9.509576416015625,-1.9590001106262207,-10.330950736999512,-0.8419500589370728
1747314356685172200,9.519172119140626,-2.335050106048584,-10.1850004196167,-0.5719500184059143
1747314356694767400,9.528767333984375,-2.619000196456909,-10.011000633239746,-0.226950004696846
1747314356704361700,9.53836181640625,-2.6389501094818115,-9.898050308227539,-0.06195000186562538
1747314356713956900,9.547956787109374,-2.350950002670288,-9.867000579833984,-0.13395000994205475
1747314356723552800,9.557552734375,-1.7809500694274902,-9.832950592041016,-0.32505002617836
1747314356733148000,9.56714794921875,-1.2160500288009644,-9.841050148010254,-0.45900002121925354
1747314356742742300,9.5767421875,-0.856950044631958,-9.796950340270996,-0.48795002698898315
1747314356761933300,9.595933349609375,-0.7590000629425049,-9.460050582885742,-0.45000001788139343
1747314356771528700,9.60552880859375,-0.7060500383377075,-9.357000350952148,-0.5890500545501709
1747314356781123000,9.615123046875,-0.5320500135421753,-9.402000427246094,-0.8380500674247742
1747314356790718200,9.62471826171875,-0.27300000190734863,-9.63705062866211,-1.0270500183105469
1747314356800314400,9.634314453125,-0.019050000235438347,-10.02495002746582,-1.1059499979019165
1747314356809909500,9.643909423828125,0.23400001227855682,-10.458000183105469,-1.194000005722046
1747314356819503900,9.65350390625,0.42705002427101135,-10.864950180053711,-1.3240500688552856
1747314356829099000,9.66309912109375,0.609000027179718,-11.155050277709961,-1.4580000638961792
1747314356838695000,9.67269482421875,0.7720500230789185,-11.299050331115723,-1.4839500188827515
1747314356848290300,9.682290283203125,0.8820000290870667,-11.287050247192383,-1.4239500761032104
1747314356857884400,9.691884521484376,0.9469500184059143,-11.088000297546387,-1.3639500141143799
1747314356867479600,9.7014794921875,0.9610500335693359,-10.77405071258545,-1.4959501028060913
1747314356877075700,9.71107568359375,1.0720500946044922,-10.552050590515137,-1.5769500732421875
1747314356896265200,9.73026513671875,1.2610501050949097,-10.96095085144043,-0.9120000600814819
1747314356905860600,9.739860595703124,1.0950000286102295,-11.260050773620605,-0.853950023651123
1747314356915456500,9.74945654296875,0.9180000424385071,-11.509050369262695,-1.0720500946044922
1747314356925051600,9.7590517578125,0.6690000295639038,-11.602950096130371,-1.3189500570297241
1747314356934646000,9.76864599609375,0.3559500277042389,-11.485050201416016,-1.4479501247406006
1747314356944241400,9.778241455078126,0.09495000541210175,-11.47605037689209,-1.5220500230789185
1747314356953837000,9.787837158203125,-0.07005000114440918,-11.434950828552246,-1.7430000305175781
1747314356963432400,9.797432373046876,-0.16500000655651093,-11.47095012664795,-2.0490000247955322
1747314356973026800,9.80702685546875,-0.19200000166893005,-11.719950675964355,-2.4780001640319824
1747314356982622000,9.8166220703125,-0.14595000445842743,-12.0600004196167,-2.808000087738037
1747314356992218000,9.826218017578125,0.06105000153183937,-12.30405044555664,-3.06000018119812
1747314357001813200,9.835813232421875,0.38700002431869507,-12.30405044555664,-3.2509500980377197
1747314357011407600,9.84540771484375,0.8419500589370728,-11.812950134277344,-3.1120500564575195
1747314357021002800,9.855002685546875,1.380000114440918,-11.272050857543945,-2.0779500007629395
1747314357030598700,9.8645986328125,1.9309500455856323,-10.630950927734375,-1.1130000352859497
1747314357040194000,9.874194091796875,1.7779500484466553,-10.023000717163086,-0.5070000290870667
1747314357049788200,9.8837880859375,1.0330500602722168,-9.498000144958496,-0.14295001327991486
1747314357059383600,9.893383544921875,-0.5100000500679016,-9.052950859069824,0.1570500135421753
1747314357068979700,9.902979736328126,-5.09505033493042,-8.803950309753418,0.6960000395774841
1747314357078574600,9.91257470703125,-23.167051315307617,-8.964000701904297,1.38795006275177
1747314357088169200,9.922169189453125,-25.26000213623047,-9.124950408935547,1.3980001211166382
1747314357097764400,9.931764404296874,-13.947000503540039,-9.273000717163086,1.9410001039505005
1747314357107360300,9.9413603515625,-7.176000118255615,-9.927000045776367,1.5750000476837158
1747314357116955400,9.950955322265624,-1.3290001153945923,-10.597050666809082,1.4910000562667847
1747314357126549800,9.9605498046875,2.5420501232147217,-10.825050354003906,1.3350000381469727
1747314357136145000,9.970144775390626,4.394999980926514,-10.843950271606445,1.371000051498413
1747314357145741000,9.979740966796875,5.329050064086914,-10.894050598144531,1.3759500980377197
1747314357155336200,9.989336181640626,5.604000091552734,-11.110050201416016,1.519950032234192
1747314357164930800,9.998930908203125,5.424000263214111,-11.398950576782227,1.7950501441955566
1747314357174525700,10.008525634765626,4.617000102996826,-11.617050170898438,1.651050090789795
1747314357184121900,10.018121826171875,4.069050312042236,-11.653050422668457,1.024049997329712
1747314357193717000,10.027717041015626,3.4780502319335938,-11.610000610351562,0.6720000505447388
1747314357203311400,10.037311279296874,2.545950174331665,-11.41395092010498,0.11205000430345535
1747314357212906500,10.046906494140625,1.7950501441955566,-11.119050979614258,-0.3660000264644623
1747314357222502400,10.05650244140625,1.7179501056671143,-10.65195083618164,-0.7849500179290771
1747314357232097800,10.066097900390625,1.6290000677108765,-10.1089506149292,-1.111050009727478
1747314357241692000,10.07569189453125,1.384950041770935,-9.598950386047363,-1.5490500926971436
1747314357251287300,10.085287353515625,0.8730000257492065,-9.131999969482422,-2.064000129699707
1747314357260883200,10.09488330078125,-5.406000137329102,-8.374950408935547,-7.467000484466553
1747314357270478300,10.104478271484375,-6.079050064086914,-7.482000350952148,-10.800000190734863
1747314357280072700,10.11407275390625,-3.366000175476074,-7.434000492095947,-9.498000144958496
1747314357289668000,10.123668212890625,-2.2699501514434814,-7.79295015335083,-8.044050216674805
1747314357299264000,10.133263916015625,-2.6359500885009766,-8.381999969482422,-5.90595006942749
1747314357308859400,10.142859375,-3.718050241470337,-8.947050094604492,-3.189000129699707
1747314357318453500,10.15245361328125,-4.0320000648498535,-9.390000343322754,-1.924950122833252
1747314357328049000,10.162048828125,-3.535950183868408,-9.580050468444824,-1.489050030708313
1747314357337644800,10.171644775390625,-2.7660000324249268,-9.802050590515137,-1.1299500465393066
1747314357347240000,10.181239990234374,-1.828950047492981,-9.832950592041016,-0.984000027179718
1747314357356834300,10.190834228515625,-0.7300500273704529,-9.915000915527344,-0.46695002913475037
1747314357366429400,10.200429443359376,0.34800001978874207,-10.008000373840332,0.27000001072883606
1747314357376025300,10.210025390625,1.0879501104354858,-9.94800090789795,0.89205002784729
1747314357385620500,10.219620361328126,1.6609500646591187,-9.663000106811523,1.3140000104904175
1747314357395215000,10.229215087890625,1.842000126838684,-9.261000633239746,1.480950117111206
1747314357404810200,10.238810302734375,1.7610000371932983,-8.77500057220459,1.5510001182556152
1747314357414406100,10.24840625,1.5720000267028809,-8.289000511169434,1.5319501161575317
1747314357424001300,10.258001220703125,1.3180500268936157,-7.927950382232666,1.7760001420974731
1747314357433596000,10.267595947265624,1.0519500970840454,-7.827000141143799,2.158950090408325
1747314357443191000,10.27719091796875,0.6930000185966492,-7.89900016784668,2.110949993133545
1747314357452787000,10.286786865234374,0.1380000114440918,-8.241000175476074,1.3429501056671143
1747314357462382000,10.296382080078125,-0.5629500150680542,-8.847000122070312,0.021000001579523087
1747314357471976400,10.3059765625,-1.446000099182129,-9.385950088500977,-1.1779500246047974
1747314357481571600,10.315571533203125,-2.593050241470337,-9.76395034790039,-2.0370001792907715
1747314357491167700,10.325167724609376,-3.9079501628875732,-9.94800090789795,-2.700000047683716
1747314357500763000,10.334762939453125,-4.815000057220459,-9.951000213623047,-3.1650002002716064
1747314357510357500,10.344357421875,-5.275050163269043,-10.011000633239746,-3.567000150680542
1747314357519952400,10.353952392578124,-5.184000015258789,-10.176000595092773,-4.060050010681152
1747314357529548500,10.363548583984375,-4.770000457763672,-10.221000671386719,-4.846050262451172
1747314357539143700,10.373143798828124,-3.747000217437744,-10.023000717163086,-5.767050266265869
1747314357548738000,10.382738037109375,-2.281949996948242,-9.853050231933594,-6.379950523376465
1747314357558333200,10.392333251953126,-0.8449500203132629,-9.927000045776367,-6.807000160217285
1747314357567929000,10.40192919921875,0.1980000138282776,-10.14900016784668,-7.045950412750244
1747314357577524200,10.411524169921876,0.8560500144958496,-10.420050621032715,-6.772950172424316
1747314357587118600,10.42111865234375,1.1740500926971436,-10.705050468444824,-5.758050441741943
1747314357596714000,10.4307138671875,1.1430000066757202,-10.813050270080566,-4.339950084686279
1747314357606309600,10.4403095703125,0.5779500007629395,-10.71405029296875,-2.857950210571289
1747314357615905000,10.449905029296875,-0.20805001258850098,-10.384050369262695,-1.815000057220459
1747314357625499400,10.45949951171875,-1.0030500888824463,-9.943050384521484,-1.3000500202178955
1747314357635094800,10.4690947265625,-1.8340500593185425,-9.440999984741211,-1.4770500659942627
1747314357644690700,10.478690673828124,-2.602950096130371,-9.058050155639648,-2.0560500621795654
1747314357654286000,10.4882861328125,-3.180000066757202,-8.964000701904297,-2.5279500484466553
1747314357663880200,10.497880126953126,-3.373950242996216,-9.136950492858887,-2.5849502086639404
1747314357673475600,10.5074755859375,-3.052950143814087,-9.331050872802734,-2.451000213623047
1747314357683071500,10.517071533203126,-2.464050054550171,-9.388050079345703,-2.1979501247406006
1747314357692666600,10.52666650390625,-1.8460501432418823,-9.33495044708252,-1.7329500913619995
1747314357702261000,10.536260986328125,-1.2139500379562378,-9.654000282287598,-1.1850000619888306
1747314357711856400,10.5458564453125,-0.7609500288963318,-11.596050262451172,-0.6270000338554382
1747314357721452300,10.555452392578125,-0.07395000010728836,-14.575950622558594,-0.6600000262260437
1747314357731047400,10.56504736328125,0.3559500277042389,-16.378950119018555,-0.9169500470161438
1747314357740641800,10.574641845703125,-0.14595000445842743,-16.117950439453125,-1.1470500230789185
1747314357750237200,10.5842373046875,-0.7020000219345093,-13.65195083618164,-2.1040501594543457
1747314357759832800,10.593832763671875,0.019950000569224358,-10.63800048828125,-3.2940001487731934
1747314357769428200,10.60342822265625,0.4420500099658966,-8.542950630187988,-3.850050210952759
1747314357779022600,10.613022705078125,-0.28005000948905945,-8.0110502243042,-4.242000102996826
1747314357788617700,10.62261767578125,-1.3240500688552856,-9.105000495910645,-3.4810502529144287
1747314357798214000,10.6322138671875,-2.5380001068115234,-10.92495059967041,-1.3960500955581665
1747314357807809000,10.64180908203125,-2.5570502281188965,-12.124950408935547,0.48795002698898315
1747314357817403400,10.6514033203125,-2.55495023727417,-12.103050231933594,0.7939500212669373
1747314357826998800,10.660998779296875,-2.803950071334839,-11.791950225830078,0.7990500330924988
1747314357836594400,10.670594482421874,-2.8879501819610596,-11.164950370788574,1.6080000400543213
1747314357846189800,10.68018994140625,-2.742000102996826,-10.10205078125,2.2139999866485596
1747314357855784200,10.6897841796875,-2.184000015258789,-8.991000175476074,2.1610500812530518
1747314357865379300,10.69937939453125,-1.4730000495910645,-8.509050369262695,2.748000144958496
1747314357874975200,10.708975341796876,-0.859950065612793,-8.646000862121582,3.355950117111206
1747314357894164700,10.728164794921875,0.42000001668930054,-9.831000328063965,2.230950117111206
1747314357903760000,10.737759765625,0.8560500144958496,-10.582950592041016,1.4620500802993774
1747314357913356000,10.74735595703125,1.0669500827789307,-11.2339506149292,0.9160500168800354
1747314357922951400,10.756951416015625,1.158000111579895,-11.617050170898438,0.4810500144958496
1747314357932545800,10.7665458984375,0.8899500370025635,-11.1739501953125,-0.11505000293254852
1747314357942141000,10.776140869140624,0.5400000214576721,-10.360050201416016,-0.9000000357627869
1747314357951736800,10.78573681640625,0.286050021648407,-9.630000114440918,-1.603950023651123
1747314357961332000,10.79533203125,0.1860000044107437,-8.827950477600098,-2.1739501953125
1747314357970926300,10.80492626953125,0.21000000834465027,-8.356050491333008,-2.1760501861572266
1747314357980521500,10.814521484375,0.23595000803470612,-8.287050247192383,-1.8720000982284546
1747314357990117400,10.824117431640625,0.34095001220703125,-8.253000259399414,-1.5010501146316528
1747314357999712800,10.833712646484376,0.492000013589859,-8.365950584411621,-1.3050000667572021
1747314358009307100,10.84330712890625,0.49695003032684326,-8.847000122070312,-1.0890001058578491
1747314358018902300,10.85290234375,0.43695002794265747,-9.405000686645508,-0.9769500494003296
1747314358028498400,10.86249853515625,0.5400000214576721,-9.739950180053711,-0.9960000514984131
1747314358038093600,10.872093505859375,0.7270500063896179,-10.33395004272461,-1.0840500593185425
1747314358047688000,10.88168798828125,0.922950029373169,-11.059050559997559,-1.1389501094818115
1747314358057283300,10.891283447265625,1.1389501094818115,-11.406000137329102,-1.2490500211715698
1747314358066879000,10.90087890625,1.2220500707626343,-11.293950080871582,-1.3930500745773315
1747314358076474400,10.910474365234375,1.1479500532150269,-10.707000732421875,-1.3789501190185547
1747314358086068500,10.920068359375,0.8460000157356262,-9.87600040435791,-1.081950068473816
1747314358095663900,10.929663818359375,0.556950032711029,-9.06195068359375,-0.6679500341415405
1747314358105259800,10.939259765625,0.39195001125335693,-8.365950584411621,-0.40905001759529114
1747314358114855000,10.94885498046875,0.2670000195503235,-7.91295051574707,-0.1789500117301941
1747314358124449300,10.95844921875,0.19005000591278076,-7.7500505447387695,0.05400000140070915
1747314358134044400,10.96804443359375,0.15495000779628754,-8.059050559997559,0.33000001311302185
1747314358143640600,10.977640625,0.1189500093460083,-8.755949974060059,0.612000048160553
1747314358153235700,10.987235595703124,0.1380000114440918,-9.45300006866455,0.8400000333786011
1747314358162830300,10.996830322265625,0.2070000171661377,-10.09695053100586,0.9520500302314758
1747314358172425200,11.00642529296875,0.3079500198364258,-10.618950843811035,0.9690000414848328
1747314358182021400,11.016021484375,0.4350000321865082,-10.990050315856934,0.9330000281333923
1747314358191616500,11.025616455078126,0.5809500217437744,-11.193000793457031,0.9310500621795654
1747314358201211000,11.0352109375,0.7579500079154968,-11.212050437927246,1.0600500106811523
1747314358210806000,11.044805908203125,0.922950029373169,-10.984950065612793,1.27305006980896
1747314358220402000,11.05440185546875,0.8820000290870667,-10.458000183105469,0.9160500168800354
1747314358229997300,11.063997314453125,0.6210000514984131,-10.180950164794922,0.598050057888031
1747314358239591700,11.073591796875,0.22395001351833344,-9.80505084991455,-0.013950000517070293
1747314358249186800,11.083186767578125,-0.15300001204013824,-10.200000762939453,0.21705001592636108
1747314358258782700,11.09278271484375,-0.5560500025749207,-10.861050605773926,0.8329500555992126
1747314358268377900,11.1023779296875,-0.7879500389099121,-11.152950286865234,0.5640000104904175
1747314358277972500,11.111972412109376,-0.703950047492981,-11.149950981140137,-0.32805001735687256
1747314358287567400,11.1215673828125,-0.4549500346183777,-11.077950477600098,-1.3519500494003296
1747314358297163500,11.13116357421875,-0.22005000710487366,-10.96095085144043,-2.2480502128601074
1747314358306758700,11.140758544921875,-0.10305000841617584,-10.780950546264648,-2.857950210571289
1747314358316353000,11.15035302734375,-0.18900001049041748,-10.534950256347656,-3.1309502124786377
1747314358325948400,11.159948486328124,-0.37800002098083496,-10.147050857543945,-3.1030502319335938
1747314358335544300,11.16954443359375,-0.505050003528595,-9.63705062866211,-2.892000198364258
1747314358345139500,11.179139404296874,-0.5770500302314758,-9.082050323486328,-2.811000108718872
1747314358354734000,11.188734130859375,-0.7180500626564026,-8.719950675964355,-2.949000120162964
1747314358364329000,11.198328857421876,-0.8089500665664673,-8.593050003051758,-3.2100000381469727
1747314358373925000,11.207925048828125,-0.6510000228881836,-8.67495059967041,-3.385050058364868
1747314358383520500,11.2175205078125,-0.49800002574920654,-8.863950729370117,-3.6610500812530518
1747314358393114600,11.227114501953125,-0.40995001792907715,-9.141000747680664,-4.029000282287598
1747314358402710000,11.2367099609375,-0.2850000262260437,-9.50100040435791,-4.350000381469727
1747314358412306000,11.246305908203125,-0.14595000445842743,-9.907950401306152,-4.513050079345703
1747314358421901000,11.255901123046876,-0.010050000622868538,-10.225950241088867,-4.498950004577637
1747314358431495400,11.265495361328124,-0.040950000286102295,-10.305000305175781,-4.242000102996826
1747314358441090600,11.275090576171875,-0.40005001425743103,-10.293000221252441,-3.957000255584717
1747314358450686700,11.284686767578124,-0.3739500045776367,-10.248000144958496,-3.724950075149536
1747314358460281900,11.29428173828125,0.3960000276565552,-10.300050735473633,-3.3730502128601074
1747314358469876500,11.30387646484375,0.7630500197410583,-10.480050086975098,-2.530050039291382
1747314358479471600,11.3134716796875,0.3169500231742859,-10.98705005645752,-1.2829500436782837
1747314358489067500,11.323067626953126,-0.07005000114440918,-11.659950256347656,-0.856950044631958
1747314358498662700,11.33266259765625,-0.15600000321865082,-12.244050979614258,-1.3069500923156738
1747314358508257000,11.342257080078125,-0.08400000631809235,-12.426000595092773,-1.7280000448226929
1747314358517852200,11.35185205078125,0.1660500019788742,-12.355051040649414,-1.6920000314712524
1747314358527448300,11.3614482421875,0.5539500117301941,-12.34005069732666,-1.38795006275177
1747314358537043500,11.37104345703125,0.8989500403404236,-12.546000480651855,-0.9139500260353088
1747314358546637800,11.380637939453125,0.9760500192642212,-12.940950393676758,-0.5550000071525574
1747314358556233200,11.390233154296874,0.8800500631332397,-13.494000434875488,-0.4710000157356262
1747314358565829000,11.3998291015625,0.8059500455856323,-13.87695026397705,-0.505050003528595
1747314358575424300,11.40942431640625,0.7510500550270081,-13.93695068359375,-0.5790000557899475
1747314358584940800,11.41894091796875,0.5689499974250793,-13.67595100402832,-0.43995001912117004
1747314358594613800,11.42861376953125,0.31005001068115234,-12.999000549316406,0
1747314358604210000,11.4382099609375,0.12105000764131546,-11.871000289916992,0.598050057888031
1747314358613805000,11.44780517578125,-0.31905001401901245,-10.497000694274902,1.0960500240325928
1747314358623399700,11.457399658203125,-2.4370501041412354,-9.084000587463379,1.527000069618225
1747314358632994600,11.46699462890625,-10.954050064086914,-7.975050449371338,1.1610000133514404
1747314358642590700,11.4765908203125,-24.49395179748535,-7.357950210571289,-1.1899501085281372
1747314358652185900,11.486185791015625,-15.273000717163086,-7.777050495147705,0.046950001269578934
1747314358661780200,11.4957802734375,-7.6810503005981445,-8.335050582885742,2.101950168609619
1747314358680971300,11.51497119140625,1.5649501085281372,-10.281000137329102,4.254000186920166
1747314358690566700,11.524566650390625,3.3289501667022705,-11.088000297546387,3.8329501152038574
1747314358700161000,11.5341611328125,3.9660000801086426,-11.587950706481934,3.6720001697540283
1747314358709756200,11.543756103515625,4.11899995803833,-11.9239501953125,3.3990001678466797
1747314358719352300,11.553352294921876,3.853950262069702,-12.295050621032715,2.7340500354766846
1747314358728947500,11.562947509765625,3.4489500522613525,-12.678000450134277,1.9200000762939453
1747314358738541800,11.572541748046875,3.0420000553131104,-12.814050674438477,1.3380000591278076
1747314358748137000,11.582136962890624,2.6950502395629883,-12.928950309753418,0.8490000367164612
1747314358757732900,11.59173291015625,2.1919500827789307,-12.409950256347656,-0.1980000138282776
1747314358767328300,11.601328369140624,0.19500000774860382,-11.314950942993164,-2.001000165939331
1747314358776922400,11.61092236328125,-2.124000072479248,-9.958050727844238,-4.903050422668457
1747314358786517800,11.620517822265626,-2.3179500102996826,-8.955000877380371,-6.32295036315918
1747314358796113700,11.63011376953125,-2.053950071334839,-8.2339506149292,-6.771000385284424
1747314358805708800,11.639708740234376,-2.1670501232147217,-7.864950180053711,-6.877950191497803
1747314358815303400,11.649303466796875,-2.69100022315979,-7.70205020904541,-5.90595006942749
1747314358824898300,11.658898193359375,-3.0840001106262207,-7.674000263214111,-3.876000165939331
1747314358834494500,11.668494384765625,-3.112950086593628,-7.888950347900391,-1.7160000801086426
1747314358844089600,11.678089599609375,-2.45205020904541,-8.220000267028809,-0.5260500311851501
1747314358853684000,11.68768408203125,-1.390950083732605,-8.667000770568848,-0.3160500228404999
1747314358863279400,11.697279296875,-0.38100001215934753,-9.094050407409668,-0.2970000207424164
1747314358872875300,11.706875244140624,0.31995001435279846,-9.164999961853027,-0.33000001311302185
1747314358882470400,11.716470458984375,0.6289500594139099,-8.931000709533691,-0.09495000541210175
1747314358892064800,11.726064697265626,0.6450000405311584,-8.66295051574707,0.14505000412464142
1747314358901660000,11.735659912109375,0.46800002455711365,-8.47095012664795,0.4930500090122223
1747314358911255800,11.745255859375,0.20205001533031464,-8.20995044708252,0.6889500617980957
1747314358920851200,11.754851318359375,-0.12000000476837158,-7.975050449371338,0.6480000019073486
1747314358930445600,11.764445556640625,-0.547950029373169,-7.8100504875183105,0.5839500427246094
1747314358940040700,11.774040771484374,-0.9480000734329224,-7.7310004234313965,0.6240000128746033
1747314358949636900,11.783636962890625,-1.26705002784729,-7.852950572967529,0.7630500197410583
1747314358959232000,11.79323193359375,-1.489050030708313,-8.131050109863281,0.8590500354766846
1747314358968826400,11.802826416015625,-1.6210501194000244,-8.338950157165527,0.8280000686645508
1747314358978421800,11.812421875,-1.602000117301941,-8.394000053405762,0.8419500589370728
1747314358988017700,11.822017578125,-1.4250000715255737,-8.269950866699219,0.7630500197410583
1747314358997612800,11.83161279296875,-1.237950086593628,-8.133000373840332,0.6100500226020813
1747314359007207200,11.841207275390625,-1.2619500160217285,-8.104949951171875,0.6630000472068787
1747314359016802300,11.85080224609375,-1.4269500970840454,-8.253000259399414,0.6910500526428223
1747314359026398200,11.860398193359375,-1.6429500579833984,-8.47605037689209,0.5359500050544739
1747314359035993300,11.869993408203126,-1.8340500593185425,-8.614950180053711,-0.08100000023841858
1747314359045588000,11.879587890625,-2.0089499950408936,-8.698050498962402,-0.9600000381469727
1747314359055183000,11.88918310546875,-2.373000144958496,-9.04800033569336,-2.0440499782562256
1747314359064779300,11.898779296875,-3.0259501934051514,-9.819000244140625,-3.865950107574463
1747314359074374400,11.90837451171875,-3.867000102996826,-11.098050117492676,-6.814050197601318
1747314359083968800,11.91796875,-4.639950275421143,-12.429000854492188,-10.036050796508789
1747314359093564000,11.92756396484375,-4.882050037384033,-12.976950645446777,-11.78895092010498
1747314359103159800,11.937159912109376,-3.9240002632141113,-12.568050384521484,-11.920950889587402
1747314359112755000,11.9467548828125,-2.763000249862671,-11.392050743103027,-10.957950592041016
1747314359122349300,11.956349365234376,-2.0590500831604004,-9.955050468444824,-9.450000762939453
1747314359131944700,11.96594482421875,-2.064000129699707,-8.4660005569458,-7.675950527191162
1747314359141540600,11.97554052734375,-2.482950210571289,-7.5319504737854,-6.081000328063965
1747314359151136000,11.985135986328125,-2.8780500888824463,-8.515950202941895,-5.3959503173828125
1747314359160730400,11.99473046875,-3.0259501934051514,-12.096000671386719,-4.657050132751465
1747314359170325500,12.004325439453124,-2.6359500885009766,-15.094050407409668,-2.9659502506256104
1747314359179921400,12.01392138671875,-3.180000066757202,-17.268001556396484,-2.0179500579833984
1747314359189516800,12.023516845703124,-4.084949970245361,-18.088951110839844,-1.6470000743865967
1747314359199111200,12.033111083984375,-4.249950408935547,-16.545000076293945,-1.0150500535964966
1747314359208706300,12.042706298828126,-3.970050096511841,-13.37700080871582,-0.3439500033855438
1747314359218302200,12.05230224609375,-3.034050226211548,-11.256000518798828,-1.7040001153945923
1747314359227897300,12.0618974609375,-0.7930500507354736,-10.147050857543945,-4.933950424194336
1747314359237491700,12.07149169921875,2.797950029373169,-9.177000045776367,-6.559950351715088
1747314359247086800,12.0810869140625,5.5849504470825195,-8.278950691223145,-4.069950103759766
1747314359256683000,12.09068310546875,5.668950080871582,-7.461000442504883,0.18105000257492065
1747314359266278100,12.100278076171875,4.261050224304199,-6.429000377655029,2.2860000133514404
1747314359275872800,12.109872802734374,2.142000198364258,-5.947050094604492,2.362950086593628
1747314359285467600,12.119467529296875,-0.1489500105381012,-6.414000511169434,1.921950101852417
1747314359295063800,12.129063720703124,-2.101950168609619,-7.663950443267822,1.963050127029419
1747314359304659000,12.138658935546875,-3.2659502029418945,-9.426000595092773,1.8190500736236572
1747314359314253300,12.14825341796875,-3.430950164794922,-11.482950210571289,1.7089500427246094
1747314359323848700,12.1578486328125,-2.932950258255005,-13.036951065063477,1.683000087738037
1747314359333444400,12.1674443359375,-2.5000500679016113,-13.702950477600098,2.0350501537323
1747314359343039700,12.177039794921875,-2.064000129699707,-13.422000885009766,2.580000162124634
1747314359352634000,12.186634033203125,-1.2550500631332397,-12.184950828552246,2.947050094604492
1747314359362229200,12.196229248046874,-0.35895001888275146,-10.69800090789795,2.4750001430511475
1747314359371825200,12.2058251953125,0.40605002641677856,-9.62700080871582,1.6900501251220703
1747314359381420300,12.215420166015624,0.8509500622749329,-8.971050262451172,0.9280500411987305
1747314359391015000,12.225014892578125,0.9949500560760498,-8.677050590515137,0.07800000160932541
1747314359400610000,12.234610107421876,1.0069500207901,-8.505000114440918,-0.4930500090122223
1747314359410206000,12.2442060546875,1.0810500383377075,-8.482950210571289,-0.700950026512146
1747314359419801000,12.253801025390626,1.1069999933242798,-8.707950592041016,-0.5890500545501709
1747314359429395700,12.263395751953125,1.2250500917434692,-8.983050346374512,-0.1789500117301941
1747314359438990800,12.272990966796876,1.327950119972229,-9.261000633239746,0.18105000257492065
1747314359448586800,12.282586669921875,1.4500501155853271,-9.655950546264648,0.24795001745224
1747314359458182000,12.292181884765625,1.6750500202178955,-10.219050407409668,0.22395001351833344
1747314359467776500,12.301776611328124,1.864050030708313,-10.68600082397461,0.12600000202655792
1747314359477371600,12.31137158203125,1.8930001258850098,-11.019000053405762,0.07095000147819519
1747314359486967800,12.3209677734375,1.6579500436782837,-11.107050895690918,-0.11205000430345535
1747314359496562700,12.330562744140625,1.3519500494003296,-11.064000129699707,-0.33705002069473267
1747314359506083300,12.340083251953125,0.9930000305175781,-10.882050514221191,-0.47805002331733704
1747314359515752400,12.34975244140625,0.6240000128746033,-10.657050132751465,-0.51705002784729
1747314359525348400,12.359348388671876,0.40605002641677856,-10.47705078125,-0.6319500207901001
1747314359534943700,12.36894384765625,0.27900001406669617,-10.33395004272461,-0.8020500540733337
1747314359544537900,12.378537841796875,0.22200001776218414,-9.868950843811035,-1.2610501050949097
1747314359554133200,12.38813330078125,0.2689500153064728,-9.390000343322754,-1.5660001039505005
1747314359563729200,12.397729248046875,0.33195000886917114,-9.015000343322754,-1.8820500373840332
1747314359573324500,12.407324462890625,0.35295000672340393,-8.743950843811035,-2.257050037384033
1747314359582919000,12.4169189453125,0.4350000321865082,-8.404050827026367,-2.5279500484466553
1747314359592514000,12.42651416015625,0.5400000214576721,-7.978050231933594,-2.6260502338409424
1747314359602110000,12.43610986328125,0.492000013589859,-7.609050273895264,-2.5039501190185547
1747314359611705300,12.445705322265624,0.29100000858306885,-7.4320502281188965,-2.3460001945495605
1747314359621299500,12.455299560546875,0.028050001710653305,-7.651950359344482,-2.1160500049591064
1747314359630894800,12.464894775390626,-0.21300001442432404,-8.41604995727539,-1.390950083732605
1747314359640490800,12.47449072265625,-0.3739500045776367,-9.373950004577637,-0.8380500674247742
1747314359650086000,12.4840859375,-0.34005001187324524,-10.281000137329102,-0.7609500288963318
1747314359659680500,12.493680419921875,-0.0580500029027462,-10.978050231933594,-0.8089500665664673
1747314359669275600,12.503275634765625,0.364950031042099,-11.284050941467285,-1.0960500240325928
