time,seconds_elapsed,z,y,x
1749447270555642000,0.14364208984375,0.8120750188827515,-0.7880125045776367,-0.3436124920845032
1749447270565655800,0.15365576171875,0.7822374701499939,-0.6718249917030334,-0.5128750205039978
1749447270575669500,0.16366943359375,0.8248624801635742,-0.5568749904632568,-0.49912500381469727
1749447270585683200,0.17368310546875,0.8867374658584595,-0.3852750062942505,-0.36272498965263367
1749447270595696600,0.183696533203125,0.9442124962806702,-0.2106499969959259,-0.1933249980211258
1749447270605710300,0.19371044921875,1.0102125406265259,-0.14135000109672546,-0.028187500312924385
1749447270615724000,0.20372412109375,1.0476125478744507,-0.2340250015258789,0.17737500369548798
1749447270625737500,0.213737548828125,1.0102125406265259,-0.15207499265670776,0.38087499141693115
1749447270635751400,0.22375146484375,0.8430125117301941,0.7853999733924866,0.14533749222755432
1749447270645764900,0.233764892578125,0.5735124945640564,0.6863999962806702,-0.007974999956786633
1749447270655778800,0.24377880859375,0.414837509393692,0.7012500166893005,-0.04743750020861626
1749447270665792300,0.253792236328125,0.42432498931884766,0.8386124968528748,-0.1284250020980835
1749447270675806000,0.263805908203125,0.46584999561309814,0.6193000078201294,-0.11027500033378601
1749447270685819600,0.273819580078125,0.3572250008583069,-0.04235000163316727,-0.24763749539852142
1749447270695833000,0.2838330078125,-0.025162499397993088,-0.7059249877929688,-0.5002250075340271
1749447270705846800,0.2938466796875,-0.40658751130104065,-0.8497499823570251,-0.5299249887466431
1749447270715860500,0.303860595703125,-0.6547750234603882,-0.721875011920929,-0.43408748507499695
1749447270725874200,0.313874267578125,-0.7420874834060669,-0.5600374937057495,-0.420199990272522
1749447270735887600,0.3238876953125,-0.7932375073432922,-0.5493124723434448,-0.41497498750686646
1749447270745901600,0.333901611328125,-0.8944374918937683,-0.8167499899864197,-0.36588749289512634
1749447270755915000,0.3439150390625,-1.0010000467300415,-0.9989374876022339,-0.32436248660087585
1749447270765928700,0.3539287109375,-1.1235125064849854,-0.9957749843597412,-0.26688748598098755
1749447270775942100,0.363942138671875,-1.1724624633789062,-0.84232497215271,-0.21889999508857727
1749447270785956000,0.3739560546875,-1.1457874774932861,-0.8124874830245972,-0.15606249868869781
1749447270795969500,0.383969482421875,-1.0755250453948975,-0.8519499897956848,-0.09116250276565552
1749447270805983200,0.393983154296875,-1.0212124586105347,-0.7869125008583069,-0.04207500070333481
1749447270815997000,0.403996826171875,-0.9934374690055847,-0.6324999928474426,-0.022962499409914017
1749447270826010600,0.4140107421875,-0.9934374690055847,-0.4162124991416931,-0.08689999580383301
1749447270836024300,0.4240244140625,-0.9987999796867371,-0.23938749730587006,-0.19442500174045563
1749447270846037800,0.434037841796875,-1.043624997138977,-0.15729999542236328,-0.26468750834465027
1749447270856051500,0.444051513671875,-1.1074249744415283,-0.10298749804496765,-0.3871999979019165
1749447270866065200,0.454065185546875,-1.1372624635696411,0.013062499463558197,-0.5119125247001648
1749447270876078800,0.464078857421875,-1.1053625345230103,0.12925000488758087,-0.5917999744415283
1749447270886092500,0.474092529296875,-0.951912522315979,0.21972499787807465,-0.5917999744415283
1749447270896106200,0.484106201171875,-0.8390250205993652,0.18136249482631683,-0.5374875068664551
1749447270906119700,0.49411962890625,-0.8560749888420105,0.26881250739097595,-0.5341874957084656
1749447270916133400,0.50413330078125,-0.8006625175476074,0.006737499963492155,-0.6514750123023987
1749447270926147000,0.51414697265625,-0.6004624962806702,-0.2564375102519989,-0.7291625142097473
1749447270936160800,0.524160888671875,-0.40012499690055847,-0.3735874891281128,-0.7739874720573425
1749447270946174200,0.53417431640625,-0.38733750581741333,-0.6399250030517578,-0.816474974155426
1749447270956188000,0.54418798828125,-0.4118124842643738,-0.9253749847412109,-0.8047875165939331
1749447270966201600,0.55420166015625,-0.4694249927997589,-1.1757625341415405,-0.7536374926567078
1749447270976215300,0.56421533203125,-0.5684249997138977,-1.3312749862670898,-0.7569375038146973
1749447270986229000,0.57422900390625,-0.676087498664856,-1.4122624397277832,-0.8260999917984009
1749447270996242400,0.584242431640625,-0.7645000219345093,-1.4271124601364136,-0.8964999914169312
1749447271006256400,0.59425634765625,-0.8634999990463257,-1.2790249586105347,-0.980650007724762
1749447271016269800,0.604269775390625,-0.9871125221252441,-0.9435250163078308,-1.026437520980835
1749447271026283500,0.614283447265625,-1.0894124507904053,-0.4727250039577484,-0.9508125185966492
1749447271036297000,0.624296875,-1.117050051689148,0.014162499457597733,-0.7387874722480774
1749447271046311000,0.634310791015625,-1.0638375282287598,0.3550249934196472,-0.4916999936103821
1749447271056324400,0.644324462890625,-0.9882124662399292,0.6182000041007996,-0.3414124846458435
1749447271066338000,0.654338134765625,-0.9211124777793884,0.8343499898910522,-0.32120001316070557
1749447271076351700,0.664351806640625,-0.8390250205993652,1.0144749879837036,-0.3638249933719635
1749447271086365400,0.674365478515625,-0.7517125010490417,1.11347496509552,-0.41593748331069946
1749447271096379100,0.684379150390625,-0.685575008392334,1.0708500146865845,-0.4298250079154968
1749447271106392600,0.694392578125,-0.6888750195503235,0.9494374990463257,-0.3797749876976013
1749447271116406300,0.70440625,-0.7537750005722046,0.6617875099182129,-0.2433750033378601
1749447271126420000,0.714419921875,-0.851812481880188,0.23141250014305115,-0.0016499999910593033
1749447271136433400,0.724433349609375,-1.0201125144958496,-0.17338749766349792,0.2870999872684479
1749447271146447400,0.734447265625,-1.1116875410079956,-0.8199124932289124,0.6683874726295471
1749447271156460800,0.744460693359375,-1.0883125066757202,-1.5570499897003174,1.1521124839782715
1749447271166474500,0.754474609375,-1.0243749618530273,-2.1280875205993652,1.6857500076293945
1749447271176488200,0.76448828125,-1.035099983215332,-2.3794374465942383,2.25885009765625
1749447271186502000,0.774501953125,-1.136299967765808,-2.3922250270843506,2.760587453842163
1749447271196515600,0.784515625,-1.2523499727249146,-2.4305875301361084,3.0556623935699463
1749447271206529000,0.794529052734375,-1.3535499572753906,-2.3847999572753906,3.0365500450134277
1749447271216542700,0.804542724609375,-1.4121249914169312,-2.0365123748779297,2.684962511062622
1749447271226556400,0.814556396484375,-1.2704999446868896,-1.257712483406067,2.1161251068115234
1749447271236570000,0.824570068359375,-0.5769500136375427,-0.44714999198913574,1.5408250093460083
1749447271246583800,0.834583740234375,0.678974986076355,0.31776249408721924,0.9592000246047974
1749447271256597500,0.844597412109375,2.004199981689453,0.7481374740600586,0.3712500035762787
1749447271266611000,0.85461083984375,3.125925064086914,0.5329499840736389,-0.22110000252723694
1749447271276624600,0.864624755859375,3.832124948501587,-0.10188750177621841,-0.7984625101089478
1749447271286638300,0.874638427734375,4.126100063323975,-0.7123875021934509,-1.2223750352859497
1749447271296652000,0.884652099609375,3.965362548828125,-0.9125875234603882,-1.5845500230789185
1749447271306665500,0.89466552734375,3.6265625953674316,-1.1374000310897827,-1.9084999561309814
1749447271316679400,0.904679443359375,3.367650032043457,-2.0374748706817627,-2.114062547683716
1749447271326692900,0.91469287109375,3.2973875999450684,-3.047412395477295,-2.143899917602539
1749447271336706600,0.92470654296875,3.4219624996185303,-3.9230124950408936,-1.9478249549865723
1749447271346720300,0.93472021484375,3.6052498817443848,-4.459949970245361,-1.544124960899353
1749447271356733700,0.944733642578125,3.6723499298095703,-4.4727373123168945,-1.0828125476837158
1749447271366747600,0.95474755859375,3.539249897003174,-4.699612617492676,-0.5810750126838684
1749447271376761000,0.964760986328125,3.3442749977111816,-5.0213623046875,0.0611874982714653
1749447271386774800,0.97477490234375,3.5370500087738037,-5.169449806213379,0.24227499961853027
1749447271396788500,0.98478857421875,3.855637550354004,-5.563525199890137,0.22206249833106995
1749447271406802200,0.99480224609375,4.177249908447266,-5.873587608337402,0.11233749985694885
1749447271416815600,1.004815673828125,4.337025165557861,-6.1590375900268555,0.02186249941587448
1749447271426829600,1.01482958984375,4.36796236038208,-6.401862621307373,-0.07837499678134918
1749447271436843000,1.024843017578125,4.340324878692627,-6.477624893188477,-0.21147499978542328
1749447271446857000,1.03485693359375,4.298799991607666,-6.422212600708008,-0.39256250858306885
1749447271456870400,1.044870361328125,4.267862319946289,-6.166462421417236,-0.5469750165939331
1749447271466884000,1.054884033203125,4.265662670135498,-5.638187408447266,-0.6759499907493591
1749447271476897800,1.064897705078125,4.419112682342529,-5.092724800109863,-0.6609625220298767
1749447271486911500,1.074911376953125,4.675825119018555,-4.723124980926514,-0.405349999666214
1749447271496925200,1.08492529296875,4.945324897766113,-4.498312473297119,0.06228749826550484
1749447271506938600,1.094938720703125,5.166975021362305,-4.172299861907959,0.6055499911308289
1749447271516952300,1.104952392578125,5.3565874099731445,-3.5960373878479004,1.1147124767303467
1749447271526966000,1.114966064453125,5.4737372398376465,-2.8055500984191895,1.4940749406814575
1749447271536979700,1.124979736328125,5.534375190734863,-2.0289499759674072,1.6623749732971191
1749447271546993400,1.134993408203125,5.518424987792969,-1.3216500282287598,1.675162434577942
1749447271557007000,1.145007080078125,5.37033748626709,-0.6654999852180481,1.627174973487854
1749447271567020500,1.1550205078125,5.051887512207031,-0.12319999933242798,1.5387624502182007
1749447271577034000,1.165033935546875,4.576825141906738,0.4914250075817108,1.4108874797821045
1749447271587048000,1.1750478515625,4.075087547302246,1.1583000421524048,1.2798500061035156
1749447271597061400,1.185061279296875,3.6243624687194824,1.746250033378601,1.2883750200271606
1749447271607075300,1.195075439453125,3.2110373973846436,2.263937473297119,1.441825032234192
1749447271617088800,1.2050888671875,2.937274932861328,2.666675090789795,1.6334999799728394
1749447271627102500,1.2151025390625,2.8308498859405518,2.890387535095215,1.7678375244140625
1749447271637116200,1.2251162109375,2.7871248722076416,3.055525064468384,1.8519874811172485
1749447271647129900,1.2351298828125,2.679462432861328,3.240875005722046,1.8508875370025635
1749447271657143600,1.2451435546875,2.4601500034332275,3.4911248683929443,1.7166874408721924
1749447271667157000,1.255156982421875,2.0893125534057617,3.5828375816345215,1.534500002861023
1749447271677170700,1.265170654296875,1.6664999723434448,3.4688498973846436,1.3800874948501587
1749447271687184400,1.275184326171875,1.3063875436782837,3.3346500396728516,1.221274971961975
1749447271697198000,1.285197998046875,1.0390875339508057,3.3452374935150146,1.2181124687194824
1749447271707211800,1.295211669921875,0.8205999732017517,3.594525098800659,1.192537546157837
1749447271717225500,1.3052255859375,0.5575624704360962,4.926074981689453,0.2433750033378601
1749447271727239200,1.3152392578125,0.34869998693466187,6.4046125411987305,-1.775262475013733
1749447271737252900,1.3252529296875,0.3529624938964844,5.94453763961792,-3.24114990234375
1749447271747266300,1.335266357421875,0.5852000117301941,4.329599857330322,-3.674687385559082
1749447271757280000,1.345280029296875,0.5075125098228455,2.951162576675415,-2.9992873668670654
1749447271767293700,1.355293701171875,-0.07095000147819519,2.0563125610351562,-1.5952750444412231
1749447271777307400,1.365307373046875,-0.6973999738693237,1.0921624898910522,-0.24873749911785126
1749447271787321000,1.375321044921875,-0.8720250129699707,-0.13708749413490295,0.4809750020503998
1749447271797334800,1.385334716796875,-0.83160001039505,-1.0543500185012817,0.7888374924659729
1749447271807348200,1.39534814453125,-0.8123499751091003,-1.4111624956130981,0.9411875009536743
1749447271817362200,1.405362060546875,-0.8634999990463257,-1.5006749629974365,1.1893750429153442
1749447271827375600,1.415375732421875,-1.0564124584197998,-1.5006749629974365,1.675162434577942
1749447271837389300,1.425389404296875,-1.191575050354004,-1.2610124349594116,1.9830249547958374
1749447271847403000,1.435403076171875,-1.3322374820709229,-1.0979374647140503,2.1087000370025635
1749447271857416700,1.445416748046875,-1.441962480545044,-1.2044999599456787,2.0873875617980957
1749447271867430100,1.45543017578125,-1.3652374744415283,-1.5069999694824219,1.9744999408721924
1749447271877444000,1.465444091796875,-1.1576124429702759,-1.3972749710083008,1.6218124628067017
1749447271887457800,1.475457763671875,-1.4451249837875366,-0.36616250872612,1.3928749561309814
1749447271897471200,1.48547119140625,-2.009700059890747,1.0847375392913818,1.0177749395370483
1749447271907485000,1.49548486328125,-2.3123373985290527,1.8548749685287476,0.44151249527931213
1749447271917498600,1.50549853515625,-2.366650104522705,1.8314999341964722,-0.09542500227689743
1749447271927512300,1.51551220703125,-2.2547249794006348,1.4778499603271484,-0.36272498965263367
1749447271937525800,1.52552587890625,-2.0693750381469727,0.966487467288971,-0.4405499994754791
1749447271947539700,1.535539794921875,-1.9479625225067139,0.34113749861717224,-0.405349999666214
1749447271957553200,1.54555322265625,-1.7466624975204468,-0.33096250891685486,-0.39256250858306885
1749447271967566800,1.55556689453125,-1.2566125392913818,-0.9403625130653381,-0.5619624853134155
1749447271977580500,1.56558056640625,-0.3937999904155731,-1.6274499893188477,-0.816474974155426
1749447271987594200,1.57559423828125,0.406312495470047,-2.662824869155884,-0.694100022315979
1749447271997608000,1.58560791015625,0.4797374904155731,-3.7408249378204346,-0.1443749964237213
1749447272007621600,1.59562158203125,0.1527625024318695,-4.3971123695373535,0.4031499922275543
1749447272017635000,1.605635009765625,-0.15936249494552612,-4.818962574005127,0.7653250098228455
1749447272027648800,1.615648681640625,-0.4384874999523163,-4.9542622566223145,1.0381250381469727
1749447272037662500,1.625662353515625,-0.7442874908447266,-4.9722747802734375,1.2905750274658203
1749447272047676200,1.63567626953125,-1.2364000082015991,-4.9372124671936035,1.5217125415802002
1749447272057689900,1.64568994140625,-1.974637508392334,-4.540937423706055,1.6368000507354736
1749447272067703300,1.655703369140625,-2.722362518310547,-3.789912462234497,1.442924976348877
1749447272077717200,1.66571728515625,-3.1570000648498535,-3.026099920272827,1.0839124917984009
1749447272087731000,1.67573095703125,-3.3295624256134033,-2.38700008392334,0.6930000185966492
1749447272097744600,1.68574462890625,-3.1762499809265137,-1.8511624336242676,0.2732124924659729
1749447272107758000,1.695758056640625,-2.7266249656677246,-1.5229499340057373,-0.09322500228881836
1749447272117771800,1.705771728515625,-2.0758373737335205,-1.384487509727478,-0.4212999939918518
1749447272127785500,1.715785400390625,-1.3737624883651733,-1.3259124755859375,-0.6813125014305115
1749447272137799200,1.725799072265625,-0.8731250166893005,-1.2599124908447266,-0.8303624987602234
1749447272147812600,1.7358125,-0.7485499978065491,-1.1214499473571777,-0.8996624946594238
1749447272157826600,1.74582666015625,-1.0297374725341797,-0.9157499670982361,-0.9475125074386597
1749447272167840000,1.755840087890625,-1.781862497329712,-0.7166500091552734,-0.9389874935150146
1749447272177853700,1.765853759765625,-2.5711123943328857,-0.6505125164985657,-0.7654625177383423
1749447272187867400,1.775867431640625,-2.7532999515533447,-0.7389249801635742,-0.6247999668121338
1749447272197881000,1.785881103515625,-2.4678499698638916,-0.9574124813079834,-0.7111499905586243
1749447272207894800,1.795894775390625,-2.1108999252319336,-1.226912498474121,-0.7643625140190125
1749447272217908500,1.805908447265625,-1.8393374681472778,-1.4132249355316162,-0.5886374711990356
1749447272227922000,1.815921875,-1.7146250009536743,-1.4537874460220337,-0.2924624979496002
1749447272237935600,1.825935546875,-1.6923500299453735,-1.3557499647140503,-0.16568750143051147
1749447272247949300,1.83594921875,-1.682724952697754,-1.267337441444397,-0.6216375231742859
1749447272257963000,1.845962890625,-1.7498250007629395,-2.0726749897003174,-0.7515749931335449
1749447272267976700,1.855976806640625,-1.6273125410079956,-1.948099970817566,-0.7185750007629395
1749447272277990400,1.865990478515625,-1.3268749713897705,-1.3195874691009521,-0.4244624972343445
1749447272288004000,1.876004150390625,-0.9722625017166138,-0.6419875025749207,-0.08896250277757645
1749447272298017500,1.886017578125,-0.8549749851226807,-0.08703749626874924,-0.11990000307559967
1749447272308031500,1.896031494140625,-0.7900750041007996,-0.11151249706745148,-0.15606249868869781
1749447272318045000,1.906044921875,-0.7878749966621399,-0.357637494802475,-0.10807500034570694
1749447272328058600,1.91605859375,-0.8784874677658081,-0.3895374834537506,-0.11879999935626984
1749447272338072300,1.926072265625,-1.0872124433517456,-0.24901250004768372,-0.04207500070333481
1749447272348085800,1.936085693359375,-1.3151874542236328,-0.22013749182224274,0.07507500052452087
1749447272358099700,1.946099609375,-1.4792250394821167,-0.5696625113487244,0.1368124932050705
1749447272368113200,1.956113037109375,-1.4888499975204468,-0.9754250049591064,0.17737500369548798
1749447272378126800,1.966126953125,-1.4994374513626099,-1.035099983215332,0.3306874930858612
1749447272388140500,1.976140625,-1.5826250314712524,-0.997837483882904,0.5193374752998352
1749447272398154200,1.986154296875,-1.7785625457763672,-1.0372999906539917,0.6524375081062317
1749447272408167700,1.996167724609375,-1.9735374450683594,-0.9190499782562256,0.8366875052452087
1749447272418181400,2.006181396484375,-2.1045749187469482,-0.6686624884605408,1.1393250226974487
1749447272428195000,2.016195068359375,-2.147200107574463,-0.5387250185012817,1.4759249687194824
1749447272438208800,2.026208740234375,-2.081199884414673,-0.7528125047683716,1.6282750368118286
1749447272448222500,2.036222412109375,-1.9553874731063843,-1.4399000406265259,1.4311000108718872
1749447272458236000,2.04623583984375,-1.8286124467849731,-2.003512382507324,1.1819499731063843
1749447272468249900,2.056249755859375,-1.7392375469207764,-2.142937421798706,1.111549973487854
1749447272478263300,2.06626318359375,-1.5846874713897705,-2.0044748783111572,1.2181124687194824
1749447272488277200,2.07627734375,-1.3461250066757202,-2.067312479019165,1.3182125091552734
1749447272498290700,2.086290771484375,-0.9967374801635742,-2.4029500484466553,1.3853124380111694
1749447272508304400,2.096304443359375,-0.5726875066757202,-2.630924940109253,1.5398625135421753
1749447272518318000,2.106318115234375,-0.1093124970793724,-2.590362548828125,1.6985374689102173
1749447272528331800,2.116331787109375,0.3040125072002411,-2.255962371826172,1.8147250413894653
1749447272538345500,2.126345458984375,0.6576625108718872,-1.3344374895095825,1.7784249782562256
1749447272548359200,2.136359130859375,0.9421499967575073,0.14726249873638153,1.352312445640564
1749447272558372600,2.14637255859375,1.395900011062622,1.5130499601364136,0.7621625065803528
1749447272568386300,2.15638623046875,2.179924964904785,1.8719249963760376,0.5182374715805054
1749447272578400000,2.16639990234375,2.885162591934204,1.5427500009536743,0.45746248960494995
1749447272588413700,2.17641357421875,3.3804373741149902,1.055999994277954,0.3306874930858612
1749447272598427400,2.186427490234375,3.817275047302246,0.7268249988555908,0.19965000450611115
1749447272608440800,2.19644091796875,4.108087539672852,0.5020124912261963,0.02928750030696392
1749447272618454800,2.206454833984375,4.154974937438965,0.504212498664856,-0.24021250009536743
1749447272628468200,2.21646826171875,3.968524932861328,0.43174999952316284,-0.5128750205039978
1749447272638482000,2.22648193359375,3.6095125675201416,0.31776249408721924,-0.557699978351593
1749447272648495600,2.23649560546875,3.0842623710632324,0.16541250050067902,-0.5278624892234802
1749447272658509300,2.24650927734375,2.4409000873565674,0.21972499787807465,-0.4735499918460846
1749447272668523000,2.25652294921875,1.8134875297546387,0.47327500581741333,-0.41813749074935913
1749447272678536400,2.266536376953125,1.4970999956130981,0.9164375066757202,-0.3147374987602234
1749447272688550100,2.276550048828125,1.5886750221252441,1.4810124635696411,-0.23704999685287476
1749447272698563800,2.286563720703125,1.967900037765503,2.0253748893737793,-0.24131250381469727
1749447272708577500,2.29657763671875,2.4430999755859375,2.221450090408325,-0.38513749837875366
1749447272718591200,2.30659130859375,2.7700750827789307,2.1373000144958496,-0.5895999670028687
1749447272728605000,2.31660498046875,2.8883249759674072,1.88691246509552,-0.7803124785423279
1749447272738618600,2.32661865234375,2.8638498783111572,1.35423743724823,-0.9763875007629395
1749447272748632300,2.33663232421875,2.940574884414673,0.5286874771118164,-1.1660000085830688
1749447272758646000,2.34664599609375,3.264387369155884,-0.32670000195503235,-1.3055624961853027
1749447272768659700,2.35665966796875,3.7607624530792236,-0.7698624730110168,-1.4130874872207642
1749447272778673200,2.366673095703125,4.293437480926514,-0.9403625130653381,-1.485550045967102
1749447272788687000,2.37668701171875,4.730137348175049,-1.1820875406265259,-1.5025999546051025
1749447272798700500,2.386700439453125,4.9720001220703125,-1.515524983406067,-1.4759249687194824
1749447272808714200,2.39671435546875,5.033737659454346,-1.800012469291687,-1.3736250400543213
1749447272818728000,2.40672802734375,4.98588752746582,-1.7957500219345093,-1.120212435722351
1749447272828741600,2.41674169921875,4.954949855804443,-1.8222874402999878,-0.6759499907493591
1749447272838755300,2.42675537109375,4.9581122398376465,-2.2793374061584473,-0.02502499893307686
1749447272848769000,2.43676904296875,4.755712509155273,-3.137887477874756,0.8058875203132629
1749447272858782500,2.446782470703125,4.209287643432617,-3.969899892807007,1.608062505722046
1749447272868796400,2.45679638671875,3.364487409591675,-4.203237533569336,2.237537384033203
1749447272878809900,2.466809814453125,2.3971750736236572,-4.1148247718811035,2.558187484741211
1749447272888823800,2.47682373046875,1.4735875129699707,-3.7376625537872314,2.6934874057769775
1749447272898837200,2.486837158203125,0.6523000001907349,-2.6394500732421875,2.6039750576019287
1749447272908851000,2.496850830078125,0.01746249943971634,-1.0126874446868896,2.3014750480651855
1749447272918864600,2.50686474609375,-0.28503748774528503,0.18892499804496765,1.9648749828338623
1749447272928878000,2.516878173828125,-0.22013749182224274,0.4871625006198883,1.719849944114685
1749447272938891800,2.526891845703125,-0.030524998903274536,0.3592875003814697,1.5408250093460083
1749447272948905500,2.536905517578125,0.2730749845504761,0.18672500550746918,1.3886125087738037
1749447272958919200,2.546919189453125,0.6810374855995178,0.1387374997138977,1.2618374824523926
1749447272968932900,2.556932861328125,1.103987455368042,0.12925000488758087,1.145650029182434
1749447272978946600,2.566946533203125,1.496000051498413,-0.018837500363588333,1.054075002670288
1749447272988960300,2.576960205078125,1.7975374460220337,-0.18713749945163727,0.9497125148773193
1749447272998974000,2.586973876953125,1.9966374635696411,-0.23828749358654022,0.7653250098228455
1749447273008987400,2.5969873046875,2.0926125049591064,-0.11577499657869339,0.48413750529289246
1749447273019001000,2.6070009765625,2.0755624771118164,0.15152500569820404,0.17943750321865082
1749447273029014800,2.617014892578125,1.9093250036239624,0.35612499713897705,-0.02928750030696392
1749447273039028200,2.6270283203125,1.553612470626831,0.47327500581741333,-0.1634874939918518
1749447273049042200,2.637042236328125,1.0262999534606934,0.5233250260353088,-0.3499374985694885
1749447273059055600,2.6470556640625,0.4371125102043152,0.4754749834537506,-0.5928999781608582
1749447273069069600,2.657069580078125,-0.116737499833107,0.8184000253677368,-0.7547374963760376
1749447273079083000,2.6670830078125,-0.4950000047683716,1.3382874727249146,-0.8218374848365784
1749447273089097000,2.677096923828125,-0.6536750197410583,1.6780500411987305,-0.8112499713897705
1749447273099110400,2.6871103515625,-0.619575023651123,1.729200005531311,-0.7174749970436096
1749447273109124000,2.6971240234375,-0.43312498927116394,1.4320625066757202,-0.6014249920845032
1749447273119137500,2.707137451171875,-0.1966249942779541,0.6927250027656555,-0.521399974822998
1749447273129151500,2.7171513671875,-0.06888750195503235,-0.3630000054836273,-0.49486249685287476
1749447273139165000,2.7271650390625,-0.029424998909235,-1.3312749862670898,-0.5002250075340271
1749447273149178600,2.7371787109375,-0.07204999774694443,-1.7190250158309937,-0.5512375235557556
1749447273159192300,2.7471923828125,-0.19456249475479126,-1.3195874691009521,-0.7612000107765198
1749447273169206000,2.7572060546875,0.08346249908208847,0.45842498540878296,-1.4440250396728516
1749447273179219700,2.7672197265625,0.8333874940872192,2.6751999855041504,-2.47513747215271
1749447273189233400,2.7772333984375,1.0016875267028809,3.7830374240875244,-3.200587511062622
1749447273199247000,2.7872470703125,0.7066124677658081,4.201725006103516,-3.475450038909912
1749447273209260500,2.797260498046875,0.3242250084877014,4.207087516784668,-3.3881375789642334
1749447273219274500,2.8072744140625,-0.03904999792575836,3.5880625247955322,-2.9140374660491943
1749447273229288000,2.817287841796875,-0.42996248602867126,2.5463624000549316,-2.117224931716919
1749447273239301600,2.827301513671875,-0.7708249688148499,1.9306374788284302,-1.469599962234497
1749447273249315300,2.8373154296875,-1.043624997138977,1.9071249961853027,-1.154175043106079
1749447273259329000,2.8473291015625,-1.1767250299453735,1.9540125131607056,-0.8911374807357788
1749447273269342700,2.8573427734375,-1.1596750020980835,1.7644000053405762,-0.5545374751091003
1749447273279356400,2.8673564453125,-1.1116875410079956,1.510849952697754,-0.22426250576972961
1749447273289370000,2.8773701171875,-1.0818500518798828,1.396862506866455,0.03135000169277191
1749447273299383800,2.8873837890625,-1.0723625421524048,1.4246374368667603,0.16664999723434448
1749447273309397200,2.897397216796875,-1.0243749618530273,1.5662624835968018,0.18700000643730164
1749447273319411200,2.9074111328125,-0.9509499669075012,1.6322624683380127,0.14533749222755432
1749447273329424600,2.917424560546875,-0.851812481880188,1.4661624431610107,0.05486249923706055
1749447273339438300,2.927438232421875,-0.7176125049591064,1.1092125177383423,-0.24447499215602875
1749447273349452000,2.9374521484375,-0.5205749869346619,0.5574250221252441,-0.7174749970436096
1749447273359465700,2.9474658203125,-0.2946625053882599,-0.12966249883174896,-1.0861124992370605
1749447273369479400,2.9574794921875,-0.10078749805688858,-0.6921749711036682,-1.2340625524520874
1749447273379493000,2.9674931640625,0.08662500232458115,-1.1331374645233154,-1.145650029182434
1749447273389506800,2.9775068359375,0.28380000591278076,-1.400575041770935,-0.898562490940094
1749447273399520300,2.987520263671875,0.4296875,-1.4057999849319458,-0.6301624774932861
1749447273409534000,2.997533935546875,0.503250002861023,-1.1320375204086304,-0.3979249894618988
1749447273419547600,3.007547607421875,0.5084750056266785,-0.822112500667572,-0.15716250240802765
1749447273429561300,3.017561279296875,0.4179999828338623,-0.7123875021934509,0.14643749594688416
1749447273439574800,3.02757470703125,0.26028749346733093,-0.6665999889373779,0.49802500009536743
1749447273449588500,3.03758837890625,0.12718750536441803,-0.5174124836921692,0.8122124671936035
1749447273459602200,3.047602294921875,0.1368124932050705,-0.357637494802475,1.0700249671936035
1749447273469615900,3.057615966796875,0.36684998869895935,-0.2905375063419342,1.3054250478744507
1749447273479629600,3.067629638671875,0.7748125195503235,-0.37674999237060547,1.4663000106811523
1749447273489643300,3.077643310546875,1.2893375158309937,-0.9327999949455261,1.4247750043869019
1749447273499657000,3.087656982421875,1.784749984741211,-1.318487524986267,1.7656375169754028
1749447273509670400,3.09767041015625,2.193812370300293,-1.4548875093460083,2.3227875232696533
1749447273519684400,3.107684326171875,2.4877874851226807,-1.5688749551773071,2.5348124504089355
1749447273529697800,3.11769775390625,2.544300079345703,-1.4069000482559204,2.3142623901367188
1749447273539711700,3.127711669921875,2.3749001026153564,-0.8977375030517578,1.8327374458312988
1749447273549725200,3.13772509765625,2.280025005340576,-0.5759875178337097,1.1308000087738037
1749447273559739000,3.14773876953125,2.0926125049591064,-1.1384999752044678,-0.7345250248908997
1749447273569752600,3.157752685546875,1.5960999727249146,-1.2801250219345093,-2.026750087738037
1749447273579766000,3.16776611328125,1.1838749647140503,-0.2905375063419342,-1.7155874967575073
1749447273589780000,3.177780029296875,0.9570000171661377,0.8237624764442444,-0.7004249691963196
1749447273599793400,3.18779345703125,0.9453125,1.7260375022888184,0.359562486410141
1749447273609807000,3.19780712890625,0.8578624725341797,2.2309374809265137,1.211650013923645
1749447273619820800,3.20782080078125,0.8014875054359436,2.5739998817443848,1.8358999490737915
1749447273629834500,3.21783447265625,0.9026874899864197,2.895750045776367,2.1480250358581543
1749447273639848200,3.22784814453125,1.0869375467300415,3.4208624362945557,2.052187442779541
1749447273649862000,3.23786181640625,1.169987440109253,3.915174961090088,1.7741625308990479
1749447273659875300,3.247875244140625,1.0922999382019043,3.8193373680114746,1.7517499923706055
1749447273669889000,3.257888916015625,0.871749997138977,3.3463375568389893,1.7241125106811523
1749447273679902700,3.26790283203125,0.7950249910354614,2.7817625999450684,0.8718875050544739
1749447273689916400,3.27791650390625,0.8760125041007996,1.7664624452590942,-0.08579999953508377
1749447273699930000,3.28793017578125,0.7684875130653381,0.5776374936103821,-0.2274249941110611
1749447273709943800,3.29794384765625,0.3423750102519989,-0.45883750915527344,-0.06558749824762344
1749447273719957500,3.30795751953125,-0.1625249981880188,-1.3162875175476074,0.015399999916553497
1749447273729971200,3.31797119140625,-0.6047250032424927,-1.9618500471115112,0.06971249729394913
1749447273739985000,3.32798486328125,-0.9092875123023987,-2.266550064086914,0.11027500033378601
1749447273749998300,3.337998291015625,-0.9967374801635742,-1.983162522315979,0.037812501192092896
1749447273760012000,3.348011962890625,-0.8944374918937683,-1.1757625341415405,-0.14121249318122864
1749447273770025700,3.358025634765625,-0.6462500095367432,-0.43326249718666077,-0.24557499587535858
1749447273780039400,3.368039306640625,-0.37248748540878296,-0.04867500066757202,-0.18273749947547913
1749447273790053000,3.37805322265625,-0.13708749413490295,0.21119999885559082,-0.0835999995470047
1749447273800066800,3.38806689453125,0.045099999755620956,0.444537490606308,0.0057749999687075615
1749447273810080500,3.39808056640625,0.17077499628067017,0.5733749866485596,0.1069749966263771
1749447273820094200,3.40809423828125,0.23897500336170197,0.6256250143051147,0.19538749754428864
1749447273830107600,3.418107666015625,0.2730749845504761,0.7246249914169312,0.20721249282360077
1749447273840121300,3.428121337890625,0.27623748779296875,0.9366499781608582,0.1251250058412552
1749447273850135000,3.438135009765625,0.2582249939441681,1.187037467956543,-0.009074999950826168
1749447273860148500,3.4481484375,0.24543750286102295,1.3840750455856323,-0.12732499837875366
1749447273870162400,3.458162353515625,0.26455000042915344,1.444849967956543,-0.17627499997615814
1749447273880176000,3.468176025390625,0.32848748564720154,1.3670250177383423,-0.14011250436306
1749447273890189800,3.47818994140625,0.4819374978542328,0.7310875058174133,0.22206249833106995
1749447273900203500,3.48820361328125,0.7492374777793884,-0.6217749714851379,1.035925030708313
1749447273910217200,3.49821728515625,0.9484750032424927,-1.5038374662399292,1.5919749736785889
1749447273920230700,3.508230712890625,1.0305625200271606,-1.650825023651123,1.6633374691009521
1749447273930244600,3.51824462890625,1.0496749877929688,-1.5976125001907349,1.5419249534606934
1749447273940258000,3.528258056640625,0.9464125037193298,-1.4335750341415405,1.3395249843597412
1749447273950271700,3.538271728515625,0.7897999882698059,-1.3557499647140503,1.1797499656677246
1749447273960285400,3.548285400390625,0.6289250254631042,-1.4473249912261963,1.1328624486923218
1749447273970299000,3.558298828125,0.489362508058548,-1.6306124925613403,1.1701250076293945
1749447273980312800,3.568312744140625,0.37111249566078186,-1.800012469291687,1.227737545967102
1749447273990326300,3.578326171875,0.2358125001192093,-1.8543249368667603,1.2414875030517578
1749447274000340000,3.588340087890625,0.006737499963492155,-1.732912540435791,1.185112476348877
1749447274010353700,3.598353759765625,-0.19236250221729279,-1.4708374738693237,1.0561374425888062
1749447274020367400,3.608367431640625,-0.30855000019073486,-1.1692999601364136,0.9602999687194824
1749447274030381000,3.618381103515625,-0.3287625014781952,-0.8614374995231628,1.0029250383377075
1749447274040394800,3.628394775390625,-0.24997499585151672,-0.4503124952316284,1.194737434387207
1749447274050408200,3.638408203125,-0.1093124970793724,0.14093749225139618,1.3832499980926514
1749447274060422100,3.648422119140625,0.030249999836087227,0.7885624766349792,1.4822499752044678
1749447274070435600,3.658435546875,0.11123749613761902,1.2988250255584717,1.4898124933242798
1749447274080449500,3.668449462890625,0.14093749225139618,1.538487434387207,1.4609375
1749447274090463000,3.678462890625,0.10793749988079071,1.478950023651123,1.3821499347686768
1749447274100476700,3.6884765625,0.040837500244379044,1.1933624744415283,1.2064249515533447
1749447274110490400,3.698490478515625,-0.015537500381469727,0.770550012588501,0.8857749700546265
1749447274120504000,3.708504150390625,-0.025162499397993088,0.32628750801086426,0.42336249351501465
1749447274130517800,3.718517822265625,0.013199999928474426,0.1568875014781952,-0.058024998754262924
1749447274140531500,3.728531494140625,0.10161250084638596,0.34017500281333923,-0.42239999771118164
1749447274150545000,3.738544921875,0.148499995470047,0.6298875212669373,-0.7068874835968018
1749447274160558800,3.748558837890625,0.13255000114440918,0.8525000214576721,-0.9539750218391418
1749447274170572300,3.758572265625,0.12828749418258667,0.9803749918937683,-1.109487533569336
1749447274180586200,3.768586181640625,0.18782499432563782,1.1071499586105347,-1.1233749389648438
1749447274190599700,3.778599609375,0.2901250123977661,1.3116124868392944,-1.0742875337600708
1749447274200613400,3.78861328125,0.3636874854564667,1.5566375255584717,-1.085012435913086
1749447274210627000,3.798626953125,0.43188750743865967,1.7260375022888184,-1.127637505531311
1749447274220640800,3.808640869140625,0.46158748865127563,1.6823124885559082,-1.0892750024795532
1749447274230654500,3.818654541015625,0.4328500032424927,1.3894374370574951,-0.9517750144004822
1749447274240668200,3.828668212890625,0.2858625054359436,0.9718499779701233,-0.8846749663352966
1749447274250681900,3.838681884765625,-0.04441250115633011,0.33797499537467957,-0.9092875123023987
1749447274260695600,3.848695556640625,-0.5226374864578247,-0.39916250109672546,-0.99013751745224
1749447274270709000,3.858708984375,-0.9689624905586243,-0.942425012588501,-1.0551749467849731
1749447274280722700,3.86872265625,-1.2256749868392944,-0.9668999910354614,-1.0082875490188599
1749447274290736400,3.878736328125,-1.2395625114440918,-0.24997499585151672,-0.8751875162124634
1749447274300750000,3.88875,-1.0851500034332275,1.0272624492645264,-0.7739874720573425
1749447274310763800,3.898763671875,-0.9668999910354614,2.2789249420166016,-0.6813125014305115
1749447274320777500,3.908777587890625,-1.1309374570846558,3.1044750213623047,-0.7834749817848206
1749447274330791200,3.918791259765625,-1.6656750440597534,3.0086374282836914,-1.7784249782562256
1749447274340804600,3.9288046875,-2.326087474822998,1.5566375255584717,-2.2695748805999756
1749447274350818600,3.938818603515625,-2.940850019454956,0.2293500006198883,-2.2834625244140625
1749447274360832000,3.94883203125,-3.3732874393463135,-0.4343625009059906,-2.331312417984009
1749447274370845700,3.958845703125,-3.687612533569336,-0.8349000215530396,-2.299412488937378
1749447274380859400,3.968859375,-3.8611373901367188,-1.1448249816894531,-2.1917500495910645
1749447274390873000,3.978873046875,-3.8132874965667725,-1.3216500282287598,-2.0629124641418457
1749447274400886800,3.98888671875,-3.420175075531006,-1.126675009727478,-1.9617124795913696
1749447274410900500,3.998900390625,-2.6063125133514404,-0.297962486743927,-1.9435625076293945
1749447274420914200,4.0089140625,-1.5804250240325928,1.4469125270843506,-2.0554873943328857
1749447274430928000,4.018927978515625,-0.7293000221252441,3.2844624519348145,-2.058650016784668
1749447274440941600,4.028941650390625,-0.23828749358654022,4.360400199890137,-1.6134250164031982
1749447274450955000,4.038955078125,-0.12636250257492065,5.283987522125244,-0.9954999685287476
1749447274460968700,4.04896875,-0.37674999237060547,5.191312313079834,-0.16458749771118164
1749447274470982400,4.058982421875,-0.7878749966621399,3.9609625339508057,0.4437125027179718
1749447274480996000,4.06899609375,-1.28534996509552,2.0935750007629395,0.5927624702453613
1749447274491009800,4.079009765625,-1.6858874559402466,0.05458749830722809,0.4702500104904175
1749447274501023500,4.0890234375,-1.9436999559402466,-1.698812484741211,0.29672500491142273
1749447274511037000,4.099036865234375,-1.9883874654769897,-2.982374906539917,0.17737500369548798
1749447274521051000,4.10905078125,-1.7796624898910522,-3.8197500705718994,0.11769999563694
1749447274531064300,4.119064208984375,-1.4643750190734863,-4.2970123291015625,0.17737500369548798
1749447274541078000,4.129078125,-1.1074249744415283,-4.433274745941162,0.3371500074863434
1749447274551091700,4.139091796875,-0.7655999660491943,-4.284224987030029,0.5384500026702881
1749447274561105400,4.14910546875,-0.48963749408721924,-3.7813875675201416,0.7067499756813049
1749447274571119000,4.159119140625,-0.284074991941452,-3.1805124282836914,0.8590999841690063
1749447274581132500,4.169132568359375,-0.14024999737739563,-2.950474977493286,1.0774500370025635
1749447274591146500,4.179146484375,-0.052937500178813934,-2.6841375827789307,1.1786500215530396
1749447274601160000,4.189159912109375,-0.040150001645088196,-2.2825000286102295,1.1712249517440796
1749447274611173600,4.199173583984375,-0.07204999774694443,-1.8563874959945679,1.111549973487854
1749447274621187300,4.209187255859375,-0.08910000324249268,-1.5101624727249146,1.0423874855041504
1749447274631201000,4.219200927734375,-0.052937500178813934,-1.282325029373169,0.9912375211715698
1749447274641214700,4.229214599609375,0.040837500244379044,-1.0467875003814697,0.9464125037193298
1749447274651228200,4.239228271484375,0.18466250598430634,-0.7251750230789185,0.908050000667572
1749447274661241900,4.249241943359375,0.35089999437332153,-0.36726251244544983,0.878350019454956
1749447274671255600,4.259255615234375,0.5266249775886536,-0.052937500178813934,0.8676249980926514
1749447274681269200,4.269269287109375,0.6886000037193298,0.171875,0.8804125189781189
1749447274691283000,4.279282958984375,0.8387500047683716,0.2910875082015991,0.9123125076293945
1749447274701296600,4.289296630859375,0.9729499816894531,0.3123999834060669,0.9645624756813049
1749447274711310300,4.299310302734375,1.1050875186920166,0.2484624981880188,1.0390875339508057
1749447274721324000,4.309323974609375,1.279712438583374,0.10903749614953995,1.1478500366210938
1749447274731337500,4.31933740234375,1.435362458229065,-0.1424500048160553,1.2627999782562256
1749447274741351200,4.32935107421875,1.435362458229065,-1.2684375047683716,0.7280625104904175
1749447274751364900,4.33936474609375,1.0911999940872192,-2.683037519454956,-0.29878750443458557
1749447274761378600,4.349378662109375,0.6545000076293945,-1.0000375509262085,-0.1634874939918518
1749447274771392300,4.359392333984375,0.17407499253749847,0.172837495803833,0.816474974155426
1749447274781405700,4.36940576171875,-0.39586248993873596,0.6725124716758728,1.608062505722046
1749447274791419600,4.379419677734375,-0.8922374844551086,1.1262625455856323,1.8444249629974365
1749447274801433000,4.38943310546875,-1.0286375284194946,2.4409000873565674,1.459975004196167
1749447274811447000,4.399447021484375,-0.8634999990463257,3.8831374645233154,0.6194375157356262
1749447274821460500,4.40946044921875,-0.7357624769210815,4.231562614440918,-0.3115749955177307
1749447274831474400,4.419474365234375,-0.8922374844551086,3.5583624839782715,-0.8601999878883362
1749447274841488000,4.42948779296875,-1.0936750173568726,2.8967125415802,-0.8687250018119812
1749447274851501600,4.43950146484375,-1.0019625425338745,1.0730500221252441,-1.286312460899353
1749447274861515300,4.449515380859375,-0.694100022315979,-1.2141250371932983,-1.73580002784729
1749447274871529000,4.459529052734375,-0.5120499730110168,-1.2439625263214111,-0.7493749856948853
1749447274881542700,4.469542724609375,-0.20308749377727509,-1.7637125253677368,0.18700000643730164
1749447274891556400,4.479556396484375,0.19965000450611115,-1.625249981880188,1.2809499502182007
1749447274901569800,4.48956982421875,0.7173374891281128,-1.5069999694824219,1.6868499517440796
1749447274911583700,4.499583740234375,1.2808125019073486,-0.39916250109672546,0.9497125148773193
1749447274921597200,4.50959716796875,1.5769875049591064,0.7416750192642212,-0.02928750030696392
1749447274931611100,4.519611083984375,1.3990625143051147,0.40191251039505005,-0.25946250557899475
1749447274941624600,4.52962451171875,1.1892374753952026,-0.4300999939441681,-0.19552500545978546
1749447274951638500,4.539638427734375,1.1562374830245972,-1.1714999675750732,-0.002749999985098839
1749447274961652000,4.54965185546875,1.1241999864578247,-1.6189249753952026,0.4255625009536743
1749447274971665700,4.559665771484375,0.974049985408783,-1.6721374988555908,0.9827125072479248
1749447274981679400,4.569679443359375,0.8248624801635742,-1.5101624727249146,1.3895750045776367
1749447274991693000,4.579693115234375,0.7514374852180481,-1.1598124504089355,1.5941749811172485
1749447275001706800,4.589706787109375,0.7034500241279602,-0.694237470626831,1.646287441253662
1749447275011720400,4.599720458984375,0.6161375045776367,-0.20418749749660492,1.5728625059127808
1749447275021734000,4.60973388671875,0.5202999711036682,0.18562500178813934,1.358775019645691
1749447275031747800,4.619747802734375,0.42006251215934753,0.5425750017166138,1.0722249746322632
1749447275041761300,4.62976123046875,0.2997500002384186,0.8205999732017517,0.7728874683380127
1749447275051775000,4.63977490234375,0.15372499823570251,0.9611250162124634,0.5202999711036682
1749447275061788700,4.64978857421875,0.010999999940395355,1.0698875188827515,0.3573625087738037
1749447275071802000,4.659802001953125,-0.07837499678134918,1.1668249368667603,0.2583625018596649
1749447275081816000,4.669816162109375,-0.08910000324249268,1.253037452697754,0.19016249477863312
1749447275091829500,4.67982958984375,-0.0017874999903142452,1.369225025177002,0.170912504196167
1749447275101843500,4.689843505859375,0.17833749949932098,1.5173125267028809,0.24763749539852142
1749447275111857000,4.69985693359375,0.39448750019073486,1.5960999727249146,0.39998748898506165
1749447275121870800,4.709870849609375,0.5713124871253967,1.4554375410079956,0.5554999709129333
1749447275131884300,4.71988427734375,0.6630250215530396,1.0698875188827515,0.657800018787384
1749447275141898000,4.72989794921875,0.6971250176429749,0.596887469291687,0.7078499794006348
1749447275151911700,4.73991162109375,0.7108749747276306,0.16651250422000885,0.7226999998092651
1749447275161925400,4.74992529296875,0.7204999923706055,-0.17765000462532043,0.7312250137329102
1749447275171939000,4.75993896484375,0.7449749708175659,-0.41731250286102295,0.7664250135421753
1749447275181952800,4.769952880859375,0.7950249910354614,-0.572825014591217,0.8357250094413757
1749447275191966500,4.779966552734375,0.8578624725341797,-0.6718249917030334,0.9230374693870544
1749447275201980200,4.789980224609375,0.9197375178337097,-0.7368624806404114,1.0146124362945557
1749447275211993900,4.799993896484375,0.9814749956130981,-0.7986000180244446,1.118012547492981
1749447275222007300,4.81000732421875,1.0507750511169434,-0.8551124930381775,1.2383249998092651
1749447275232021000,4.82002099609375,1.094362497329712,-0.9190499782562256,1.350250005722046
1749447275242034700,4.83003466796875,1.0869375467300415,-1.0202499628067017,1.3991999626159668
1749447275252048400,4.84004833984375,1.029462456703186,-1.1501874923706055,1.386412501335144
1749447275262062000,4.85006201171875,0.9410499930381775,-1.209862470626831,1.3661999702453613
1749447275272075800,4.86007568359375,0.8313249945640564,-1.119249939918518,1.3810499906539917
1749447275282089200,4.870089111328125,0.7226999998092651,-0.8338000178337097,1.3800874948501587
1749447275292103200,4.880103271484375,0.6278250217437744,-0.44811248779296875,1.22017502784729
1749447275302116600,4.89011669921875,0.568149983882904,-0.0976250022649765,0.8772500157356262
1749447275312130300,4.90013037109375,0.5308874845504761,0.15578749775886536,0.510812520980835
1749447275322144000,4.91014404296875,0.4776749908924103,0.29961249232292175,0.2593249976634979
1749447275332157400,4.920157470703125,0.39778751134872437,0.3081375062465668,0.05692499876022339
1749447275342171400,4.93017138671875,0.3199625015258789,0.29438748955726624,-0.1592250019311905
1749447275352184800,4.940184814453125,0.2667500078678131,0.3305499851703644,-0.36272498965263367
1749447275362198800,4.95019873046875,0.23471249639987946,0.439175009727478,-0.5512375235557556
1749447275372212200,4.960212158203125,0.21986250579357147,0.5894625186920166,-0.7068874835968018
1749447275382226200,4.97022607421875,0.24969999492168427,0.7694500088691711,-0.778249979019165
1749447275392239600,4.980239501953125,0.32532501220703125,0.992062509059906,-0.7590000033378601
1749447275402253300,4.99025341796875,0.4137375056743622,1.2018874883651733,-0.694100022315979
1749447275412267000,5.00026708984375,0.4404124915599823,1.3095500469207764,-0.6353874802589417
1749447275422280700,5.01028076171875,0.35942500829696655,1.38833749294281,-0.6450124979019165
1749447275432294400,5.02029443359375,0.12498749792575836,1.5438499450683594,-0.7995625138282776
1749447275442308000,5.03030810546875,-0.26276248693466187,1.820912480354309,-1.1404249668121338
1749447275452321800,5.04032177734375,-0.7122499942779541,1.9764249324798584,-1.5760250091552734
1749447275462335200,5.050335205078125,-1.1320375204086304,1.7228749990463257,-1.9915499687194824
1749447275472349000,5.060348876953125,-1.4280749559402466,1.0346875190734863,-2.2886874675750732
1749447275482362600,5.070362548828125,-1.6134250164031982,0.16431249678134918,-2.4932875633239746
1749447275492376300,5.080376220703125,-1.7157249450683594,-0.37894999980926514,-2.6339499950408936
1749447275502390000,5.09039013671875,-1.8606499433517456,0.020487500354647636,-2.4793999195098877
1749447275512403700,5.10040380859375,-2.2078375816345215,0.37950000166893005,-2.3005125522613525
1749447275522417200,5.110417236328125,-2.5530998706817627,0.5105375051498413,-2.326087474822998
1749447275532431000,5.12043115234375,-2.7597625255584717,0.6682500243186951,-2.481600046157837
1749447275542444800,5.13044482421875,-2.858762502670288,0.8194999694824219,-2.6200625896453857
1749447275552458500,5.14045849609375,-2.917337417602539,0.8280249834060669,-2.623224973678589
1749447275562472000,5.150471923828125,-2.892862558364868,0.6628875136375427,-2.4901249408721924
1749447275572486000,5.16048583984375,-2.7095749378204346,0.4647499918937683,-2.2877249717712402
1749447275582499300,5.170499267578125,-2.3996500968933105,0.47327500581741333,-2.058650016784668
1749447275592513000,5.180512939453125,-2.0513625144958496,0.7640874981880188,-1.7859874963760376
1749447275602526700,5.190526611328125,-1.7114624977111816,1.312712550163269,-1.4535125494003296
1749447275612540400,5.20054052734375,-1.3429625034332275,1.9454874992370605,-1.0946375131607056
1749447275622554000,5.21055419921875,-0.9998999834060669,2.3343374729156494,-0.7365875244140625
1749447275632567800,5.22056787109375,-0.7655999660491943,2.446125030517578,-0.4138749837875366
1749447275642581500,5.23058154296875,-0.6920375227928162,2.238499879837036,-0.1592250019311905
1749447275652595200,5.24059521484375,-0.7634000182151794,1.610949993133545,0.08249999582767487
1749447275662608600,5.250608642578125,-0.8998000025749207,0.5553625226020813,0.3647874891757965
1749447275672622300,5.260622314453125,-1.0478874444961548,-0.768762469291687,0.6450124979019165
1749447275682636000,5.270635986328125,-1.1735625267028809,-2.067312479019165,0.8036875128746033
1749447275692649700,5.280649658203125,-1.2384624481201172,-3.0974624156951904,0.7814124822616577
1749447275702663400,5.290663330078125,-1.2150875329971313,-3.723912477493286,0.620537519454956
1749447275712677000,5.300677001953125,-1.0979374647140503,-3.956012487411499,0.41909998655319214
1749447275722690600,5.310690673828125,-0.9200124740600586,-3.9049999713897705,0.27541249990463257
1749447275732704300,5.320704345703125,-0.7506124973297119,-3.624774932861328,0.2316875010728836
1749447275742718000,5.330718017578125,-0.6206749677658081,-3.171987533569336,0.3051125109195709
1749447275752731600,5.340731689453125,-0.5504124760627747,-2.6372499465942383,0.4787749946117401
1749447275762745300,5.350745361328125,-0.5396875143051147,-2.1621875762939453,0.686537504196167
1749447275772759000,5.360759033203125,-0.5663625001907349,-1.8372750282287598,0.8442500233650208
1749447275782772700,5.370772705078125,-0.5578374862670898,-1.6678749322891235,0.9304624795913696
1749447275792786400,5.380786376953125,-0.48537498712539673,-1.6326749324798584,0.9613999724388123
1749447275802800000,5.390800048828125,-0.34154999256134033,-1.6209875345230103,0.9549375176429749
1749447275812813800,5.400813720703125,-0.13708749413490295,-1.5027375221252441,0.9304624795913696
1749447275822827300,5.4108271484375,0.11646249890327454,-1.1948750019073486,0.8931999802589417
1749447275832841200,5.42084130859375,0.383899986743927,-0.7133499979972839,0.8485124707221985
1749447275842854700,5.430854736328125,0.6289250254631042,-0.17338749766349792,0.8218374848365784
1749447275852868400,5.440868408203125,0.8238999843597412,0.2825624942779541,0.8271999955177307
1749447275862882000,5.450882080078125,0.9794124960899353,0.6384124755859375,0.861299991607666
1749447275872895700,5.460895751953125,1.1221375465393066,0.9249625205993652,0.9336249828338623
1749447275882909400,5.470909423828125,1.2754499912261963,1.1497750282287598,1.0487124919891357
1749447275892923100,5.480923095703125,1.4118499755859375,1.2476749420166016,1.185112476348877
1749447275902936800,5.490936767578125,1.5056250095367432,1.2274625301361084,1.320412516593933
1749447275912950500,5.500950439453125,1.509887456893921,1.128462553024292,1.4557124376296997
1749447275922964000,5.5109638671875,1.412950038909912,0.8291249871253967,1.3139499425888062
1749447275932978000,5.52097802734375,1.0422500371932983,-1.1459250450134277,-0.6353874802589417
1749447275942991400,5.530991455078125,0.2059749960899353,-1.9128999710083008,-1.7593125104904175
1749447275953005300,5.54100537109375,-0.5237374901771545,-0.6580749750137329,-0.71527498960495
1749447275963018800,5.551018798828125,-1.126675009727478,0.7108749747276306,0.8047875165939331
1749447275973032700,5.56103271484375,-1.4280749559402466,1.3862749338150024,1.8955750465393066
1749447275983046100,5.571046142578125,-1.210824966430664,1.703624963760376,2.1885874271392822
1749447275993060000,5.58106005859375,-0.6408874988555908,1.90396249294281,1.7550499439239502
1749447276003073500,5.591073486328125,-0.07947500050067902,1.9017624855041504,0.8826124668121338
1749447276013087200,5.601087158203125,0.1835625022649765,1.6823124885559082,0.013337500393390656
1749447276023101000,5.611100830078125,0.030249999836087227,1.4778499603271484,-0.521399974822998
1749447276033114600,5.621114501953125,-0.32243749499320984,1.3021249771118164,-0.6983624696731567
1749447276043128300,5.63112841796875,-0.5609999895095825,1.2157750129699707,-0.5725499987602234
1749447276053141800,5.641141845703125,-0.5130124688148499,1.3063875436782837,-0.28929999470710754
1749447276063155500,5.651155517578125,-0.24255000054836273,1.3212374448776245,0.04743750020861626
1749447276073169200,5.661169189453125,0.201712504029274,0.8578624725341797,0.11453749984502792
1749447276083182800,5.671182861328125,0.7236624956130981,0.08442500233650208,-0.24447499215602875
1749447276093196500,5.681196533203125,1.0187374353408813,-0.7911750078201294,-0.45333749055862427
1749447276103210200,5.691210205078125,0.9431124925613403,-1.8969500064849854,-0.5065500140190125
1749447276113224000,5.701223876953125,0.6747124791145325,-2.8003249168395996,-0.4479750096797943
1749447276123237600,5.711237548828125,0.5383124947547913,-3.171987533569336,-0.38087499141693115
1749447276133251000,5.7212509765625,0.6204000115394592,-2.8737499713897705,-0.14217500388622284
1749447276143265000,5.73126513671875,0.8483750224113464,-1.990725040435791,0.3008500039577484
1749447276153278500,5.741278564453125,1.0496749877929688,-1.4356374740600586,0.4692874848842621
1749447276163292400,5.75129248046875,1.1647624969482422,-1.3216500282287598,0.3638249933719635
1749447276173305900,5.761305908203125,1.195562481880188,-1.3386999368667603,0.19222499430179596
1749447276183319800,5.77131982421875,1.118975043296814,-1.384487509727478,0.045237500220537186
1749447276193333200,5.781333251953125,0.9505375027656555,-1.4313750267028809,-0.06338749825954437
1749447276203347000,5.791346923828125,0.7471749782562256,-1.4250500202178955,-0.0826374962925911
1749447276213360600,5.801360595703125,0.5649874806404114,-1.2439625263214111,0.05169999971985817
1749447276223374300,5.811374267578125,0.4723125100135803,-0.8817874789237976,0.3190000057220459
1749447276233388000,5.821387939453125,0.443574994802475,-0.5398250222206116,0.567187488079071
1749447276243401700,5.831401611328125,0.4030124843120575,-0.30428749322891235,0.7121124863624573
1749447276253415400,5.84141552734375,0.31790000200271606,-0.12540000677108765,0.7675250172615051
1749447276263428900,5.851428955078125,0.2059749960899353,0.07919999957084656,0.7632625102996826
1749447276273442600,5.861442626953125,0.12072499841451645,0.31556248664855957,0.7249000072479248
1749447276283456300,5.871456298828125,0.10477499663829803,0.558525025844574,0.6641250252723694
1749447276293470000,5.881469970703125,0.14313749969005585,0.8024500012397766,0.5885000228881836
1749447276303483600,5.891483642578125,0.2102375030517578,1.0537999868392944,0.510812520980835
1749447276313497300,5.901497314453125,0.2784374952316284,1.3073500394821167,0.4372499883174896
1749447276323511000,5.911510986328125,0.34017500281333923,1.5417875051498413,0.36272498965263367
1749447276333524700,5.921524658203125,0.39352500438690186,1.7260375022888184,0.26785001158714294
1749447276343538200,5.9315380859375,0.45526251196861267,1.8624374866485596,0.16664999723434448
1749447276353552100,5.94155224609375,0.5394124984741211,1.9764249324798584,0.07507500052452087
1749447276363565600,5.951565673828125,0.612975001335144,2.043524980545044,-0.016499999910593033
1749447276373579300,5.961579345703125,0.6491374969482422,2.0669000148773193,-0.11027500033378601
1749447276383593000,5.971593017578125,0.65972501039505,2.054112434387207,-0.18479999899864197
1749447276393606400,5.9816064453125,0.6736124753952026,2.019049882888794,-0.24667499959468842
1749447276403620400,5.991620361328125,0.6991875171661377,1.9560749530792236,-0.28929999470710754
1749447276413633800,6.0016337890625,0.7481374740600586,1.8485499620437622,-0.3104749917984009
1749447276423647700,6.011647705078125,0.8185374736785889,1.7058249711990356,-0.31267499923706055
1749447276433661200,6.0216611328125,0.91753751039505,1.562000036239624,-0.2765125036239624
1749447276443675100,6.031675048828125,1.046512484550476,1.4693249464035034,-0.17847499251365662
1749447276453688600,6.0416884765625,1.1818125247955322,1.4671249389648438,0.0005499999970197678
1749447276463702300,6.051702392578125,1.2808125019073486,1.5023249387741089,0.23704999685287476
1749447276473716000,6.061716064453125,1.3063875436782837,1.4906375408172607,0.4702500104904175
1749447276483729700,6.071729736328125,1.2467124462127686,1.4118499755859375,0.669487476348877
1749447276493743400,6.081743408203125,1.1093499660491943,1.2808125019073486,0.8357250094413757
1749447276503757000,6.091757080078125,0.9240000247955322,1.1006875038146973,0.9719874858856201
1749447276513770800,6.101770751953125,0.7492374777793884,0.871749997138977,1.0774500370025635
1749447276523784400,6.111784423828125,0.651199996471405,0.6117374897003174,1.129699945449829
1749447276533798100,6.121798095703125,0.6352499723434448,0.3209249973297119,1.128600001335144
1749447276543811600,6.1318115234375,0.651199996471405,0.02694999985396862,1.094499945640564
1749447276553825500,6.141825439453125,0.6661875247955322,-0.2521750032901764,1.0423874855041504
1749447276563839000,6.1518388671875,0.6767749786376953,-0.5024250149726868,0.9805124998092651
1749447276573852700,6.161852783203125,0.6917625069618225,-0.7294374704360962,0.916575014591217
1749447276583866400,6.171866455078125,0.7184374928474426,-0.933899998664856,0.8516749739646912
1749447276593880000,6.181880126953125,0.770550012588501,-1.0702999830245972,0.816474974155426
1749447276603893800,6.191893798828125,0.8515374660491943,-1.0308375358581543,0.862262487411499
1749447276613907500,6.201907470703125,0.9250999689102173,-0.785812497138977,0.9923374652862549
1749447276623921000,6.2119208984375,0.92826247215271,-0.5057250261306763,1.109487533569336
1749447276633934600,6.2219345703125,0.8333874940872192,-0.32243749499320984,1.1626999378204346
1749447276643948500,6.231948486328125,0.6385499835014343,-0.1648624986410141,1.1563750505447388
1749447276653962000,6.2419619140625,0.19744999706745148,1.535325050354004,0.686537504196167
1749447276663975700,6.2519755859375,-0.6920375227928162,4.151674747467041,-0.5832750201225281
1749447276673989600,6.26198974609375,-1.3919124603271484,4.476587295532227,-1.5111249685287476
1749447276684003000,6.272003173828125,-1.7242499589920044,3.6519999504089355,-2.1630125045776367
1749447276694016800,6.282016845703125,-1.9383374452590942,2.401437520980835,-2.6903250217437744
1749447276704030500,6.292030517578125,-2.1929874420166016,1.11347496509552,-3.1238625049591064
1749447276714044200,6.302044189453125,-2.5167999267578125,0.17710000276565552,-3.3816750049591064
1749447276724057900,6.312057861328125,-2.955699920654297,0.1270499974489212,-2.69884991645813
1749447276734071600,6.322071533203125,-3.3945999145507812,0.15482500195503235,-1.9094624519348145
1749447276744085200,6.332085205078125,-3.54048752784729,0.06104999780654907,-1.4673999547958374
1749447276754099000,6.342098876953125,-3.371224880218506,-0.06146249920129776,-1.5079624652862549
1749447276764112400,6.3521123046875,-3.055799961090088,-0.14354999363422394,-1.8881499767303467
1749447276774126000,6.3621259765625,-2.722362518310547,-0.2404875010251999,-2.299412488937378
1749447276784139800,6.372139892578125,-2.449699878692627,-0.3363249897956848,-2.5689125061035156
1749447276794153500,6.382153564453125,-2.309037446975708,-0.3128125071525574,-2.5592875480651855
1749447276804167200,6.392167236328125,-2.3282876014709473,0.16651250422000885,-2.158750057220459
1749447276814180900,6.402180908203125,-2.3336498737335205,0.7385125160217285,-1.5707999467849731
1749447276824194300,6.4121943359375,-2.094949960708618,0.863224983215332,-0.9624999761581421
1749447276834208300,6.422208251953125,-1.6219500303268433,0.5138375163078308,-0.33082500100135803
1749447276844222000,6.432221923828125,-1.128737449645996,-0.014574999921023846,0.24131250381469727
1749447276854235600,6.442235595703125,-0.7836124897003174,-0.39916250109672546,0.7004249691963196
1749447276864249000,6.4522490234375,-0.6632999777793884,-0.6419875025749207,0.9145125150680542
1749447276874262800,6.4622626953125,-0.7207750082015991,-0.8764249682426453,0.862262487411499
1749447276884276200,6.472276123046875,-0.868862509727478,-1.2034000158309937,0.6705874800682068
1749447276894290200,6.482290283203125,-1.0243749618530273,-1.6178250312805176,0.46598750352859497
1749447276904303900,6.492303955078125,-1.128737449645996,-2.1366124153137207,0.2817375063896179
1749447276914317300,6.5023173828125,-1.1457874774932861,-2.6841375827789307,0.14533749222755432
1749447276924331000,6.5123310546875,-1.0564124584197998,-3.1273000240325928,0.0719124972820282
1749447276934345000,6.522344970703125,-0.8933374881744385,-3.340287446975708,0.07823749631643295
1749447276944358700,6.532358642578125,-0.7026249766349792,-3.3211750984191895,0.16238750517368317
1749447276954372400,6.542372314453125,-0.5248374938964844,-3.133625030517578,0.29026249051094055
1749447276964385800,6.5523857421875,-0.38843750953674316,-2.8183374404907227,0.428725004196167
1749447276974399500,6.5623994140625,-0.31171250343322754,-2.4711499214172363,0.5810750126838684
1749447276984413200,6.5724130859375,-0.2712875008583069,-2.139775037765503,0.7260000109672546
1749447276994427000,6.582427001953125,-0.2232999950647354,-1.7690750360488892,0.8399875164031982
1749447277004440600,6.592440673828125,-0.14231249690055847,-1.2951124906539917,0.9219374656677246
1749447277014454000,6.6024541015625,-0.03258749842643738,-0.7368624806404114,1.0082875490188599
1749447277024467700,6.6124677734375,0.1036750003695488,-0.10944999754428864,1.0839124917984009
1749447277034481400,6.6224814453125,0.25066250562667847,0.5138375163078308,1.128600001335144
1749447277044495000,6.6324951171875,0.406312495470047,0.9909625053405762,1.1499124765396118
1749447277054508800,6.6425087890625,0.604449987411499,1.239150047302246,1.1669625043869019
1749447277064522500,6.6525224609375,0.8281624913215637,1.3030874729156494,1.228700041770935
1749447277074536200,6.6625361328125,1.0390875339508057,1.2604625225067139,1.3341624736785889
1749447277084550000,6.6725498046875,1.238187551498413,1.1529375314712524,1.4141875505447388
1749447277094563300,6.682563232421875,1.4587374925613403,0.954800009727478,1.360837459564209
1749447277104577300,6.692577392578125,1.7058249711990356,0.5852000117301941,1.0636999607086182
1749447277114590700,6.7025908203125,1.7463874816894531,-0.7155500054359436,0.04413750022649765
1749447277124604700,6.712604736328125,1.2542749643325806,-4.021049976348877,-2.044762372970581
1749447277134618000,6.7226181640625,0.5533000230789185,-4.137237548828125,-2.038437604904175
1749447277144631800,6.7326318359375,-0.03904999792575836,-2.270812511444092,-0.3020874857902527
1749447277154645500,6.7426455078125,-0.9253749847412109,-0.4417875111103058,1.2735249996185303
1749447277164659200,6.7526591796875,-1.55058753490448,0.6830999851226807,2.272737503051758
1749447277174673000,6.7626728515625,-1.4152874946594238,1.2637624740600586,2.5635499954223633
1749447277184686600,6.7726865234375,-0.6909375190734863,1.6695250272750854,2.0842249393463135
1749447277194700300,6.7827001953125,0.09735000133514404,1.9667999744415283,1.194737434387207
1749447277204714000,6.7927138671875,0.4828999936580658,2.1905124187469482,0.2806375026702881
1749447277214727700,6.802727783203125,0.3156999945640564,2.3150875568389893,-0.4021874964237213
1749447277224741400,6.812741455078125,-0.1434125006198883,2.3715999126434326,-0.7493749856948853
1749447277234755000,6.822755126953125,-0.5130124688148499,2.225712537765503,-0.7536374926567078
1749447277244768800,6.832768798828125,-0.6525750160217285,1.9060249328613281,-0.5087500214576721
1749447277254782500,6.842782470703125,-0.638824999332428,1.4235374927520752,-0.2083124965429306
1749447277264796000,6.8527958984375,-0.49390000104904175,0.6276875138282776,-0.13158750534057617
1749447277274809600,6.8628095703125,-0.29260000586509705,-0.11261250078678131,-0.13695000112056732
1749447277284823000,6.872822998046875,-0.09542500227689743,-0.5824499726295471,-0.16032500565052032
1749447277294837000,6.8828369140625,0.12498749792575836,-0.7559750080108643,-0.1634874939918518
1749447277304850400,6.892850341796875,0.38279998302459717,-0.6643999814987183,-0.2008875012397766
1749447277314864000,6.902864013671875,0.651199996471405,-0.48551249504089355,-0.2817375063896179
1749447277324877800,6.9128779296875,0.8706499934196472,-0.4045250117778778,-0.40851250290870667
1749447277334891500,6.9228916015625,1.0007250308990479,-0.47905001044273376,-0.5523374676704407
1749447277344905200,6.9329052734375,1.0922999382019043,-0.6505125164985657,-0.7004249691963196
1749447277354919000,6.9429189453125,1.1721874475479126,-0.8784874677658081,-0.8453499674797058
1749447277364932600,6.9529326171875,1.2457499504089355,-1.1171875,-0.9710249900817871
1749447277374946000,6.962946044921875,1.304324984550476,-1.282325029373169,-0.9976999759674072
1749447277384959700,6.972959716796875,1.2680250406265259,-1.0382624864578247,-0.5960624814033508
1749447277394973400,6.982973388671875,1.1147124767303467,-0.5515124797821045,0.03355000168085098
1749447277404987100,6.992987060546875,0.9303249716758728,-0.39489999413490295,0.3531000018119812
1749447277415000800,7.003000732421875,0.7013875246047974,-0.4950000047683716,0.420199990272522
1749447277425014500,7.0130146484375,0.49568748474121094,-0.6558749675750732,0.405349999666214
1749447277435028000,7.023028076171875,0.3807374835014343,-0.8252750039100647,0.38087499141693115
1749447277445041700,7.033041748046875,0.32532501220703125,-0.9541124701499939,0.3573625087738037
1749447277455055400,7.043055419921875,0.2858625054359436,-0.9882124662399292,0.3638249933719635
1749447277465069000,7.053069091796875,0.23471249639987946,-0.8903124928474426,0.42762500047683716
1749447277475082800,7.063082763671875,0.18466250598430634,-0.683650016784668,0.5395500063896179
1749447277485096400,7.073096435546875,0.18039999902248383,-0.42473748326301575,0.6513375043869019
1749447277495110100,7.083110107421875,0.254925012588501,-0.18287499248981476,0.7226999998092651
1749447277505123600,7.09312353515625,0.3689124882221222,0.011962499469518661,0.7473124861717224
1749447277515137500,7.103137451171875,0.46584999561309814,0.16967499256134033,0.7376874685287476
1749447277525151000,7.11315087890625,0.5191999673843384,0.2591874897480011,0.7184374928474426
1749447277535164700,7.12316455078125,0.5533000230789185,0.26977500319480896,0.7056499719619751
1749447277545178400,7.133178466796875,0.5883625149726868,0.26455000042915344,0.6546375155448914
1749447277555192300,7.1431923828125,0.5990874767303467,0.2773374915122986,0.5917999744415283
1749447277565205800,7.153205810546875,0.5852000117301941,0.28366249799728394,0.5224999785423279
1749447277575219500,7.163219482421875,0.559624969959259,0.2890250086784363,0.45223748683929443
1749447277585233200,7.173233154296875,0.5383124947547913,0.29961249232292175,0.3979249894618988
1749447277595246600,7.18324658203125,0.5405125021934509,0.29534998536109924,0.36272498965263367
1749447277605260300,7.19326025390625,0.5755749940872192,0.2773374915122986,0.35103750228881836
1749447277615274000,7.20327392578125,0.6289250254631042,0.2517625093460083,0.369049996137619
1749447277625287700,7.21328759765625,0.6980875134468079,0.2102375030517578,0.42666250467300415
1749447277635301400,7.22330126953125,0.7770124673843384,0.20377500355243683,0.5523374676704407
1749447277645315000,7.233315185546875,0.8419125080108643,0.3326124846935272,0.7643625140190125
1749447277655328800,7.243328857421875,0.8749125003814697,0.6182000041007996,1.0316624641418457
1749447277665342500,7.253342529296875,0.8621249794960022,0.9772124886512756,1.2916749715805054
1749447277675356000,7.26335595703125,0.7886999845504761,1.3116124868392944,1.5003999471664429
1749447277685369900,7.273369873046875,0.7034500241279602,1.5236375331878662,1.6197500228881836
1749447277695383300,7.28338330078125,0.6342874765396118,1.535325050354004,1.6495875120162964
1749447277705397200,7.293397216796875,0.5735124945640564,1.3744499683380127,1.6249749660491943
1749447277715410700,7.30341064453125,0.5202999711036682,1.0932625532150269,1.570662498474121
1749447277725424400,7.31342431640625,0.489362508058548,0.7385125160217285,1.4918749332427979
1749447277735438000,7.32343798828125,0.4871625006198883,0.33371248841285706,1.3906749486923218
1749447277745451800,7.33345166015625,0.5053125023841858,-0.08071249723434448,1.2627999782562256
1749447277755465500,7.343465576171875,0.5542625188827515,-0.4417875111103058,1.1222749948501587
1749447277765479000,7.35347900390625,0.6650875210762024,-0.593037486076355,1.0487124919891357
1749447277775492600,7.36349267578125,0.8802750110626221,-0.18081249296665192,1.185112476348877
1749447277785506300,7.37350634765625,1.0976624488830566,0.5138375163078308,1.3800874948501587
1749447277795520000,7.38352001953125,1.0911999940872192,1.353137493133545,1.159537434577942
1749447277805533400,7.393533447265625,0.5948249697685242,2.5782625675201416,-0.19126249849796295
1749447277815547400,7.40354736328125,-0.06984999775886536,2.532474994659424,-1.4321999549865723
1749447277825560800,7.413560791015625,-0.4129124879837036,1.6728249788284302,-1.9531874656677246
1749447277835574800,7.42357470703125,-0.40012499690055847,0.4413749873638153,-1.950024962425232
1749447277845588500,7.43358837890625,-0.36079999804496765,-0.7997000217437744,-1.7593125104904175
1749447277855602200,7.443602294921875,-0.47795000672340393,-1.3281124830245972,-1.5802874565124512
1749447277865615600,7.45361572265625,-0.8219749927520752,-0.7038624882698059,-1.4972374439239502
1749447277875629300,7.46362939453125,-1.2725625038146973,-0.14354999363422394,-1.5046625137329102
1749447277885643000,7.47364306640625,-1.7967125177383423,0.0002749999985098839,-1.669800043106079
1749447277895656700,7.48365673828125,-2.2589874267578125,0.05252499878406525,-2.026750087738037
1749447277905670400,7.49367041015625,-2.5871999263763428,0.15578749775886536,-2.4463999271392822
1749447277915684000,7.50368408203125,-2.8811750411987305,0.504212498664856,-2.7170000076293945
1749447277925697500,7.513697509765625,-3.145312547683716,1.1412500143051147,-2.7073750495910645
1749447277935711500,7.52371142578125,-3.3008248805999756,1.609987497329712,-2.5177624225616455
1749447277945725000,7.533724853515625,-3.27524995803833,1.5981625318527222,-2.2908875942230225
1749447277955739000,7.54373876953125,-3.0782124996185303,1.1901999711990356,-2.0703375339508057
1749447277965752300,7.55375244140625,-2.768287420272827,0.5744749903678894,-1.8562500476837158
1749447277975766000,7.56376611328125,-2.4102375507354736,0.023787500336766243,-1.6506874561309814
1749447277985779700,7.57377978515625,-2.0246875286102295,-0.2116124927997589,-1.4227124452590942
1749447277995793400,7.58379345703125,-1.6539875268936157,-0.06792499870061874,-1.1584374904632568
1749447278005806800,7.593806884765625,-1.293874979019165,0.3848625123500824,-0.8857749700546265
1749447278015820500,7.603820556640625,-0.9657999873161316,0.8461750149726868,-0.6429499983787537
1749447278025834500,7.61383447265625,-0.7389249801635742,1.030424952507019,-0.4351874887943268
1749447278035848000,7.623847900390625,-0.6004624962806702,0.8940249681472778,-0.2092749923467636
1749447278045861600,7.633861572265625,-0.5333625078201294,0.5937250256538391,-0.01759999990463257
1749447278055875000,7.643875,-0.5385875105857849,0.23787499964237213,0.133650004863739
1749447278065889000,7.653888916015625,-0.6067875027656555,-0.306487500667572,0.30841249227523804
1749447278075902500,7.66390234375,-0.7293000221252441,-1.0841875076293945,0.5458750128746033
1749447278085916000,7.673916015625,-0.8710625171661377,-1.8350750207901,0.7536374926567078
1749447278095929900,7.683929931640625,-1.0115875005722046,-2.3677499294281006,0.8133124709129333
1749447278105943600,7.693943603515625,-1.108525037765503,-2.5979249477386475,0.7046874761581421
1749447278115957200,7.703957275390625,-1.0988999605178833,-2.5766124725341797,0.5458750128746033
1749447278125970700,7.713970703125,-0.980650007724762,-2.442275047302246,0.4489375054836273
1749447278135984600,7.723984619140625,-0.8071249723434448,-2.266550064086914,0.4468750059604645
1749447278145998000,7.733998046875,-0.6249374747276306,-2.0726749897003174,0.5384500026702881
1749447278156011800,7.74401171875,-0.4768500030040741,-1.873437523841858,0.6982250213623047
1749447278166025500,7.754025390625,-0.36176249384880066,-1.7051374912261963,0.8793125152587891
1749447278176039200,7.7640390625,-0.2563000023365021,-1.6198874711990356,1.0338624715805054
1749447278186052900,7.774052978515625,-0.14657500386238098,-1.6306124925613403,1.1126500368118286
1749447278196066600,7.784066650390625,-0.014574999921023846,-1.5965124368667603,1.1083874702453613
1749447278206080000,7.794080078125,0.17297500371932983,-1.4037375450134277,1.0529749393463135
1749447278216093700,7.80409375,0.4137375056743622,-1.0500874519348145,0.9784500002861023
1749447278226107400,7.814107421875,0.6682500243186951,-0.5909749865531921,0.898562490940094
1749447278236121000,7.82412109375,0.908050000667572,-0.11261250078678131,0.8218374848365784
1749447278246134800,7.834134765625,1.121037483215332,0.30291250348091125,0.7738500237464905
1749447278256148200,7.844148193359375,1.2925000190734863,0.6276875138282776,0.8133124709129333
1749447278266162200,7.854162109375,1.4001624584197998,0.8823375105857849,0.9571374654769897
1749447278276176000,7.86417578125,1.4459500312805176,1.0165375471115112,1.1478500366210938
1749447278286189600,7.874189453125,1.478950023651123,0.9516375064849854,1.312849998474121
1749447278296203000,7.884203125,1.5408250093460083,0.6128374934196472,1.2883750200271606
1749447278306216700,7.894216796875,1.3479125499725342,-2.073775053024292,-0.5011875033378601
1749447278316230400,7.90423046875,0.716237485408783,-3.2551748752593994,-1.3726625442504883
1749447278326244000,7.914244140625,0.16128750145435333,-1.8244874477386475,-0.2381500005722046
1749447278336257800,7.9242578125,-0.5993624925613403,0.02694999985396862,1.185112476348877
1749447278346271200,7.934271240234375,-1.2694000005722046,1.2285624742507935,2.0948123931884766
1749447278356285200,7.94428515625,-1.2460249662399292,2.039262533187866,2.234375
1749447278366299000,7.954298828125,-0.6632999777793884,2.6559500694274902,1.6388624906539917
1749447278376312300,7.964312255859375,-0.10724999755620956,2.9383749961853027,0.6919000148773193
1749447278386326300,7.974326171875,0.15056249499320984,2.935075044631958,-0.18383750319480896
1749447278396339700,7.984339599609375,-0.011274999938905239,2.8115999698638916,-0.7280625104904175
1749447278406353400,7.994353515625,-0.37248748540878296,2.6027374267578125,-0.8581374883651733
1749447278416367000,8.0043671875,-0.6792500019073486,2.445162534713745,-0.6919000148773193
1749447278426380800,8.014380859375,-0.7655999660491943,2.455749988555908,-0.3158375024795532
1749447278436394500,8.02439453125,-0.5141124725341797,2.1489875316619873,-0.009074999950826168
1749447278446408000,8.034407958984374,0.06861250102519989,1.1507375240325928,-0.42666250467300415
1749447278456421600,8.044421630859375,0.5191999673843384,-0.008249999955296516,-0.8837124705314636
1749447278466435300,8.054435302734374,0.6863999962806702,-1.1118249893188477,-0.9997624754905701
1749447278476449000,8.064448974609375,0.6767749786376953,-1.9938875436782837,-0.9699249863624573
1749447278486462700,8.074462646484376,0.6235625147819519,-2.527524948120117,-0.9283999800682068
1749447278496476400,8.084476318359375,0.6118749976158142,-2.791800022125244,-0.9092875123023987
1749447278506490000,8.094489990234376,0.6843374967575073,-2.8802125453948975,-0.9039250016212463
1749447278516503600,8.104503662109375,0.8302249908447266,-2.6531999111175537,-0.7526749968528748
1749447278526517200,8.114517333984375,0.9708874821662903,-2.0460000038146973,-0.34031251072883606
1749447278536531000,8.124531005859374,1.037987470626831,-1.6561875343322754,-0.0644875019788742
1749447278546544600,8.134544677734375,1.0656249523162842,-1.6445000171661377,-0.037812501192092896
1749447278556558000,8.14455810546875,1.055999994277954,-1.7627500295639038,-0.0943249985575676
1749447278566572000,8.154572021484375,1.0177749395370483,-1.88100004196167,-0.13048750162124634
1749447278576585500,8.16458544921875,0.9516375064849854,-1.9288499355316162,-0.10175000131130219
1749447278586599400,8.174599365234375,0.8696874976158142,-1.8798999786376953,0.013337500393390656
1749447278596612900,8.18461279296875,0.7972249984741211,-1.690287470817566,0.2274249941110611
1749447278606626600,8.19462646484375,0.7386500239372253,-1.4026374816894531,0.5000874996185303
1749447278616640300,8.20464013671875,0.6545000076293945,-1.0905125141143799,0.7408499717712402
1749447278626654000,8.214654052734375,0.5373499989509583,-0.8039624691009521,0.8911374807357788
1749447278636667400,8.22466748046875,0.42006251215934753,-0.5387250185012817,0.952875018119812
1749447278646681300,8.234681396484374,0.31790000200271606,-0.27348750829696655,0.9378874897956848
1749447278656695000,8.244695068359375,0.24860000610351562,0.004537499975413084,0.8644624948501587
1749447278666708500,8.25470849609375,0.21876250207424164,0.27623748779296875,0.7547374963760376
1749447278676722200,8.26472216796875,0.23897500336170197,0.5414749979972839,0.632224977016449
1749447278686735600,8.274735595703126,0.3125374913215637,0.7928249835968018,0.5235999822616577
1749447278696749600,8.28474951171875,0.43505001068115234,1.0144749879837036,0.4372499883174896
1749447278706763300,8.29476318359375,0.5713124871253967,1.2274625301361084,0.36162498593330383
1749447278716776700,8.304776611328125,0.6715499758720398,1.436324954032898,0.29672500491142273
1749447278726790400,8.314790283203125,0.7258625030517578,1.64614999294281,0.2274249941110611
1749447278736804000,8.32480419921875,0.7312250137329102,1.8420875072479248,0.14959999918937683
1749447278746817800,8.33481787109375,0.6928625106811523,1.9859124422073364,0.07507500052452087
1749447278756831200,8.344831298828124,0.6459749937057495,2.0648374557495117,0.018562499433755875
1749447278766845200,8.35484521484375,0.6246625185012817,2.0967373847961426,-0.011137500405311584
1749447278776858600,8.364858642578126,0.6523000001907349,2.0818874835968018,-0.02186249941587448
1749447278786872600,8.37487255859375,0.7386500239372253,2.0381624698638916,-0.023924998939037323
1749447278796886000,8.384885986328126,0.8685874938964844,1.9901750087738037,-0.006874999962747097
1749447278806899700,8.394899658203125,1.0166749954223633,1.995537519454956,0.06655000150203705
1749447278816913400,8.404913330078125,1.1625624895095825,2.1350998878479004,0.24447499215602875
1749447278826927000,8.414927001953124,1.2626625299453735,2.3854875564575195,0.5341874957084656
1749447278836940800,8.42494091796875,1.2830125093460083,2.601637601852417,0.8314625024795532
1749447278846954500,8.43495458984375,1.2105499505996704,2.6368374824523926,1.0583374500274658
1749447278856968000,8.444968017578125,1.0880374908447266,2.467437505722046,1.2010624408721924
1749447278866981600,8.454981689453126,0.9675874710083008,2.1350998878479004,1.2755874395370483
1749447278876995300,8.464995361328125,0.890999972820282,1.701562523841858,1.3076249361038208
1749447278887008800,8.4750087890625,0.8515374660491943,1.2157750129699707,1.3309999704360962
1749447278897022700,8.485022705078125,0.8324249982833862,0.7374125123023987,1.367300033569336
1749447278907036200,8.4950361328125,0.8281624913215637,0.28366249799728394,1.425874948501587
1749447278917050000,8.505050048828124,0.8324249982833862,-0.1264999955892563,1.5003999471664429
1749447278927063600,8.5150634765625,0.8419125080108643,-0.4950000047683716,1.5802874565124512
1749447278937077200,8.5250771484375,0.8557999730110168,-0.7943375110626221,1.6633374691009521
1749447278947091200,8.53509130859375,0.8515374660491943,-0.9296374917030334,1.766737461090088
1749447278957104600,8.545104736328126,0.8089125156402588,-0.806024968624115,1.894612431526184
1749447278967118300,8.555118408203125,0.6991875171661377,-0.1317249983549118,1.8231124877929688
1749447278977132000,8.565132080078126,0.31033748388290405,1.6344624757766724,0.11659999936819077
1749447278987145500,8.5751455078125,-0.2073500007390976,1.7536749839782715,-1.368399977684021
1749447278997159400,8.585159423828125,-0.5322625041007996,0.9207000136375427,-1.9392999410629272
1749447279007172900,8.5951728515625,-0.6345624923706055,-0.09129999577999115,-2.0714375972747803
1749447279017186800,8.605186767578125,-0.6494125127792358,-1.1448249816894531,-2.0469624996185303
1749447279027200300,8.6152001953125,-0.6558749675750732,-1.8031749725341797,-1.7231500148773193
1749447279037214200,8.625214111328125,-0.7207750082015991,-1.525149941444397,-1.0423874855041504
1749447279047227600,8.6352275390625,-1.0903749465942383,-1.2141250371932983,-0.5864375233650208
1749447279057241300,8.645241455078125,-1.6933125257492065,-0.6995999813079834,-0.778249979019165
1749447279067255000,8.655255126953126,-2.3132998943328857,-0.07108750194311142,-1.479087471961975
1749447279077268700,8.665268798828125,-2.76924991607666,0.3081375062465668,-2.1630125045776367
1749447279087282200,8.6752822265625,-3.0856375694274902,0.605412483215332,-2.6466000080108643
1749447279097296000,8.6852958984375,-3.3797500133514404,1.0367499589920044,-2.8489999771118164
1749447279107309600,8.6953095703125,-3.683350086212158,1.6259374618530273,-2.6391749382019043
1749447279117323300,8.7053232421875,-3.7940375804901123,1.8368624448776245,-2.26847505569458
1749447279127337000,8.7153369140625,-3.6118500232696533,1.6780500411987305,-1.957450032234192
1749447279137350700,8.7253505859375,-3.226300001144409,1.229662537574768,-1.709262490272522
1749447279147364400,8.7353642578125,-2.7138373851776123,0.6608250141143799,-1.4876124858856201
1749447279157377800,8.745377685546876,-2.150362491607666,0.21972499787807465,-1.2436875104904175
1749447279167391700,8.755391845703125,-1.6465624570846558,-0.03478749841451645,-0.9912375211715698
1749447279177405200,8.7654052734375,-1.2438249588012695,-0.17338749766349792,-0.7601000070571899
1749447279187419000,8.7754189453125,-1.0030624866485596,-0.32670000195503235,-0.5619624853134155
1749447279197432600,8.7854326171875,-0.8592374920845032,-0.5791500210762024,-0.3755125105381012
1749447279207446300,8.7954462890625,-0.7485499978065491,-0.9648374915122986,-0.16142499446868896
1749447279217460000,8.8054599609375,-0.6727874875068665,-1.4293124675750732,0.058024998754262924
1749447279227473700,8.8154736328125,-0.6366249918937683,-1.8159624338150024,0.23058749735355377
1749447279237487400,8.8254873046875,-0.6653624773025513,-2.027987480163574,0.2924624979496002
1749447279247501000,8.8355009765625,-0.7708249688148499,-2.135512590408325,0.26688748598098755
1749447279257514500,8.845514404296875,-0.9092875123023987,-2.1164000034332275,0.18053749203681946
1749447279267528200,8.855528076171876,-1.018049955368042,-2.0204250812530518,0.06544999778270721
1749447279277542000,8.8655419921875,-1.0328999757766724,-1.872475028038025,-0.022962499409914017
1749447279287555600,8.8755556640625,-0.951912522315979,-1.715862512588501,-0.05706249922513962
1749447279297569300,8.8855693359375,-0.8219749927520752,-1.651924967765808,-0.020762499421834946
1749447279307582700,8.895582763671875,-0.7165125012397766,-1.732912540435791,0.07301250100135803
1749447279317596700,8.9055966796875,-0.6835125088691711,-1.9203250408172607,0.2157374918460846
1749447279327610000,8.915610107421875,-0.7111499905586243,-2.115299940109253,0.3988874852657318
1749447279337623800,8.925623779296876,-0.7570750117301941,-2.218562602996826,0.5992249846458435
1749447279347637500,8.935637451171875,-0.7442874908447266,-2.10471248626709,0.7781124711036682
1749447279357651200,8.945651123046876,-0.6078875064849854,-1.7232874631881714,0.9006249904632568
1749447279367665000,8.955664794921875,-0.33096250891685486,-1.0714000463485718,0.9582374691963196
1749447279377678600,8.9656787109375,0.02488750033080578,-0.2149125039577484,0.9699249863624573
1749447279387692000,8.975692138671874,0.39448750019073486,0.6373124718666077,0.9506750106811523
1749447279397705700,8.985705810546875,0.7429124712944031,1.2519375085830688,0.9219374656677246
1749447279407719400,8.995719482421874,1.0656249523162842,1.6302000284194946,0.9464125037193298
1749447279417732900,9.00573291015625,1.3277000188827515,1.813349962234497,1.0742875337600708
1749447279427746800,9.015746826171876,1.5237749814987183,1.8059250116348267,1.2703624963760376
1749447279437760300,9.02576025390625,1.6792874336242676,1.563099980354309,1.4727624654769897
1749447279447774200,9.035774169921876,1.8262749910354614,1.230625033378601,1.6249749660491943
1749447279457788000,9.045787841796875,1.9072624444961548,0.05884999781847,1.0742875337600708
1749447279467801600,9.055801513671875,1.5300999879837036,-3.918750047683716,-1.1074249744415283
1749447279477815000,9.06581494140625,0.991100013256073,-4.8860626220703125,-1.0423874855041504
1749447279487828700,9.075828857421875,0.370012491941452,-2.931225061416626,0.6385499835014343
1749447279497842400,9.085842529296874,-0.6099500060081482,-0.9350000023841858,2.16617488861084
1749447279507856100,9.095856201171875,-1.1852500438690186,0.17077499628067017,2.950200080871582
1749447279517869800,9.105869873046874,-0.8933374881744385,0.8610249757766724,2.7222249507904053
1749447279527883300,9.11588330078125,-0.3128125071525574,1.8837499618530273,1.645324945449829
1749447279537897000,9.12589697265625,0.013199999928474426,2.983062505722046,0.2274249941110611
1749447279547910700,9.13591064453125,0.03451250120997429,3.282399892807007,-0.8271999955177307
1749447279557924400,9.14592431640625,-0.3489750027656555,2.824387550354004,-1.1904749870300293
1749447279567938000,9.15593798828125,-0.8454874753952026,2.146787405014038,-0.9858750104904175
1749447279577951700,9.16595166015625,-1.0456874370574951,1.7846125364303589,-0.5449125170707703
1749447279587965200,9.175965087890624,-0.8560749888420105,1.6823124885559082,-0.11027500033378601
1749447279597979000,9.185978759765625,-0.37345001101493835,1.2860374450683594,0.04207500070333481
1749447279607992600,9.19599267578125,0.17503750324249268,0.3624500036239624,-0.3180375099182129
1749447279618006000,9.206006103515625,0.4723125100135803,-0.5174124836921692,-0.6131125092506409
1749447279628020000,9.21602001953125,0.5308874845504761,-1.2641749382019043,-0.722837507724762
1749447279638033400,9.226033447265625,0.4936249852180481,-1.825587511062622,-0.7451124787330627
1749447279648047400,9.23604736328125,0.47341248393058777,-2.0971500873565674,-0.722837507724762
1749447279658060800,9.246060791015625,0.511775016784668,-2.1675500869750977,-0.669487476348877
1749447279668074800,9.25607470703125,0.6161375045776367,-2.2207624912261963,-0.6216375231742859
1749447279678088200,9.266088134765624,0.7737125158309937,-2.2889626026153564,-0.5630624890327454
1749447279688102000,9.276101806640625,0.9123125076293945,-2.3336498737335205,-0.44907498359680176
1749447279698115600,9.286115478515624,0.9570000171661377,-2.3208625316619873,-0.2615250051021576
1749447279708129300,9.29612939453125,0.916575014591217,-2.2303874492645264,-0.037812501192092896
1749447279718143000,9.30614306640625,0.8398500084877014,-2.090825080871582,0.15386250615119934
1749447279728156700,9.31615673828125,0.7748125195503235,-1.9203250408172607,0.29878750443458557
1749447279738170000,9.326170166015626,0.7514374852180481,-1.7041749954223633,0.4255625009536743
1749447279748184000,9.33618408203125,0.770550012588501,-1.4430625438690186,0.5501375198364258
1749447279758197500,9.346197509765625,0.7844374775886536,-1.1044000387191772,0.6759499907493591
1749447279768211200,9.356211181640624,0.7343875169754028,-0.7038624882698059,0.8153749704360962
1749447279778225000,9.366224853515625,0.5916625261306763,-0.31075000762939453,0.9369249939918518
1749447279788238600,9.376238525390624,0.39778751134872437,0.0035749999806284904,1.0071874856948853
1749447279798252300,9.386252197265625,0.24860000610351562,0.23897500336170197,1.0253374576568604
1749447279808266000,9.396265869140626,0.1835625022649765,0.40507498383522034,0.9975624680519104
1749447279818279400,9.406279541015625,0.19208750128746033,0.5468375086784363,0.9486125111579895
1749447279828293000,9.416293212890626,0.26138749718666077,0.7023500204086304,0.8911374807357788
1749447279838306800,9.426306884765625,0.3614875078201294,0.8684499859809875,0.8388875126838684
1749447279848320500,9.436320556640625,0.4712125062942505,1.0091124773025513,0.7942000031471252
1749447279858334200,9.446334228515624,0.5766749978065491,1.103987455368042,0.7408499717712402
1749447279868347600,9.45634765625,0.6639875173568726,1.1763124465942383,0.6737499833106995
1749447279878361300,9.466361328125,0.7343875169754028,1.2348874807357788,0.6003249883651733
1749447279888375000,9.476375,0.7950249910354614,1.2893375158309937,0.5224999785423279
1749447279898388700,9.486388671875,0.8333874940872192,1.3360874652862549,0.44261249899864197
1749447279908402400,9.49640234375,0.8430125117301941,1.3829749822616577,0.37014999985694885
1749447279918416100,9.506416015625,0.8366875052452087,1.4192750453948975,0.3158375024795532
1749447279928429800,9.516429931640625,0.8355875015258789,1.4235374927520752,0.2796750068664551
1749447279938443500,9.526443603515625,0.8728500008583069,1.4150124788284302,0.2626250088214874
1749447279948457200,9.536457275390624,0.9686874747276306,1.444849967956543,0.29452499747276306
1749447279958471000,9.546470947265625,1.0997250080108643,1.547012448310852,0.406312495470047
1749447279968484400,9.556484375,1.2244374752044678,1.712149977684021,0.6055499911308289
1749447279978498000,9.566498046875,1.278749942779541,1.8709625005722046,0.8579999804496765
1749447279988511700,9.57651171875,1.2083499431610107,1.9306374788284302,1.111549973487854
1749447279998525200,9.586525146484375,1.0337250232696533,1.8357625007629395,1.3182125091552734
1749447280008539100,9.5965390625,0.854699969291687,1.5864750146865845,1.441825032234192
1749447280018552600,9.606552490234375,0.7375500202178955,1.1891000270843506,1.425874948501587
1749447280028566500,9.61656640625,0.6650875210762024,0.6586250066757202,1.285212516784668
1749447280038580000,9.626580078125,0.6235625147819519,0.08346249908208847,1.0978000164031982
1749447280048594000,9.636593994140625,0.613937497138977,-0.4620000123977661,0.9017249941825867
1749447280058607400,9.646607421875,0.6480374932289124,-0.9285374879837036,0.7206375002861023
1749447280068621300,9.656621337890625,0.7226999998092651,-1.2610124349594116,0.5693874955177307
1749447280078634800,9.666634765625,0.8526374697685242,-1.1224124431610107,0.604449987411499
1749447280088648400,9.6766484375,1.0016875267028809,-0.3170749843120575,0.8889374732971191
1749447280098662100,9.686662109375,1.0570999383926392,0.33371248841285706,1.045549988746643
1749447280108675600,9.696675537109375,0.9708874821662903,0.634149968624115,0.9326624870300293
1749447280118689300,9.706689208984375,0.6523000001907349,1.3979624509811401,0.18369999527931213
1749447280128703000,9.716702880859375,0.19002500176429749,1.5268000364303589,-0.6898375153541565
1749447280138716700,9.726716552734375,-0.09446249902248383,0.8663874864578247,-1.168062448501587
1749447280148730000,9.736730224609374,-0.23182499408721924,-0.08813749998807907,-1.4045624732971191
1749447280158743800,9.746743896484375,-0.4427500069141388,-0.8742250204086304,-1.6112250089645386
1749447280168757500,9.756757568359374,-0.823074996471405,-1.0382624864578247,-1.8423625230789185
1749447280178771500,9.766771484375,-1.2992374897003174,-0.4961000084877014,-1.866837501525879
1749447280188785000,9.776784912109376,-1.79135000705719,0.2868250012397766,-1.6933125257492065
1749447280198798600,9.786798583984375,-2.211137533187866,0.725724995136261,-1.6516499519348145
1749447280208812300,9.796812255859376,-2.5232625007629395,0.734250009059906,-1.8807250261306763
1749447280218826000,9.806825927734375,-2.790562391281128,0.4423374831676483,-2.2471625804901123
1749447280228839700,9.816839599609375,-3.0633625984191895,0.05884999781847,-2.5422375202178955
1749447280238853000,9.82685302734375,-3.340287446975708,-0.0668250024318695,-2.694587469100952
1749447280248866800,9.83686669921875,-3.5703248977661133,0.3529624938964844,-2.664750099182129
1749447280258880500,9.846880615234374,-3.677987575531006,1.103987455368042,-2.4176623821258545
1749447280268894200,9.856894287109375,-3.5532748699188232,1.6216750144958496,-2.0820250511169434
1749447280278908000,9.866907958984376,-3.150675058364868,1.777187466621399,-1.7763625383377075
1749447280288921600,9.876921630859375,-2.624462604522705,1.7558749914169312,-1.4738625288009644
1749447280298935300,9.886935302734376,-2.1151623725891113,1.6493124961853027,-1.168062448501587
1749447280308949000,9.896948974609375,-1.634737491607666,1.620574951171875,-0.8740875124931335
1749447280318962400,9.90696240234375,-1.2043625116348267,1.6759874820709229,-0.640749990940094
1749447280328976400,9.916976318359374,-0.8710625171661377,1.7451499700546265,-0.4926624894142151
1749447280338989800,9.92698974609375,-0.6686624884605408,1.571624994277954,-0.37661248445510864
1749447280349003300,9.937003173828124,-0.5928999781608582,1.0708500146865845,-0.2529999911785126
1749447280359017200,9.947017333984375,-0.593999981880188,0.2517625093460083,-0.04853750020265579
1749447280369030700,9.95703076171875,-0.638824999332428,-0.8349000215530396,0.26358750462532043
1749447280379044600,9.967044677734375,-0.6718249917030334,-2.0460000038146973,0.6237000226974487
1749447280389058000,9.97705810546875,-0.7037249803543091,-3.0633625984191895,0.9048874974250793
1749447280399071700,9.98707177734375,-0.7495124936103821,-3.583250045776367,0.9975624680519104
1749447280409085400,9.99708544921875,-0.8177124857902527,-3.5895750522613525,0.8878374695777893
1749447280419099100,10.00709912109375,-0.868862509727478,-3.3360249996185303,0.6930000185966492
1749447280429112800,10.01711279296875,-0.8784874677658081,-3.009049892425537,0.5363875031471252
1749447280439126300,10.027126220703124,-0.8625375032424927,-2.6372499465942383,0.46392500400543213
1749447280449140000,10.037139892578125,-0.8347625136375427,-2.2303874492645264,0.48633748292922974
1749447280459153700,10.047153564453126,-0.7986000180244446,-1.8233875036239624,0.612012505531311
1749447280469167400,10.05716748046875,-0.767662525177002,-1.5123624801635742,0.8027250170707703
1749447280479181000,10.06718115234375,-0.7261375188827515,-1.3952125310897827,1.0040249824523926
1749447280489194800,10.07719482421875,-0.6291999816894531,-1.4654749631881714,1.1734249591827393
1749447280499208200,10.087208251953125,-0.4534749984741211,-1.59871244430542,1.2746249437332153
1749447280509222100,10.09722216796875,-0.19882500171661377,-1.6732374429702759,1.294837474822998
1749447280519235600,10.107235595703125,0.10793749988079071,-1.5965124368667603,1.2468500137329102
1749447280529249500,10.11724951171875,0.4265249967575073,-1.3312749862670898,1.1530749797821045
1749447280539263000,10.127262939453125,0.7141749858856201,-0.9242749810218811,1.037024974822998
1749447280549277000,10.13727685546875,0.9495750069618225,-0.46736249327659607,0.9017249941825867
1749447280559290400,10.147290283203125,1.1519750356674194,-0.05719999969005585,0.7504749894142151
1749447280569304000,10.157303955078126,1.3447500467300415,0.2901250123977661,0.632224977016449
1749447280579317800,10.16731787109375,1.5045249462127686,0.5702124834060669,0.6012874841690063
1749447280589331500,10.17733154296875,1.5982999801635742,0.770550012588501,0.6908000111579895
1749447280599345000,10.187344970703125,1.6046249866485596,0.9366499781608582,0.9506750106811523
1749447280609358600,10.197358642578125,1.6494499444961548,1.3595999479293823,1.4481500387191772
1749447280619372300,10.207372314453124,1.7697625160217285,1.1455124616622925,1.2649999856948853
1749447280629386000,10.217385986328125,1.2350250482559204,-1.5006749629974365,-0.9347249865531921
1749447280639399700,10.227399658203124,0.5106750130653381,-0.9285374879837036,-0.4212999939918518
1749447280649413000,10.2374130859375,-0.4193750023841858,0.7598249912261963,1.1265374422073364
1749447280659427000,10.247427001953126,-1.4739999771118164,1.6312999725341797,2.371737480163574
1749447280669440500,10.2574404296875,-1.8063374757766724,1.8314999341964722,2.6721749305725098
1749447280679454200,10.2674541015625,-1.2086249589920044,2.0307374000549316,1.8316375017166138
1749447280689468000,10.277468017578125,-0.3788124918937683,2.256512403488159,0.46172499656677246
1749447280699481600,10.287481689453125,0.14739999175071716,2.5782625675201416,-0.8175749778747559
1749447280709495300,10.297495361328124,0.254925012588501,2.660212516784668,-1.5409624576568604
1749447280719509000,10.307509033203125,0.11756250262260437,2.4952125549316406,-1.601599931716919
1749447280729522400,10.3175224609375,-0.08373750001192093,2.429075002670288,-1.211787462234497
1749447280739536400,10.327536376953125,-0.22123749554157257,2.4620749950408936,-0.5119125247001648
1749447280749550000,10.337550048828126,-0.14561249315738678,2.1968374252319336,0.17847499251365662
1749447280759563800,10.347563720703125,0.15056249499320984,1.4383875131607056,0.5193374752998352
1749447280769577200,10.3575771484375,0.4637874960899353,0.2367749959230423,0.8878374695777893
1749447280779591000,10.3675908203125,0.7684875130653381,-0.9594749808311462,0.9719874858856201
1749447280789604600,10.3776044921875,0.8973249793052673,-1.9800000190734863,0.7908999919891357
1749447280799618300,10.387618408203124,0.7759125232696533,-2.8003249168395996,0.6908000111579895
1749447280809632000,10.397632080078125,0.5937250256538391,-3.030362367630005,0.5799750089645386
1749447280819645400,10.4076455078125,0.5362499952316284,-2.6809749603271484,0.4628250002861023
1749447280829659400,10.417659423828125,0.5436750054359436,-2.1547625064849854,0.2572624981403351
1749447280839672800,10.4276728515625,0.6107749938964844,-1.807437539100647,-0.0943249985575676
1749447280849686500,10.4376865234375,0.7151374816894531,-1.5464625358581543,-0.43408748507499695
1749447280859700200,10.4477001953125,0.7855374813079834,-1.3088624477386475,-0.669487476348877
1749447280869713700,10.457713623046875,0.770550012588501,-1.118149995803833,-0.8144124746322632
1749447280879727600,10.4677275390625,0.6895624995231628,-0.9702000021934509,-0.9124500155448914
1749447280889741000,10.477740966796874,0.5649874806404114,-0.8401250243186951,-0.9944000244140625
1749447280899754800,10.487754638671875,0.414837509393692,-0.7123875021934509,-1.0583374500274658
1749447280909768400,10.4977685546875,0.27527499198913574,-0.5781875252723694,-1.0903749465942383
1749447280919782100,10.5077822265625,0.1942874938249588,-0.4395875036716461,-1.0796500444412231
1749447280929795600,10.517795654296876,0.201712504029274,-0.26276248693466187,-1.0210750102996826
1749447280939809500,10.5278095703125,0.2591874897480011,-0.021037500351667404,-0.9230374693870544
1749447280949823000,10.537822998046876,0.32106250524520874,0.28476250171661377,-0.8027250170707703
1749447280959837000,10.5478369140625,0.40094998478889465,0.6863999962806702,-0.6386874914169312
1749447280969850400,10.557850341796875,0.5202999711036682,1.230625033378601,-0.3957250118255615
1749447280979864000,10.567864013671874,0.651199996471405,1.7740249633789062,-0.1592250019311905
1749447280989877800,10.577877685546875,0.7737125158309937,2.158474922180176,-0.02722499892115593
1749447280999891500,10.587891357421874,0.8696874976158142,2.35661244392395,-0.004812499973922968
1749447281009905200,10.5979052734375,0.9527375102043152,2.432374954223633,-0.02502499893307686
1749447281019918800,10.6079189453125,1.0433499813079834,2.452587604522705,-0.05706249922513962
1749447281029932300,10.617932373046875,1.1136125326156616,2.435537576675415,-0.10175000131130219
1749447281039946200,10.6279462890625,1.1455124616622925,2.391812562942505,-0.15289999544620514
1749447281049959700,10.637959716796875,1.1349250078201294,2.325812578201294,-0.20721249282360077
1749447281059973400,10.647973388671875,1.0901000499725342,2.2138874530792236,-0.2626250088214874
1749447281069987000,10.657987060546875,1.0517375469207764,2.0594749450683594,-0.3180375099182129
1749447281080001000,10.6680009765625,1.0422500371932983,1.8815499544143677,-0.36918750405311584
1749447281090014500,10.678014404296874,1.101925015449524,1.6737874746322632,-0.41167500615119934
1749447281100028200,10.688028076171875,1.2361249923706055,1.435225009918213,-0.4468750059604645
1749447281110041900,10.698041748046874,1.4342625141143799,1.1507375240325928,-0.45649999380111694
1749447281120055300,10.70805517578125,1.6568750143051147,0.8280249834060669,-0.41923749446868896
1749447281130069000,10.718069091796876,1.8624374866485596,0.5170000195503235,-0.32436248660087585
1749447281140082700,10.728082763671875,2.0169875621795654,0.2410375028848648,-0.1667875051498413
1749447281150096400,10.738096435546876,2.1148874759674072,0.04179999977350235,0.05596249923110008
1749447281160109800,10.74810986328125,2.145824909210205,-0.03162499889731407,0.3647874891757965
1749447281170123800,10.758123779296875,2.150087594985962,0.2517625093460083,0.8579999804496765
1749447281180137500,10.768137451171874,2.1245124340057373,0.8205999732017517,1.4940749406814575
1749447281190151200,10.778151123046875,1.9806874990463257,1.1464749574661255,1.9733999967575073
1749447281200164600,10.78816455078125,1.7186124324798584,1.0240999460220337,2.197112560272217
1749447281210178300,10.79817822265625,1.4225749969482422,0.5915250182151794,2.272737503051758
1749447281220192000,10.80819189453125,1.1923999786376953,0.03973750025033951,2.28552508354187
1749447281230205700,10.818205810546875,1.0773124694824219,-0.5174124836921692,2.2534875869750977
1749447281240219400,10.828219482421876,1.0784125328063965,-1.0372999906539917,2.1778624057769775
1749447281250233000,10.838233154296875,1.1391874551773071,-1.4942125082015991,2.0809249877929688
1749447281260246500,10.84824658203125,1.205187439918518,-1.8500624895095825,1.9765625
1749447281270260200,10.85826025390625,1.2159124612808228,-2.012037515640259,1.9052000045776367
1749447281280274000,10.86827392578125,1.1497750282287598,-1.3216500282287598,2.0703375339508057
1749447281290287600,10.87828759765625,0.91753751039505,1.8368624448776245,2.1885874271392822
1749447281300301300,10.88830126953125,0.4222624897956848,5.426712512969971,1.2351624965667725
1749447281310315000,10.89831494140625,-0.12636250257492065,6.16825008392334,0.23375000059604645
1749447281320328700,10.90832861328125,-0.6696249842643738,5.273399829864502,-0.6514750123023987
1749447281330342100,10.918342041015626,-1.2043625116348267,3.5209624767303467,-1.411025047302246
1749447281340356000,10.928356201171875,-1.6890499591827393,1.5779500007629395,-2.154487371444702
1749447281350369500,10.93836962890625,-2.0864250659942627,-0.14781250059604645,-2.805412530899048
1749447281360383500,10.948383544921874,-2.3379125595092773,-1.3205499649047852,-3.27305006980896
1749447281370397000,10.95839697265625,-2.4848999977111816,-1.052150011062622,-3.217637538909912
1749447281380410600,10.96841064453125,-2.8331875801086426,0.179299995303154,-2.336674928665161
1749447281390424300,10.97842431640625,-3.386075019836426,0.3614875078201294,-1.5111249685287476
1749447281400438000,10.98843798828125,-3.836662530899048,-0.018837500363588333,-0.9497125148773193
1749447281410451500,10.998451416015625,-4.066837310791016,-0.6058250069618225,-0.6802124977111816
1749447281420465200,11.008465087890626,-4.080587387084961,-1.1214499473571777,-0.7953000068664551
1749447281430478800,11.018478759765625,-3.9102249145507812,-1.1171875,-1.4099249839782715
1749447281440492500,11.028492431640625,-3.7098875045776367,-0.9466875195503235,-2.102375030517578
1749447281450506200,11.03850634765625,-3.512850046157837,-0.9381625056266785,-2.564650058746338
1749447281460520000,11.04852001953125,-3.2870750427246094,-0.6324999928474426,-2.8447375297546387
1749447281470533400,11.058533447265624,-3.2902374267578125,0.6821374893188477,-2.574275016784668
1749447281480547000,11.068547119140625,-3.372187376022339,2.3130249977111816,-1.883887529373169
1749447281490560800,11.078560791015626,-3.1006250381469727,3.1939873695373535,-1.2501499652862549
1749447281500574500,11.088574462890625,-2.510474920272827,3.3591248989105225,-0.6972625255584717
1749447281510588000,11.098587890625,-1.8382375240325928,3.1428375244140625,-0.17847499251365662
1749447281520601900,11.108601806640625,-1.3066624402999878,2.7849249839782715,0.2700499892234802
1749447281530615300,11.118615234375,-1.018049955368042,1.8539124727249146,0.6919000148773193
1749447281540629000,11.12862890625,-0.8964999914169312,0.46268749237060547,1.0498124361038208
1749447281550642700,11.138642578125,-0.8677625060081482,-1.1129250526428223,1.2457499504089355
1749447281560656600,11.14865673828125,-0.8742250204086304,-2.6404125690460205,1.2340625524520874
1749447281570670000,11.158670166015625,-0.8241750001907349,-3.9474875926971436,1.0636999607086182
1749447281580683800,11.168683837890624,-0.6962999701499939,-4.8966498374938965,0.8101499676704407
1749447281590697500,11.178697509765625,-0.5993624925613403,-5.372812271118164,0.5352874994277954
1749447281600711200,11.188711181640626,-0.4916999936103821,-5.416537284851074,0.345674991607666
1749447281610724600,11.198724609375,-0.39902499318122864,-5.095887660980225,0.2934249937534332
1749447281620738300,11.20873828125,-0.3777124881744385,-4.4460625648498535,0.38087499141693115
1749447281630752000,11.218751953125,-0.4544374942779541,-3.6790874004364014,0.5427125096321106
1749447281640765700,11.228765625,-0.5726875066757202,-2.961062431335449,0.7249000072479248
1749447281650779400,11.238779296875,-0.6653624773025513,-2.2772750854492188,0.9326624870300293
1749447281660793000,11.24879296875,-0.6909375190734863,-1.7286499738693237,1.1339625120162964
1749447281670806800,11.258806884765624,-0.6291999816894531,-1.3514875173568726,1.2798500061035156
1749447281680820200,11.2688203125,-0.4587000012397766,-1.1044000387191772,1.3651000261306763
1749447281690834200,11.278834228515626,-0.19139999151229858,-0.9296374917030334,1.3843499422073364
1749447281700847600,11.28884765625,0.14423750340938568,-0.7528125047683716,1.3352625370025635
1749447281710861300,11.298861328125,0.5149375200271606,-0.49293750524520874,1.228700041770935
1749447281720875000,11.308875,0.8973249793052673,-0.1083500012755394,1.0796500444412231
1749447281730888700,11.318888671875,1.2446500062942505,0.32945001125335693,0.9411875009536743
1749447281740902100,11.328902099609374,1.5226750373840332,0.6916249990463257,0.869825005531311
1749447281750915800,11.338915771484375,1.7336000204086304,0.9579625129699707,0.8878374695777893
1749447281760929500,11.348929443359374,1.8741250038146973,1.1006875038146973,0.9869750142097473
1749447281770943200,11.358943115234375,1.9402624368667603,0.9866999983787537,1.1413874626159668
1749447281780957000,11.36895703125,1.9732625484466553,0.5286874771118164,1.3469499349594116
1749447281790970600,11.378970703125,2.0861499309539795,-1.7584874629974365,0.5629249811172485
1749447281800984300,11.388984375,1.7389625310897827,-4.915899753570557,-1.227737545967102
1749447281810998000,11.398998046875,1.129562497138977,-3.3072874546051025,-0.7174749970436096
1749447281821011500,11.409011474609375,0.1451999992132187,-0.5387250185012817,0.7482749819755554
1749447281831025200,11.419025146484374,-1.184149980545044,1.0495375394821167,1.9148249626159668
1749447281841038800,11.429038818359375,-2.1855623722076416,1.4682250022888184,2.5518624782562256
1749447281851052500,11.439052490234374,-2.215399980545044,1.7494125366210938,2.2748000621795654
1749447281861066200,11.449066162109375,-1.2555124759674072,2.260775089263916,1.0604000091552734
1749447281871079700,11.45907958984375,-0.1775124967098236,2.683724880218506,-0.3104749917984009
1749447281881093400,11.46909326171875,0.24639999866485596,2.9308125972747803,-1.1074249744415283
1749447281891107000,11.479107177734376,0.03973750025033951,3.0458998680114746,-1.3150500059127808
1749447281901120800,11.489120849609375,-0.3031874895095825,2.6720376014709473,-1.119112491607666
1749447281911134500,11.499134521484375,-0.44811248779296875,2.039262533187866,-0.7984625101089478
1749447281921148000,11.50914794921875,-0.390500009059906,1.6695250272750854,-0.4542999863624573
1749447281931161900,11.519161865234375,-0.23828749358654022,1.6216750144958496,0.02708750031888485
1749447281941175300,11.52917529296875,0.04193750023841858,1.6791499853134155,0.7249000072479248
1749447281951189200,11.539189208984375,0.489362508058548,1.1497750282287598,1.0466500520706177
1749447281961202700,11.54920263671875,0.7694500088691711,-0.047575000673532486,0.9102500081062317
1749447281971216400,11.55921630859375,0.7321875095367432,-1.3259124755859375,0.6077499985694885
1749447281981230000,11.56922998046875,0.595924973487854,-2.135512590408325,0.2508000135421753
1749447281991243800,11.579243896484375,0.5533000230789185,-2.446537494659424,-0.04097500070929527
1749447282001257200,11.58925732421875,0.6193000078201294,-2.4743125438690186,-0.2391124963760376
1749447282011271200,11.599271240234375,0.7950249910354614,-2.4359500408172607,-0.38513749837875366
1749447282021284600,11.60928466796875,0.9836750030517578,-2.4402124881744385,-0.49802500009536743
1749447282031298300,11.61929833984375,1.055037498474121,-2.4550623893737793,-0.5832750201225281
1749447282041312000,11.62931201171875,1.0070500373840332,-2.448737382888794,-0.6290624737739563
1749447282051325700,11.63932568359375,0.8706499934196472,-2.383699893951416,-0.620537519454956
1749447282061339400,11.64933935546875,0.6406124830245972,-2.12918758392334,-0.4852375090122223
1749447282071353000,11.65935302734375,0.40521249175071716,-1.5901875495910645,-0.20514999330043793
1749447282081366800,11.66936669921875,0.3040125072002411,-0.9648374915122986,0.06655000150203705
1749447282091380200,11.679380126953125,0.35089999437332153,-0.44068750739097595,0.22852499783039093
1749447282101394000,11.689393798828124,0.4499000012874603,-0.028462499380111694,0.30195000767707825
1749447282111407600,11.69940771484375,0.5053125023841858,0.3049750030040741,0.3349500000476837
1749447282121421300,11.70942138671875,0.4978874921798706,0.5809375047683716,0.34773749113082886
1749447282131435000,11.71943505859375,0.47011250257492065,0.8205999732017517,0.3712500035762787
1749447282141448700,11.72944873046875,0.4606249928474426,1.0133750438690186,0.4010874927043915
1749447282151462100,11.739462158203125,0.48399999737739563,1.1549999713897705,0.43188750743865967
1749447282161476000,11.74947607421875,0.5425750017166138,1.270087480545044,0.4553999900817871
1749447282171489500,11.759489501953125,0.6193000078201294,1.3340250253677368,0.43834999203681946
1749447282181503200,11.769503173828125,0.6971250176429749,1.3510749340057373,0.38940000534057617
1749447282191517000,11.779516845703125,0.7631250023841858,1.3286625146865845,0.3297249972820282
1749447282201530600,11.789530517578125,0.8196374773979187,1.2754499912261963,0.26468750834465027
1749447282211544300,11.79954443359375,0.8654249906539917,1.2018874883651733,0.20391249656677246
1749447282221557800,11.809557861328125,0.9047499895095825,1.1273624897003174,0.15289999544620514
1749447282231571500,11.819571533203124,0.954800009727478,1.0485750436782837,0.11233749985694885
1749447282241585200,11.829585205078125,1.020937442779541,0.9718499779701233,0.08896250277757645
1749447282251598800,11.839598876953126,1.0911999940872192,0.8962249755859375,0.08249999582767487
1749447282261612500,11.849612548828125,1.1710875034332275,0.807812511920929,0.11123749613761902
1749447282271626200,11.859626220703126,1.2583999633789062,0.7001500129699707,0.16458749771118164
1749447282281639700,11.8696396484375,1.3256374597549438,0.6000499725341797,0.2465374916791916
1749447282291653600,11.879653564453125,1.3638625144958496,0.550000011920929,0.37757501006126404
1749447282301667000,11.8896669921875,1.4012625217437744,0.6895624995231628,0.6247999668121338
1749447282311680800,11.8996806640625,1.4331624507904053,1.0602624416351318,0.9975624680519104
1749447282321694500,11.909694580078124,1.3842124938964844,1.4394874572753906,1.3725249767303467
1749447282331708200,11.919708251953125,1.222237467765808,1.5747874975204468,1.6314375400543213
1749447282341721900,11.929721923828126,1.0177749395370483,1.4511749744415283,1.7422624826431274
1749447282351735600,11.939735595703125,0.8355875015258789,1.1327250003814697,1.7315374612808228
1749447282361749000,11.9497490234375,0.6895624995231628,0.7321875095367432,1.6484874486923218
1749447282371762700,11.9597626953125,0.5831375122070312,0.3198249936103821,1.536562442779541
1749447282381776400,11.9697763671875,0.5010499954223633,-0.055137500166893005,1.4066250324249268
1749447282391790000,11.9797900390625,0.444537490606308,-0.37152498960494995,1.2692625522613525
1749447282401803800,11.9898037109375,0.4222624897956848,-0.5972999930381775,1.1317625045776367
1749447282411817200,11.999817138671874,0.44673749804496765,-0.6708624958992004,1.0040249824523926
1749447282421831200,12.0098310546875,0.5383124947547913,-0.42899999022483826,0.9506750106811523
1749447282431844600,12.0198447265625,0.6767749786376953,0.3614875078201294,1.010349988937378
1749447282441858300,12.0298583984375,0.6917625069618225,1.5822124481201172,0.9006249904632568
1749447282451872000,12.0398720703125,0.46915000677108765,2.848862409591675,0.405349999666214
1749447282461885700,12.0498857421875,0.18039999902248383,3.223824977874756,-0.1634874939918518
1749447282471899400,12.0598994140625,-0.07095000147819519,3.029949903488159,-0.7185750007629395
1749447282481913000,12.0699130859375,-0.26276248693466187,2.4611124992370605,-1.2351624965667725
1749447282491926500,12.079926513671875,-0.45663750171661377,1.6823124885559082,-1.683687448501587
1749447282501940200,12.089940185546874,-0.7229750156402588,0.9686874747276306,-2.1322124004364014
1749447282511954000,12.099953857421875,-1.0286375284194946,0.3592875003814697,-2.52848744392395
1749447282521967400,12.10996728515625,-1.3055624961853027,-0.16266250610351562,-2.7340500354766846
1749447282531981300,12.119981201171875,-1.5846874713897705,0.40617498755455017,-2.3292500972747803
1749447282541994800,12.129994873046876,-2.087524890899658,1.0613625049591064,-1.5654374361038208
1749447282552008700,12.1400087890625,-2.755500078201294,0.854699969291687,-1.0861124992370605
1749447282562022100,12.150022216796875,-3.291337490081787,0.3965499997138977,-0.9252374768257141
1749447282572036000,12.1600361328125,-3.5532748699188232,0.17077499628067017,-1.0807499885559082
1749447282582049500,12.170049560546875,-3.6012625694274902,0.1036750003695488,-1.4588749408721924
1749447282592063500,12.1800634765625,-3.595900058746338,-0.24365000426769257,-1.783787488937378
1749447282602077000,12.190076904296875,-3.5384249687194824,-0.8391624689102173,-1.965975046157837
1749447282612090600,12.200090576171876,-3.361599922180176,-1.366474986076355,-2.038437604904175
1749447282622104000,12.21010400390625,-3.0537374019622803,-1.5038374662399292,-1.9552500247955322
1749447282632117800,12.22011767578125,-2.7064125537872314,-1.209862470626831,-1.5941749811172485
1749447282642131500,12.23013134765625,-2.3485000133514404,-0.7698624730110168,-1.0881749391555786
1749447282652145200,12.240145263671875,-1.9223874807357788,-0.4375250041484833,-0.6226000189781189
1749447282662158600,12.25015869140625,-1.4729000329971313,-0.22439999878406525,-0.30524998903274536
1749447282672172300,12.26017236328125,-1.100000023841858,-0.14024999737739563,-0.10917499661445618
1749447282682186000,12.27018603515625,-0.8964999914169312,-0.3502124845981598,0.07507500052452087
1749447282692199700,12.28019970703125,-0.8401250243186951,-0.8647375106811523,0.3254624903202057
1749447282702213400,12.29021337890625,-0.8634999990463257,-1.4293124675750732,0.6055499911308289
1749447282712227000,12.30022705078125,-0.9018625020980835,-1.8436000347137451,0.8229374885559082
1749447282722240500,12.310240478515626,-0.9615374803543091,-2.0450375080108643,0.9134125113487244
1749447282732254200,12.320254150390625,-1.0488499402999878,-2.0556249618530273,0.869825005531311
1749447282742268000,12.330267822265625,-1.136299967765808,-2.007775068283081,0.7206375002861023
1749447282752281600,12.340281494140624,-1.1650375127792358,-1.991687536239624,0.5501375198364258
1749447282762295300,12.35029541015625,-1.1022000312805176,-1.966112494468689,0.46502500772476196
1749447282772309000,12.36030908203125,-0.9646999835968018,-1.9203250408172607,0.503250002861023
1749447282782322400,12.370322509765625,-0.8464499711990356,-1.9896249771118164,0.5927624702453613
1749447282792336400,12.38033642578125,-0.7910374999046326,-2.1482999324798584,0.7046874761581421
1749447282802349800,12.390349853515625,-0.7975000143051147,-2.3336498737335205,0.8271999955177307
1749447282812363500,12.400363525390626,-0.8273375034332275,-2.4881999492645264,0.9293624758720398
1749447282822377200,12.410377197265625,-0.8134499788284302,-2.5573625564575195,0.9890375137329102
1749447282832390700,12.420390625,-0.6792500019073486,-2.431687593460083,0.9965999722480774
1749447282842404600,12.430404541015625,-0.40328750014305115,-2.0439374446868896,0.9645624756813049
1749447282852418300,12.440418212890625,-0.028324998915195465,-1.4069000482559204,0.9219374656677246
1749447282862432000,12.450431884765624,0.37537500262260437,-0.5589374899864197,0.8996624946594238
1749447282872445400,12.460445556640625,0.762024998664856,0.3870624899864197,0.9028249979019165
1749447282882459400,12.47045947265625,1.1178749799728394,1.195562481880188,0.907087504863739
1749447282892472800,12.480472900390625,1.4470499753952026,1.7473499774932861,0.9283999800682068
1749447282902486500,12.490486572265626,1.7389625310897827,2.0893125534057617,1.0177749395370483
1749447282912500200,12.500500244140625,1.9838500022888184,2.280025005340576,1.1723250150680542
1749447282922514000,12.510513916015626,2.196974992752075,2.1393625736236572,1.2841124534606934
1749447282932527400,12.52052734375,2.4195873737335205,1.4246374368667603,1.2457499504089355
1749447282942541000,12.530541015625,2.6262500286102295,-1.0553125143051147,0.5821750164031982
1749447282952554800,12.5405546875,2.4718375205993652,-6.663937568664551,-1.3480499982833862
1749447282962568400,12.550568359375,1.977524995803833,-7.343599796295166,-1.3651000261306763
1749447282972582100,12.56058203125,1.0730500221252441,-3.9465250968933105,-0.01966249942779541
1749447282982595600,12.570595703125,-0.4683249890804291,-0.6004624962806702,1.5291374921798706
1749447282992609500,12.580609619140626,-2.082162380218506,0.6927250027656555,2.6030125617980957
1749447283002623200,12.590623291015625,-2.9130749702453613,1.046375036239624,2.857524871826172
1749447283012637000,12.600636962890626,-2.5040125846862793,1.6515125036239624,2.0501248836517334
1749447283022650400,12.610650390625,-1.2716000080108643,2.7167248725891113,0.5736500024795532
1749447283032664000,12.6206640625,-0.20514999330043793,3.6552999019622803,-0.7026249766349792
1749447283042677800,12.630677734375,0.1451999992132187,4.113312244415283,-1.3193124532699585
1749447283052691500,12.64069140625,-0.06778749823570251,4.038787364959717,-1.385450005531311
1749447283062705000,12.650704833984374,-0.404387503862381,3.608412504196167,-1.0818500518798828
1749447283072718800,12.66071875,-0.5950999855995178,3.4911248683929443,-0.4703874886035919
1749447283082732300,12.670732177734376,-0.48647499084472656,3.516700029373169,0.2796750068664551
1749447283092746200,12.680746337890625,-0.08689999580383301,2.995850086212158,0.6993250250816345
1749447283102759700,12.690759765625,0.3497999906539917,1.7590374946594238,0.6012874841690063
1749447283112773400,12.7007734375,0.504212498664856,-0.08277499675750732,0.4329875111579895
