time,seconds_elapsed,z,y,x
1751120211035769300,0.294769287109375,9.320959091186523,2.98758864402771,0.6036688089370728
1751120211055658000,0.314657958984375,9.242595672607422,3.274528980255127,0.14923235774040222
1751120211115328000,0.374327880859375,9.243111610412598,3.2759714126586914,0.05741582065820694
1751120211135219200,0.39421923828125,9.18968677520752,3.262542724609375,1.0372306108474731
1751120211155109000,0.414109130859375,9.009620666503906,3.3487801551818848,1.9449372291564941
1751120211165054200,0.42405419921875,8.918861389160156,3.3843002319335938,2.2739391326904297
1751120211174999000,0.4339990234375,8.83892822265625,3.2758610248565674,2.704157590866089
1751120211184944000,0.443944091796875,8.761034965515137,3.272076368331909,2.950963258743286
1751120211194889000,0.453888916015625,8.679960250854492,3.4320600032806396,3.00826358795166
1751120211204833800,0.463833740234375,8.60033130645752,3.5959174633026123,3.0453360080718994
1751120211214778600,0.473778564453125,8.470010757446289,3.748431921005249,3.2215781211853027
1751120211224723700,0.4837236328125,8.285378456115723,3.898941993713379,3.5101492404937744
1751120211234668500,0.49366845703125,8.063212394714355,4.050290107727051,3.8405911922454834
1751120211244613400,0.50361328125,7.817224502563477,4.218509197235107,4.155184268951416
1751120211254558200,0.51355810546875,7.568253040313721,4.417645454406738,4.40185546875
1751120211264503300,0.52350341796875,7.364758491516113,4.614480972290039,4.542828559875488
1751120211274448100,0.5334482421875,7.219282150268555,4.767772674560547,4.617432594299316
1751120211284393000,0.54339306640625,7.104300022125244,4.832558631896973,4.727121829986572
1751120211294337800,0.553337890625,6.977843761444092,4.8103742599487305,4.933598041534424
1751120211304283000,0.563282958984375,6.782677173614502,4.755975723266602,5.248464584350586
1751120211314227700,0.573227783203125,6.502823352813721,4.717306613922119,5.624116897583008
1751120211324172500,0.583172607421875,6.150049686431885,4.709383010864258,6.014065742492676
1751120211334117600,0.59311767578125,5.740316390991211,4.707361698150635,6.407800674438477
1751120211344062700,0.603062744140625,5.28867769241333,4.686341762542725,6.799888610839844
1751120211354007600,0.613007568359375,4.798387050628662,4.619083404541016,7.197911739349365
1751120211363952600,0.62295263671875,4.3162360191345215,4.508218765258789,7.564156532287598
1751120211373897700,0.632897705078125,3.881197929382324,4.3945441246032715,7.860958576202393
1751120211383842600,0.642842529296875,3.5171854496002197,4.327866077423096,8.066559791564941
1751120211393787600,0.65278759765625,3.2317054271698,4.323172092437744,8.187591552734375
1751120211403732700,0.662732666015625,3.0111167430877686,4.374645709991455,8.244152069091797
1751120211413677600,0.672677490234375,2.8211863040924072,4.471329689025879,8.259449005126953
1751120211423622700,0.68262255859375,2.640301465988159,4.604203701019287,8.246241569519043
1751120211433567700,0.692567626953125,2.4275927543640137,4.779131889343262,8.212007522583008
1751120211443512600,0.7025126953125,2.1001312732696533,5.068521022796631,8.128340721130371
1751120211453457700,0.712457763671875,1.843644142150879,5.212400913238525,8.09952163696289
1751120211463402800,0.72240283203125,1.6973353624343872,5.196369647979736,8.141694068908691
1751120211473347600,0.73234765625,1.5706759691238403,5.176194667816162,8.179875373840332
1751120211483292700,0.742292724609375,1.4905000925064087,4.94591760635376,8.335866928100586
1751120211493237800,0.75223779296875,1.4535495042800903,4.504360198974609,8.588848114013672
1751120211503182600,0.7621826171875,1.4396185874938965,3.9025418758392334,8.880767822265625
1751120211513127700,0.772127685546875,1.409143328666687,3.2052793502807617,9.160289764404297
1751120211523072800,0.78207275390625,1.3921599388122559,2.5016911029815674,9.379435539245605
1751120211533017600,0.792017578125,1.4215503931045532,1.8869901895523071,9.517817497253418
1751120211542962700,0.801962646484375,1.4721813201904297,1.4058828353881836,9.593047142028809
1751120211552907800,0.81190771484375,1.4970169067382812,1.0274386405944824,9.637100219726562
1751120211562852600,0.8218525390625,1.4890693426132202,0.7006111741065979,9.667585372924805
1751120211572797700,0.831797607421875,1.6292802095413208,0.4215185046195984,9.66116714477539
1751120211582742500,0.841742431640625,1.674712061882019,0.21381625533103943,9.660228729248047
1751120211592687600,0.8516875,1.7456468343734741,0.10676053911447525,9.64944076538086
1751120211602632700,0.8616328125,1.8564903736114502,0.0066223712638020515,9.629319190979004
1751120211612577500,0.87157763671875,1.884116291999817,-0.013739489950239658,9.623944282531738
1751120211622522600,0.881522705078125,1.8216511011123657,0.004204912111163139,9.635972023010254
1751120211632467700,0.8914677734375,1.7533379793167114,-0.04291217401623726,9.648541450500488
1751120211642412500,0.90141259765625,1.6539443731307983,-0.16655412316322327,9.664735794067383
1751120211652357600,0.911357666015625,1.496739387512207,-0.3589918911457062,9.68510627746582
1751120211662302700,0.921302734375,1.3603953123092651,-0.5797714591026306,9.694512367248535
1751120211672247600,0.93124755859375,1.3435065746307373,-0.7871167659759521,9.682242393493652
1751120211692137700,0.9511376953125,1.669986367225647,-1.1362961530685425,9.596372604370117
1751120211702082600,0.96108251953125,1.8406827449798584,-1.2817519903182983,9.546695709228516
1751120211712027600,0.971027587890625,1.9448034763336182,-1.4343764781951904,9.50424575805664
1751120211721972700,0.98097265625,1.9825730323791504,-1.6213703155517578,9.466306686401367
1751120211731917600,0.99091748046875,1.9887386560440063,-1.8183022737503052,9.429161071777344
1751120211741862700,1.000862548828125,2.0111894607543945,-1.9952491521835327,9.388528823852539
1751120211751807700,1.010807861328125,2.0759823322296143,-2.1534533500671387,9.339343070983887
1751120211761752600,1.020752685546875,2.176116704940796,-2.2454309463500977,9.294780731201172
1751120211771697700,1.03069775390625,2.2951624393463135,-2.282397747039795,9.25706672668457
1751120211801532700,1.06053271484375,2.5600855350494385,-2.39485239982605,9.158658981323242
1751120211811477800,1.070477783203125,2.628838062286377,-2.4063913822174072,9.136130332946777
1751120211841312800,1.100312744140625,2.8666608333587646,-2.385908603668213,9.069734573364258
1751120211920872700,1.179872802734375,3.49352765083313,-2.478933095932007,8.821595191955566
1751120211940762600,1.1997626953125,3.475381374359131,-2.6646339893341064,8.774499893188477
1751120211960652500,1.219652587890625,3.2768900394439697,-2.834963798522949,8.797463417053223
1751120211980542700,1.239542724609375,3.1468167304992676,-2.8491523265838623,8.840263366699219
1751120212030267600,1.289267578125,3.44176983833313,-2.5244626998901367,8.829026222229004
1751120212040212700,1.299212646484375,3.442500591278076,-2.447232961654663,8.850458145141602
1751120212050157600,1.309157470703125,3.3993611335754395,-2.362837314605713,8.88998031616211
1751120212060102700,1.3191025390625,3.3154189586639404,-2.2601490020751953,8.948190689086914
1751120212079992600,1.33899267578125,3.2180163860321045,-1.9824390411376953,9.049015998840332
1751120212109827600,1.36882763671875,3.158433437347412,-1.6065053939819336,9.144059181213379
1751120212119772700,1.378772705078125,3.0427889823913574,-1.5537292957305908,9.192265510559082
1751120212129717800,1.3887177734375,2.9530928134918213,-1.54438316822052,9.223042488098145
1751120212159552800,1.418552734375,2.7873573303222656,-1.4165791273117065,9.294854164123535
1751120212195133000,1.4541328125,3.040463924407959,-1.2767300605773926,9.235579490661621
1751120212224968000,1.483968017578125,3.156893730163574,-1.357408046722412,9.184870719909668
1751120212234912800,1.493912841796875,3.1754608154296875,-1.385246753692627,9.174307823181152
1751120212244857600,1.503857666015625,3.1998839378356934,-1.411612868309021,9.161794662475586
1751120212264747500,1.52374755859375,3.270176410675049,-1.4380147457122803,9.13282299041748
1751120212274692600,1.533692626953125,3.317185163497925,-1.4298497438430786,9.11713695526123
1751120212284637400,1.543637451171875,3.3552772998809814,-1.415590524673462,9.105416297912598
1751120212304527400,1.56352734375,3.3826656341552734,-1.3659340143203735,9.102866172790527
1751120212314472400,1.573472412109375,3.3709394931793213,-1.3187419176101685,9.114169120788574
1751120212324417300,1.583417236328125,3.3488264083862305,-1.2549644708633423,9.131309509277344
1751120212334362000,1.593362060546875,3.3282065391540527,-1.1799967288970947,9.148826599121094
1751120212344307200,1.60330712890625,3.3092305660247803,-1.103177785873413,9.165281295776367
1751120212374142000,1.633141845703125,3.177201747894287,-0.92486172914505,9.231490135192871
1751120212384087000,1.643087158203125,3.1295900344848633,-0.8660663962364197,9.253430366516113
1751120212403977000,1.66297705078125,3.01564359664917,-0.7686335444450378,9.29975700378418
1751120212413921800,1.672921875,3.0051403045654297,-0.7566648125648499,9.30413818359375
1751120212443756500,1.702756591796875,2.762176036834717,-0.9104561805725098,9.365460395812988
1751120212453701600,1.71270166015625,2.499526262283325,-0.9632067680358887,9.4337158203125
1751120212473591600,1.732591552734375,1.7812944650650024,-1.1254303455352783,9.577619552612305
1751120212483536400,1.742536376953125,1.4298759698867798,-1.2494362592697144,9.621057510375977
1751120212493481500,1.7524814453125,1.080567717552185,-1.376824140548706,9.649202346801758
1751120212513371400,1.772371337890625,0.012525947764515877,-1.61241614818573,9.673177719116211
1751120212523316200,1.782316162109375,-0.7335248589515686,-1.7191205024719238,9.626887321472168
1751120212533261300,1.79226123046875,-1.6281356811523438,-1.750800609588623,9.51074504852295
1751120212543206400,1.802206298828125,-2.1683061122894287,-1.6171196699142456,9.426227569580078
1751120212553151200,1.812151123046875,-2.346890926361084,-1.3585777282714844,9.424264907836914
1751120212573041400,1.83204150390625,-2.6414151191711426,-0.9761831164360046,9.393634796142578
1751120212592931300,1.851931396484375,-3.201453447341919,-0.917805552482605,9.2238130569458
1751120212602876400,1.86187646484375,-3.431295394897461,-0.9232072234153748,9.140256881713867
1751120212632711400,1.89171142578125,-3.4998223781585693,-1.0203087329864502,9.10387897491455
1751120212642656300,1.90165625,-3.382410764694214,-1.026788353919983,9.147425651550293
1751120212652601300,1.911601318359375,-3.1439738273620605,-1.012620449066162,9.23365592956543
1751120212672491300,1.9314912109375,-2.2808661460876465,-0.9766702651977539,9.487578392028809
1751120212682436400,1.941436279296875,-1.77947199344635,-0.9748968482017517,9.59444808959961
1751120212702326300,1.961326171875,-1.0876240730285645,-1.0757389068603516,9.686600685119629
1751120212712271400,1.971271240234375,-0.9198256731033325,-1.2278989553451538,9.685894966125488
1751120212722216200,1.98121630859375,-0.8077548742294312,-1.4258196353912354,9.668761253356934
1751120212732161300,1.991161376953125,-0.7172398567199707,-1.6018503904342651,9.648317337036133
1751120212742106400,2.0011064453125,-0.6507644057273865,-1.7058367729187012,9.635196685791016
1751120212752051200,2.01105126953125,-0.5783567428588867,-1.733261227607727,9.634920120239258
1751120212771941400,2.03094140625,-0.48691707849502563,-1.7248061895370483,9.641490936279297
1751120212791831300,2.050831298828125,-0.21602372825145721,-1.961552619934082,9.60604190826416
1751120212821666300,2.080666259765625,0.43973883986473083,-2.6991236209869385,9.417630195617676
1751120212831611400,2.090611328125,0.48339736461639404,-2.947985887527466,9.340561866760254
1751120212851501300,2.110501220703125,0.3018944263458252,-3.54036545753479,9.140298843383789
1751120212861446400,2.1204462890625,0.07715824246406555,-3.9226768016815186,8.987604141235352
1751120212871391200,2.13039111328125,-0.23054590821266174,-4.357653617858887,8.782258987426758
1751120212881336300,2.14033642578125,-0.6217508316040039,-4.8123860359191895,8.522015571594238
1751120212891281400,2.150281494140625,-1.1427007913589478,-5.230041980743408,8.21652603149414
1751120212901226200,2.160226318359375,-1.8721014261245728,-5.534928798675537,7.875925064086914
1751120212911171300,2.17017138671875,-2.6256966590881348,-5.6813507080078125,7.54972505569458
1751120212921116400,2.180116455078125,-3.130885362625122,-5.681244850158691,7.354686260223389
1751120212931061200,2.190061279296875,-3.4082236289978027,-5.602077960968018,7.291853427886963
1751120212941006300,2.20000634765625,-3.588499069213867,-5.5423150062561035,7.250917434692383
1751120212950951400,2.209951416015625,-3.67608904838562,-5.564288139343262,7.189955711364746
1751120212960896300,2.219896240234375,-3.6363890171051025,-5.669431686401367,7.127735137939453
1751120212970841300,2.22984130859375,-3.566282272338867,-5.8056793212890625,7.053091049194336
1751120212980786200,2.2397861328125,-3.4619688987731934,-5.974298477172852,6.963685512542725
1751120212990731300,2.249731201171875,-3.3052444458007812,-6.178407192230225,6.860979080200195
1751120213000676400,2.25967626953125,-3.0762484073638916,-6.382050037384033,6.780600070953369
1751120213010621200,2.26962109375,-2.8520309925079346,-6.5443644523620605,6.723659515380859
1751120213020566300,2.279566162109375,-2.7172067165374756,-6.627291679382324,6.698222637176514
1751120213040456200,2.299456298828125,-2.4165024757385254,-6.506909370422363,6.927556991577148
1751120213050401300,2.3094013671875,-2.4450535774230957,-6.312281608581543,7.095576286315918
1751120213060346400,2.319346435546875,-2.686169385910034,-6.048742771148682,7.236544609069824
1751120213070291200,2.329291259765625,-3.00408673286438,-5.75597620010376,7.349460601806641
1751120213080236300,2.339236328125,-3.2623157501220703,-5.5111165046691895,7.426659107208252
1751120213090181400,2.349181396484375,-3.401047945022583,-5.362165451049805,7.473315715789795
1751120213100126200,2.359126220703125,-3.365187168121338,-5.312851905822754,7.524593830108643
1751120213110071300,2.3690712890625,-3.139204502105713,-5.344252586364746,7.599653720855713
1751120213120016400,2.379016357421875,-2.7857284545898438,-5.437690258026123,7.6708292961120605
1751120213129961200,2.388961181640625,-2.365151882171631,-5.582870960235596,7.707658767700195
1751120213139906300,2.39890625,-1.9422168731689453,-5.775040626525879,7.68420934677124
1751120213149851400,2.408851318359375,-1.5696523189544678,-6.013092994689941,7.586124420166016
1751120213159796200,2.418796142578125,-1.286647081375122,-6.287632942199707,7.414889812469482
1751120213169741300,2.4287412109375,-1.1142598390579224,-6.574959754943848,7.190182209014893
1751120213179686400,2.438686279296875,-1.0498846769332886,-6.856675148010254,6.932108402252197
1751120213189631200,2.44863134765625,-1.0687183141708374,-7.125068187713623,6.6529412269592285
1751120213199576300,2.458576416015625,-1.1146526336669922,-7.377174377441406,6.364372253417969
1751120213209521400,2.468521484375,-1.1306629180908203,-7.61002779006958,6.0810747146606445
1751120213219466200,2.47846630859375,-1.1128398180007935,-7.817363262176514,5.815567493438721
1751120213229411300,2.488411376953125,-1.1222341060638428,-7.984528064727783,5.581960678100586
1751120213239356400,2.4983564453125,-1.1496046781539917,-8.098223686218262,5.409951210021973
1751120213249301200,2.50830126953125,-0.9190003275871277,-8.201916694641113,5.296639919281006
1751120213259246300,2.518246337890625,-0.5265552401542664,-8.339458465576172,5.132890701293945
1751120213269191400,2.52819140625,-0.14960674941539764,-8.538853645324707,4.820371627807617
1751120213279136300,2.53813623046875,0.20412954688072205,-8.774105072021484,4.375361442565918
1751120213289081300,2.548081298828125,0.5626130700111389,-8.993084907531738,3.870176076889038
1751120213299026200,2.558026123046875,0.8984367251396179,-9.16152572631836,3.3807740211486816
1751120213308971300,2.56797119140625,1.1880505084991455,-9.267531394958496,2.978553533554077
1751120213318916400,2.577916259765625,1.4217445850372314,-9.32101058959961,2.695880174636841
1751120213328861200,2.587861083984375,1.5697940587997437,-9.336228370666504,2.5575342178344727
1751120213338806300,2.59780615234375,1.5676422119140625,-9.335638999938965,2.561002731323242
1751120213348752100,2.607752197265625,1.3937182426452637,-9.338333129882812,2.6501858234405518
1751120213358696700,2.61769677734375,1.1013052463531494,-9.352170944213867,2.7375922203063965
1751120213368641500,2.6276416015625,0.796923816204071,-9.373556137084961,2.7697901725769043
1751120213378586400,2.63758642578125,0.5453962683677673,-9.398604393005371,2.7457549571990967
1751120213388531000,2.647531005859375,0.3960983455181122,-9.422868728637695,2.687570810317993
1751120213398475800,2.657475830078125,0.33428093791007996,-9.444091796875,2.620643377304077
1751120213408420400,2.66742041015625,0.3400370478630066,-9.462773323059082,2.5516068935394287
1751120213418365200,2.677365234375,0.3949907720088959,-9.47801399230957,2.4862847328186035
1751120213428310000,2.68731005859375,0.4909549057483673,-9.486954689025879,2.4345510005950928
1751120213438255000,2.697255126953125,0.6367788314819336,-9.498395919799805,2.3548622131347656
1751120213448200000,2.707199951171875,0.76503586769104,-9.515801429748535,2.243798017501831
1751120213458145000,2.71714501953125,0.9508881568908691,-9.513614654541016,2.1811318397521973
1751120213468090000,2.727090087890625,1.2215490341186523,-9.480806350708008,2.1891841888427734
1751120213478035200,2.73703515625,1.4872894287109375,-9.433979034423828,2.2267446517944336
1751120213487980300,2.746980224609375,1.698643445968628,-9.38651180267334,2.275606870651245
1751120213497925400,2.75692529296875,1.866314172744751,-9.340474128723145,2.332982301712036
1751120213507870500,2.766870361328125,1.954689860343933,-9.305963516235352,2.3976240158081055
1751120213517815800,2.77681591796875,1.9158886671066284,-9.297320365905762,2.461625099182129
1751120213527761000,2.786760986328125,1.7219667434692383,-9.320586204528809,2.516326665878296
1751120213537706000,2.7967060546875,1.39097261428833,-9.36635684967041,2.5508692264556885
1751120213547651000,2.806651123046875,0.989141583442688,-9.415223121643066,2.558429002761841
1751120213557596400,2.816596435546875,0.5848555564880371,-9.454123497009277,2.539268732070923
1751120213567541500,2.82654150390625,0.20942308008670807,-9.478917121887207,2.50532603263855
1751120213577486600,2.836486572265625,-0.13183735311031342,-9.489089965820312,2.471874237060547
1751120213587431400,2.846431396484375,-0.43225884437561035,-9.491827964782715,2.4266722202301025
1751120213597376500,2.85637646484375,-0.6846172213554382,-9.497817039489746,2.3437490463256836
1751120213607321600,2.866321533203125,-0.8859386444091797,-9.512770652770996,2.2119436264038086
1751120213617266400,2.876266357421875,-1.026961088180542,-9.539295196533203,2.0291831493377686
1751120213627211500,2.88621142578125,-1.1147946119308472,-9.573299407958984,1.8109533786773682
1751120213637156400,2.89615625,-1.189940094947815,-9.59892463684082,1.6171202659606934
1751120213647101200,2.90610107421875,-1.2809674739837646,-9.602261543273926,1.5251481533050537
1751120213657046300,2.91604638671875,-1.4055883884429932,-9.578225135803223,1.5659873485565186
1751120213666991000,2.9259912109375,-1.5750737190246582,-9.527252197265625,1.709093689918518
1751120213676936200,2.935936279296875,-1.800891637802124,-9.449143409729004,1.9081010818481445
1751120213686881000,2.945881103515625,-2.0777759552001953,-9.342178344726562,2.1393773555755615
1751120213696826000,2.955826171875,-2.3908512592315674,-9.20650863647461,2.3862967491149902
1751120213706771000,2.96577099609375,-2.7190675735473633,-9.047557830810547,2.6303513050079346
1751120213716716000,2.975716064453125,-3.029468297958374,-8.879607200622559,2.853992223739624
1751120213726660900,2.985660888671875,-3.2941365242004395,-8.72289752960205,3.0381083488464355
1751120213736606000,2.99560595703125,-3.500542163848877,-8.592133522033691,3.176767587661743
1751120213746550800,3.00555078125,-3.6565258502960205,-8.489577293395996,3.2752528190612793
1751120213756495600,3.01549560546875,-3.7863004207611084,-8.407662391662598,3.338491439819336
1751120213766440700,3.025440673828125,-3.901758909225464,-8.338957786560059,3.3776373863220215
1751120213776385500,3.035385498046875,-4.01130485534668,-8.277897834777832,3.399447441101074
1751120213786330600,3.04533056640625,-4.127416610717773,-8.217314720153809,3.4074249267578125
1751120213796275500,3.055275390625,-4.23772668838501,-8.149803161621094,3.434061288833618
1751120213816166100,3.075166259765625,-4.410337924957275,-7.950274467468262,3.675928831100464
1751120213826110700,3.08511083984375,-4.51224946975708,-7.858609676361084,3.7486305236816406
1751120213836055300,3.09505517578125,-4.650058746337891,-7.833144664764404,3.63169264793396
1751120213845999600,3.10499951171875,-4.802172660827637,-7.855620384216309,3.3762035369873047
1751120213865889000,3.124888916015625,-4.988225936889648,-7.9581828117370605,2.820517063140869
1751120213875833600,3.13483349609375,-5.03884220123291,-8.024393081665039,2.527758836746216
1751120213885778400,3.1447783203125,-5.070797443389893,-8.106782913208008,2.176572322845459
1751120213895723500,3.1547236328125,-5.05618953704834,-8.21531867980957,1.7646169662475586
1751120213905668600,3.164668701171875,-4.9577836990356445,-8.35710620880127,1.3227007389068604
1751120213915613700,3.17461376953125,-4.785217761993408,-8.511517524719238,0.9089290499687195
1751120213925558800,3.184558837890625,-4.642551898956299,-8.616909980773926,0.6049418449401855
1751120213935504100,3.194504150390625,-4.563478469848633,-8.664979934692383,0.5130000710487366
1751120213945449200,3.20444921875,-4.480156421661377,-8.700377464294434,0.6340546011924744
1751120213955394600,3.21439453125,-4.41508150100708,-8.713558197021484,0.8667965531349182
1751120213965340000,3.22433984375,-4.418405532836914,-8.678420066833496,1.1545982360839844
1751120213975285200,3.23428515625,-4.479853630065918,-8.592107772827148,1.5089703798294067
1751120213985230600,3.244230712890625,-4.540155410766602,-8.477785110473633,1.9195128679275513
1751120213995176000,3.254176025390625,-4.567407131195068,-8.35340690612793,2.351548910140991
1751120214005121000,3.26412109375,-4.562138080596924,-8.227937698364258,2.767367362976074
1751120214015066000,3.274066162109375,-4.559683322906494,-8.107523918151855,3.10608172416687
1751120214025011000,3.284010986328125,-4.578149795532227,-8.007129669189453,3.3311893939971924
1751120214034956000,3.2939560546875,-4.604488849639893,-7.938448429107666,3.45689058303833
1751120214044900900,3.30390087890625,-4.65321683883667,-7.8884124755859375,3.505837917327881
1751120214054846000,3.313845947265625,-4.698669910430908,-7.853379726409912,3.523820400238037
1751120214064790800,3.323790771484375,-4.676871299743652,-7.8497748374938965,3.5606603622436523
1751120214074735900,3.33373583984375,-4.607657432556152,-7.879010200500488,3.586233615875244
1751120214084680700,3.3436806640625,-4.569259166717529,-7.895333290100098,3.599440574645996
1751120214094625800,3.353625732421875,-4.513657093048096,-7.892757892608643,3.6744580268859863
1751120214104570600,3.363570556640625,-4.373425006866455,-7.909852981567383,3.8049683570861816
1751120214114515700,3.373515625,-4.081829071044922,-7.988663196563721,3.961102247238159
1751120214124460500,3.38346044921875,-3.716611623764038,-8.104183197021484,4.084041118621826
1751120214134405600,3.393405517578125,-3.373512029647827,-8.235007286071777,4.120007514953613
1751120214144350500,3.4033505859375,-3.096440553665161,-8.388083457946777,4.027717113494873
1751120214154295300,3.41329541015625,-2.87990403175354,-8.579863548278809,3.77657151222229
1751120214164240400,3.423240478515625,-2.6698169708251953,-8.796501159667969,3.4152629375457764
1751120214174185200,3.433185302734375,-2.400582790374756,-9.00602912902832,3.0494322776794434
1751120214184130300,3.44313037109375,-2.0606350898742676,-9.185674667358398,2.7472848892211914
1751120214194075100,3.4530751953125,-1.680866003036499,-9.328474044799805,2.5148847103118896
1751120214204020200,3.463020263671875,-1.3013553619384766,-9.4390869140625,2.3195881843566895
1751120214213965000,3.472965087890625,-0.939986526966095,-9.526557922363281,2.1287317276000977
1751120214223910100,3.48291015625,-0.5954589247703552,-9.598257064819336,1.9207522869110107
1751120214233855000,3.49285498046875,-0.27076900005340576,-9.65815544128418,1.6784225702285767
1751120214243800000,3.502800048828125,0.02625466138124466,-9.708202362060547,1.3858213424682617
1751120214253745000,3.512744873046875,0.3010671138763428,-9.747061729431152,1.0365959405899048
1751120214263689700,3.522689697265625,0.5691168904304504,-9.769915580749512,0.6286882758140564
1751120214273634800,3.532634765625,0.8361558318138123,-9.769503593444824,0.16746358573436737
1751120214283579600,3.54257958984375,1.1037803888320923,-9.73844051361084,-0.33887413144111633
1751120214293524700,3.552524658203125,1.3664278984069824,-9.670934677124023,-0.8810670971870422
1751120214303469600,3.562469482421875,1.6173676252365112,-9.563708305358887,-1.4456807374954224
1751120214313414700,3.57241455078125,1.8535531759262085,-9.416272163391113,-2.0170607566833496
1751120214323359500,3.582359375,2.081777572631836,-9.229106903076172,-2.580735683441162
1751120214333304600,3.5923046875,2.3103134632110596,-9.00702953338623,-3.115487575531006
1751120214343249400,3.60224951171875,2.5455539226531982,-8.762189865112305,-3.5936853885650635
1751120214353194500,3.612194580078125,2.7913999557495117,-8.512170791625977,-3.9901676177978516
1751120214363139300,3.622139404296875,3.041768789291382,-8.272749900817871,-4.298794269561768
1751120214373084400,3.63208447265625,3.2791764736175537,-8.056500434875488,-4.5288166999816895
1751120214383029500,3.642029541015625,3.480813503265381,-7.874789237976074,-4.694891452789307
1751120214392974300,3.651974365234375,3.6252734661102295,-7.736560344696045,-4.813876628875732
1751120214402919400,3.66191943359375,3.7014193534851074,-7.642399311065674,-4.905468463897705
1751120214412864500,3.671864501953125,3.7312750816345215,-7.584845066070557,-4.971731185913086
1751120214422809300,3.681809326171875,3.7689082622528076,-7.552419185638428,-4.992663860321045
1751120214432754400,3.69175439453125,3.8536856174468994,-7.527146816253662,-4.966041088104248
1751120214442699500,3.701699462890625,3.970292806625366,-7.5028510093688965,-4.910640716552734
1751120214452644400,3.711644287109375,4.074842929840088,-7.494516372680664,-4.837174892425537
1751120214462589400,3.72158935546875,4.144847869873047,-7.514863967895508,-4.745255470275879
1751120214472534500,3.731534423828125,4.175476551055908,-7.556126594543457,-4.651961326599121
1751120214482479400,3.741479248046875,4.128064155578613,-7.624505996704102,-4.582180023193359
1751120214492424400,3.751424560546875,3.9535794258117676,-7.750124454498291,-4.524948596954346
1751120214502369500,3.76136962890625,3.643876075744629,-7.947778701782227,-4.441323757171631
1751120214512314400,3.771314453125,3.2183237075805664,-8.19398021697998,-4.321050643920898
1751120214522259500,3.781259521484375,2.7053565979003906,-8.450498580932617,-4.176184177398682
1751120214532204500,3.79120458984375,2.137863874435425,-8.695853233337402,-3.9977588653564453
1751120214542149400,3.8011494140625,1.5745009183883667,-8.92236042022705,-3.7527074813842773
1751120214552094500,3.811094482421875,1.109595775604248,-9.127985000610352,-3.408677339553833
1751120214562039600,3.82103955078125,0.8187061548233032,-9.311751365661621,-2.965029239654541
1751120214571984400,3.830984375,0.7044074535369873,-9.469709396362305,-2.44924259185791
1751120214581929500,3.840929443359375,0.7076843976974487,-9.596857070922852,-1.889420747756958
1751120214591874300,3.850874267578125,0.7530851364135742,-9.688043594360352,-1.3210067749023438
1751120214601819400,3.8608193359375,0.7752289175987244,-9.74400806427002,-0.789753794670105
1751120214611764500,3.870764404296875,0.6996683478355408,-9.775477409362793,-0.3477010130882263
1751120214621709300,3.880709228515625,0.4907474219799042,-9.794319152832031,-0.029744789004325867
1751120214631654400,3.890654296875,0.2071773260831833,-9.802704811096191,0.18560022115707397
1751120214641599500,3.900599609375,0.011991958133876324,-9.799516677856445,0.37378451228141785
1751120214651544300,3.91054443359375,-0.033159494400024414,-9.788626670837402,0.5933562517166138
1751120214661489400,3.920489501953125,0.04555957019329071,-9.770450592041016,0.8405932188034058
1751120214681379300,3.94037939453125,0.33799394965171814,-9.708114624023438,1.3448573350906372
1751120214691324400,3.950324462890625,0.43604880571365356,-9.663707733154297,1.6102817058563232
1751120214701269500,3.96026953125,0.44801822304725647,-9.610923767089844,1.8973137140274048
1751120214711214300,3.97021435546875,0.3465874195098877,-9.550475120544434,2.199700355529785
1751120214721159400,3.980159423828125,0.13246016204357147,-9.481188774108887,2.5019798278808594
1751120214731104500,3.9901044921875,-0.16198016703128815,-9.399225234985352,2.792618989944458
1751120214741049300,4.00004931640625,-0.4880608022212982,-9.305777549743652,3.0552725791931152
1751120214750994400,4.009994384765625,-0.8063886761665344,-9.215867042541504,3.253910541534424
1751120214760939500,4.019939453125,-1.1025408506393433,-9.138989448547363,3.3813717365264893
1751120214770884400,4.02988427734375,-1.3884996175765991,-9.066287994384766,3.4705731868743896
1751120214780829400,4.039829345703125,-1.6794368028640747,-8.99258804321289,3.53316330909729
1751120214790774500,4.0497744140625,-1.9813228845596313,-8.92320442199707,3.552628517150879
1751120214800719600,4.0597197265625,-2.2930715084075928,-8.864570617675781,3.5116374492645264
1751120214810664700,4.069664794921875,-2.6100926399230957,-8.8190336227417,3.4032979011535645
1751120214820609800,4.07960986328125,-2.9202651977539062,-8.785272598266602,3.234412908554077
1751120214830555000,4.089554931640625,-3.2021853923797607,-8.760650634765625,3.0277695655822754
1751120214840500000,4.0995,-3.4353621006011963,-8.74234676361084,2.817807197570801
1751120214850445000,4.109445068359375,-3.607447385787964,-8.729607582092285,2.6364123821258545
1751120214860390100,4.11939013671875,-3.7185428142547607,-8.724302291870117,2.4958722591400146
1751120214870335000,4.1293349609375,-3.783360481262207,-8.728179931640625,2.382316827774048
1751120214890225200,4.14922509765625,-3.798011302947998,-8.774175643920898,2.181591033935547
1751120214900170000,4.159169921875,-3.6484172344207764,-8.834327697753906,2.1941075325012207
1751120214910115000,4.169114990234375,-3.369025230407715,-8.89487361907959,2.387737989425659
1751120214920060000,4.179059814453125,-3.0109498500823975,-8.930314064025879,2.7118375301361084
1751120214930005000,4.1890048828125,-2.642664670944214,-8.943018913269043,3.0346550941467285
1751120214939949800,4.19894970703125,-2.3219261169433594,-8.942163467407227,3.2888827323913574
1751120214949895000,4.20889501953125,-2.087130308151245,-8.929723739624023,3.474811553955078
1751120214959839700,4.21883984375,-1.9526913166046143,-8.907977104187012,3.606288194656372
1751120214969784600,4.22878466796875,-1.915191411972046,-8.882534980773926,3.6882243156433105
1751120214979729700,4.238729736328125,-1.9478540420532227,-8.860967636108398,3.722834348678589
1751120214989674500,4.248674560546875,-2.0025691986083984,-8.852984428405762,3.7127861976623535
1751120214999619600,4.25861962890625,-2.0400021076202393,-8.868059158325195,3.6559956073760986
1751120215009564400,4.268564453125,-2.0282862186431885,-8.908134460449219,3.5639290809631348
1751120215019509500,4.278509521484375,-1.9298824071884155,-8.961553573608398,3.483745574951172
1751120215029454300,4.288454345703125,-1.7130401134490967,-9.001810073852539,3.4933228492736816
1751120215039399400,4.2983994140625,-1.417617917060852,-9.010841369628906,3.6007628440856934
1751120215049344300,4.30834423828125,-1.1520329713821411,-8.987873077392578,3.7498457431793213
1751120215059289300,4.318289306640625,-0.9450449347496033,-8.95023250579834,3.8949456214904785
1751120215069234200,4.328234130859375,-0.7582635283470154,-8.911707878112793,4.022050380706787
1751120215079179000,4.338178955078125,-0.5552384257316589,-8.882698059082031,4.118224620819092
1751120215089124000,4.3481240234375,-0.33727869391441345,-8.875361442565918,4.157474994659424
1751120215099069000,4.35806884765625,-0.12576785683631897,-8.898319244384766,4.120009422302246
1751120215109014000,4.368013916015625,0.054840415716171265,-8.953869819641113,3.9994494915008545
1751120215118958800,4.377958740234375,0.19078703224658966,-9.039305686950684,3.798018455505371
1751120215128904000,4.387904052734375,0.2887301445007324,-9.145608901977539,3.5277254581451416
1751120215138848800,4.397848876953125,0.36762648820877075,-9.257920265197754,3.213434934616089
1751120215148793900,4.4077939453125,0.4440280497074127,-9.360876083374023,2.8891565799713135
1751120215158738700,4.41773876953125,0.5248320698738098,-9.447375297546387,2.577214241027832
1751120215168683500,4.42768359375,0.6094626188278198,-9.517956733703613,2.281981945037842
1751120215178628600,4.437628662109375,0.7019369006156921,-9.575803756713867,1.9954079389572144
1751120215188573400,4.447573486328125,0.8100963830947876,-9.623183250427246,1.7054216861724854
1751120215198518500,4.4575185546875,0.9393801093101501,-9.660057067871094,1.404019832611084
1751120215208463400,4.46746337890625,1.0921708345413208,-9.684331893920898,1.0914537906646729
1751120215218408400,4.477408447265625,1.270600438117981,-9.693020820617676,0.7754412889480591
1751120215228353300,4.487353271484375,1.4712570905685425,-9.684564590454102,0.4636760950088501
1751120215238298400,4.49729833984375,1.6835505962371826,-9.659815788269043,0.15493252873420715
1751120215248243500,4.507243408203125,1.8951901197433472,-9.620416641235352,-0.1619439572095871
1751120215258188300,4.517188232421875,2.100438356399536,-9.566045761108398,-0.49931615591049194
1751120215268133400,4.52713330078125,2.305187463760376,-9.492961883544922,-0.8603277802467346
1751120215278078500,4.537078369140625,2.5207419395446777,-9.39437198638916,-1.2498078346252441
1751120215288023300,4.547023193359375,2.747032642364502,-9.263261795043945,-1.6781469583511353
1751120215297968400,4.556968505859375,2.948434352874756,-9.099971771240234,-2.1604721546173096
1751120215307913500,4.56691357421875,3.0487704277038574,-8.913409233093262,-2.725168228149414
1751120215317858300,4.5768583984375,2.9551892280578613,-8.717910766601562,-3.3816075325012207
1751120215327803400,4.586803466796875,2.7164504528045654,-8.526902198791504,-4.010388374328613
1751120215337748500,4.59674853515625,2.5242886543273926,-8.377881050109863,-4.428256511688232
1751120215347693300,4.606693359375,2.5071182250976562,-8.299128532409668,-4.583581447601318
1751120215357638400,4.616638427734375,2.580385446548462,-8.3057222366333,-4.5306715965271
1751120215367583500,4.62658349609375,2.6116459369659424,-8.389668464660645,-4.354672431945801
1751120215377528300,4.6365283203125,2.5616612434387207,-8.526561737060547,-4.111693859100342
1751120215387473400,4.646473388671875,2.460550546646118,-8.689148902893066,-3.822927236557007
1751120215397418500,4.65641845703125,2.349519968032837,-8.857978820800781,-3.490896224975586
1751120215407363300,4.66636328125,2.250916004180908,-9.021891593933105,-3.115963935852051
1751120215417308400,4.676308349609375,2.1677756309509277,-9.174576759338379,-2.701533079147339
1751120215427253500,4.68625341796875,2.086719036102295,-9.311704635620117,-2.260120153427124
1751120215437198300,4.6961982421875,1.978501558303833,-9.432156562805176,-1.813928484916687
1751120215447143400,4.706143310546875,1.811163067817688,-9.539306640625,-1.3753937482833862
1751120215457088500,4.716088623046875,1.5582125186920166,-9.635899543762207,-0.9443624019622803
1751120215467033300,4.726033447265625,1.2004280090332031,-9.7186918258667,-0.5257180333137512
1751120215476978400,4.735978515625,0.7352447509765625,-9.778033256530762,-0.14097575843334198
1751120215486923300,4.74592333984375,0.19805194437503815,-9.802515983581543,0.20459604263305664
1751120215496868400,4.755868408203125,-0.30370038747787476,-9.785871505737305,0.5611400604248047
1751120215506813400,4.7658134765625,-0.567051887512207,-9.736978530883789,1.0198537111282349
1751120215516758300,4.77575830078125,-0.5000749826431274,-9.665300369262695,1.5818575620651245
1751120215526703400,4.785703369140625,-0.15779951214790344,-9.571036338806152,2.1308999061584473
1751120215536648400,4.7956484375,0.3726405203342438,-9.458645820617676,2.562333583831787
1751120215546593300,4.80559326171875,1.0402402877807617,-9.325911521911621,2.848799228668213
1751120215556538400,4.815538330078125,1.7825425863265991,-9.155465126037598,3.028266429901123
1751120215576428300,4.83542822265625,2.8244423866271973,-8.79300594329834,3.297869920730591
1751120215586373400,4.845373291015625,2.8846535682678223,-8.715195655822754,3.448843479156494
1751120215596318500,4.855318359375,2.6137475967407227,-8.712240219116211,3.6654598712921143
1751120215616208400,4.87520849609375,1.6137138605117798,-8.758078575134277,4.106380462646484
1751120215626153500,4.885153564453125,1.0929893255233765,-8.783032417297363,4.223043918609619
1751120215636098300,4.895098388671875,0.6191665530204773,-8.809391021728516,4.26399564743042
1751120215646043400,4.90504345703125,0.20257622003555298,-8.835366249084473,4.250369548797607
1751120215655988500,4.914988525390625,-0.15856318175792694,-8.859814643859863,4.2010626792907715
1751120215665933300,4.924933349609375,-0.4731154143810272,-8.883465766906738,4.126811981201172
1751120215675878400,4.93487841796875,-0.7550843358039856,-8.908058166503906,4.030725479125977
1751120215685823500,4.944823486328125,-1.0187689065933228,-8.934647560119629,3.9121077060699463
1751120215695768300,4.954768310546875,-1.2641322612762451,-8.963509559631348,3.7719802856445312
1751120215705713400,4.96471337890625,-1.4780765771865845,-8.996688842773438,3.6118223667144775
1751120215715658500,4.974658447265625,-1.6450600624084473,-9.03762435913086,3.4330036640167236
1751120215725603300,4.984603271484375,-1.7290724515914917,-9.089385032653809,3.2501978874206543
1751120215735548400,4.99454833984375,-1.6681360006332397,-9.151727676391602,3.1038029193878174
1751120215745493500,5.004493408203125,-1.4664956331253052,-9.211299896240234,3.028486728668213
1751120215755438300,5.014438232421875,-1.1870440244674683,-9.254240036010742,3.019993782043457
1751120215765383400,5.024383544921875,-0.8963336944580078,-9.276423454284668,3.052037000656128
1751120215775328300,5.034328369140625,-0.6347934603691101,-9.281779289245605,3.1009676456451416
1751120215785273300,5.0442734375,-0.413401335477829,-9.277266502380371,3.151479482650757
1751120215795218400,5.054218505859375,-0.22981573641300201,-9.270367622375488,3.190274715423584
1751120215805163300,5.064163330078125,-0.09213519841432571,-9.269222259521484,3.2005324363708496
1751120215815108400,5.0741083984375,-0.02496998943388462,-9.27907657623291,3.1730904579162598
1751120215825053400,5.084053466796875,-0.0416494645178318,-9.298463821411133,3.1156415939331055
1751120215834998300,5.093998291015625,-0.12755811214447021,-9.323999404907227,3.035978317260742
1751120215854888400,5.113888427734375,-0.15434788167476654,-9.40669059753418,2.767800807952881
1751120215864833300,5.123833251953125,0.09711749106645584,-9.446491241455078,2.6314942836761475
1751120215874778400,5.1337783203125,0.2901768982410431,-9.457854270935059,2.5758862495422363
1751120215884723500,5.143723388671875,0.33147940039634705,-9.443865776062012,2.6218109130859375
1751120215894668300,5.153668212890625,0.24032656848430634,-9.41213321685791,2.7430624961853027
1751120215904613400,5.16361328125,0.07305209338665009,-9.364866256713867,2.9093496799468994
1751120215914558500,5.173558349609375,-0.09511452168226242,-9.301422119140625,3.1056227684020996
1751120215924503300,5.18350341796875,-0.1542002111673355,-9.23065185546875,3.3078198432922363
1751120215934448400,5.193448486328125,-0.021774422377347946,-9.172202110290527,3.4699618816375732
1751120215944393500,5.2033935546875,0.2662474811077118,-9.139290809631348,3.545823574066162
1751120215954338300,5.21333837890625,0.589282751083374,-9.13988208770752,3.505096912384033
1751120215964283400,5.223283447265625,0.8516215085983276,-9.181469917297363,3.3385233879089355
1751120215974228500,5.233228515625,1.0243406295776367,-9.261087417602539,3.058328628540039
1751120215994118400,5.253118408203125,1.1592823266983032,-9.471232414245605,2.2632312774658203
1751120216004063500,5.2630634765625,1.1723238229751587,-9.566588401794434,1.8100918531417847
1751120216014008300,5.27300830078125,1.185793161392212,-9.639567375183105,1.3575745820999146
1751120216023953400,5.282953369140625,1.2239431142807007,-9.685894012451172,0.925101637840271
1751120216033898200,5.292898193359375,1.2991738319396973,-9.706085205078125,0.5238911509513855
1751120216043843300,5.30284326171875,1.4106676578521729,-9.703314781188965,0.16152667999267578
1751120216053788200,5.3127880859375,1.5499814748764038,-9.682080268859863,-0.15893866121768951
1751120216063733200,5.322733154296875,1.7102789878845215,-9.646400451660156,-0.43850430846214294
1751120216073678000,5.332677978515625,1.8885467052459717,-9.599064826965332,-0.6795087456703186
1751120216083623200,5.342623046875,2.086257219314575,-9.540547370910645,-0.8921076655387878
1751120216093568000,5.352568115234375,2.303637981414795,-9.469409942626953,-1.0926605463027954
1751120216103513000,5.36251318359375,2.5343003273010254,-9.384261131286621,-1.2974408864974976
1751120216113458000,5.3724580078125,2.7674357891082764,-9.284879684448242,-1.5174610614776611
1751120216123402800,5.38240283203125,2.9825313091278076,-9.175119400024414,-1.7584294080734253
1751120216133347800,5.392347900390625,3.1486423015594482,-9.064277648925781,-2.0236892700195312
1751120216143292700,5.402292724609375,3.235774517059326,-8.962251663208008,-2.3190958499908447
1751120216153237800,5.41223779296875,3.2195327281951904,-8.874967575073242,-2.6532890796661377
1751120216163182600,5.4221826171875,3.093047618865967,-8.805325508117676,-3.0115902423858643
1751120216173127700,5.432127685546875,2.8841888904571533,-8.754454612731934,-3.348337411880493
1751120216193017600,5.452017578125,2.4686076641082764,-8.665276527404785,-3.871608018875122
1751120216202962400,5.46196240234375,2.34798526763916,-8.607173919677734,-4.071105480194092
1751120216212907500,5.471907470703125,2.3069069385528564,-8.537614822387695,-4.23765230178833
1751120216222852400,5.481852294921875,2.3302948474884033,-8.465679168701172,-4.367194175720215
1751120216232797200,5.491797119140625,2.3772964477539062,-8.40961742401123,-4.449400424957275
1751120216242742300,5.5017421875,2.3875038623809814,-8.393939971923828,-4.473477840423584
1751120216252687000,5.51168701171875,2.3278210163116455,-8.430990219116211,-4.435091018676758
1751120216262632200,5.521632080078125,2.2107954025268555,-8.514974594116211,-4.33335542678833
1751120216272577000,5.531576904296875,2.071174144744873,-8.626927375793457,-4.178126335144043
1751120216282522000,5.541522216796875,1.9232935905456543,-8.751538276672363,-3.985210657119751
1751120216292467000,5.551467041015625,1.7655185461044312,-8.880898475646973,-3.766030788421631
1751120216302412000,5.561412109375,1.6075464487075806,-9.011585235595703,-3.5181686878204346
1751120216312356900,5.57135693359375,1.4641484022140503,-9.145050048828125,-3.2240841388702393
1751120216322301700,5.5813017578125,1.3350679874420166,-9.283766746520996,-2.863504409790039
1751120216332246800,5.591246826171875,1.1949619054794312,-9.426892280578613,-2.4240779876708984
1751120216342191600,5.601191650390625,1.011389136314392,-9.566923141479492,-1.9030150175094604
1751120216352136700,5.61113671875,0.7786017656326294,-9.688384056091309,-1.3036057949066162
1751120216362081500,5.62108154296875,0.5121685266494751,-9.77264404296875,-0.6352172493934631
1751120216372026600,5.631026611328125,0.24022366106510162,-9.803390502929688,0.07885769009590149
1751120216381971500,5.640971435546875,-0.005272808484733105,-9.773333549499512,0.8076450228691101
1751120216391916500,5.65091650390625,-0.1954723596572876,-9.686205863952637,1.5197319984436035
1751120216401861400,5.660861328125,-0.2839869558811188,-9.558022499084473,2.1757657527923584
1751120216411806500,5.670806396484375,-0.19147035479545593,-9.42006778717041,2.7195680141448975
1751120216431696400,5.6906962890625,0.6716012358665466,-9.215643882751465,3.2850050926208496
1751120216451586300,5.71058642578125,1.7340896129608154,-9.061053276062012,3.325753927230835
1751120216461531400,5.720531494140625,1.9800128936767578,-9.001657485961914,3.349639654159546
1751120216471476200,5.730476318359375,1.9713566303253174,-8.971203804016113,3.435351610183716
1751120216481421300,5.74042138671875,1.7669317722320557,-8.963027000427246,3.5654566287994385
1751120216491366400,5.750366455078125,1.466506838798523,-8.962976455688477,3.6992971897125244
1751120216501311200,5.760311279296875,1.123873233795166,-8.964544296264648,3.8136909008026123
1751120216511256300,5.77025634765625,0.7611462473869324,-8.964179992675781,3.9031429290771484
1751120216521201400,5.780201416015625,0.3961539566516876,-8.958908081054688,3.9688074588775635
1751120216531146200,5.790146240234375,0.049626369029283524,-8.947364807128906,4.014048099517822
1751120216541091300,5.80009130859375,-0.2663636803627014,-8.930426597595215,4.043130874633789
1751120216551036400,5.810036376953125,-0.5476189255714417,-8.911846160888672,4.055798530578613
1751120216560981200,5.819981201171875,-0.7930710315704346,-8.89749813079834,4.046720027923584
1751120216570926300,5.82992626953125,-1.0057399272918701,-8.892233848571777,4.010865688323975
1751120216580871400,5.839871337890625,-1.1871017217636108,-8.897926330566406,3.948174238204956
1751120216590816300,5.849816162109375,-1.3420089483261108,-8.913549423217773,3.8623881340026855
1751120216600761300,5.85976123046875,-1.477367639541626,-8.934911727905273,3.76232647895813
1751120216610706200,5.8697060546875,-1.5985502004623413,-8.955085754394531,3.6635303497314453
1751120216620651300,5.8796513671875,-1.7061885595321655,-8.969291687011719,3.579261302947998
1751120216630596400,5.889596435546875,-1.8170541524887085,-8.977593421936035,3.503072500228882
1751120216640541200,5.899541259765625,-1.9716030359268188,-8.975947380065918,3.422794818878174
1751120216650486300,5.909486328125,-2.1390154361724854,-8.963240623474121,3.3548941612243652
1751120216660431400,5.919431396484375,-2.183436632156372,-8.956335067749023,3.3447062969207764
1751120216670376200,5.929376220703125,-1.966988205909729,-8.968591690063477,3.4446659088134766
1751120216680321300,5.9393212890625,-1.5252163410186768,-8.977685928344727,3.6394026279449463
1751120216690266400,5.949266357421875,-1.0110009908676147,-8.957375526428223,3.8618240356445312
1751120216700211200,5.959211181640625,-0.5411459803581238,-8.908119201660156,4.064845085144043
1751120216710156300,5.96915625,-0.16878822445869446,-8.851594924926758,4.217958927154541
1751120216720101400,5.979101318359375,0.052140019834041595,-8.818910598754883,4.288881301879883
1751120216730046200,5.989046142578125,0.08384077996015549,-8.835139274597168,4.254842281341553
1751120216739991300,5.9989912109375,-0.02256752736866474,-8.904828071594238,4.107787609100342
1751120216749936400,6.008936279296875,-0.13283763825893402,-9.01306438446045,3.8623082637786865
1751120216759881200,6.018881103515625,-0.07599211484193802,-9.138772010803223,3.5563278198242188
1751120216769826300,6.028826416015625,0.1283401995897293,-9.250717163085938,3.2524051666259766
1751120216779771400,6.038771484375,0.3116939067840576,-9.327400207519531,3.0121114253997803
1751120216789716200,6.04871630859375,0.39731210470199585,-9.368547439575195,2.871035099029541
1751120216799661300,6.058661376953125,0.38188329339027405,-9.385320663452148,2.8178532123565674
1751120216809606400,6.0686064453125,0.28337183594703674,-9.387438774108887,2.8224234580993652
1751120216819551200,6.07855126953125,0.14212341606616974,-9.375584602355957,2.8720383644104004
1751120216829496300,6.088496337890625,0.03717638552188873,-9.34837532043457,2.9625840187072754
1751120216839441400,6.09844140625,0.07711349427700043,-9.314314842224121,3.0672414302825928
1751120216849386200,6.10838623046875,0.28846579790115356,-9.288131713867188,3.133334159851074
1751120216859331300,6.118331298828125,0.5846123099327087,-9.279631614685059,3.117222309112549
1751120216869276400,6.1282763671875,0.8619872331619263,-9.296677589416504,2.9998579025268555
1751120216889166300,6.148166259765625,1.162948727607727,-9.413922309875488,2.4891765117645264
1751120216899111400,6.158111328125,1.1821178197860718,-9.494610786437988,2.1506600379943848
1751120216909056300,6.16805615234375,1.143876075744629,-9.572552680969238,1.7967147827148438
1751120216919001300,6.17800146484375,1.0799329280853271,-9.639432907104492,1.4441152811050415
1751120216928946200,6.1879462890625,1.023421049118042,-9.691123008728027,1.097791075706482
1751120216938891300,6.197891357421875,1.0046263933181763,-9.725561141967773,0.7580069303512573
1751120216948836000,6.207836181640625,1.0428608655929565,-9.741706848144531,0.42658379673957825
1751120216958781200,6.21778125,1.140977382659912,-9.73946475982666,0.10667271912097931
1751120216968726000,6.22772607421875,1.2929949760437012,-9.718996047973633,-0.199178084731102
1751120216978671000,6.237671142578125,1.4876207113265991,-9.680878639221191,-0.48781269788742065
1751120216988616000,6.247615966796875,1.715622901916504,-9.625651359558105,-0.7575274109840393
1751120216998561000,6.25756103515625,1.971004843711853,-9.551856994628906,-1.0235021114349365
1751120217008505900,6.267505859375,2.2357890605926514,-9.459478378295898,-1.2999645471572876
1751120217018451000,6.277450927734375,2.474292278289795,-9.35632038116455,-1.5835225582122803
1751120217028395800,6.287395751953125,2.654468536376953,-9.255332946777344,-1.8609124422073364
1751120217038340600,6.297340576171875,2.7581067085266113,-9.166841506958008,-2.1289119720458984
1751120217048285700,6.30728564453125,2.7796273231506348,-9.092577934265137,-2.4018919467926025
1751120217058230500,6.31723046875,2.726158380508423,-9.021524429321289,-2.711186408996582
1751120217068175600,6.327175537109375,2.6100192070007324,-8.93836784362793,-3.076323986053467
1751120217078120400,6.337120361328125,2.454850912094116,-8.835931777954102,-3.474250316619873
1751120217088065500,6.3470654296875,2.3068714141845703,-8.71345043182373,-3.8632264137268066
1751120217098010400,6.35701025390625,2.2064528465270996,-8.577648162841797,-4.210215091705322
1751120217107955500,6.36695556640625,2.1669421195983887,-8.44271183013916,-4.493925094604492
1751120217117900300,6.376900390625,2.1819405555725098,-8.32267951965332,-4.705583572387695
1751120217127845400,6.386845458984375,2.239232063293457,-8.228658676147461,-4.84204626083374
1751120217137790200,6.396790283203125,2.305102586746216,-8.170954704284668,-4.9083991050720215
1751120217147735000,6.406735107421875,2.3319849967956543,-8.163078308105469,-4.908806800842285
1751120217157680000,6.41668017578125,2.2879891395568848,-8.21411418914795,-4.843947410583496
1751120217167625000,6.426625,2.1721701622009277,-8.319844245910645,-4.715109348297119
1751120217177570000,6.436570068359375,2.0023186206817627,-8.46198558807373,-4.533862113952637
1751120217187515000,6.446514892578125,1.8042505979537964,-8.620523452758789,-4.312963485717773
1751120217197460000,6.4564599609375,1.6039568185806274,-8.782803535461426,-4.057103633880615
1751120217207404800,6.46640478515625,1.4199823141098022,-8.942328453063965,-3.766801357269287
1751120217217350000,6.476349853515625,1.2576241493225098,-9.097230911254883,-3.4393551349639893
1751120217227294700,6.486294677734375,1.1082016229629517,-9.248005867004395,-3.0686590671539307
1751120217237239800,6.49623974609375,0.9486317038536072,-9.395309448242188,-2.6454949378967285
1751120217247184600,6.5061845703125,0.7494429349899292,-9.535840034484863,-2.1625185012817383
1751120217257129500,6.51612939453125,0.48953452706336975,-9.66034984588623,-1.6150484085083008
1751120217267074600,6.526074462890625,0.19364617764949799,-9.752809524536133,-1.0077799558639526
1751120217277019400,6.536019287109375,-0.06263981759548187,-9.80034351348877,-0.3459942936897278
1751120217286964500,6.545964599609375,-0.23110835254192352,-9.797724723815918,0.34865641593933105
1751120217296910000,6.55591015625,-0.31908249855041504,-9.747208595275879,1.029813528060913
1751120217306855200,6.565855224609375,-0.32437315583229065,-9.661665916442871,1.6484445333480835
1751120217316800000,6.575800048828125,-0.19870010018348694,-9.561144828796387,2.171496868133545
1751120217326745000,6.5857451171875,0.11996916681528091,-9.461663246154785,2.5754454135894775
1751120217336690000,6.59568994140625,0.6292751431465149,-9.364592552185059,2.8423233032226562
1751120217346635000,6.605635009765625,1.2571080923080444,-9.257537841796875,2.9812874794006348
1751120217356579800,6.615579833984375,1.9039783477783203,-9.125961303710938,3.0433669090270996
1751120217366525000,6.62552490234375,2.3481602668762207,-8.997305870056152,3.1152877807617188
1751120217386414800,6.645414794921875,2.3894102573394775,-8.88359260559082,3.397484302520752
1751120217396359700,6.655359619140625,2.0444984436035156,-8.892833709716797,3.5927610397338867
1751120217406304500,6.665304443359375,1.598477840423584,-8.91393756866455,3.7625763416290283
1751120217416249600,6.67524951171875,1.1074720621109009,-8.941088676452637,3.8730897903442383
1751120217426194400,6.6851943359375,0.6012458801269531,-8.97024917602539,3.9170804023742676
1751120217436139500,6.695139404296875,0.10504217445850372,-8.9969482421875,3.9005489349365234
1751120217446084400,6.70508447265625,-0.3581905663013458,-9.018369674682617,3.8355050086975098
1751120217456029400,6.715029541015625,-0.7677263021469116,-9.034201622009277,3.736865758895874
1751120217465974300,6.724974365234375,-1.1028342247009277,-9.04682731628418,3.62064266204834
1751120217475919400,6.73491943359375,-1.3555865287780762,-9.060145378112793,3.4995062351226807
1751120217485864200,6.7448642578125,-1.533186674118042,-9.07783317565918,3.378263473510742
1751120217495809300,6.754809326171875,-1.646640419960022,-9.100919723510742,3.260709047317505
1751120217505754000,6.764754150390625,-1.7122315168380737,-9.12585735321045,3.155529737472534
1751120217515699000,6.774698974609375,-1.7524563074111938,-9.148012161254883,3.068086862564087
1751120217525644000,6.78464404296875,-1.8012676239013672,-9.165908813476562,2.9852895736694336
1751120217535588900,6.7945888671875,-1.9127930402755737,-9.177424430847168,2.87862491607666
1751120217545534000,6.804533935546875,-2.1030399799346924,-9.175324440002441,2.749735116958618
1751120217555478800,6.814478759765625,-2.2646875381469727,-9.170183181762695,2.636160373687744
1751120217565423900,6.824423828125,-2.2371888160705566,-9.181890487670898,2.618823528289795
1751120217575368700,6.83436865234375,-2.008586883544922,-9.206292152404785,2.716639757156372
1751120217585313800,6.844313720703125,-1.6881604194641113,-9.221756935119629,2.8774473667144775
1751120217595258600,6.854258544921875,-1.3908857107162476,-9.210010528564453,3.0678205490112305
1751120217605203700,6.86420361328125,-1.1713186502456665,-9.162960052490234,3.2921993732452393
1751120217615148500,6.8741484375,-1.0073071718215942,-9.086872100830078,3.5474588871002197
1751120217625093400,6.88409326171875,-0.8464291095733643,-9.007499694824219,3.7840311527252197
1751120217635038500,6.89403857421875,-0.6941070556640625,-8.96030044555664,3.9244894981384277
1751120217644983300,6.9039833984375,-0.605022668838501,-8.9669189453125,3.9241182804107666
1751120217654928400,6.913928466796875,-0.5950608849525452,-9.01596450805664,3.811650037765503
1751120217664873200,6.923873291015625,-0.5566475987434387,-9.07274341583252,3.6804685592651367
1751120217674818300,6.933818359375,-0.529784083366394,-9.101454734802246,3.612924337387085
1751120217684763100,6.94376318359375,-0.6111757755279541,-9.09475326538086,3.616950511932373
1751120217694708200,6.953708251953125,-0.7887232303619385,-9.062643051147461,3.6628944873809814
1751120217704653000,6.963653076171875,-0.9954099655151367,-9.014812469482422,3.7299742698669434
1751120217714598100,6.97359814453125,-1.1559174060821533,-8.959009170532227,3.81712007522583
1751120217724543000,6.98354296875,-1.2127565145492554,-8.908659934997559,3.916041374206543
1751120217734487800,6.99348779296875,-1.161533236503601,-8.883349418640137,3.988398313522339
1751120217744433000,7.003432861328125,-1.0498076677322388,-8.900055885314941,3.9821231365203857
1751120217754377700,7.013377685546875,-0.9300244450569153,-8.963690757751465,3.86751651763916
1751120217764322800,7.02332275390625,-0.8103839755058289,-9.065539360046387,3.6509809494018555
1751120217774267600,7.033267578125,-0.6798020005226135,-9.186177253723145,3.3648769855499268
1751120217784212700,7.043212646484375,-0.5397669672966003,-9.3074951171875,3.0413129329681396
1751120217794157600,7.053157470703125,-0.3937036395072937,-9.419785499572754,2.698704719543457
1751120217814047500,7.073047607421875,-0.07542596757411957,-9.603492736816406,1.9843432903289795
1751120217823992300,7.082992431640625,0.1008988469839096,-9.67069149017334,1.6241687536239624
1751120217833937400,7.0929375,0.2901396155357361,-9.7194185256958,1.27244234085083
1751120217843882200,7.10288232421875,0.4909040033817291,-9.749502182006836,0.9362723231315613
1751120217853827300,7.112827392578125,0.6987529993057251,-9.761909484863281,0.6222878098487854
1751120217873717200,7.13271728515625,1.1244354248046875,-9.74160099029541,0.08512629568576813
1751120217883662000,7.142662109375,1.3479984998703003,-9.712623596191406,-0.1350470632314682
1751120217893607200,7.152607177734375,1.595237135887146,-9.670225143432617,-0.3351843059062958
1751120217903552000,7.162552001953125,1.8843300342559814,-9.608556747436523,-0.5434244275093079
1751120217913497000,7.1724970703125,2.1912286281585693,-9.52629566192627,-0.7865070700645447
1751120217923442000,7.18244189453125,2.4087133407592773,-9.446767807006836,-1.0616357326507568
1751120217933386800,7.19238671875,2.4787392616271973,-9.393208503723145,-1.3393512964248657
1751120217943331800,7.202331787109375,2.4214582443237305,-9.372013092041016,-1.5723514556884766
1751120217953276700,7.212276611328125,2.3322012424468994,-9.364263534545898,-1.7440736293792725
1751120217963221800,7.2222216796875,2.2640058994293213,-9.356255531311035,-1.8722078800201416
1751120217973166600,7.23216650390625,2.210367202758789,-9.346845626831055,-1.9801875352859497
1751120217983111700,7.242111572265625,2.15571665763855,-9.337218284606934,-2.083176851272583
1751120217993056500,7.252056396484375,2.0987586975097656,-9.326125144958496,-2.1883749961853027
1751120218003001600,7.262001708984375,2.047980785369873,-9.311089515686035,-2.297774076461792
1751120218012946400,7.271946533203125,2.0130090713500977,-9.289785385131836,-2.412067174911499
1751120218022891500,7.2818916015625,2.0009615421295166,-9.260284423828125,-2.5325236320495605
1751120218032836400,7.29183642578125,2.0145621299743652,-9.221264839172363,-2.660865306854248
1751120218042781200,7.30178125,2.0524723529815674,-9.172737121582031,-2.7961816787719727
1751120218052726300,7.311726318359375,2.1101412773132324,-9.11608600616455,-2.9350757598876953
1751120218062671000,7.321671142578125,2.182100296020508,-9.053484916687012,-3.0729880332946777
1751120218072616200,7.3316162109375,2.262284278869629,-8.988357543945312,-3.203418493270874
1751120218082561000,7.34156103515625,2.33886981010437,-8.925846099853516,-3.3210461139678955
1751120218092506000,7.351506103515625,2.3741328716278076,-8.875360488891602,-3.429558753967285
1751120218102451000,7.361450927734375,2.3177480697631836,-8.84792423248291,-3.537328004837036
1751120218112396000,7.37139599609375,2.169600009918213,-8.850029945373535,-3.6249399185180664
1751120218122340900,7.3813408203125,1.995726466178894,-8.875307083129883,-3.6628379821777344
1751120218132286000,7.391285888671875,1.8538728952407837,-8.912110328674316,-3.647991418838501
1751120218142230800,7.401230712890625,1.7250579595565796,-8.958521842956543,-3.5971436500549316
1751120218152175600,7.411175537109375,1.564332365989685,-9.01762866973877,-3.5221614837646484
1751120218162120700,7.42112060546875,1.3641889095306396,-9.088098526000977,-3.422839641571045
1751120218172065500,7.4310654296875,1.1552265882492065,-9.164915084838867,-3.29244327545166
1751120218182010600,7.4410107421875,0.9675044417381287,-9.244624137878418,-3.1259005069732666
1751120218191955500,7.45095556640625,0.8109140396118164,-9.326196670532227,-2.9214518070220947
1751120218201900500,7.460900634765625,0.6808111071586609,-9.40906810760498,-2.6788651943206787
1751120218211845400,7.470845458984375,0.5679083466529846,-9.492006301879883,-2.397850275039673
1751120218221790500,7.48079052734375,0.4693574905395508,-9.573604583740234,-2.0727224349975586
1751120218231735600,7.490735595703125,0.3874746263027191,-9.650490760803223,-1.6994909048080444
1751120218251625500,7.51062548828125,0.2695761024951935,-9.768939018249512,-0.8158000111579895
1751120218271515400,7.530515380859375,0.145411416888237,-9.803927421569824,0.17956127226352692
1751120218281460500,7.54046044921875,0.12276002019643784,-9.781250953674316,0.6945713758468628
1751120218291405600,7.550405517578125,0.14373837411403656,-9.731013298034668,1.207107663154602
1751120218301350400,7.560350341796875,0.19240382313728333,-9.657148361206055,1.694948434829712
1751120218311295500,7.57029541015625,0.2976451814174652,-9.566349983215332,2.1369919776916504
1751120218321240600,7.580240478515625,0.5058782696723938,-9.46560001373291,2.5133402347564697
1751120218331185400,7.590185302734375,0.7984828352928162,-9.364498138427734,2.799818277359009
1751120218341130500,7.600130615234375,1.1137813329696655,-9.27236557006836,2.9921767711639404
1751120218351075600,7.61007568359375,1.3864837884902954,-9.193438529968262,3.119094133377075
1751120218361020400,7.6200205078125,1.5620254278182983,-9.130589485168457,3.2191309928894043
1751120218370965500,7.629965576171875,1.6081591844558716,-9.086097717285156,3.3206980228424072
1751120218380910600,7.63991064453125,1.5364444255828857,-9.05742073059082,3.431159734725952
1751120218390855400,7.64985546875,1.383887529373169,-9.038308143615723,3.5446057319641113
1751120218400800500,7.659800537109375,1.1924519538879395,-9.023201942443848,3.651064395904541
1751120218410745300,7.669745361328125,0.991266131401062,-9.008838653564453,3.745476722717285
1751120218420690400,7.6796904296875,0.7895603179931641,-8.994443893432617,3.8271331787109375
1751120218430635500,7.689635498046875,0.5890660881996155,-8.979981422424316,3.8965790271759033
1751120218440580400,7.699580322265625,0.393319696187973,-8.966047286987305,3.9529356956481934
1751120218450525400,7.709525390625,0.2053908258676529,-8.954427719116211,3.993297576904297
1751120218460470500,7.719470458984375,0.026920782402157784,-8.947696685791016,4.013524532318115
1751120218470415400,7.729415283203125,-0.14310643076896667,-8.948198318481445,4.009944915771484
1751120218480360400,7.7393603515625,-0.30459585785865784,-8.95756721496582,3.979898452758789
1751120218490305500,7.749305419921875,-0.4560356140136719,-8.976102828979492,3.9232635498046875
1751120218500250400,7.75925048828125,-0.5904378890991211,-9.00190258026123,3.845454454421997
1751120218510195200,7.7691953125,-0.6947451829910278,-9.032618522644043,3.754932403564453
1751120218520140300,7.779140380859375,-0.7621952891349792,-9.06711196899414,3.6574485301971436
1751120218530085000,7.789085205078125,-0.7923717498779297,-9.10517406463623,3.5550453662872314
1751120218540030200,7.7990302734375,-0.8098300099372864,-9.147082328796387,3.4417216777801514
1751120218549975000,7.80897509765625,-0.8654658794403076,-9.191280364990234,3.307826280593872
1751120218559920000,7.818920166015625,-1.0380316972732544,-9.225907325744629,3.1584033966064453
1751120218569865000,7.828864990234375,-1.3302936553955078,-9.231369018554688,3.030266523361206
1751120218579810000,7.83881005859375,-1.5912806987762451,-9.209511756896973,2.9703736305236816
1751120218589755000,7.8487548828125,-1.600904941558838,-9.184438705444336,3.0419700145721436
1751120218599700000,7.858699951171875,-1.3371498584747314,-9.155770301818848,3.2487380504608154
1751120218609644800,7.868644775390625,-0.9544662237167358,-9.104341506958008,3.5171470642089844
1751120218619589600,7.878589599609375,-0.6031930446624756,-9.030057907104492,3.776853561401367
1751120218629534700,7.88853466796875,-0.34889912605285645,-8.950307846069336,3.9925734996795654
1751120218639479600,7.8984794921875,-0.17690710723400116,-8.886885643005371,4.142748832702637
1751120218649424600,7.908424560546875,-0.05803738906979561,-8.85890007019043,4.20557975769043
1751120218659369500,7.918369384765625,0.028095485642552376,-8.87044620513916,4.18148136138916
1751120218669314600,7.928314453125,0.1129772886633873,-8.906731605529785,4.1021647453308105
1751120218679259400,7.93825927734375,0.28697240352630615,-8.938371658325195,4.024120330810547
1751120218689204500,7.94820458984375,0.3562104105949402,-8.950091361999512,3.9924142360687256
1751120218699149300,7.9581494140625,0.2550973892211914,-8.949409484863281,4.001673698425293
1751120218709094100,7.96809423828125,0.05839098244905472,-8.94595718383789,4.017065525054932
1751120218719039200,7.978039306640625,-0.15444113314151764,-8.939342498779297,4.029229640960693
1751120218728984000,7.987984130859375,-0.3263135850429535,-8.926898002624512,4.046529293060303
1751120218738929200,7.99792919921875,-0.42286252975463867,-8.914091110229492,4.065779209136963
1751120218748874000,8.0078740234375,-0.4363647699356079,-8.913346290588379,4.065982818603516
1751120218758819000,8.017819091796875,-0.38683828711509705,-8.937917709350586,4.016759395599365
1751120218768764000,8.027763916015624,-0.29976898431777954,-8.993892669677734,3.8974897861480713
1751120218778709000,8.037708984375,-0.18909475207328796,-9.07779312133789,3.705171823501587
1751120218788653800,8.04765380859375,-0.06176227703690529,-9.179191589355469,3.4509437084198
1751120218798599000,8.057598876953126,0.07306964695453644,-9.286124229431152,3.1516575813293457
1751120218808543700,8.067543701171875,0.20800241827964783,-9.388936996459961,2.824000358581543
1751120218818488600,8.077488525390624,0.3412042260169983,-9.480399131774902,2.4851582050323486
1751120218828433700,8.08743359375,0.475709468126297,-9.555380821228027,2.153785228729248
1751120218838378500,8.09737841796875,0.6183986067771912,-9.611978530883789,1.8433231115341187
1751120218848323600,8.107323486328125,0.7681107521057129,-9.651915550231934,1.5559306144714355
1751120218858268400,8.117268310546875,0.9217550158500671,-9.678061485290527,1.2868109941482544
1751120218868213500,8.127213623046876,1.0773558616638184,-9.692234992980957,1.0345308780670166
1751120218878158300,8.137158447265625,1.2377568483352661,-9.695124626159668,0.8018121123313904
1751120218888103400,8.147103515625,1.4070993661880493,-9.687200546264648,0.5904325246810913
1751120218898048300,8.15704833984375,1.5880857706069946,-9.669034957885742,0.3976554870605469
1751120218917938200,8.176938232421875,2.0054733753204346,-9.599349021911621,0.03089849464595318
1751120218927883000,8.186883056640625,2.243943452835083,-9.544892311096191,-0.1735771894454956
1751120218937828000,8.196828125,2.480060338973999,-9.478878021240234,-0.41298651695251465
1751120218947773000,8.20677294921875,2.6767776012420654,-9.4090576171875,-0.689113199710846
1751120218957718000,8.216718017578126,2.7888894081115723,-9.349954605102539,-0.9853143692016602
1751120218967662800,8.226662841796875,2.7970988750457764,-9.312151908874512,-1.276890754699707
1751120218977608000,8.23660791015625,2.7202582359313965,-9.295015335083008,-1.5405405759811401
1751120218987552800,8.246552734375,2.6118431091308594,-9.284884452819824,-1.7718853950500488
1751120218997497900,8.256497802734375,2.5203940868377686,-9.267112731933594,-1.984595537185669
1751120219007442700,8.266442626953125,2.4653894901275635,-9.235054016113281,-2.192261219024658
1751120219017387800,8.2763876953125,2.4457051753997803,-9.189766883850098,-2.3952224254608154
1751120219027332600,8.28633251953125,2.455496311187744,-9.13464641571045,-2.588273525238037
1751120219037277400,8.29627734375,2.493812084197998,-9.070938110351562,-2.769364595413208
1751120219047223000,8.30622314453125,2.5612261295318604,-8.998274803161621,-2.939650297164917
1751120219057167600,8.316167724609375,2.6539928913116455,-8.917838096618652,-3.098206043243408
1751120219067112200,8.3261123046875,2.7580792903900146,-8.835577964782715,-3.239746332168579
1751120219077056500,8.336056396484375,2.8511481285095215,-8.762432098388672,-3.3557586669921875
1751120219087001000,8.3460009765625,2.905094861984253,-8.711443901062012,-3.4411568641662598
1751120219096945700,8.355945556640625,2.87331223487854,-8.693758010864258,-3.5118424892425537
1751120219106890200,8.36589013671875,2.739043951034546,-8.708057403564453,-3.5829808712005615
1751120219116835000,8.3758349609375,2.5410656929016113,-8.747537612915039,-3.632347822189331
1751120219126779600,8.385779541015625,2.359739065170288,-8.798748016357422,-3.630986213684082
1751120219136724500,8.395724365234376,2.224510908126831,-8.854158401489258,-3.5813140869140625
1751120219146669600,8.405669677734375,2.097414016723633,-8.915982246398926,-3.5037825107574463
1751120219156614700,8.41561474609375,1.9365310668945312,-8.989662170410156,-3.406789779663086
1751120219166559700,8.425559814453125,1.740224838256836,-9.075909614562988,-3.281747579574585
1751120219176504800,8.4355048828125,1.5381765365600586,-9.17017936706543,-3.1164398193359375
1751120219186450200,8.4454501953125,1.357295036315918,-9.269397735595703,-2.899381399154663
1751120219196395300,8.455395263671875,1.2022000551223755,-9.372743606567383,-2.6223628520965576
1751120219206340600,8.465340576171876,1.0582878589630127,-9.478614807128906,-2.281728506088257
1751120219216286000,8.475285888671875,0.9037766456604004,-9.582409858703613,-1.8790948390960693
1751120219226231000,8.48523095703125,0.72928786277771,-9.676311492919922,-1.4168649911880493
1751120219236176400,8.49517626953125,0.5416460037231445,-9.750383377075195,-0.8983460068702698
1751120219246121500,8.50512158203125,0.3449694812297821,-9.794777870178223,-0.33721452951431274
1751120219256066600,8.515066650390626,0.1369706094264984,-9.80273723602295,0.24076084792613983
1751120219275956500,8.53495654296875,-0.24011927843093872,-9.706995964050293,1.3736588954925537
1751120219285901300,8.5449013671875,-0.3169392943382263,-9.613076210021973,1.912773847579956
1751120219295846700,8.5548466796875,-0.23394271731376648,-9.50577449798584,2.399146556854248
1751120219305791200,8.564791259765625,0.020140159875154495,-9.406232833862305,2.7735815048217773
1751120219315735800,8.57473583984375,0.3613054156303406,-9.328324317932129,3.003699541091919
1751120219325680000,8.58468017578125,0.691277027130127,-9.270394325256348,3.122868537902832
1751120219335624700,8.594624755859375,0.9428932070732117,-9.223814010620117,3.1941494941711426
1751120219345569300,8.6045693359375,1.0583473443984985,-9.187554359436035,3.2617695331573486
1751120219355513900,8.614513916015625,1.0299676656723022,-9.164905548095703,3.3337762355804443
1751120219375403300,8.6344033203125,0.7143188118934631,-9.147355079650879,3.4620847702026367
1751120219385348400,8.644348388671874,0.5283011198043823,-9.142088890075684,3.5090572834014893
1751120219395293200,8.654293212890625,0.3468834161758423,-9.13587760925293,3.5476467609405518
1751120219405238300,8.66423828125,0.1702527403831482,-9.12791919708252,3.5808513164520264
1751120219415183000,8.67418310546875,-0.0011725416406989098,-9.118288040161133,3.6093227863311768
1751120219425128400,8.68412841796875,-0.1673537641763687,-9.107369422912598,3.632932186126709
1751120219435073500,8.694073486328126,-0.328668475151062,-9.095606803894043,3.6513404846191406
1751120219445018600,8.7040185546875,-0.48554563522338867,-9.083589553833008,3.663745641708374
1751120219454964000,8.7139638671875,-0.6403645277023315,-9.072628021240234,3.66711688041687
1751120219474854400,8.7338544921875,-0.9512279629707336,-9.059501647949219,3.63193941116333
1751120219484799700,8.7437998046875,-1.0960693359375,-9.057378768920898,3.596235990524292
1751120219494745000,8.7537451171875,-1.219992995262146,-9.056755065917969,3.557694435119629
1751120219504690200,8.763690185546874,-1.309787631034851,-9.0580415725708,3.5223169326782227
1751120219514635000,8.773635009765625,-1.3660151958465576,-9.062409400939941,3.489575147628784
1751120219524579800,8.783579833984374,-1.4027315378189087,-9.071582794189453,3.450958728790283
1751120219534525000,8.79352490234375,-1.4407782554626465,-9.086782455444336,3.3948373794555664
1751120219544472000,8.80347216796875,-1.529943823814392,-9.100250244140625,3.318902015686035
1751120219554414800,8.813414794921876,-1.684068202972412,-9.099021911621094,3.2468619346618652
1751120219564357600,8.823357666015625,-1.812842845916748,-9.087157249450684,3.210538625717163
1751120219574300700,8.83330078125,-1.7989877462387085,-9.079190254211426,3.2407314777374268
1751120219584244000,8.843243896484376,-1.5861353874206543,-9.074568748474121,3.3625528812408447
1751120219594187500,8.8531875,-1.2392786741256714,-9.05102825164795,3.565593957901001
1751120219604131000,8.863131103515625,-0.8662192821502686,-8.995753288269043,3.8074259757995605
1751120219614075400,8.873075439453125,-0.5378778576850891,-8.922457695007324,4.033710956573486
1751120219624020000,8.88302001953125,-0.2842040956020355,-8.85746955871582,4.19938850402832
1751120219633964800,8.89296484375,-0.0824473574757576,-8.824213027954102,4.277480125427246
1751120219643910100,8.90291015625,0.10983937978744507,-8.833560943603516,4.2575249671936035
1751120219653855700,8.912855712890625,0.28402769565582275,-8.874815940856934,4.162615776062012
1751120219663801600,8.922801513671875,0.4119161367416382,-8.928701400756836,4.034726142883301
1751120219673747700,8.932747802734376,0.4941301941871643,-8.98492431640625,3.898378849029541
1751120219683694000,8.942694091796875,0.5491570830345154,-9.043450355529785,3.7529749870300293
1751120219693640400,8.952640380859375,0.6141527891159058,-9.102961540222168,3.595733642578125
1751120219703587000,8.962587158203124,0.7221392393112183,-9.150798797607422,3.4513421058654785
1751120219713533400,8.972533447265626,0.8037114143371582,-9.178728103637695,3.3578827381134033
1751120219723478800,8.982478759765625,0.8126448392868042,-9.188516616821289,3.328836679458618
1751120219733423600,8.992423583984374,0.757841944694519,-9.184579849243164,3.352541446685791
1751120219743368700,9.00236865234375,0.6842224597930908,-9.16450023651123,3.4225943088531494
1751120219753313500,9.0123134765625,0.6429483890533447,-9.122156143188477,3.54164981842041
1751120219763258600,9.022258544921876,0.6417816281318665,-9.06350040435791,3.68937087059021
1751120219773203500,9.032203369140625,0.6521400213241577,-9.006169319152832,3.8254451751708984
1751120219783148300,9.042148193359376,0.6556591987609863,-8.970046043395996,3.908808946609497
1751120219793093000,9.052093017578125,0.6508748531341553,-8.970844268798828,3.9077751636505127
1751120219803038200,9.0620380859375,0.6415985226631165,-9.01317310333252,3.8107032775878906
1751120219812983000,9.071983154296875,0.631219744682312,-9.089599609375,3.626448154449463
1751120219832872700,9.091872802734375,0.6311335563659668,-9.287303924560547,3.0851333141326904
1751120219842817800,9.10181787109375,0.660007894039154,-9.381171226501465,2.7799994945526123
1751120219852762600,9.1117626953125,0.7192558646202087,-9.460997581481934,2.4784231185913086
1751120219862707500,9.12170751953125,0.8076172471046448,-9.525500297546387,2.1870028972625732
1751120219872652300,9.13165234375,0.9190751910209656,-9.576125144958496,1.9035521745681763
1751120219882597400,9.141597412109375,1.0436768531799316,-9.614394187927246,1.626208782196045
1751120219892542200,9.151542236328124,1.1753993034362793,-9.64094352722168,1.3568484783172607
1751120219902487000,9.161487060546875,1.3119267225265503,-9.656231880187988,1.0983760356903076
1751120219912431900,9.171431884765624,1.4539991617202759,-9.660802841186523,0.8515665531158447
1751120219922377000,9.181376953125,1.6021933555603027,-9.655279159545898,0.6156038045883179
1751120219932321800,9.19132177734375,1.7580716609954834,-9.639966011047363,0.3881123960018158
1751120219942266600,9.2012666015625,1.9313756227493286,-9.613260269165039,0.15937550365924835
1751120219952211500,9.21121142578125,2.140594959259033,-9.569725036621094,-0.09274395555257797
1751120219962156500,9.221156494140626,2.3843302726745605,-9.504451751708984,-0.3882860839366913
1751120219972101400,9.231101318359375,2.6261250972747803,-9.42116641998291,-0.7179656624794006
1751120219982046200,9.241046142578124,2.82352352142334,-9.33282470703125,-1.0471365451812744
1751120220001936100,9.26093603515625,3.028455972671509,-9.19162368774414,-1.585209608078003
1751120220011881000,9.270880859375,3.0444540977478027,-9.149399757385254,-1.7861037254333496
1751120220021825800,9.28082568359375,3.019162178039551,-9.12063980102539,-1.9669748544692993
1751120220031770600,9.2907705078125,2.9721145629882812,-9.097755432128906,-2.1372361183166504
1751120220041715700,9.3007158203125,2.9272851943969727,-9.075392723083496,-2.288809299468994
1751120220051660500,9.31066064453125,2.900568962097168,-9.05152702331543,-2.413905382156372
1751120220061605400,9.32060546875,2.8960115909576416,-9.026211738586426,-2.512172222137451
1751120220071550200,9.33055029296875,2.9147019386291504,-8.998722076416016,-2.5880281925201416
1751120220081495300,9.340495361328125,2.956549882888794,-8.967497825622559,-2.648242712020874
1751120220091440000,9.350440185546875,3.020376205444336,-8.930818557739258,-2.699665069580078
1751120220101385200,9.36038525390625,3.101261854171753,-8.889190673828125,-2.744967222213745
1751120220111330000,9.370330078125,3.1898348331451416,-8.846673011779785,-2.78059720993042
1751120220121275000,9.38027490234375,3.2683069705963135,-8.809762001037598,-2.8065345287323
1751120220131220000,9.390219970703125,3.3150551319122314,-8.783774375915527,-2.833035469055176
1751120220141164800,9.400164794921874,3.3048722743988037,-8.773116111755371,-2.8776118755340576
1751120220151110000,9.41010986328125,3.227174997329712,-8.779623985290527,-2.9451520442962646
1751120220161054700,9.4200546875,3.098635673522949,-8.800627708435059,-3.0195696353912354
1751120220180944600,9.439944580078125,2.8152523040771484,-8.859430313110352,-3.123337984085083
1751120220190889700,9.4498896484375,2.682965040206909,-8.887682914733887,-3.1592984199523926
1751120220200834600,9.45983447265625,2.5506515502929688,-8.91671371459961,-3.18696928024292
1751120220210779600,9.469779541015624,2.4171104431152344,-8.951604843139648,-3.19323468208313
1751120220220724500,9.479724365234375,2.281981945037842,-8.995861053466797,-3.1681900024414062
1751120220230669300,9.48966943359375,2.147876501083374,-9.050271987915039,-3.1063790321350098
1751120220240614400,9.499614501953126,2.027409076690674,-9.112838745117188,-3.002695083618164
1751120220250559200,9.509559326171875,1.9335882663726807,-9.181160926818848,-2.85270357131958
1751120220260504300,9.51950439453125,1.85968816280365,-9.256309509277344,-2.651923656463623
1751120220270449200,9.52944921875,1.77423095703125,-9.343266487121582,-2.3928792476654053
1751120220280394200,9.539394287109374,1.6442791223526,-9.443647384643555,-2.0698421001434326
1751120220290339000,9.549339111328125,1.4634746313095093,-9.551017761230469,-1.6753151416778564
1751120220300284200,9.5592841796875,1.2572869062423706,-9.65103816986084,-1.2029540538787842
1751120220310229000,9.56922900390625,1.0470772981643677,-9.728571891784668,-0.6549025774002075
1751120220320174000,9.579174072265625,0.8315689563751221,-9.771196365356445,-0.050875816494226456
1751120220330119000,9.589118896484376,0.6103212833404541,-9.770724296569824,0.5751917958259583
1751120220340063700,9.599063720703125,0.43124574422836304,-9.724517822265625,1.1908624172210693
1751120220350008800,9.6090087890625,0.3779449462890625,-9.637203216552734,1.7753429412841797
1751120220359953700,9.61895361328125,0.4916094243526459,-9.520560264587402,2.2994887828826904
1751120220369898800,9.628898681640624,0.7296352982521057,-9.394021987915039,2.7185232639312744
1751120220379843600,9.638843505859375,0.9705775380134583,-9.281920433044434,3.0123589038848877
1751120220389788700,9.64878857421875,1.1087698936462402,-9.198162078857422,3.214782953262329
1751120220399733500,9.6587333984375,1.1282843351364136,-9.13876724243164,3.373467445373535
1751120220409678600,9.6686787109375,1.0961776971817017,-9.094246864318848,3.501922130584717
1751120220419623400,9.67862353515625,1.0462284088134766,-9.061739921569824,3.600093126296997
1751120220429568500,9.688568603515625,0.9598597288131714,-9.040918350219727,3.6757099628448486
1751120220439513300,9.698513427734374,0.8215608596801758,-9.028342247009277,3.7395811080932617
1751120220449458200,9.708458251953125,0.642389714717865,-9.017250061035156,3.8009140491485596
1751120220459403300,9.7184033203125,0.4491245150566101,-9.000887870788574,3.8668696880340576
1751120220469348000,9.72834814453125,0.26274561882019043,-8.975232124328613,3.9429121017456055
1751120220479293200,9.738293212890625,0.08598346263170242,-8.939106941223145,4.031795501708984
1751120220489238000,9.748238037109376,-0.09034743905067444,-8.892333030700684,4.1338419914245605
1751120220499183000,9.75818310546875,-0.27326837182044983,-8.834847450256348,4.247490406036377
1751120220509128000,9.7681279296875,-0.4661828875541687,-8.76877498626709,4.365962982177734
1751120220519073000,9.778072998046875,-0.6704490184783936,-8.698546409606934,4.478413105010986
1751120220529017900,9.788017822265624,-0.8853456377983093,-8.629129409790039,4.574347496032715
1751120220538962700,9.797962646484375,-1.1022064685821533,-8.565040588378906,4.647108554840088
1751120220548907800,9.80790771484375,-1.307345986366272,-8.510278701782227,4.694292068481445
1751120220558852600,9.8178525390625,-1.493064522743225,-8.468826293945312,4.713823318481445
1751120220568797700,9.827797607421875,-1.6537771224975586,-8.445448875427246,4.702105522155762
1751120220578742500,9.837742431640624,-1.7825978994369507,-8.445150375366211,4.655337810516357
1751120220588687600,9.8476875,-1.8720511198043823,-8.469961166381836,4.5744476318359375
1751120220598632400,9.857632568359374,-1.9263545274734497,-8.51491928100586,4.467179298400879
1751120220608577500,9.86757763671875,-1.9580798149108887,-8.56710147857666,4.352134704589844
1751120220618522400,9.8775224609375,-1.9427310228347778,-8.614874839782715,4.263814449310303
1751120220628467500,9.887467529296876,-1.8055224418640137,-8.661162376403809,4.230216979980469
1751120220638412300,9.897412353515625,-1.559212327003479,-8.69874382019043,4.251012325286865
1751120220648357000,9.907357177734376,-1.24916410446167,-8.713540077209473,4.32252311706543
1751120220658302200,9.91730224609375,-0.9191935062408447,-8.705290794372559,4.42078971862793
1751120220668247000,9.9272470703125,-0.6234991550445557,-8.696440696716309,4.489272117614746
1751120220678192000,9.937192138671875,-0.4073133170604706,-8.713643074035645,4.4807257652282715
1751120220688137000,9.947136962890625,-0.27328890562057495,-8.761004447937012,4.397782802581787
1751120220698082000,9.95708203125,-0.19674281775951385,-8.823796272277832,4.274610996246338
1751120220708027000,9.96702685546875,-0.13276761770248413,-8.88813591003418,4.141712665557861
1751120220717972000,9.976971923828126,0.05000465735793114,-8.943971633911133,4.021599769592285
1751120220727916800,9.986916748046875,0.35348209738731384,-8.972661972045898,3.94167160987854
1751120220737862000,9.99686181640625,0.5426067113876343,-8.973115921020508,3.9190754890441895
1751120220747806700,10.006806640625,0.521917998790741,-8.957700729370117,3.9569664001464844
1751120220757751600,10.01675146484375,0.344377338886261,-8.941559791564941,4.012518882751465
1751120220767696600,10.026696533203125,0.1228126659989357,-8.93066120147705,4.049517631530762
1751120220777641500,10.036641357421875,0.006488170474767685,-8.920321464538574,4.074090003967285
1751120220787586600,10.046586669921876,0.050402626395225525,-8.909863471984863,4.0966081619262695
1751120220797531400,10.056531494140625,0.1717132031917572,-8.9055757522583,4.102636337280273
1751120220807476500,10.0664765625,0.2861061990261078,-8.918148040771484,4.068803787231445
1751120220817421300,10.07642138671875,0.3677219748497009,-8.954832077026367,3.9807212352752686
1751120220827366100,10.0863662109375,0.4182630777359009,-9.016169548034668,3.8345959186553955
1751120220837311000,10.09631103515625,0.44315558671951294,-9.097650527954102,3.63411021232605
1751120220847256000,10.106256103515625,0.4487750828266144,-9.191230773925781,3.389728307723999
1751120220857201000,10.116200927734376,0.44335997104644775,-9.287613868713379,3.116737127304077
1751120220867145700,10.126145751953125,0.43663227558135986,-9.37956714630127,2.829041004180908
1751120220877090600,10.136090576171876,0.44179844856262207,-9.462642669677734,2.5364551544189453
1751120220896980500,10.15598046875,0.5309593081474304,-9.595099449157715,1.9551291465759277
1751120220906925300,10.16592529296875,0.6120416522026062,-9.644424438476562,1.6675951480865479
1751120220916870100,10.1758701171875,0.7087870836257935,-9.682848930358887,1.382189154624939
1751120220926815200,10.185815185546875,0.816954493522644,-9.710344314575195,1.1009942293167114
1751120220936760000,10.195760009765625,0.9330323338508606,-9.727068901062012,0.8270150423049927
1751120220946705000,10.205704833984376,1.055797815322876,-9.73342514038086,0.5622467994689941
1751120220956649700,10.215649658203125,1.1849842071533203,-9.729974746704102,0.3062717616558075
1751120220966594800,10.2255947265625,1.3204704523086548,-9.717168807983398,0.05798289552330971
1751120220976539600,10.23553955078125,1.46364164352417,-9.695069313049316,-0.1838219165802002
1751120220996429300,10.25542919921875,1.7734707593917847,-9.622543334960938,-0.6571511030197144
1751120221006374400,10.26537451171875,1.925122618675232,-9.57485580444336,-0.8868077397346497
1751120221016319200,10.2753193359375,2.0563673973083496,-9.524789810180664,-1.1045856475830078
1751120221026264000,10.28526416015625,2.1580374240875244,-9.47690200805664,-1.3044544458389282
1751120221036209000,10.295208984375,2.2286174297332764,-9.433695793151855,-1.4862806797027588
1751120221046154000,10.305154052734375,2.2706360816955566,-9.395732879638672,-1.6537249088287354
1751120221056098800,10.315098876953124,2.287849187850952,-9.363228797912598,-1.807228922843933
1751120221066043600,10.325043701171875,2.2871956825256348,-9.335691452026367,-1.9452519416809082
1751120221075988500,10.334988525390624,2.2802066802978516,-9.310298919677734,-2.071082592010498
1751120221085933600,10.34493359375,2.2808427810668945,-9.282084465026855,-2.193410634994507
1751120221095878400,10.35487841796875,2.2978153228759766,-9.246847152709961,-2.320829391479492
1751120221105823200,10.3648232421875,2.329587459564209,-9.203917503356934,-2.455873489379883
1751120221115768000,10.37476806640625,2.3664803504943848,-9.156469345092773,-2.5940768718719482
1751120221125713200,10.384713134765626,2.3973848819732666,-9.110148429870605,-2.725459575653076
1751120221135658000,10.394657958984375,2.412919044494629,-9.071785926818848,-2.8374123573303223
1751120221145602800,10.404602783203124,2.4070518016815186,-9.047863006591797,-2.9176456928253174
1751120221155547600,10.414547607421875,2.377047061920166,-9.042001724243164,-2.9601078033447266
1751120221165492700,10.42449267578125,2.324831247329712,-9.053194046020508,-2.9673571586608887
1751120221185382400,10.44438232421875,2.1742453575134277,-9.110888481140137,-2.9042654037475586
1751120221195327200,10.4543271484375,2.084451198577881,-9.152033805847168,-2.840023994445801
1751120221205272300,10.464272216796875,1.9829223155975342,-9.200000762939453,-2.756516695022583
1751120221215217200,10.474217041015624,1.8690769672393799,-9.252938270568848,-2.6570773124694824
1751120221225162000,10.484161865234375,1.7492403984069824,-9.3085355758667,-2.5419888496398926
1751120221235106800,10.49410693359375,1.6284881830215454,-9.365599632263184,-2.4091410636901855
1751120221245052000,10.504052001953125,1.4967772960662842,-9.425280570983887,-2.257018804550171
1751120221254996700,10.513996826171875,1.332781195640564,-9.491365432739258,-2.075585126876831
1751120221264941600,10.523941650390626,1.1269242763519287,-9.567889213562012,-1.8319203853607178
1751120221274886400,10.533886474609375,0.8939659595489502,-9.65014362335205,-1.4986495971679688
1751120221284831500,10.54383154296875,0.6610204577445984,-9.724185943603516,-1.0833572149276733
1751120221294777600,10.553777587890625,0.4303973615169525,-9.778286933898926,-0.6084906458854675
1751120221304722400,10.563722412109374,0.192405104637146,-9.804336547851562,-0.09148743748664856
1751120221314667500,10.57366748046875,-0.05543297901749611,-9.796013832092285,0.4532456398010254
1751120221324612400,10.5836123046875,-0.30359119176864624,-9.750049591064453,1.0073496103286743
1751120221334557200,10.59355712890625,-0.5108643770217896,-9.670031547546387,1.5491613149642944
1751120221344502000,10.603501953125,-0.6112027764320374,-9.568785667419434,2.0579519271850586
1751120221354447000,10.613447021484374,-0.5615252256393433,-9.465025901794434,2.5036661624908447
1751120221364392000,10.623391845703125,-0.38163623213768005,-9.377199172973633,2.8448002338409424
1751120221374336800,10.633336669921874,-0.13108140230178833,-9.316160202026367,3.0597965717315674
1751120221384281600,10.643281494140625,0.13582724332809448,-9.27799129486084,3.173456907272339
1751120221394226700,10.653226806640625,0.3874470889568329,-9.252138137817383,3.2277262210845947
1751120221404171500,10.663171630859376,0.5892078280448914,-9.23131275177002,3.256701707839966
1751120221414116400,10.673116455078125,0.6931158900260925,-9.212088584899902,3.2905006408691406
1751120221424061200,10.683061279296876,0.7221308946609497,-9.190605163574219,3.343902349472046
1751120221434006300,10.69300634765625,0.6950290203094482,-9.160422325134277,3.431323289871216
1751120221443951000,10.702951171875,0.6356613039970398,-9.118241310119629,3.5530264377593994
1751120221453896000,10.71289599609375,0.5521656274795532,-9.066225051879883,3.697169065475464
1751120221463840800,10.7228408203125,0.44030818343162537,-9.009276390075684,3.848304510116577
1751120221473785900,10.732785888671875,0.2957550287246704,-8.952199935913086,3.9926226139068604
1751120221483730700,10.742730712890625,0.11847955733537674,-8.898014068603516,4.120886325836182
1751120221493675500,10.752675537109376,-0.08210530132055283,-8.84800910949707,4.228046417236328
1751120221503620400,10.762620361328125,-0.2861454486846924,-8.80257797241211,4.313133239746094
1751120221513565400,10.7725654296875,-0.47456029057502747,-8.762479782104492,4.377684116363525
1751120221523510300,10.78251025390625,-0.6406970024108887,-8.72827434539795,4.424603462219238
1751120221533455000,10.792455078125,-0.7882500886917114,-8.70014762878418,4.45605993270874
1751120221543400000,10.80239990234375,-0.9228891134262085,-8.678055763244629,4.473254680633545
1751120221563289900,10.822289794921875,-1.1734397411346436,-8.64854621887207,4.471697807312012
1751120221573234700,10.832234619140625,-1.289900302886963,-8.640932083129883,4.454305171966553
1751120221583179500,10.842179443359376,-1.390605092048645,-8.641755104064941,4.422290802001953
1751120221593124600,10.85212451171875,-1.4600434303283691,-8.655380249023438,4.372989654541016
1751120221603069400,10.8620693359375,-1.4841666221618652,-8.683801651000977,4.308043479919434
1751120221613014300,10.87201416015625,-1.4655852317810059,-8.723747253417969,4.23304557800293
1751120221622959000,10.881958984375,-1.4175983667373657,-8.766779899597168,4.159852027893066
1751120221632904200,10.891904296875,-1.349047303199768,-8.804530143737793,4.102525234222412
1751120221642849000,10.90184912109375,-1.2537543773651123,-8.831188201904297,4.075363636016846
1751120221652793900,10.9117939453125,-1.1172661781311035,-8.842222213745117,4.091111660003662
1751120221662738700,10.92173876953125,-0.9335602521896362,-8.838356971740723,4.145153999328613
1751120221672683800,10.931683837890626,-0.7031742930412292,-8.83372974395752,4.200137138366699
1751120221682628600,10.941628662109375,-0.45524850487709045,-8.84706974029541,4.206244945526123
1751120221692573400,10.951573486328124,-0.2395220249891281,-8.88601016998291,4.141479015350342
1751120221702518300,10.961518310546875,-0.08457119017839432,-8.94340705871582,4.022275924682617
1751120221712463400,10.97146337890625,0.014269211329519749,-9.006678581237793,3.879422664642334
1751120221732353000,10.99135302734375,0.08258601278066635,-9.114754676818848,3.6172919273376465
1751120221742297900,11.0012978515625,0.09179763495922089,-9.143919944763184,3.542694091796875
1751120221752243000,11.011242919921875,0.1403796523809433,-9.151226997375488,3.5221786499023438
1751120221762187800,11.021187744140626,0.19470342993736267,-9.143680572509766,3.5391504764556885
1751120221772132600,11.031132568359375,0.22316598892211914,-9.132256507873535,3.5668563842773438
1751120221782077400,11.041077392578124,0.25896164774894714,-9.122657775878906,3.588933229446411
1751120221792022500,11.0510224609375,0.3370625376701355,-9.113818168640137,3.6048707962036133
1751120221801967400,11.06096728515625,0.4334038197994232,-9.105134010314941,3.6165003776550293
1751120221811912200,11.070912109375,0.5014936327934265,-9.10180377960205,3.616084098815918
1751120221831802000,11.090802001953126,0.5231402516365051,-9.137710571289062,3.5212156772613525
1751120221841747000,11.100746826171875,0.5061601996421814,-9.18115234375,3.408905506134033
1751120221851691800,11.11069189453125,0.4718530774116516,-9.238118171691895,3.2565174102783203
1751120221871581700,11.130581787109374,0.34531688690185547,-9.369718551635742,2.8739376068115234
1751120221881526500,11.140526611328125,0.27791649103164673,-9.433876991271973,2.663665294647217
1751120221891471400,11.150471435546875,0.2202768325805664,-9.492779731750488,2.4513251781463623
1751120221901416200,11.160416259765626,0.18047310411930084,-9.545646667480469,2.240192174911499
1751120221911361300,11.170361328125,0.16760501265525818,-9.592473030090332,2.031440496444702
1751120221921306000,11.18030615234375,0.18904438614845276,-9.633829116821289,1.8231830596923828
1751120221931251200,11.190251220703125,0.2485494166612625,-9.670307159423828,1.610514760017395
1751120221941196000,11.200196044921874,0.34419819712638855,-9.701483726501465,1.390373706817627
1751120221951140900,11.210140869140625,0.46565675735473633,-9.726271629333496,1.1632659435272217
1751120221971030800,11.23003076171875,0.731585681438446,-9.753926277160645,0.7043394446372986
1751120221980975900,11.239975830078125,0.8666102886199951,-9.756494522094727,0.4797877073287964
1751120221990920700,11.249920654296876,1.0019807815551758,-9.751874923706055,0.25957411527633667
1751120222000865800,11.25986572265625,1.1329877376556396,-9.74088191986084,0.043963585048913956
1751120222010810600,11.269810546875,1.2558876276016235,-9.724493980407715,-0.16536639630794525
1751120222020755700,11.279755615234375,1.3710936307907104,-9.703371047973633,-0.3675207197666168
1751120222030700500,11.289700439453124,1.4792702198028564,-9.677966117858887,-0.5649135708808899
1751120222040645600,11.299645751953125,1.5792157649993896,-9.648675918579102,-0.7612711787223816
1751120222050590500,11.309590576171875,1.6700929403305054,-9.615642547607422,-0.9594735503196716
1751120222060535300,11.319535400390626,1.7542941570281982,-9.578411102294922,-1.1605501174926758
1751120222070480400,11.32948046875,1.8349947929382324,-9.536662101745605,-1.362074851989746
1751120222080425200,11.33942529296875,1.9126100540161133,-9.490898132324219,-1.5605021715164185
1751120222090370300,11.349370361328125,1.9862148761749268,-9.44216251373291,-1.7524011135101318
1751120222100315100,11.359315185546874,2.056391716003418,-9.391454696655273,-1.9344830513000488
1751120222110260200,11.36926025390625,2.1266114711761475,-9.338859558105469,-2.1056149005889893
1751120222120205000,11.379205078125,2.2023396492004395,-9.2839937210083,-2.2644073963165283
1751120222130150100,11.389150146484376,2.285712718963623,-9.227712631225586,-2.4073235988616943
1751120222140095000,11.399094970703125,2.373349666595459,-9.171799659729004,-2.53292179107666
1751120222150040000,11.4090400390625,2.4565062522888184,-9.118263244628906,-2.644477367401123
1751120222159985000,11.41898486328125,2.5229411125183105,-9.06994342803955,-2.746142625808716
1751120222169929700,11.4289296875,2.5577847957611084,-9.031832695007324,-2.837977886199951
1751120222179874800,11.438874755859375,2.5548791885375977,-9.008427619934082,-2.913968563079834
1751120222189819600,11.448819580078125,2.523338556289673,-9.001054763793945,-2.9638099670410156
1751120222199764700,11.4587646484375,2.4834609031677246,-9.005995750427246,-2.9824249744415283
1751120222209709600,11.46870947265625,2.4490604400634766,-9.018738746643066,-2.9723458290100098
1751120222219654700,11.478654541015626,2.4218344688415527,-9.036271095275879,-2.9412412643432617
1751120222229599500,11.488599609375,2.395524501800537,-9.057271003723145,-2.897876262664795
1751120222239544600,11.498544677734374,2.3574090003967285,-9.083511352539062,-2.846545457839966
1751120222249489400,11.508489501953125,2.291217803955078,-9.119109153747559,-2.7861368656158447
1751120222259434200,11.518434326171874,2.188213348388672,-9.166858673095703,-2.7112386226654053
1751120222269379300,11.52837939453125,2.0548388957977295,-9.226369857788086,-2.61191987991333
1751120222279324200,11.53832421875,1.9064853191375732,-9.295331001281738,-2.476393461227417
1751120222289269000,11.54826904296875,1.75236976146698,-9.370750427246094,-2.2997007369995117
1751120222299213800,11.5582138671875,1.5929791927337646,-9.447940826416016,-2.090263605117798
1751120222309159000,11.568158935546874,1.4296610355377197,-9.521331787109375,-1.8629800081253052
1751120222319103700,11.578103759765625,1.2582728862762451,-9.590958595275879,-1.6126527786254883
1751120222329048600,11.588048583984374,1.059559941291809,-9.659991264343262,-1.316160798072815
1751120222338993400,11.597993408203125,0.8214232325553894,-9.724839210510254,-0.9608131051063538
1751120222348938500,11.6079384765625,0.5487010478973389,-9.77591323852539,-0.5484876036643982
1751120222358883300,11.61788330078125,0.25027769804000854,-9.80308723449707,-0.08508278429508209
1751120222368828200,11.627828125,-0.06222318485379219,-9.797468185424805,0.4196914732456207
1751120222378773000,11.63777294921875,-0.35422706604003906,-9.753989219665527,0.9511088132858276
1751120222388718000,11.647718017578125,-0.5561557412147522,-9.6771821975708,1.4876898527145386
1751120222398663000,11.657662841796874,-0.6032153964042664,-9.582843780517578,1.9938976764678955
1751120222408607700,11.667607666015625,-0.49267369508743286,-9.489788055419922,2.4231314659118652
1751120222418552600,11.677552490234374,-0.28243711590766907,-9.412212371826172,2.73877215385437
1751120222428497700,11.68749755859375,-0.036398861557245255,-9.354605674743652,2.9428608417510986
1751120222438442500,11.6974423828125,0.21402861177921295,-9.311327934265137,3.0698118209838867
1751120222448387300,11.70738720703125,0.431404173374176,-9.274007797241211,3.1586456298828125
1751120222458332200,11.717332275390625,0.539874255657196,-9.236837387084961,3.2495784759521484
1751120222468277200,11.72727734375,0.5414918661117554,-9.197074890136719,3.36020827293396
1751120222478222000,11.73722216796875,0.4626924693584442,-9.147712707519531,3.503661870956421
1751120222488167000,11.7471669921875,0.3493468463420868,-9.083796501159668,3.6787214279174805
1751120222498111700,11.75711181640625,0.2212226241827011,-9.006036758422852,3.8746306896209717
1751120222508056800,11.767056884765625,0.07722911983728409,-8.91926383972168,4.075679302215576
1751120222518001700,11.777001708984375,-0.08415554463863373,-8.83041763305664,4.264626502990723
1751120222527946500,11.786946533203125,-0.25411456823349,-8.74694538116455,4.426822185516357
1751120222537891300,11.796891357421876,-0.41630712151527405,-8.673744201660156,4.55666971206665
1751120222547836400,11.80683642578125,-0.558333694934845,-8.612112045288086,4.6572699546813965
1751120222557781200,11.81678125,-0.6791284680366516,-8.56074047088623,4.7352824211120605
1751120222567726000,11.82672607421875,-0.7877576351165771,-8.518423080444336,4.794402122497559
1751120222577671000,11.8366708984375,-0.8951001763343811,-8.485428810119629,4.833909511566162
1751120222587616000,11.846615966796875,-1.006041407585144,-8.463286399841309,4.850881576538086
1751120222597560800,11.856560791015625,-1.1174321174621582,-8.453624725341797,4.843339920043945
1751120222607505700,11.866505615234376,-1.217881441116333,-8.456253051757812,4.814449787139893
1751120222617450500,11.876450439453125,-1.2920596599578857,-8.469927787780762,4.770880222320557
1751120222627395600,11.8863955078125,-1.3326627016067505,-8.495354652404785,4.714166641235352
1751120222637340400,11.89634033203125,-1.3383029699325562,-8.537059783935547,4.636586666107178
1751120222647285200,11.90628515625,-1.3071013689041138,-8.599160194396973,4.5294952392578125
1751120222657230000,11.91622998046875,-1.2463027238845825,-8.678458213806152,4.393346309661865
1751120222667175200,11.926175048828124,-1.1658130884170532,-8.764578819274902,4.241866111755371
1751120222677120000,11.9361201171875,-1.0693392753601074,-8.848426818847656,4.0905070304870605
1751120222687064800,11.94606494140625,-0.954255223274231,-8.92553997039795,3.9489896297454834
1751120222697009700,11.956009765625,-0.8092207312583923,-8.992524147033691,3.8275411128997803
1751120222706954800,11.965954833984375,-0.6278386116027832,-9.044994354248047,3.7368812561035156
1751120222716899600,11.975899658203126,-0.4043780565261841,-9.082921981811523,3.6752405166625977
1751120222726844400,11.985844482421875,-0.16153588891029358,-9.113920211791992,3.6167335510253906
1751120222736789200,11.995789306640624,0.05960170179605484,-9.152058601379395,3.5223076343536377
1751120222746734300,12.005734375,0.23218022286891937,-9.204999923706055,3.3740856647491455
1751120222756679200,12.01567919921875,0.3515779972076416,-9.267308235168457,3.188066005706787
1751120222766624000,12.0256240234375,0.42866358160972595,-9.329275131225586,2.9918668270111084
1751120222776568800,12.03556884765625,0.5060495734214783,-9.382893562316895,2.8063528537750244
1751120222786514000,12.045513916015626,0.6707637310028076,-9.415817260742188,2.657604932785034
1751120222796459300,12.055459228515625,0.903536856174469,-9.41897201538086,2.576235294342041
1751120222806404000,12.065404052734374,1.0575532913208008,-9.40111255645752,2.582841157913208
1751120222816349200,12.07534912109375,1.0644527673721313,-9.377128601074219,2.665853977203369
1751120222826294000,12.0852939453125,1.0588370561599731,-9.350939750671387,2.758474588394165
1751120222836238800,12.09523876953125,1.241081953048706,-9.318120002746582,2.7933406829833984
1751120222846183700,12.10518359375,1.4833176136016846,-9.281496047973633,2.7971413135528564
1751120222856128800,12.115128662109376,1.6036417484283447,-9.249279975891113,2.837167739868164
1751120222866073600,12.125073486328125,1.5757910013198853,-9.22361946105957,2.934641122817993
1751120222876018400,12.135018310546876,1.451158046722412,-9.206491470336914,3.050415277481079
1751120222885963300,12.14496337890625,1.2776302099227905,-9.203324317932129,3.136378765106201
1751120222895908400,12.154908447265624,1.0722203254699707,-9.220978736877441,3.161374807357788
1751120222905853200,12.164853271484375,0.8427645564079285,-9.260981559753418,3.113574266433716
1751120222915798000,12.174798095703125,0.6140057444572449,-9.31626033782959,3.0001156330108643
1751120222925742800,12.184742919921876,0.4189728796482086,-9.376136779785156,2.8430469036102295
1751120222935688000,12.19468798828125,0.2755405902862549,-9.432758331298828,2.6678709983825684
1751120222945632800,12.2046328125,0.18417136371135712,-9.482705116271973,2.4929440021514893
1751120222955577600,12.21457763671875,0.13829143345355988,-9.526208877563477,2.3243489265441895
1751120222965522400,12.2245224609375,0.1304132491350174,-9.565786361694336,2.1561810970306396
1751120222975467500,12.234467529296875,0.15398892760276794,-9.603599548339844,1.9792771339416504
1751120222985412400,12.244412353515624,0.20181408524513245,-9.640007019042969,1.788832187652588
1751120222995357200,12.254357177734375,0.26850059628486633,-9.673736572265625,1.5865416526794434
1751120223005302000,12.264302001953125,0.351915180683136,-9.703030586242676,1.3775845766067505
1751120223015247000,12.2742470703125,0.4526158273220062,-9.7265625,1.1659770011901855
1751120223025192000,12.28419189453125,0.5740493535995483,-9.743332862854004,0.9530572891235352
1751120223035136800,12.29413671875,0.7237030863761902,-9.752079963684082,0.7372809648513794
1751120223045081600,12.30408154296875,0.9054595828056335,-9.751120567321777,0.5159288644790649
1751120223055026700,12.314026611328124,1.1067519187927246,-9.739681243896484,0.28997376561164856
1751120223064971500,12.323971435546875,1.3031235933303833,-9.719460487365723,0.06591054052114487
1751120223074916400,12.333916259765624,1.4728164672851562,-9.694290161132812,-0.14812341332435608
1751120223084861200,12.343861083984375,1.6073379516601562,-9.667708396911621,-0.3496532142162323
1751120223094806300,12.35380615234375,1.7141456604003906,-9.640273094177246,-0.5451947450637817
1751120223104751000,12.363751220703126,1.8126095533370972,-9.608633041381836,-0.7476693987846375
1751120223114696000,12.373696044921875,1.9230406284332275,-9.56761646270752,-0.9659242033958435
1751120223124640800,12.383640869140624,2.0492806434631348,-9.515543937683105,-1.1938384771347046
1751120223134585900,12.3935859375,2.174179792404175,-9.457818984985352,-1.4117354154586792
1751120223144530700,12.40353076171875,2.267807960510254,-9.405414581298828,-1.6017576456069946
1751120223154475500,12.4134755859375,2.3081746101379395,-9.36762523651123,-1.7579305171966553
1751120223164420400,12.42342041015625,2.292998790740967,-9.348442077636719,-1.8759431838989258
1751120223174365200,12.433365234375,2.243196725845337,-9.34543514251709,-1.9496914148330688
1751120223184310300,12.443310302734375,2.183640956878662,-9.353093147277832,-1.9803364276885986
1751120223194255000,12.453255126953126,2.1221344470977783,-9.368371963500977,-1.9749784469604492
1751120223204200000,12.463199951171875,2.052666425704956,-9.391157150268555,-1.9398760795593262
1751120223214144800,12.473144775390624,1.9650858640670776,-9.422403335571289,-1.878069519996643
1751120223224089900,12.48308984375,1.8508812189102173,-9.462940216064453,-1.7881269454956055
1751120223234034700,12.49303466796875,1.7052228450775146,-9.512561798095703,-1.6654666662216187
1751120223243979500,12.5029794921875,1.5259116888046265,-9.5691499710083,-1.5077639818191528
1751120223253924400,12.51292431640625,1.3140485286712646,-9.628382682800293,-1.3182989358901978
1751120223263869400,12.522869384765626,1.0757137537002563,-9.684653282165527,-1.104865312576294
1751120223273814300,12.532814208984375,0.8194168210029602,-9.732898712158203,-0.877286434173584
1751120223283759000,12.542759033203126,0.5428065657615662,-9.77043628692627,-0.643670916557312
1751120223293704000,12.552703857421875,0.23224778473377228,-9.795547485351562,-0.4045742154121399
1751120223303649000,12.56264892578125,-0.12169437855482101,-9.804677963256836,-0.15452639758586884
1751120223313593900,12.57259375,-0.5146916508674622,-9.792481422424316,0.11308785527944565
1751120223323538700,12.58253857421875,-0.9416305422782898,-9.753212928771973,0.3981819450855255
1751120223333483500,12.5924833984375,-1.4000450372695923,-9.681336402893066,0.6942431330680847
1751120223343428600,12.6024287109375,-1.8705930709838867,-9.575078964233398,0.994551956653595
1751120223353373400,12.61237353515625,-2.3071305751800537,-9.44187068939209,1.303309679031372
1751120223373263000,12.63226318359375,-2.833590269088745,-9.175435066223145,1.9880999326705933
1751120223383208200,12.642208251953125,-2.8508784770965576,-9.084424018859863,2.3486461639404297
1751120223393153000,12.652153076171874,-2.720421552658081,-9.031832695007324,2.6824772357940674
1751120223403097900,12.662097900390625,-2.4839742183685303,-9.014365196228027,2.9566001892089844
1751120223413042700,12.672042724609375,-2.1579718589782715,-9.025741577148438,3.1700994968414307
1751120223422987800,12.68198779296875,-1.7381396293640137,-9.053457260131836,3.344273805618286
1751120223432932600,12.6919326171875,-1.2288460731506348,-9.079419136047363,3.496351718902588
1751120223442877400,12.70187744140625,-0.6557298302650452,-9.088210105895996,3.6255815029144287
1751120223452822300,12.711822265625,-0.06008350849151611,-9.07244873046875,3.722559928894043
1751120223462767400,12.721767333984374,0.4759492874145508,-9.03893756866455,3.7737884521484375
1751120223472712200,12.731712158203125,0.9952439665794373,-9.000852584838867,3.7635769844055176
1751120223482657000,12.741656982421874,1.29466712474823,-8.975723266601562,3.7323741912841797
1751120223492601900,12.751601806640625,1.2788918018341064,-8.971877098083496,3.7470285892486572
1751120223502547000,12.761546875,1.0285594463348389,-8.979851722717285,3.8045647144317627
1751120223512491800,12.77149169921875,0.6674495339393616,-8.988757133483887,3.8635685443878174
1751120223522436600,12.7814365234375,0.27361175417900085,-8.99591064453125,3.8947551250457764
1751120223532381400,12.79138134765625,-0.10575003176927567,-9.003477096557617,3.8854358196258545
1751120223542326500,12.801326416015625,-0.43194687366485596,-9.01439094543457,3.8372585773468018
1751120223552271400,12.811271240234374,-0.6734318733215332,-9.030115127563477,3.7648227214813232
1751120223562216200,12.82121630859375,-0.8182487487792969,-9.049636840820312,3.688486099243164
1751120223572161000,12.8311611328125,-0.8809590339660645,-9.070058822631836,3.6233041286468506
1751120223582106000,12.841106201171876,-0.886223316192627,-9.089900970458984,3.571931838989258
1751120223592051000,12.851051025390625,-0.8439980745315552,-9.111396789550781,3.5271120071411133
1751120223601995800,12.860995849609376,-0.7440595626831055,-9.138063430786133,3.4803109169006348
1751120223611940600,12.870940673828125,-0.5899275541305542,-9.169188499450684,3.427586555480957
1751120223621885700,12.8808857421875,-0.41268789768218994,-9.199710845947266,3.3712589740753174
1751120223631830500,12.89083056640625,-0.24777185916900635,-9.225727081298828,3.315861940383911
1751120223641775400,12.900775390625,-0.11348683387041092,-9.247488021850586,3.262125253677368
1751120223651720200,12.91072021484375,-0.015526062808930874,-9.268754005432129,3.2031779289245605
1751120223661665300,12.920665283203125,0.04616658762097359,-9.294584274291992,3.1271345615386963
1751120223671610000,12.930610107421876,0.07287642359733582,-9.328998565673828,3.022394895553589
1751120223681555000,12.940554931640625,0.06426583230495453,-9.372834205627441,2.883789300918579
1751120223691499800,12.950499755859376,0.019088756293058395,-9.422553062438965,2.71763014793396
1751120223701444600,12.960444580078125,-0.057003967463970184,-9.473153114318848,2.5350570678710938
1751120223711389400,12.970389404296874,-0.147391214966774,-9.521183013916016,2.344297409057617
1751120223721334300,12.980334228515625,-0.2319038212299347,-9.565610885620117,2.148413896560669
1751120223731279000,12.990279052734374,-0.300466388463974,-9.606080055236816,1.9502160549163818
1751120223751168800,13.010168701171875,-0.4109748601913452,-9.671347618103027,1.5705195665359497
1751120223761113600,13.020113525390625,-0.46762752532958984,-9.694860458374023,1.4004985094070435
1751120223771058400,13.030058349609375,-0.5230211019515991,-9.712968826293945,1.2470279932022095
1751120223781003300,13.040003173828126,-0.57053542137146,-9.726484298706055,1.113722324371338
1751120223790948000,13.049947998046875,-0.6041209697723389,-9.736186027526855,1.0060381889343262
1751120223800893000,13.059892822265626,-0.6180832386016846,-9.743037223815918,0.9282131791114807
1751120223810837800,13.069837646484375,-0.610784113407135,-9.747633934020996,0.8837189078330994
1751120223820782600,13.079782470703124,-0.5883414149284363,-9.750295639038086,0.8694638609886169
1751120223830727400,13.0897275390625,-0.5626940727233887,-9.751425743103027,0.8737618923187256
1751120223840672500,13.099672607421875,-0.5475689172744751,-9.751655578613281,0.8807626962661743
1751120223850617300,13.109617431640626,-0.5534567832946777,-9.751509666442871,0.878720223903656
1751120223860562200,13.119562255859375,-0.5863709449768066,-9.750615119934082,0.8672096133232117
1751120223870507000,13.129507080078126,-0.6452905535697937,-9.748159408569336,0.8528576493263245
1751120223880451800,13.139451904296875,-0.7168052196502686,-9.74405288696289,0.8426176309585571
1751120223890396700,13.149396728515624,-0.77198725938797,-9.740260124206543,0.837708592414856
1751120223900341500,13.159341552734375,-0.7787829637527466,-9.74022102355957,0.8318507671356201
1751120223910286300,13.169286376953124,-0.7349337935447693,-9.745270729064941,0.8123766183853149
1751120223920231200,13.179231201171875,-0.675820529460907,-9.752983093261719,0.7700517773628235
1751120223930176000,13.189176025390625,-0.6392827033996582,-9.760117530822754,0.7083913087844849
1751120223940120800,13.199120849609375,-0.6379501223564148,-9.765268325805664,0.6347731947898865
1751120223950065700,13.209065673828125,-0.6686102747917175,-9.768556594848633,0.5464779734611511
1751120223960010500,13.219010498046876,-0.7214765548706055,-9.770478248596191,0.4331527650356293
1751120223969955600,13.22895556640625,-0.781866192817688,-9.77130126953125,0.2841651439666748
1751120223979900400,13.238900390625,-0.831586480140686,-9.770872116088867,0.09436608105897903
1751120223989845200,13.24884521484375,-0.8504456877708435,-9.76885986328125,-0.1284879744052887
1751120223999790000,13.2587900390625,-0.8256182670593262,-9.765115737915039,-0.36227986216545105
1751120224009735200,13.268735107421875,-0.7578930258750916,-9.760109901428223,-0.5798647999763489
1751120224019680000,13.278679931640625,-0.6622762084007263,-9.754457473754883,-0.7631093859672546
1751120224029624800,13.288624755859376,-0.5560890436172485,-9.748827934265137,-0.9063670635223389
1751120224039569700,13.298569580078125,-0.4481040835380554,-9.744170188903809,-1.0103075504302979
1751120224049514800,13.3085146484375,-0.34592610597610474,-9.7406587600708,-1.0818017721176147
1751120224059459600,13.31845947265625,-0.2624861001968384,-9.737556457519531,-1.1320290565490723
1751120224069404400,13.328404296875,-0.2089325189590454,-9.734481811523438,-1.1690136194229126
1751120224079349200,13.338349365234375,-0.1860072761774063,-9.731851577758789,-1.19451105594635
1751120224089294300,13.34829443359375,-0.18140792846679688,-9.730310440063477,-1.207700490951538
1751120224099239200,13.3582392578125,-0.17605331540107727,-9.73007869720459,-1.2103577852249146
1751120224109184000,13.36818408203125,-0.15161272883415222,-9.73054027557373,-1.2099499702453613
1751120224119128800,13.37812890625,-0.0988633930683136,-9.730114936828613,-1.2188061475753784
1751120224129074000,13.388073974609375,-0.01810339279472828,-9.72702693939209,-1.2469936609268188
1751120224139018800,13.398018798828126,0.08768406510353088,-9.720260620117188,-1.2958526611328125
1751120224148963600,13.407963623046875,0.2137988656759262,-9.709485054016113,-1.3603603839874268
1751120224158908400,13.417908447265624,0.3482646942138672,-9.694228172302246,-1.4391112327575684
1751120224168853500,13.427853515625,0.4745236039161682,-9.674195289611816,-1.5346544981002808
1751120224178798300,13.43779833984375,0.5795005559921265,-9.649833679199219,-1.6478077173233032
1751120224188743200,13.4477431640625,0.6583760976791382,-9.622315406799316,-1.7742503881454468
1751120224198688000,13.45768798828125,0.7150858640670776,-9.592936515808105,-1.9064666032791138
1751120224208633000,13.467633056640626,0.7592965364456177,-9.56303882598877,-2.0352258682250977
1751120224218578000,13.477577880859375,0.802977442741394,-9.53370189666748,-2.1527013778686523
1751120224228522800,13.487522705078124,0.8525717258453369,-9.505208015441895,-2.2571043968200684
1751120224238467600,13.497467529296875,0.9064702391624451,-9.477056503295898,-2.352468490600586
1751120224248412700,13.50741259765625,0.9583213925361633,-9.449248313903809,-2.442073106765747
1751120224258357500,13.517357421875,1.0044004917144775,-9.423116683959961,-2.523181200027466
1751120224268302300,13.52730224609375,1.0447553396224976,-9.400383949279785,-2.5906832218170166
1751120224278247200,13.5372470703125,1.0806970596313477,-9.38166332244873,-2.643270254135132
1751120224288192300,13.547192138671875,1.11079740524292,-9.366218566894531,-2.6852314472198486
1751120224298137000,13.55713720703125,1.1311596632003784,-9.35278606414795,-2.723278760910034
1751120224308082000,13.56708203125,1.138280987739563,-9.340187072753906,-2.76326322555542
1751120224318026800,13.57702685546875,1.1303987503051758,-9.327823638916016,-2.8078999519348145
1751120224327971800,13.586971923828125,1.106204867362976,-9.316086769104004,-2.8560848236083984
1751120224337916700,13.596916748046874,1.0669130086898804,-9.306649208068848,-2.9014437198638916
1751120224347861500,13.606861572265625,1.0174671411514282,-9.302167892456055,-2.933396816253662
1751120224357806300,13.616806396484375,0.9670979976654053,-9.305362701416016,-2.940295934677124
1751120224367751400,13.62675146484375,0.9305402040481567,-9.31797981262207,-2.9119985103607178
1751120224377696300,13.6366962890625,0.920021653175354,-9.34143352508545,-2.839287757873535
1751120224387641000,13.64664111328125,0.9324902892112732,-9.377069473266602,-2.7150356769561768
1751120224397586000,13.6565859375,0.9483116269111633,-9.424712181091309,-2.5388760566711426
1751120224407531000,13.666531005859374,0.9487155675888062,-9.482440948486328,-2.3137898445129395
1751120224417475800,13.676475830078125,0.9233702421188354,-9.547412872314453,-2.0407540798187256
1751120224427420700,13.686420654296874,0.8676138520240784,-9.614917755126953,-1.7236528396606445
1751120224437365500,13.696365478515625,0.7774930000305176,-9.678973197937012,-1.3723591566085815
1751120224447310600,13.706310546875,0.6509261131286621,-9.733667373657227,-1.001196265220642
1751120224457255400,13.71625537109375,0.4893200993537903,-9.774460792541504,-0.6251978278160095
1751120224467200300,13.7262001953125,0.3018248379230499,-9.798788070678711,-0.25105199217796326
1751120224477145000,13.73614501953125,0.1094382032752037,-9.805258750915527,0.12367859482765198
1751120224487090200,13.746090087890625,-0.06132695451378822,-9.793487548828125,0.5041977167129517
1751120224497035000,13.756034912109374,-0.18467429280281067,-9.764870643615723,0.8852028250694275
1751120224506979800,13.765979736328125,-0.2407577484846115,-9.723706245422363,1.2497832775115967
1751120224516924700,13.775924560546875,-0.22318032383918762,-9.676838874816895,1.574598789215088
1751120224526869800,13.785869873046876,-0.1390862613916397,-9.629961013793945,1.847945213317871
1751120224536814600,13.795814697265625,-0.004227669909596443,-9.584844589233398,2.07391095161438
1751120224546760200,13.80576025390625,0.16184677183628082,-9.540863990783691,2.2618842124938965
1751120224556704800,13.815704833984375,0.33984020352363586,-9.496788024902344,2.421962261199951
1751120224566649300,13.8256494140625,0.5161991715431213,-9.450780868530273,2.5664522647857666
1751120224576594000,13.835593994140625,0.6537792682647705,-9.39936351776123,2.7193617820739746
1751120224586538800,13.845538818359374,0.7412117719650269,-9.338457107543945,2.900723695755005
1751120224596483300,13.8554833984375,0.7676490545272827,-9.26388931274414,3.1243321895599365
