time,seconds_elapsed,z,y,x
1751120211018378800,0.277378662109375,1.1103676557540894,0.14553436636924744,-0.6966713070869446
1751120211058158000,0.317157958984375,0.4605788290500641,0.06887302547693253,-0.36223241686820984
1751120211117828000,0.376828125,0.5926745533943176,-2.5261588096618652,0.3196258246898651
1751120211137719000,0.396718994140625,0.45523393154144287,-3.2046573162078857,0.7137750387191772
1751120211147664100,0.4066640625,0.2987042963504791,-3.2153472900390625,0.9736905097961426
1751120211157609200,0.416609130859375,0.15378080308437347,-2.924583911895752,1.2410888671875
1751120211167554000,0.426553955078125,0.023823043331503868,-2.36092472076416,1.5584241151809692
1751120211177499100,0.4364990234375,-0.5450284481048584,-1.5162756443023682,1.96540105342865
1751120211187444000,0.44644384765625,-0.9860602021217346,-1.1604571342468262,2.1741580963134766
1751120211197388800,0.456388916015625,-0.984991192817688,-1.6558542251586914,1.9472283124923706
1751120211207334000,0.466333984375,-0.698503851890564,-2.820129156112671,1.7193822860717773
1751120211217278700,0.47627880859375,-0.3298575282096863,-3.6233932971954346,1.569113850593567
1751120211227223600,0.4862236328125,-0.12858334183692932,-4.021665573120117,1.3976185321807861
1751120211237168400,0.49616845703125,-0.11468657106161118,-4.283719062805176,1.1548067331314087
1751120211247113500,0.506113525390625,-0.09330692142248154,-3.853377103805542,1.0098832845687866
1751120211257058300,0.516058349609375,-0.05925218388438225,-3.092872381210327,0.9075663089752197
1751120211267003100,0.526003173828125,0.0525328628718853,-2.221498727798462,0.7350019812583923
1751120211276948000,0.535947998046875,0.23364907503128052,-1.861404299736023,0.6029062271118164
1751120211286893000,0.54589306640625,0.3742966651916504,-2.2576913833618164,0.5570927262306213
1751120211296838000,0.555837890625,0.3912476599216461,-3.418759346008301,0.5763344168663025
1751120211306782700,0.56578271484375,0.275186687707901,-4.814239978790283,0.6358919739723206
1751120211316727600,0.5757275390625,0.1175880953669548,-5.800758361816406,0.7627955079078674
1751120211326672600,0.585672607421875,0.07177454978227615,-6.265154838562012,0.9672766327857971
1751120211336617700,0.59561767578125,0.16874656081199646,-6.248203754425049,1.2442958354949951
1751120211346562600,0.6055625,0.31886225938796997,-5.967977523803711,1.5530791282653809
1751120211356507600,0.615507568359375,0.38071054220199585,-5.443870544433594,1.8247535228729248
1751120211366452700,0.62545263671875,0.34971004724502563,-4.737578392028809,2.0377864837646484
1751120211376397600,0.6353974609375,0.2560977041721344,-3.887584686279297,2.2285234928131104
1751120211386342700,0.6453427734375,0.056808795779943466,-2.9639835357666016,2.3713090419769287
1751120211396287700,0.655287841796875,-0.21058958768844604,-2.0403826236724854,2.4458324909210205
1751120211406232600,0.665232666015625,-0.5034908652305603,-1.452289342880249,2.453315258026123
1751120211416177700,0.675177734375,-0.7708892226219177,-1.2232216596603394,2.4053637981414795
1751120211426122800,0.685122802734375,-1.0243908166885376,-1.3831108808517456,2.3968119621276855
1751120211436067600,0.695067626953125,-1.1618314981460571,-1.8113148212432861,2.465074062347412
1751120211446012700,0.7050126953125,-0.7580614686012268,-1.666391372680664,2.3903980255126953
1751120211455957800,0.714957763671875,0.2038702666759491,-0.9718579649925232,2.131551504135132
1751120211465902600,0.724902587890625,1.1390774250030518,-0.5511369109153748,1.9420361518859863
1751120211475847700,0.73484765625,2.9267218112945557,-0.8025006055831909,1.6500511169433594
1751120211485792800,0.744792724609375,4.705661773681641,-0.587329626083374,1.2601778507232666
1751120211495737600,0.754737548828125,5.800758361816406,-0.3965925872325897,0.7850914597511292
1751120211505682700,0.7646826171875,6.370678901672363,-0.3370349705219269,0.22051586210727692
1751120211515627800,0.774627685546875,6.338761806488037,-0.14843589067459106,-0.5380037426948547
1751120211525572600,0.784572509765625,5.7783098220825195,0.1913478970527649,-1.4179291725158691
1751120211535517700,0.794517578125,4.983597278594971,0.3202366828918457,-2.26792311668396
1751120211545462500,0.804462646484375,4.289063930511475,0.06780404597520828,-2.9870431423187256
1751120211555407600,0.81440771484375,3.763888120651245,-0.42011019587516785,-3.569638729095459
1751120211565352700,0.824352783203125,3.309112310409546,-0.8333483934402466,-3.9680638313293457
1751120211575297500,0.834297607421875,2.713536262512207,0.1785201132297516,-3.100966215133667
1751120211585242600,0.84424267578125,1.9689134359359741,-0.11865708231925964,-2.6513824462890625
1751120211595187700,0.854187744140625,1.2158914804458618,-0.08246438205242157,-2.021904468536377
1751120211605132500,0.864132568359375,0.9239065051078796,0.008093725889921188,-1.3113363981246948
1751120211615077600,0.87407763671875,0.3912476599216461,-0.6106945276260376,-0.9225320816040039
1751120211625022700,0.884022705078125,0.1889045089483261,-1.5513993501663208,-0.7446228265762329
1751120211634967600,0.893967529296875,0.666128933429718,-1.5119997262954712,-0.596492350101471
1751120211644912600,0.90391259765625,1.4332003593444824,-1.7740530967712402,-0.48577627539634705
1751120211654857700,0.913857666015625,2.033968687057495,-1.666391372680664,-0.6562026739120483
1751120211664802600,0.923802490234375,2.329007863998413,-0.9324583411216736,-1.0269869565963745
1751120211674747600,0.93374755859375,2.5037102699279785,0.38956785202026367,-1.4541219472885132
1751120211684692700,0.943692626953125,2.693378210067749,1.2843064069747925,-1.7097615003585815
1751120211694637600,0.953637451171875,2.8008873462677,1.6071391105651855,-1.7320574522018433
1751120211704582700,0.963582763671875,2.878770351409912,1.5090981721878052,-1.783215880393982
1751120211714527700,0.97352783203125,2.9639835357666016,1.1490037441253662,-1.9334843158721924
1751120211724472600,0.98347265625,2.7434678077697754,0.8389987349510193,-2.121014356613159
1751120211734417700,0.993417724609375,2.3801662921905518,0.7666133046150208,-2.2520411014556885
1751120211744362800,1.00336279296875,1.8284186124801636,1.150072693824768,-2.252957344055176
1751120211754307600,1.0133076171875,1.3426423072814941,1.616760015487671,-2.1358275413513184
1751120211764252700,1.023252685546875,0.8249492049217224,1.6636425256729126,-1.9547111988067627
1751120211774197800,1.03319775390625,0.6449019908905029,1.5698775053024292,-1.6724997758865356
1751120211804032800,1.06303271484375,0.670404851436615,0.6685723066329956,-0.6178719997406006
1751120211813977600,1.0729775390625,0.6235223412513733,0.8284615874290466,-0.24708771705627441
1751120211833867800,1.09286767578125,0.4265241026878357,0.6238277554512024,0.48043137788772583
1751120211853757700,1.1127578125,0.30191126465797424,0.5706840753555298,0.7317950129508972
1751120211933317600,1.192317626953125,0.11651911586523056,0.7931851744651794,-1.6553961038589478
1751120211943262700,1.2022626953125,0.11651911586523056,-0.2698417901992798,-1.6234792470932007
1751120211963152600,1.222152587890625,0.051463883370161057,-0.7386670708656311,-1.0120211839675903
1751120212032767700,1.291767822265625,0.7226322889328003,-1.351194143295288,4.36435079574585
1751120212042712600,1.301712646484375,0.8354863524436951,-1.7815359830856323,4.546535968780518
1751120212052657700,1.31165771484375,0.7333221435546875,-2.03076171875,4.6989426612854
1751120212062602800,1.321602783203125,0.40728241205215454,-1.909355878829956,4.703065872192383
1751120212082492700,1.34149267578125,-0.28725093603134155,-0.6128324866294861,4.2365312576293945
1751120212112327700,1.37132763671875,-0.23929941654205322,-1.330883502960205,2.1880548000335693
1751120212122272800,1.381272705078125,-0.07742489129304886,-0.9707890152931213,1.6192033290863037
1751120212132217600,1.391217529296875,0.2432699203491211,-0.33596599102020264,0.770125687122345
1751120212152107800,1.411107666015625,-0.41827765107154846,-0.6768187880516052,-0.07452336698770523
1751120212185187800,1.444187744140625,0.8174663186073303,0.05070032179355621,1.9825047254562378
1751120212224968000,1.483968017578125,0.9474241137504578,0.32130566239356995,1.5222313404083252
1751120212234912800,1.493912841796875,0.7812736630439758,0.38422292470932007,1.0216420888900757
1751120212244857600,1.503857666015625,0.5233433842658997,0.4459185004234314,0.36971530318260193
1751120212264747500,1.52374755859375,0.013133215717971325,0.5748072862625122,-0.5241069197654724
1751120212274692600,1.533692626953125,-0.11254860460758209,0.5961869359016418,-0.6455128192901611
1751120212284637400,1.543637451171875,-0.15408621728420258,0.49921491742134094,-0.6743753552436829
1751120212304527400,1.56352734375,-0.3148917555809021,0.12965233623981476,-0.7936432957649231
1751120212334362000,1.593362060546875,-0.719730794429779,-0.27411770820617676,-0.8032641410827637
1751120212344307200,1.60330712890625,-0.6963658928871155,-0.3295520842075348,-0.7574505805969238
1751120212374142000,1.633141845703125,-0.20738264918327332,-0.8217422962188721,-0.2301367074251175
1751120212384087000,1.643087158203125,-0.17332790791988373,-0.7459971904754639,0.14171656966209412
1751120212403977000,1.66297705078125,-0.12751436233520508,-0.7055285573005676,0.5581616759300232
1751120212443756500,1.702756591796875,0.5841227173805237,-1.1870288848876953,-0.29717719554901123
1751120212453701600,1.71270166015625,0.40193748474121094,-2.4482758045196533,-0.8927532434463501
1751120212473591600,1.732591552734375,0.5042544007301331,-3.5540621280670166,-0.781884491443634
1751120212483536400,1.742536376953125,0.7960866689682007,-3.592392683029175,-0.4622586667537689
1751120212493481500,1.7524814453125,0.8727480173110962,-4.029148578643799,-0.013896775431931019
1751120212513371400,1.772371337890625,0.5905365943908691,-7.272900104522705,1.741678237915039
1751120212523316200,1.782316162109375,0.13026317954063416,-8.538422584533691,3.1435728073120117
1751120212533261300,1.79226123046875,-0.9147437810897827,-8.231624603271484,4.1268839836120605
1751120212543206400,1.802206298828125,-2.409181594848633,-5.205182075500488,3.453577756881714
1751120212553151200,1.812151123046875,-3.1250946521759033,-2.1532366275787354,2.129413604736328
1751120212573041400,1.83204150390625,-1.567739486694336,-2.065885543823242,1.111131191253662
1751120212582986200,1.841986328125,-0.6739172339439392,-2.8254740238189697,0.35795649886131287
1751120212592931300,1.851931396484375,-0.07956285774707794,-3.2046573162078857,-0.32603973150253296
1751120212602876400,1.86187646484375,0.28160059452056885,-2.5623514652252197,-0.5975613594055176
1751120212632711400,1.89171142578125,0.8003626465797424,0.43110546469688416,-0.7679877281188965
1751120212642656300,1.90165625,0.652384877204895,1.4835952520370483,-1.0098832845687866
1751120212652601300,1.911601318359375,0.409420371055603,2.9664270877838135,-1.3635637760162354
1751120212672491300,1.9314912109375,0.2730487287044525,5.487851619720459,-2.6055688858032227
1751120212682436400,1.941436279296875,0.353985995054245,5.5154924392700195,-3.318274974822998
1751120212712271400,1.971271240234375,1.5875920057296753,2.0374810695648193,-4.098021507263184
1751120212722216200,1.98121630859375,1.9498244524002075,1.5123051404953003,-3.4439568519592285
1751120212742106400,2.0011064453125,1.1422843933105469,0.8912261724472046,-1.058903694152832
1751120212752051200,2.01105126953125,0.4062134325504303,0.8571714162826538,0.06704048812389374
1751120212771941400,2.03094140625,0.04825693368911743,0.8209787011146545,0.6423059105873108
1751120212811721200,2.07072119140625,2.649702787399292,2.5147054195404053,-1.5318522453308105
1751120212821666300,2.080666259765625,2.6539785861968994,1.5155121088027954,-1.0685245990753174
1751120212831611400,2.090611328125,2.6923093795776367,0.34161633253097534,-0.4431696832180023
1751120212851501300,2.110501220703125,3.4870216846466064,-1.7847429513931274,0.39201122522354126
1751120212861446400,2.1204462890625,4.165520191192627,-2.9841415882110596,0.7137750387191772
1751120212871391200,2.13039111328125,4.775909423828125,-4.406346797943115,1.100441336631775
1751120212881336300,2.14033642578125,5.011390686035156,-5.7667036056518555,1.7981816530227661
1751120212891281400,2.150281494140625,4.645951747894287,-7.605353832244873,2.4490394592285156
1751120212901226200,2.160226318359375,3.6925716400146484,-9.503561973571777,2.3798608779907227
1751120212911171300,2.17017138671875,2.181030035018921,-9.263957023620605,1.2526949644088745
1751120212921116400,2.180116455078125,0.5192201733589172,-6.330210208892822,0.11285403370857239
1751120212931061200,2.190061279296875,-0.5632011890411377,-3.581855535507202,0.0916270911693573
1751120212941006300,2.20000634765625,-0.5450284481048584,-2.5015721321105957,0.6572716236114502
1751120212950951400,2.209951416015625,0.26663482189178467,-1.509861707687378,0.9981244206428528
1751120212960896300,2.219896240234375,1.2116155624389648,0.08490777015686035,1.0077452659606934
1751120212970841300,2.22984130859375,1.8113148212432861,0.8486195802688599,0.4249969720840454
1751120212980786200,2.2397861328125,2.224705696105957,1.0712733268737793,0.41445985436439514
1751120212990731300,2.249731201171875,2.4803452491760254,1.327981948852539,1.1494618654251099
1751120213000676400,2.25967626953125,2.2757115364074707,1.902178406715393,1.4530528783798218
1751120213010621200,2.26962109375,1.6888399124145508,2.115211248397827,1.3177502155303955
1751120213020566300,2.279566162109375,0.9431481957435608,2.068328857421875,0.509141206741333
1751120213040456200,2.299456298828125,-0.9732323884963989,4.12856388092041,-2.520355701446533
1751120213050401300,2.3094013671875,-1.9256960153579712,2.274031639099121,-3.5717766284942627
1751120213060346400,2.319346435546875,-2.6191604137420654,-0.28373855352401733,-4.225841522216797
1751120213070291200,2.329291259765625,-2.766069173812866,-1.2649120092391968,-4.451702117919922
1751120213080236300,2.339236328125,-2.1856114864349365,-0.740652322769165,-4.145973205566406
1751120213090181400,2.349181396484375,-1.1031901836395264,0.37353309988975525,-3.4141781330108643
1751120213100126200,2.359126220703125,-0.06459710001945496,1.9618886709213257,-2.525700807571411
1751120213110071300,2.3690712890625,0.6384881138801575,3.639580726623535,-1.5947694778442383
1751120213120016400,2.379016357421875,1.047450304031372,4.651601791381836,-0.6572716236114502
1751120213129961200,2.388961181640625,1.4118207693099976,4.977641582489014,0.14278554916381836
1751120213139906300,2.39890625,1.9615832567214966,4.662291526794434,0.687050461769104
1751120213149851400,2.408851318359375,2.63580584526062,3.7823662757873535,1.0152281522750854
1751120213159796200,2.418796142578125,3.1748785972595215,2.4444580078125,1.249488115310669
1751120213169741300,2.4287412109375,3.4412081241607666,0.7644753456115723,1.4252593517303467
1751120213179686400,2.438686279296875,3.506110668182373,-1.0390511751174927,1.6159964799880981
1751120213199576300,2.458576416015625,3.286663770675659,-4.126120567321777,2.557770252227783
1751120213209521400,2.468521484375,3.031024217605591,-4.79087495803833,3.326826810836792
1751120213219466200,2.47846630859375,2.6997921466827393,-5.111569881439209,3.911713123321533
1751120213229411300,2.488411376953125,2.310987949371338,-5.0987420082092285,4.0395331382751465
1751120213239356400,2.4983564453125,1.8794243335723877,-3.025679111480713,3.5197019577026367
1751120213249301200,2.50830126953125,1.6813570261001587,1.9096612930297852,2.2636473178863525
1751120213259246300,2.518246337890625,2.4078071117401123,4.668705463409424,1.7705408334732056
1751120213269191400,2.52819140625,3.905604600906372,3.702497959136963,2.490576982498169
1751120213279136300,2.53813623046875,5.360795497894287,2.6681809425354004,3.01682186126709
1751120213289081300,2.548081298828125,5.945528984069824,3.268949031829834,2.6162588596343994
1751120213299026200,2.558026123046875,5.594139099121094,3.7590012550354004,2.091082811355591
1751120213308971300,2.56797119140625,4.672676086425781,2.7298765182495117,2.1795029640197754
1751120213318916400,2.577916259765625,3.4752628803253174,0.7847860455513,2.5034048557281494
1751120213328861200,2.587861083984375,2.1309406757354736,-1.063485026359558,2.2775440216064453
1751120213338806300,2.59780615234375,0.7333221435546875,-2.5495238304138184,1.1984822750091553
1751120213348752100,2.607752197265625,-0.24678228795528412,-3.480607748031616,-0.48898324370384216
1751120213358696700,2.61769677734375,-0.49921491742134094,-3.514662504196167,-1.91958749294281
1751120213368641500,2.6276416015625,-0.19027891755104065,-2.7700395584106445,-2.458660125732422
1751120213378586400,2.63758642578125,0.3049654960632324,-1.860335350036621,-2.2466962337493896
1751120213388531000,2.647531005859375,0.6203153729438782,-0.4563029110431671,-1.7523680925369263
1751120213398475800,2.657475830078125,0.7119424939155579,0.8177717924118042,-1.2633848190307617
1751120213408420400,2.66742041015625,0.7759287357330322,1.5442218780517578,-0.8000571727752686
1751120213418365200,2.677365234375,0.8429692387580872,1.6902143955230713,-0.30038413405418396
1751120213428310000,2.68731005859375,0.6907155513763428,1.563463568687439,0.3249707520008087
1751120213438255000,2.697255126953125,0.8994725942611694,1.2001621723175049,0.8394568562507629
1751120213448200000,2.707199951171875,1.395938754081726,-0.28373855352401733,1.2644537687301636
1751120213458145000,2.71714501953125,0.8344173431396484,-0.8770239353179932,2.227454423904419
1751120213468090000,2.727090087890625,-0.0198525357991457,-0.5192201733589172,3.0243048667907715
1751120213478035200,2.73703515625,-0.24571330845355988,-1.1679399013519287,3.251234531402588
1751120213487980300,2.746980224609375,-0.09437590092420578,-2.412083148956299,3.3428616523742676
1751120213497925400,2.75692529296875,0.01847812905907631,-2.835094928741455,3.309723138809204
1751120213507870500,2.766870361328125,-0.02092151902616024,-2.481414318084717,2.6950581073760986
1751120213517815800,2.77681591796875,-0.07956285774707794,-1.9369966983795166,1.1238062381744385
1751120213527761000,2.786760986328125,0.04718795046210289,-1.857128381729126,-0.9533798694610596
1751120213537706000,2.7967060546875,0.33596599102020264,-2.3268699645996094,-2.6429834365844727
1751120213547651000,2.806651123046875,0.6277982592582703,-2.774315595626831,-3.4812185764312744
1751120213557596400,2.816596435546875,0.8078454732894897,-2.9436728954315186,-3.6059839725494385
1751120213567541500,2.82654150390625,0.8515210747718811,-3.0597338676452637,-3.3747785091400146
1751120213577486600,2.836486572265625,0.7631009221076965,-3.2697126865386963,-3.031787633895874
1751120213587431400,2.846431396484375,0.765238881111145,-3.48274564743042,-2.591825008392334
1751120213597376500,2.85637646484375,0.9718579649925232,-3.713951349258423,-2.027249336242676
1751120213607321600,2.866321533203125,1.274380087852478,-3.780991792678833,-1.430604338645935
1751120213617266400,2.876266357421875,1.7346534729003906,-3.1695337295532227,-0.9426900148391724
1751120213627211500,2.88621142578125,2.1714093685150146,-2.1191818714141846,-0.6540647149085999
1751120213637156400,2.89615625,1.9956380128860474,-1.270104169845581,-0.638029932975769
1751120213647101200,2.90610107421875,1.0304993391036987,-0.6513158679008484,-0.9054283499717712
1751120213657046300,2.91604638671875,-0.33413344621658325,-0.17088451981544495,-1.2421579360961914
1751120213666991000,2.9259912109375,-1.5133740901947021,-0.04718795046210289,-1.6958646774291992
1751120213676936200,2.935936279296875,-2.2579967975616455,-0.30282753705978394,-2.3424465656280518
1751120213686881000,2.945881103515625,-2.693683624267578,-0.6277982592582703,-2.9870431423187256
1751120213696826000,2.955826171875,-2.9897918701171875,-1.0101886987686157,-3.3779852390289307
1751120213706771000,2.96577099609375,-3.0856950283050537,-1.3542484045028687,-3.473888397216797
1751120213716716000,2.975716064453125,-2.879075765609741,-1.343711256980896,-3.3533987998962402
1751120213726660900,2.985660888671875,-2.4166643619537354,-1.0656230449676514,-2.982767105102539
1751120213736606000,2.99560595703125,-1.9096612930297852,-0.8686248064041138,-2.386121988296509
1751120213746550800,3.00555078125,-1.562394618988037,-1.0859336853027344,-1.6873128414154053
1751120213756495600,3.01549560546875,-1.4089192152023315,-1.68242609500885,-1.0184351205825806
1751120213766440700,3.025440673828125,-1.3547065258026123,-2.1042160987854004,-0.5838172435760498
1751120213776385500,3.035385498046875,-1.3120999336242676,-2.1767542362213135,-0.46332764625549316
1751120213786330600,3.04533056640625,-1.2843064069747925,-2.019002914428711,-0.6317687630653381
1751120213796275500,3.055275390625,-1.4238849878311157,-1.3127107620239258,-1.0227110385894775
1751120213806221800,3.065221923828125,-1.9214200973510742,-0.448820024728775,-1.3220261335372925
1751120213816166100,3.075166259765625,-2.5211193561553955,-0.5841227173805237,-1.0865445137023926
1751120213826110700,3.08511083984375,-2.3932995796203613,-2.2555534839630127,-0.40697699785232544
1751120213836055300,3.09505517578125,-1.4973393678665161,-4.747199535369873,0.3387148082256317
1751120213845999600,3.10499951171875,-0.5184566378593445,-6.107556343078613,0.7679877281188965
1751120213865889000,3.124888916015625,0.6513158679008484,-4.539511203765869,0.6114581227302551
1751120213875833600,3.13483349609375,0.8003626465797424,-4.487284183502197,0.6093201637268066
1751120213885778400,3.1447783203125,0.7365291118621826,-5.496098041534424,0.9364288449287415
1751120213895723500,3.1547236328125,0.587329626083374,-6.754137992858887,1.584079623222351
1751120213905668600,3.164668701171875,0.43080002069473267,-7.5775604248046875,2.467211961746216
1751120213915613700,3.17461376953125,0.19211146235466003,-7.6094770431518555,3.3576745986938477
1751120213925558800,3.184558837890625,-0.21272756159305573,-6.18421745300293,3.4259369373321533
1751120213935504100,3.194504150390625,-0.48959407210350037,-2.693378210067749,2.1646900177001953
1751120213945449200,3.20444921875,-0.4640912115573883,1.918213129043579,0.9833113551139832
1751120213955394600,3.21439453125,-0.337340384721756,4.63358211517334,0.533727765083313
1751120213965340000,3.22433984375,-0.5567872524261475,5.185329437255859,-0.3834593594074249
1751120213975285200,3.23428515625,-1.3003411293029785,5.144861221313477,-1.5478869676589966
1751120213985230600,3.244230712890625,-2.294189691543579,4.5983052253723145,-1.747023105621338
1751120213995176000,3.254176025390625,-2.915268659591675,4.043350696563721,-1.4115153551101685
1751120214005121000,3.26412109375,-2.815089702606201,3.913393020629883,-1.273005723953247
1751120214015066000,3.274066162109375,-2.3645896911621094,3.1197495460510254,-1.1344960927963257
1751120214025011000,3.284010986328125,-1.7392348051071167,1.7561858892440796,-0.8501466512680054
1751120214034956000,3.2939560546875,-1.0169079303741455,0.8614473342895508,-0.4868452548980713
1751120214044900900,3.30390087890625,-0.3170297145843506,0.5674771070480347,-0.26098448038101196
1751120214054846000,3.313845947265625,0.24006296694278717,0.5163186192512512,-0.6988092660903931
1751120214064790800,3.323790771484375,0.2901524603366852,0.8252546191215515,-0.8405258059501648
1751120214074735900,3.33373583984375,0.05467082932591438,0.8443436026573181,0.2599155008792877
1751120214084680700,3.3436806640625,-0.07421794533729553,0.1966928243637085,0.45385950803756714
1751120214094625800,3.353625732421875,-0.38849884271621704,0.5993938446044922,-0.3536805510520935
1751120214104570600,3.363570556640625,-0.5131117105484009,2.2430310249328613,0.1575985997915268
1751120214114515700,3.373515625,-0.130721315741539,4.242639541625977,1.249488115310669
1751120214124460500,3.38346044921875,0.5809157490730286,5.417604446411133,1.556286096572876
1751120214134405600,3.393405517578125,1.3405042886734009,5.248247146606445,1.1920684576034546
1751120214144350500,3.4033505859375,2.1106300354003906,3.558643341064453,1.0098832845687866
1751120214154295300,3.41329541015625,2.970397472381592,0.9455915689468384,1.5382660627365112
1751120214164240400,3.423240478515625,3.6553099155426025,-0.9793408513069153,2.4575912952423096
1751120214174185200,3.433185302734375,3.74586820602417,-1.0347752571105957,3.2064900398254395
1751120214184130300,3.44313037109375,3.369738817214966,0.2990097403526306,3.5942251682281494
1751120214194075100,3.4530751953125,2.9117562770843506,1.9383710622787476,3.5473427772521973
1751120214204020200,3.463020263671875,2.5751793384552,3.040950298309326,3.2351996898651123
1751120214213965000,3.472965087890625,2.4163589477539062,3.4031827449798584,2.950850486755371
1751120214223910100,3.48291015625,2.432393789291382,3.2156527042388916,2.8592233657836914
1751120214233855000,3.49285498046875,2.615648031234741,2.594573736190796,2.8645682334899902
1751120214243800000,3.502800048828125,2.991624355316162,1.7360279560089111,2.8399815559387207
1751120214253745000,3.512744873046875,3.531766176223755,1.0275977849960327,2.783478260040283
1751120214263689700,3.522689697265625,4.102755546569824,0.6781931519508362,2.763320207595825
1751120214273634800,3.532634765625,4.637399673461914,0.5706840753555298,2.8048579692840576
1751120214283579600,3.54257958984375,5.118899822235107,0.6484143733978271,2.8560163974761963
1751120214293524700,3.552524658203125,5.531221866607666,0.7027797698974609,2.861361265182495
1751120214303469600,3.562469482421875,5.85817813873291,0.5088357925415039,2.774010181427002
1751120214313414700,3.57241455078125,6.096866607666016,0.07101099193096161,2.6045000553131104
1751120214323359500,3.582359375,6.2704997062683105,-0.4402681589126587,2.4511773586273193
1751120214333304600,3.5923046875,6.327003002166748,-0.9005415439605713,2.3276333808898926
1751120214343249400,3.60224951171875,6.094728469848633,-1.2606359720230103,2.2051587104797363
1751120214353194500,3.612194580078125,5.476856708526611,-1.4747380018234253,2.22210955619812
1751120214363139300,3.622139404296875,4.599069118499756,-1.5471234321594238,2.2721991539001465
1751120214373084400,3.63208447265625,3.7617502212524414,-1.6440954208374023,2.0698559284210205
1751120214383029500,3.642029541015625,3.0885963439941406,-1.8091769218444824,1.5776658058166504
1751120214392974300,3.651974365234375,2.5122621059417725,-1.868887186050415,0.9064973592758179
1751120214402919400,3.66191943359375,2.0318307876586914,-1.5875920057296753,0.22479179501533508
1751120214412864500,3.671864501953125,1.5610201358795166,-1.1827529668807983,-0.21837788820266724
1751120214422809300,3.681809326171875,1.0144646167755127,-1.1690089702606201,-0.2098260372877121
1751120214432754400,3.69175439453125,0.5969504714012146,-1.4991718530654907,0.1907370537519455
1751120214442699500,3.701699462890625,0.4040754735469818,-1.6610463857650757,0.6007682681083679
1751120214452644400,3.711644287109375,-0.021990500390529633,-1.2510151863098145,0.6923953890800476
1751120214462589400,3.72158935546875,-0.6174138784408569,-0.7151494026184082,0.6465818285942078
1751120214472534500,3.731534423828125,-0.996749997138977,-0.18569757044315338,0.6636855602264404
1751120214482479400,3.741479248046875,-1.3962441682815552,1.0680664777755737,0.45385950803756714
1751120214492424400,3.751424560546875,-2.192941665649414,2.950392246246338,-0.19913621246814728
1751120214502369500,3.76136962890625,-3.245431423187256,4.553560733795166,-1.034317135810852
1751120214512314400,3.771314453125,-3.916599988937378,5.640258312225342,-1.8609461784362793
1751120214522259500,3.781259521484375,-4.003951072692871,6.405038833618164,-2.6344316005706787
1751120214532204500,3.79120458984375,-3.966689348220825,6.971752643585205,-3.2118349075317383
1751120214542149400,3.8011494140625,-4.152081489562988,7.163558483123779,-3.39279842376709
1751120214562039600,3.82103955078125,-5.078736782073975,4.193619251251221,-2.018697500228882
1751120214571984400,3.830984375,-5.497472763061523,1.4377816915512085,-1.0695935487747192
1751120214581929500,3.840929443359375,-5.754181385040283,-1.4661861658096313,-0.5059342384338379
1751120214591874300,3.850874267578125,-5.711574554443359,-4.079237937927246,-0.35261157155036926
1751120214601819400,3.8608193359375,-5.234350204467773,-5.843364715576172,-0.45385950803756714
1751120214611764500,3.870764404296875,-4.358700752258301,-5.969046592712402,-0.8874083757400513
1751120214621709300,3.880709228515625,-3.2764320373535156,-3.6116344928741455,-1.8673601150512695
1751120214631654400,3.890654296875,-2.452857255935669,1.0766183137893677,-2.577928066253662
1751120214641599500,3.900599609375,-2.213252305984497,6.55210018157959,-2.213557720184326
1751120214651544300,3.91054443359375,-2.3847477436065674,9.606184005737305,-1.1334271430969238
1751120214661489400,3.920489501953125,-2.6052634716033936,9.567852973937988,-0.06917845457792282
1751120214681379300,3.94037939453125,-2.6979596614837646,5.434555530548096,0.7797465324401855
1751120214691324400,3.950324462890625,-2.8311243057250977,2.7086493968963623,0.5549547076225281
1751120214701269500,3.96026953125,-3.046295166015625,0.13392825424671173,0.06810946762561798
1751120214711214300,3.97021435546875,-3.1869428157806396,-2.047865390777588,-0.6103891134262085
1751120214721159400,3.980159423828125,-3.2422244548797607,-3.587047815322876,-1.3753225803375244
1751120214731104500,3.9901044921875,-3.248638391494751,-4.36908483505249,-1.9441741704940796
1751120214741049300,4.00004931640625,-3.0974538326263428,-4.6129655838012695,-2.1390342712402344
1751120214750994400,4.009994384765625,-2.5669329166412354,-4.659848213195801,-1.9515042304992676
1751120214760939500,4.019939453125,-2.0066332817077637,-4.69924783706665,-1.6266862154006958
1751120214770884400,4.02988427734375,-1.79360032081604,-4.706730842590332,-1.4605357646942139
1751120214780829400,4.039829345703125,-1.6656277179718018,-4.697110176086426,-1.5074182748794556
1751120214790774500,4.0497744140625,-1.3547065258026123,-4.749337673187256,-1.6063755750656128
1751120214800719600,4.0597197265625,-0.8667922616004944,-4.889985084533691,-1.6692928075790405
1751120214810664700,4.069664794921875,-0.3011476993560791,-5.039031982421875,-1.6905198097229004
1751120214820609800,4.07960986328125,0.24540787935256958,-4.994287014007568,-1.682120680809021
1751120214830555000,4.089554931640625,0.6949914693832397,-4.544856548309326,-1.6192033290863037
1751120214840500000,4.0995,0.9549070000648499,-3.7075374126434326,-1.463742733001709
1751120214850445000,4.109445068359375,0.9622371196746826,-2.704068183898926,-1.1845855712890625
1751120214860390100,4.11939013671875,0.7802046537399292,-1.8986660242080688,-0.786160409450531
1751120214870335000,4.1293349609375,0.5095993280410767,-1.686702013015747,-0.28129515051841736
1751120214890225200,4.14922509765625,0.04932591691613197,-2.6049580574035645,1.3273711204528809
1751120214900170000,4.159169921875,-0.49921491742134094,-1.2733111381530762,2.406432867050171
1751120214910115000,4.169114990234375,-1.4057122468948364,2.083294630050659,2.80592679977417
1751120214920060000,4.179059814453125,-2.076880693435669,4.752849578857422,2.6258797645568848
1751120214930005000,4.1890048828125,-2.1856114864349365,5.075682640075684,2.4436943531036377
1751120214939949800,4.19894970703125,-1.8861435651779175,4.083819389343262,2.151862144470215
1751120214949895000,4.20889501953125,-1.4377816915512085,3.0995917320251465,1.4903146028518677
1751120214959839700,4.21883984375,-0.9753703474998474,2.311293363571167,0.6433748602867126
1751120214969784600,4.22878466796875,-0.5322006940841675,1.5346009731292725,-0.13316470384597778
1751120214979729700,4.238729736328125,-0.1328592747449875,0.9295567870140076,-0.8287670016288757
1751120214989674500,4.248674560546875,0.23792500793933868,0.49921491742134094,-1.1323580741882324
1751120214999619600,4.25861962890625,0.640626072883606,-0.15057384967803955,-0.6285618543624878
1751120215009564400,4.268564453125,0.9292513728141785,-0.7556180357933044,0.3834593594074249
1751120215019509500,4.278509521484375,0.8333483934402466,-0.3668137788772583,1.386928677558899
1751120215029454300,4.288454345703125,0.18035265803337097,1.4260228872299194,1.9185185432434082
1751120215039399400,4.2983994140625,-0.7805100679397583,3.170908212661743,1.8375812768936157
1751120215049344300,4.30834423828125,-1.4367127418518066,3.3370585441589355,1.4359492063522339
1751120215059289300,4.318289306640625,-1.612484097480774,2.8705239295959473,0.9874345660209656
1751120215069234200,4.328234130859375,-1.4868022203445435,3.011171579360962,0.6401679515838623
1751120215079179000,4.338178955078125,-1.1373976469039917,3.563988447189331,0.48577627539634705
1751120215089124000,4.3481240234375,-0.5493044257164001,3.6896700859069824,0.5454866290092468
1751120215099069000,4.35806884765625,0.23364907503128052,3.159149408340454,0.7531746625900269
1751120215109014000,4.368013916015625,1.108229637145996,2.287775754928589,0.9458969831466675
1751120215118958800,4.377958740234375,1.9892240762710571,1.4515258073806763,0.9544488191604614
1751120215128904000,4.387904052734375,2.7721774578094482,0.9126058220863342,0.7617265582084656
1751120215138848800,4.397848876953125,3.2558159828186035,0.7963921427726746,0.5677825212478638
1751120215148793900,4.4077939453125,3.346374034881592,0.9785773158073425,0.4900522232055664
1751120215158738700,4.41773876953125,3.179154634475708,1.2470446825027466,0.4643966257572174
1751120215168683500,4.42768359375,2.9639835357666016,1.4238849878311157,0.4581354558467865
1751120215178628600,4.437628662109375,2.8488388061523438,1.4483188390731812,0.529451847076416
1751120215188573400,4.447573486328125,2.8819773197174072,1.3046170473098755,0.7285880446434021
1751120215198518500,4.4575185546875,3.0299551486968994,0.9349017143249512,1.0259180068969727
1751120215208463400,4.46746337890625,3.2185542583465576,0.3032856583595276,1.3678396940231323
1751120215218408400,4.477408447265625,3.376152753829956,-0.49890950322151184,1.742747187614441
1751120215228353300,4.487353271484375,3.4784696102142334,-1.2968287467956543,2.0698559284210205
1751120215238298400,4.49729833984375,3.583840847015381,-1.8783552646636963,2.2381443977355957
1751120215248243500,4.507243408203125,3.7874057292938232,-2.0616095066070557,2.247765302658081
1751120215258188300,4.517188232421875,4.046252250671387,-1.6473023891448975,2.2051587104797363
1751120215268133400,4.52713330078125,4.191175937652588,-0.39445462822914124,2.2775440216064453
1751120215278078500,4.537078369140625,4.0398383140563965,1.6944903135299683,2.6419143676757812
1751120215288023300,4.547023193359375,3.769232988357544,4.0741987228393555,3.2480275630950928
1751120215297968400,4.556968505859375,3.7362473011016846,5.96293830871582,3.72632098197937
1751120215307913500,4.56691357421875,4.0515971183776855,7.816554069519043,3.838106155395508
1751120215317858300,4.5768583984375,4.4275736808776855,10.214435577392578,3.210765838623047
1751120215327803400,4.586803466796875,4.398863792419434,10.357220649719238,1.7768019437789917
1751120215337748500,4.59674853515625,3.7884747982025146,5.571996212005615,0.3781144618988037
1751120215347693300,4.606693359375,2.585716485977173,-0.7279772162437439,-0.6264238357543945
1751120215357638400,4.616638427734375,1.041189193725586,-4.140017509460449,-1.3027844429016113
1751120215367583500,4.62658349609375,-0.42041563987731934,-4.328463554382324,-1.8056645393371582
1751120215377528300,4.6365283203125,-1.5868284702301025,-3.2472641468048096,-2.1572070121765137
1751120215387473400,4.646473388671875,-2.4667539596557617,-2.1831681728363037,-2.2114198207855225
1751120215397418500,4.65641845703125,-3.1602182388305664,-1.4182345867156982,-1.9409672021865845
1751120215407363300,4.66636328125,-3.7887802124023438,-0.8686248064041138,-1.5211623907089233
1751120215417308400,4.676308349609375,-4.290438652038574,-0.7183563709259033,-1.2346750497817993
1751120215427253500,4.68625341796875,-4.4854512214660645,-1.1221264600753784,-1.249488115310669
1751120215437198300,4.6961982421875,-4.342665672302246,-1.8357486724853516,-1.5894246101379395
1751120215447143400,4.706143310546875,-4.024261951446533,-2.6283230781555176,-2.230661392211914
1751120215457088500,4.716088623046875,-3.760070323944092,-3.500765562057495,-3.087069272994995
1751120215467033300,4.726033447265625,-3.5618503093719482,-4.1612443923950195,-4.052207946777344
1751120215476978400,4.735978515625,-3.3775272369384766,-3.8694119453430176,-4.9396162033081055
1751120215486923300,4.74592333984375,-3.251845359802246,-2.1831681728363037,-5.514881610870361
1751120215496868400,4.755868408203125,-3.514967918395996,1.6294350624084473,-5.198462963104248
1751120215506813400,4.7658134765625,-4.451396465301514,7.596038341522217,-3.512218952178955
1751120215516758300,4.77575830078125,-5.405845642089844,12.211752891540527,-1.2442958354949951
1751120215526703400,4.785703369140625,-5.667899131774902,13.379387855529785,0.6604785919189453
1751120215536648400,4.7956484375,-5.110806465148926,12.216029167175293,2.262578248977661
1751120215546593300,4.80559326171875,-4.171170711517334,9.925809860229492,4.023498058319092
1751120215556538400,4.815538330078125,-3.2901761531829834,6.818429946899414,5.810989856719971
1751120215576428300,4.83542822265625,-1.919282078742981,1.0616525411605835,5.078125953674316
1751120215586373400,4.845373291015625,-1.2928582429885864,-1.8357486724853516,1.7694717645645142
1751120215596318500,4.855318359375,-0.8794673681259155,-5.5472564697265625,-0.6444438695907593
1751120215616208400,4.87520849609375,-0.46729815006256104,-9.154156684875488,-1.7971125841140747
1751120215626153500,4.885153564453125,-0.17118994891643524,-8.44038200378418,-1.8716360330581665
1751120215636098300,4.895098388671875,0.12293300777673721,-7.147218227386475,-1.932415246963501
1751120215646043400,4.90504345703125,0.3465031087398529,-5.7699103355407715,-1.961125135421753
1751120215655988500,4.914988525390625,0.5149442553520203,-4.468042373657227,-1.988918662071228
1751120215665933300,4.924933349609375,0.6768187880516052,-3.352787971496582,-2.028318405151367
1751120215675878400,4.93487841796875,0.8675557971000671,-2.592130422592163,-2.048476219177246
1751120215685823500,4.944823486328125,1.0795198678970337,-2.261967420578003,-1.9951798915863037
1751120215695768300,4.954768310546875,1.2627739906311035,-2.2608983516693115,-1.8099404573440552
1751120215705713400,4.96471337890625,1.4043378829956055,-2.5762484073638916,-1.407239317893982
1751120215715658500,4.974658447265625,1.508792757987976,-3.153498888015747,-0.6849125027656555
1751120215725603300,4.984603271484375,1.5342955589294434,-3.2238991260528564,0.3217637836933136
1751120215735548400,4.99454833984375,1.3606622219085693,-1.8027629852294922,1.3635637760162354
1751120215745493500,5.004493408203125,0.9345963001251221,0.5045598149299622,2.100703716278076
1751120215755438300,5.014438232421875,0.4158342778682709,2.439113140106201,2.2957167625427246
1751120215765383400,5.024383544921875,-0.011300674639642239,3.5074849128723145,2.0325942039489746
1751120215775328300,5.034328369140625,-0.29259583353996277,3.8654415607452393,1.569113850593567
1751120215785273300,5.0442734375,-0.41507071256637573,3.810007095336914,1.100441336631775
1751120215795218400,5.054218505859375,-0.3542914092540741,3.396768808364868,0.7403468489646912
1751120215805163300,5.064163330078125,-0.08276980370283127,2.3794028759002686,0.5080721974372864
1751120215815108400,5.0741083984375,0.3370349705219269,0.633448600769043,0.31534990668296814
1751120215825053400,5.084053466796875,0.6554391384124756,-1.3702831268310547,0.12995775043964386
1751120215834998300,5.093998291015625,0.8525900840759277,-2.9372589588165283,-0.0032069480512291193
1751120215844943400,5.103943359375,1.2201673984527588,-3.126927137374878,0.217308908700943
1751120215854888400,5.113888427734375,1.7143428325653076,-0.5628957748413086,1.1610679626464844
1751120215864833300,5.123833251953125,1.576902151107788,1.978839635848999,1.9099667072296143
1751120215874778400,5.1337783203125,0.6384881138801575,1.2427687644958496,1.5915625095367432
1751120215884723500,5.143723388671875,-0.5375455617904663,-0.5586197972297668,0.578472375869751
1751120215894668300,5.153668212890625,-1.4388507604599,-0.9718579649925232,-0.6328377723693848
1751120215904613400,5.16361328125,-2.0640528202056885,0.12110047042369843,-1.786422848701477
1751120215914558500,5.173558349609375,-2.496532678604126,1.9618886709213257,-2.496990919113159
1751120215924503300,5.18350341796875,-2.551967144012451,3.7674005031585693,-2.2030205726623535
1751120215934448400,5.193448486328125,-2.1237633228302,4.524850845336914,-0.5358657836914062
1751120215944393500,5.2033935546875,-1.283237338066101,3.8814761638641357,1.5052803754806519
1751120215954338300,5.21333837890625,-0.057114217430353165,2.6245052814483643,2.465074062347412
1751120215964283400,5.223283447265625,1.3574553728103638,1.5251328945159912,2.279681921005249
1751120215974228500,5.233228515625,2.669860601425171,0.7346965670585632,1.6202723979949951
1751120215984173300,5.24317333984375,3.69364070892334,0.10827267915010452,0.9512419104576111
1751120215994118400,5.253118408203125,4.388174057006836,-0.5160132050514221,0.47829338908195496
1751120216004063500,5.2630634765625,4.7662882804870605,-1.3127107620239258,0.28969430923461914
1751120216023953400,5.282953369140625,4.786599159240723,-3.1545679569244385,0.6562026739120483
1751120216033898200,5.292898193359375,4.565014362335205,-3.6692068576812744,0.9917105436325073
1751120216043843300,5.30284326171875,4.242181301116943,-3.7383852005004883,1.269798755645752
1751120216053788200,5.3127880859375,3.8374950885772705,-3.419828414916992,1.455190896987915
1751120216063733200,5.322733154296875,3.398601531982422,-2.817991018295288,1.5947694778442383
1751120216073678000,5.332677978515625,2.947948932647705,-2.0350377559661865,1.761988878250122
1751120216083623200,5.342623046875,2.5133309364318848,-1.0613471269607544,2.0208353996276855
1751120216093568000,5.352568115234375,2.187291383743286,0.011300674639642239,2.335116386413574
1751120216103513000,5.36251318359375,2.013658046722412,0.9914051294326782,2.6419143676757812
1751120216113458000,5.3724580078125,1.9273757934570312,1.897902488708496,2.8996918201446533
1751120216123402800,5.38240283203125,1.877439022064209,2.754462957382202,2.9720773696899414
1751120216133347800,5.392347900390625,1.8826313018798828,3.4990859031677246,2.745147466659546
1751120216143292700,5.402292724609375,1.9273757934570312,4.3437347412109375,2.3009088039398193
1751120216153237800,5.41223779296875,1.9189766645431519,5.6507954597473145,1.7118993997573853
1751120216163182600,5.4221826171875,1.8220046758651733,6.864243507385254,0.934290885925293
1751120216173127700,5.432127685546875,1.7239636182785034,6.8918843269348145,0.15652960538864136
1751120216183072500,5.442072509765625,1.7143428325653076,5.7318854331970215,-0.3568875193595886
1751120216193017600,5.452017578125,1.8134528398513794,4.0774054527282715,-0.5315898060798645
1751120216202962400,5.46196240234375,1.9689134359359741,2.424147367477417,-0.4091149568557739
1751120216212907500,5.471907470703125,2.0840580463409424,1.0275977849960327,-0.0841442123055458
1751120216222852400,5.481852294921875,2.0115199089050293,0.06994201242923737,0.28129515051841736
1751120216232797200,5.491797119140625,1.5907989740371704,-0.22189027070999146,0.5037962794303894
1751120216242742300,5.5017421875,0.7705838084220886,0.10720369219779968,0.3558185398578644
1751120216252687000,5.51168701171875,-0.21165858209133148,0.5726693272590637,-0.30252209305763245
1751120216262632200,5.521632080078125,-0.9903361201286316,0.4769189953804016,-1.1291511058807373
1751120216272577000,5.531576904296875,-1.4750434160232544,-0.19318044185638428,-1.7054855823516846
1751120216282522000,5.541522216796875,-1.7957382202148438,-0.8057075142860413,-2.033663272857666
1751120216292467000,5.551467041015625,-2.0619149208068848,-1.0240854024887085,-2.2499032020568848
1751120216302412000,5.561412109375,-2.3410720825195312,-1.210546612739563,-2.335116386413574
1751120216312356900,5.57135693359375,-2.7181174755096436,-1.750535488128662,-2.2957167625427246
1751120216322301700,5.5813017578125,-3.255052328109741,-2.595337390899658,-2.303046941757202
1751120216332246800,5.591246826171875,-3.95706844329834,-3.4144835472106934,-2.458660125732422
1751120216342191600,5.601191650390625,-4.814698219299316,-3.583840847015381,-2.6577963829040527
1751120216352136700,5.61113671875,-5.790373802185059,-2.634737014770508,-2.763320207595825
1751120216362081500,5.62108154296875,-6.716113090515137,-0.9622371196746826,-2.774010181427002
1751120216372026600,5.631026611328125,-7.370177745819092,1.094791054725647,-2.721782684326172
1751120216381971500,5.640971435546875,-7.6620097160339355,3.3978378772735596,-2.620534658432007
1751120216391916500,5.65091650390625,-7.642920970916748,5.557182788848877,-2.6173276901245117
1751120216401861400,5.660861328125,-7.194406509399414,7.4937214851379395,-2.5044736862182617
1751120216411806500,5.670806396484375,-6.1397786140441895,9.026642799377441,-1.6553961038589478
1751120216421751300,5.680751220703125,-4.547299861907959,9.436826705932617,0.25350162386894226
1751120216431696400,5.6906962890625,-2.8683860301971436,8.086091041564941,2.635500431060791
1751120216451586300,5.71058642578125,-0.5045598149299622,2.473167896270752,4.628542423248291
1751120216461531400,5.720531494140625,-0.15622419118881226,-0.6395570635795593,3.4983222484588623
1751120216471476200,5.730476318359375,-0.2658712565898895,-3.499696731567383,1.4252593517303467
1751120216481421300,5.74042138671875,-0.35322242975234985,-5.669731616973877,0.030847785994410515
1751120216491366400,5.750366455078125,-0.29687178134918213,-6.991757869720459,-0.4421007037162781
1751120216501311200,5.760311279296875,-0.24250635504722595,-7.533884525299072,-0.6157340407371521
1751120216511256300,5.77025634765625,-0.25212720036506653,-7.541367530822754,-0.8116632699966431
1751120216521201400,5.780201416015625,-0.2990097403526306,-7.231362342834473,-0.959793746471405
1751120216531146200,5.790146240234375,-0.36284327507019043,-6.690151691436768,-0.9833113551139832
1751120216541091300,5.80009130859375,-0.4225535988807678,-6.0298261642456055,-0.9353598356246948
1751120216551036400,5.810036376953125,-0.42362257838249207,-5.265961647033691,-0.8660287261009216
1751120216560981200,5.819981201171875,-0.29473379254341125,-4.407415866851807,-0.8255600929260254
1751120216570926300,5.82992626953125,-0.034818295389413834,-3.494504451751709,-0.846939742565155
1751120216580871400,5.839871337890625,0.2912214398384094,-2.5186760425567627,-0.9214630722999573
1751120216590816300,5.849816162109375,0.6213843822479248,-1.570641040802002,-1.0439379215240479
1751120216600761300,5.85976123046875,0.8727480173110962,-0.8472451567649841,-1.1909993886947632
1751120216610706200,5.8697060546875,0.913369357585907,-0.5095993280410767,-1.223985195159912
1751120216620651300,5.8796513671875,0.6969767212867737,-0.6065713167190552,-1.0248489379882812
1751120216630596400,5.889596435546875,0.4040754735469818,-1.287207841873169,-0.6647545099258423
1751120216640541200,5.899541259765625,0.30191126465797424,-2.36092472076416,-0.49646610021591187
1751120216650486300,5.909486328125,0.23151111602783203,-2.8340258598327637,-0.5454866290092468
1751120216660431400,5.919431396484375,-0.1369825005531311,-1.6111096143722534,0.282364159822464
1751120216670376200,5.929376220703125,-0.728282630443573,1.4399197101593018,1.976090908050537
1751120216680321300,5.9393212890625,-1.3153069019317627,4.43108606338501,3.1744205951690674
1751120216690266400,5.949266357421875,-1.721062183380127,5.680727005004883,3.3460686206817627
1751120216700211200,5.959211181640625,-1.858502745628357,5.469831943511963,2.8442575931549072
1751120216710156300,5.96915625,-1.5943113565444946,4.461017608642578,1.988918662071228
1751120216720101400,5.979101318359375,-0.8327375054359436,2.4508719444274902,1.0332481861114502
1751120216730046200,5.989046142578125,0.33596599102020264,-0.3092414140701294,0.2652604281902313
1751120216739991300,5.9989912109375,1.6558542251586914,-2.378028392791748,-0.05757235363125801
1751120216749936400,6.008936279296875,2.7807295322418213,-2.069092273712158,0.08307522535324097
1751120216759881200,6.018881103515625,3.4476218223571777,0.8102889060974121,0.47615543007850647
1751120216769826300,6.028826416015625,3.457090139389038,2.9291653633117676,0.8458707332611084
1751120216779771400,6.038771484375,2.7124671936035156,1.870261549949646,1.0695935487747192
1751120216789716200,6.04871630859375,1.5524682998657227,-0.5170822143554688,0.9822424054145813
1751120216799661300,6.058661376953125,0.5425850749015808,-1.7303775548934937,0.36757734417915344
1751120216809606400,6.0686064453125,-0.16156910359859467,-1.2882769107818604,-0.616802990436554
1751120216819551200,6.07855126953125,-0.7569924592971802,0.1572931706905365,-1.5136795043945312
1751120216829496300,6.088496337890625,-1.2641483545303345,1.9863225221633911,-1.8131474256515503
1751120216839441400,6.09844140625,-1.4409886598587036,3.5714712142944336,-0.9064973592758179
1751120216849386200,6.10838623046875,-1.0937219858169556,4.112681865692139,0.7690566778182983
1751120216859331300,6.118331298828125,-0.31168481707572937,3.656684398651123,1.9026365280151367
1751120216869276400,6.1282763671875,0.7279772162437439,2.892819881439209,2.0208353996276855
1751120216889166300,6.148166259765625,2.760418653488159,1.3183610439300537,0.7180509567260742
1751120216899111400,6.158111328125,3.350649833679199,0.41827765107154846,0.03512371703982353
1751120216909056300,6.16805615234375,3.6499650478363037,-0.6853706240653992,-0.37078428268432617
1751120216919001300,6.17800146484375,3.7799227237701416,-1.997775912284851,-0.4718795120716095
1751120216928946200,6.1879462890625,3.8374950885772705,-3.3080432415008545,-0.30038413405418396
1751120216938891300,6.197891357421875,3.85872220993042,-4.304029941558838,0.09269607067108154
1751120216948836000,6.207836181640625,3.838564157485962,-4.79087495803833,0.6018372774124146
1751120216958781200,6.21778125,3.769232988357544,-4.749337673187256,1.107924222946167
1751120216968726000,6.22772607421875,3.6456892490386963,-4.113292694091797,1.5616309642791748
1751120216978671000,6.237671142578125,3.4444150924682617,-3.020334243774414,1.9547111988067627
1751120216988616000,6.247615966796875,3.156705856323242,-1.6941848993301392,2.325495481491089
1751120216998561000,6.25756103515625,2.8627357482910156,-0.01847812905907631,2.770803213119507
1751120217008505900,6.267505859375,2.617785930633545,1.800930380821228,3.139296770095825
1751120217018451000,6.277450927734375,2.352525472640991,3.1719770431518555,3.1776273250579834
1751120217028395800,6.287395751953125,2.0350377559661865,3.936910629272461,2.846395492553711
1751120217038340600,6.297340576171875,1.7494665384292603,4.4278788566589355,2.2871649265289307
1751120217048285700,6.30728564453125,1.5940059423446655,5.1043925285339355,1.747023105621338
1751120217058230500,6.31723046875,1.650509238243103,6.329446792602539,1.4487769603729248
1751120217068175600,6.327175537109375,1.9913620948791504,7.5491557121276855,1.3081294298171997
1751120217078120400,6.337120361328125,2.574110269546509,7.417059898376465,1.035386085510254
1751120217088065500,6.3470654296875,3.21962308883667,5.407983303070068,0.5485408306121826
1751120217098010400,6.35701025390625,3.6670687198638916,2.427354335784912,-0.08842013776302338
1751120217107955500,6.36695556640625,3.7362473011016846,-0.2208212912082672,-0.6626165509223938
1751120217117900300,6.376900390625,3.4208972454071045,-1.8262805938720703,-0.9075663089752197
1751120217127845400,6.386845458984375,2.8073012828826904,-2.378028392791748,-0.7510367035865784
1751120217137790200,6.396790283203125,1.910424828529358,-1.8549903631210327,-0.3271087110042572
1751120217147735000,6.406735107421875,0.7215633392333984,-0.5308262705802917,0.03405473381280899
1751120217157680000,6.41668017578125,-0.6026008129119873,0.8316685557365417,0.03512371703982353
1751120217167625000,6.426625,-1.7135792970657349,1.639055848121643,-0.36009445786476135
1751120217177570000,6.436570068359375,-2.418802499771118,1.8649166822433472,-0.9321529269218445
1751120217187515000,6.446514892578125,-2.794931650161743,1.6582975387573242,-1.450914978981018
1751120217197460000,6.4564599609375,-3.011171579360962,1.0447015762329102,-1.8407882452011108
1751120217207404800,6.46640478515625,-3.1783909797668457,0.11254860460758209,-2.111393451690674
1751120217217350000,6.476349853515625,-3.3541622161865234,-0.9782719016075134,-2.2721991539001465
1751120217227294700,6.486294677734375,-3.599112033843994,-2.0894031524658203,-2.4404876232147217
1751120217237239800,6.49623974609375,-3.953861713409424,-3.2494020462036133,-2.7845473289489746
1751120217247184600,6.5061845703125,-4.439637660980225,-4.344498634338379,-3.277806282043457
1751120217257129500,6.51612939453125,-5.080874919891357,-4.793013095855713,-3.687990427017212
1751120217267074600,6.526074462890625,-5.88948392868042,-3.367600917816162,-3.5216872692108154
1751120217277019400,6.536019287109375,-6.676713466644287,-0.05894676223397255,-2.6866588592529297
1751120217286964500,6.545964599609375,-7.157144546508789,3.2124457359313965,-1.8131474256515503
1751120217296910000,6.55591015625,-7.149661540985107,5.267335891723633,-1.3699777126312256
1751120217306855200,6.565855224609375,-6.634106636047363,6.593637943267822,-1.1195303201675415
1751120217316800000,6.575800048828125,-5.7638020515441895,7.63223123550415,-0.41018393635749817
1751120217326745000,6.5857451171875,-4.709174156188965,8.25651741027832,1.0779926776885986
1751120217336690000,6.59568994140625,-3.5714712142944336,7.970945835113525,2.9465744495391846
1751120217346635000,6.605635009765625,-2.4859955310821533,6.588293075561523,4.577383995056152
1751120217356579800,6.615579833984375,-1.6497457027435303,4.269211292266846,5.704549789428711
1751120217366525000,6.62552490234375,-1.1522105932235718,1.397313117980957,5.63308048248291
1751120217386414800,6.645414794921875,-0.7794411182403564,-4.559669494628906,0.23868857324123383
1751120217396359700,6.655359619140625,-0.5407525300979614,-7.235638618469238,-1.0248489379882812
1751120217406304500,6.665304443359375,-0.2148655205965042,-8.909207344055176,-1.330578088760376
1751120217416249600,6.67524951171875,0.0844496339559555,-9.41407299041748,-1.50421142578125
1751120217426194400,6.6851943359375,0.3124483823776245,-9.227611541748047,-1.7044165134429932
1751120217436139500,6.695139404296875,0.47859883308410645,-8.723814964294434,-1.8215465545654297
1751120217446084400,6.70508447265625,0.5905365943908691,-7.999503135681152,-1.8226155042648315
1751120217456029400,6.715029541015625,0.6565080881118774,-6.985343933105469,-1.7247272729873657
1751120217465974300,6.724974365234375,0.7065975666046143,-5.602538108825684,-1.5478869676589966
1751120217475919400,6.73491943359375,0.7759287357330322,-4.037700176239014,-1.3327159881591797
1751120217485864200,6.7448642578125,0.9005415439605713,-2.5878543853759766,-1.111131191253662
1751120217495809300,6.754809326171875,1.0176715850830078,-1.3681451082229614,-0.8756495714187622
1751120217505754000,6.764754150390625,1.0133955478668213,-0.41797223687171936,-0.6647545099258423
1751120217515699000,6.774698974609375,0.8866447806358337,0.16584503650665283,-0.5433486104011536
1751120217525644000,6.78464404296875,0.7802046537399292,0.10399674624204636,-0.5241069197654724
1751120217535588900,6.7945888671875,0.8354863524436951,-0.92711341381073,-0.6562026739120483
1751120217545534000,6.804533935546875,0.9633061289787292,-2.499434232711792,-0.8724426031112671
1751120217555478800,6.814478759765625,0.7620319724082947,-2.7327778339385986,-0.5859552621841431
1751120217565423900,6.824423828125,0.15057384967803955,-0.453095942735672,0.4868452548980713
1751120217575368700,6.83436865234375,-0.5184566378593445,2.270824670791626,1.747023105621338
1751120217585313800,6.844313720703125,-1.032942771911621,3.444720506668091,2.4287288188934326
1751120217595258600,6.854258544921875,-1.461146593093872,3.4201338291168213,2.244558334350586
1751120217605203700,6.86420361328125,-1.9351640939712524,3.363783121109009,1.382652759552002
1751120217615148500,6.8741484375,-2.326106309890747,3.610870838165283,0.49112120270729065
1751120217625093400,6.88409326171875,-2.2089765071868896,3.538485527038574,0.15439164638519287
1751120217635038500,6.89403857421875,-1.329050898551941,2.3016724586486816,0.42927291989326477
1751120217644983300,6.9039833984375,0.04291202127933502,0.09025268256664276,0.8212841153144836
1751120217654928400,6.913928466796875,1.2349804639816284,-1.395938754081726,0.9801044464111328
1751120217664873200,6.923873291015625,1.504516839981079,-0.6554391384124756,0.7339329719543457
1751120217674818300,6.933818359375,0.7716528177261353,0.06245913356542587,0.09483403712511063
1751120217684763100,6.94376318359375,-0.1892099380493164,-0.6470399498939514,-0.7275190949440002
1751120217694708200,6.953708251953125,-0.7858549952507019,-1.2617050409317017,-1.5446799993515015
1751120217704653000,6.963653076171875,-1.0830321311950684,-0.8408312797546387,-2.0921518802642822
1751120217714598100,6.97359814453125,-1.2545275688171387,0.2286095917224884,-2.119945526123047
1751120217724543000,6.98354296875,-1.2821683883666992,1.2044380903244019,-1.4689348936080933
1751120217734487800,6.99348779296875,-0.976439356803894,1.4441956281661987,-0.3855973184108734
1751120217744433000,7.003432861328125,-0.19455485045909882,0.8496885299682617,0.6007682681083679
1751120217754377700,7.013377685546875,0.9345963001251221,0.0038177953101694584,1.1685508489608765
1751120217764322800,7.02332275390625,2.057333469390869,-0.2826695740222931,1.3389772176742554
1751120217774267600,7.033267578125,2.8648736476898193,0.08170082420110703,1.3102673292160034
1751120217784212700,7.043212646484375,3.3048362731933594,0.5364766120910645,1.233605980873108
1751120217794157600,7.053157470703125,3.502903699874878,0.7612683773040771,1.2111574411392212
1751120217814047500,7.073047607421875,3.644620180130005,0.3064926266670227,1.508487343788147
1751120217823992300,7.082992431640625,3.639275312423706,-0.31137940287590027,1.7651958465576172
1751120217833937400,7.0929375,3.5765106678009033,-0.9452861547470093,2.010145664215088
1751120217843882200,7.10288232421875,3.4677798748016357,-1.4118207693099976,2.1795029640197754
1751120217853827300,7.112827392578125,3.3080432415008545,-1.666391372680664,2.252957344055176
1751120217873717200,7.13271728515625,2.7871432304382324,-1.618439793586731,2.2700610160827637
1751120217883662000,7.142662109375,2.4717934131622314,-1.290414810180664,2.3413774967193604
1751120217893607200,7.152607177734375,2.2140159606933594,-0.666128933429718,2.609844923019409
1751120217903552000,7.162552001953125,2.1330785751342773,0.5428904891014099,3.199007034301758
1751120217913497000,7.1724970703125,2.160719394683838,2.3006033897399902,3.6954731941223145
1751120217923442000,7.18244189453125,2.0530576705932617,4.046557903289795,3.2523036003112793
1751120217933386800,7.19238671875,1.72823965549469,5.126688480377197,1.6404303312301636
1751120217943331800,7.202331787109375,1.3724210262298584,4.675119400024414,0.13423368334770203
1751120217953276700,7.212276611328125,1.1476292610168457,3.1197495460510254,-0.42392799258232117
1751120217963221800,7.2222216796875,1.0527952909469604,1.6784555912017822,-0.42072105407714844
1751120217973166600,7.23216650390625,1.0219475030899048,0.955212414264679,-0.39201122522354126
1751120217983111700,7.242111572265625,1.0080506801605225,0.8742751479148865,-0.4228590130805969
1751120217993056500,7.252056396484375,0.9889616966247559,1.15114164352417,-0.38666632771492004
1751120218003001600,7.262001708984375,0.9750649333000183,1.4868022203445435,-0.23975755274295807
1751120218012946400,7.271946533203125,1.0059127807617188,1.6647114753723145,-0.020310672000050545
1751120218022891500,7.2818916015625,1.112505555152893,1.5900354385375977,0.217308908700943
1751120218032836400,7.29183642578125,1.2818629741668701,1.3142378330230713,0.4378247857093811
1751120218042781200,7.30178125,1.472599983215332,0.9477295279502869,0.6189410090446472
1751120218052726300,7.311726318359375,1.6408884525299072,0.5525113344192505,0.7392778992652893
1751120218062671000,7.321671142578125,1.7612253427505493,0.1817270666360855,0.8011261820793152
1751120218072616200,7.3316162109375,1.7984870672225952,-0.07391251623630524,0.8532009124755859
1751120218082561000,7.34156103515625,1.6963227987289429,-0.03130592033267021,0.9353598356246948
1751120218092506000,7.351506103515625,1.4235795736312866,0.6259657144546509,0.9544488191604614
1751120218102451000,7.361450927734375,1.0219475030899048,1.9608197212219238,0.45706647634506226
1751120218112396000,7.37139599609375,0.5723638534545898,2.843952178955078,-0.4825693368911743
1751120218122340900,7.3813408203125,0.14629791676998138,2.3676440715789795,-1.0141592025756836
1751120218132286000,7.391285888671875,-0.20738264918327332,1.3301198482513428,-0.9747595191001892
1751120218142230800,7.401230712890625,-0.5120427012443542,0.8783983588218689,-0.9491039514541626
1751120218152175600,7.411175537109375,-0.8252546191215515,1.1267077922821045,-1.2261232137680054
1751120218162120700,7.42112060546875,-1.1564866304397583,1.5155121088027954,-1.576596736907959
1751120218172065500,7.4310654296875,-1.4889402389526367,1.5613255500793457,-1.741678237915039
1751120218182010600,7.4410107421875,-1.8041373491287231,1.0915840864181519,-1.737402319908142
1751120218191955500,7.45095556640625,-2.1184182167053223,0.28190600872039795,-1.6883817911148071
1751120218201900500,7.460900634765625,-2.4582021236419678,-0.50853031873703,-1.6277552843093872
1751120218211845400,7.470845458984375,-2.8193655014038086,-0.992168664932251,-1.5371971130371094
1751120218221790500,7.48079052734375,-3.2038938999176025,-1.1369394063949585,-1.4040324687957764
1751120218231735600,7.490735595703125,-3.6577534675598145,-1.1966497898101807,-1.2303991317749023
1751120218251625500,7.51062548828125,-4.5781474113464355,-1.993499994277954,-0.8713735938072205
1751120218271515400,7.530515380859375,-5.103323459625244,-1.3011046648025513,-0.5219689607620239
1751120218281460500,7.54046044921875,-5.345066070556641,1.2023000717163086,-0.18753011524677277
1751120218291405600,7.550405517578125,-5.517630577087402,3.740828514099121,-0.0787992998957634
1751120218301350400,7.560350341796875,-5.491058826446533,5.3994317054748535,-0.30572906136512756
1751120218311295500,7.57029541015625,-5.215108394622803,6.149399280548096,-0.2226538211107254
1751120218321240600,7.580240478515625,-4.65480899810791,5.813891410827637,0.7137750387191772
1751120218331185400,7.590185302734375,-3.769538402557373,4.6612229347229,1.790698766708374
1751120218341130500,7.600130615234375,-2.745911121368408,3.4265477657318115,2.3413774967193604
1751120218351075600,7.61007568359375,-1.8914885520935059,2.1588869094848633,2.355274200439453
1751120218361020400,7.6200205078125,-1.332257866859436,0.4960079789161682,1.848271131515503
1751120218370965500,7.629965576171875,-0.9753703474998474,-1.4415994882583618,1.1015102863311768
1751120218380910600,7.63991064453125,-0.7346965670585632,-3.164188861846924,0.47829338908195496
1751120218390855400,7.64985546875,-0.5833591222763062,-4.289063930511475,0.08307522535324097
1751120218400800500,7.659800537109375,-0.5216635465621948,-4.6821441650390625,-0.14278554916381836
1751120218410745300,7.669745361328125,-0.5131117105484009,-4.592655181884766,-0.2802261710166931
1751120218420690400,7.6796904296875,-0.5056288242340088,-4.410622596740723,-0.3686463236808777
1751120218430635500,7.689635498046875,-0.48959407210350037,-4.283719062805176,-0.41232189536094666
1751120218440580400,7.699580322265625,-0.45981526374816895,-4.158037185668945,-0.41445985436439514
1751120218450525400,7.709525390625,-0.38849884271621704,-3.986541986465454,-0.395218163728714
1751120218460470500,7.719470458984375,-0.2585411071777344,-3.7799227237701416,-0.3823903799057007
1751120218470415400,7.729415283203125,-0.07635590434074402,-3.5679588317871094,-0.3802524209022522
1751120218480360400,7.7393603515625,0.1495048701763153,-3.3453049659729004,-0.38666632771492004
1751120218490305500,7.749305419921875,0.39766156673431396,-3.081113576889038,-0.3962871730327606
1751120218500250400,7.75925048828125,0.6076403260231018,-2.68803334236145,-0.39735615253448486
1751120218510195200,7.7691953125,0.7588250041007996,-2.1682024002075195,-0.3408527672290802
1751120218520140300,7.779140380859375,0.8525900840759277,-1.6728051900863647,-0.1650814712047577
1751120218530085000,7.789085205078125,0.9324583411216736,-1.2531532049179077,0.08093725889921188
1751120218540030200,7.7990302734375,1.041189193725586,-1.1711468696594238,0.22906772792339325
1751120218549975000,7.80897509765625,1.2084085941314697,-1.7143428325653076,0.13316470384597778
1751120218559920000,7.818920166015625,1.3490561246871948,-2.857390880584717,-0.4485146105289459
1751120218569865000,7.828864990234375,1.112505555152893,-4.058011054992676,-1.4849697351455688
1751120218579810000,7.83881005859375,0.3071034550666809,-3.789543628692627,-1.3954805135726929
1751120218589755000,7.8487548828125,-0.777303159236908,-0.9846857786178589,0.2354816198348999
1751120218599700000,7.858699951171875,-1.8052064180374146,2.4827888011932373,1.9260014295578003
1751120218609644800,7.868644775390625,-2.4508719444274902,4.26600456237793,2.647106647491455
1751120218619589600,7.878589599609375,-2.545553207397461,4.48972749710083,2.2178337574005127
1751120218629534700,7.88853466796875,-2.218597173690796,4.273487567901611,1.0897514820098877
1751120218639479600,7.8984794921875,-1.5698775053024292,3.835662603378296,0.05757235363125801
1751120218649424600,7.908424560546875,-0.6206207871437073,2.6542840003967285,-0.18646112084388733
1751120218659369500,7.918369384765625,0.3518480062484741,0.8284615874290466,0.5485408306121826
1751120218669314600,7.928314453125,0.9654440879821777,0.04230117425322533,1.5158175230026245
1751120218679259400,7.93825927734375,0.8738170266151428,0.9914051294326782,1.398687481880188
1751120218689204500,7.94820458984375,0.22189027070999146,0.6100836992263794,0.33443886041641235
1751120218699149300,7.9581494140625,-0.27442312240600586,-0.8654178380966187,-0.7968502640724182
1751120218709094100,7.96809423828125,-0.3617742955684662,-1.4715310335159302,-1.5978237390518188
1751120218719039200,7.978039306640625,-0.3617742955684662,-1.0954018831253052,-1.9951798915863037
1751120218728984000,7.987984130859375,-0.4343124032020569,-0.49356457591056824,-1.9004985094070435
1751120218738929200,7.99792919921875,-0.45981526374816895,-0.1760767251253128,-1.26872980594635
1751120218748874000,8.0078740234375,-0.27656111121177673,-0.21654535830020905,-0.3239017724990845
1751120218758819000,8.017819091796875,0.20814619958400726,-0.4136963188648224,0.5198310017585754
1751120218768764000,8.027763916015624,0.9549070000648499,-0.4211791753768921,0.9917105436325073
1751120218778709000,8.037708984375,1.7708462476730347,-0.050394900143146515,1.1312891244888306
1751120218788653800,8.04765380859375,2.461103677749634,0.566408097743988,1.0886825323104858
1751120218798599000,8.057598876953126,2.941534996032715,1.0819631814956665,0.9683456420898438
1751120218808543700,8.067543701171875,3.231381893157959,1.1937482357025146,0.9118422269821167
1751120218818488600,8.077488525390624,3.3570637702941895,0.7698202729225159,1.0364550352096558
1751120218828433700,8.08743359375,3.315526247024536,0.034818295389413834,1.2985085248947144
1751120218838378500,8.09737841796875,3.1429617404937744,-0.6012263894081116,1.5436110496520996
1751120218848323600,8.107323486328125,2.9522247314453125,-1.036913275718689,1.6883817911148071
1751120218858268400,8.117268310546875,2.8222670555114746,-1.380972981452942,1.7587820291519165
1751120218868213500,8.127213623046876,2.7274329662323,-1.658908486366272,1.8045954704284668
1751120218878158300,8.137158447265625,2.592130422592163,-1.7207567691802979,1.851478099822998
1751120218888103400,8.147103515625,2.3887181282043457,-1.4916889667510986,1.9046217203140259
1751120218898048300,8.15704833984375,2.1703402996063232,-1.0688300132751465,1.980366826057434
1751120218917938200,8.176938232421875,1.9327207803726196,0.05604523420333862,2.3702399730682373
1751120218927883000,8.186883056640625,1.9806722402572632,0.876413106918335,2.635500431060791
1751120218937828000,8.196828125,2.103147029876709,1.9362330436706543,2.7324724197387695
1751120218947773000,8.20677294921875,2.1820991039276123,3.0760741233825684,2.4927148818969727
1751120218957718000,8.216718017578126,2.125595808029175,3.9847092628479004,1.8120783567428589
1751120218967662800,8.226662841796875,1.9380656480789185,4.386341571807861,0.770125687122345
1751120218977608000,8.23660791015625,1.7346534729003906,4.1210808753967285,-0.14278554916381836
1751120218987552800,8.246552734375,1.6558542251586914,3.3477485179901123,-0.5635066032409668
1751120218997497900,8.256497802734375,1.754811406135559,2.447664976119995,-0.529451847076416
1751120219007442700,8.266442626953125,1.9530314207077026,1.6773865222930908,-0.27595025300979614
1751120219017387800,8.2763876953125,2.1106300354003906,1.0563076734542847,-0.02870982140302658
1751120219027332600,8.28633251953125,2.172478199005127,0.5812211632728577,0.16721943020820618
1751120219037277400,8.29627734375,2.1628575325012207,0.3054236173629761,0.395218163728714
1751120219047223000,8.30622314453125,2.1127679347991943,0.2339545041322708,0.70308518409729
1751120219057167600,8.316167724609375,2.0200719833374023,0.32344362139701843,1.05142080783844
1751120219067112200,8.3261123046875,1.799556016921997,0.6143596172332764,1.3624948263168335
1751120219077056500,8.336056396484375,1.3447802066802979,1.1352596282958984,1.5414730310440063
1751120219087001000,8.3460009765625,0.7365291118621826,1.7135792970657349,1.4806936979293823
1751120219096945700,8.355945556640625,0.2113531529903412,2.4508719444274902,1.0141592025756836
1751120219106890200,8.36589013671875,-0.07742489129304886,3.3796651363372803,0.06291726976633072
1751120219116835000,8.3758349609375,-0.27121618390083313,3.4873270988464355,-0.7776085734367371
1751120219126779600,8.385779541015625,-0.5227325558662415,2.4720988273620605,-0.9981244206428528
1751120219136724500,8.395724365234376,-0.7272136807441711,1.2652174234390259,-0.8863393664360046
1751120219146669600,8.405669677734375,-0.8507575392723083,0.6739172339439392,-1.0034693479537964
1751120219156614700,8.41561474609375,-1.0243908166885376,0.6100836992263794,-1.4667969942092896
1751120219166559700,8.425559814453125,-1.2907202243804932,0.5280774831771851,-1.968608021736145
1751120219176504800,8.4355048828125,-1.619966983795166,0.11147962510585785,-2.2317304611206055
1751120219186450200,8.4454501953125,-2.0289292335510254,-0.6288672685623169,-2.2295925617218018
1751120219196395300,8.455395263671875,-2.5615880489349365,-1.4054068326950073,-2.1039106845855713
1751120219206340600,8.465340576171876,-3.191218852996826,-1.8624732494354248,-1.985711693763733
1751120219216286000,8.475285888671875,-3.8686482906341553,-1.7462595701217651,-1.9088976383209229
1751120219226231000,8.48523095703125,-4.593113422393799,-0.8664868474006653,-1.8407882452011108
1751120219236176400,8.49517626953125,-5.309942722320557,0.46729815006256104,-1.7928366661071777
1751120219246121500,8.50512158203125,-5.8308424949646,1.501615285873413,-1.8769809007644653
1751120219256066600,8.515066650390626,-6.0301313400268555,2.062983989715576,-2.10284161567688
1751120219275956500,8.53495654296875,-5.909641742706299,4.07633638381958,-2.230661392211914
1751120219285901300,8.5449013671875,-5.77662992477417,5.569858074188232,-1.8844637870788574
1751120219295846700,8.5548466796875,-5.364307880401611,6.548893451690674,-0.8681666851043701
1751120219305791200,8.564791259765625,-4.357631683349609,6.206971645355225,0.7872294187545776
1751120219315735800,8.57473583984375,-2.9174065589904785,4.536609649658203,2.1625521183013916
1751120219325680000,8.58468017578125,-1.7103723287582397,2.499739646911621,2.7324724197387695
1751120219335624700,8.594624755859375,-1.0308047533035278,0.6313106417655945,2.6631412506103516
1751120219345569300,8.6045693359375,-0.7304205894470215,-1.093263864517212,1.9431051015853882
1751120219355513900,8.614513916015625,-0.6079457402229309,-2.560213565826416,0.7339329719543457
1751120219375403300,8.6344033203125,-0.3512371778488159,-4.231644153594971,-0.37383851408958435
1751120219385348400,8.644348388671874,-0.2701472043991089,-4.499042987823486,-0.31321191787719727
1751120219395293200,8.654293212890625,-0.25747212767601013,-4.476593971252441,-0.2695363461971283
1751120219405238300,8.66423828125,-0.2829749882221222,-4.3029608726501465,-0.28129515051841736
1751120219415183000,8.67418310546875,-0.3148917555809021,-4.068548202514648,-0.3164188861846924
1751120219425128400,8.68412841796875,-0.3352024257183075,-3.826805353164673,-0.36223241686820984
1751120219435073500,8.694073486328126,-0.3426853120326996,-3.607358455657959,-0.4059080183506012
1751120219445018600,8.7040185546875,-0.3405473530292511,-3.4208972454071045,-0.4367557764053345
1751120219454964000,8.7139638671875,-0.3011476993560791,-3.2590229511260986,-0.4750864505767822
1751120219464909300,8.723909423828125,-0.21165858209133148,-3.0853896141052246,-0.5454866290092468
1751120219474854400,8.7338544921875,-0.08383878320455551,-2.7956953048706055,-0.638029932975769
1751120219484799700,8.7437998046875,0.03237490355968475,-2.3077809810638428,-0.7264500856399536
1751120219494745000,8.7537451171875,0.08979454636573792,-1.6334055662155151,-0.7617265582084656
1751120219504690200,8.763690185546874,0.1291942000389099,-0.8365553021430969,-0.7116370797157288
1751120219514635000,8.773635009765625,0.17714570462703705,-0.20066332817077637,-0.5848862528800964
1751120219524579800,8.783579833984374,0.24006296694278717,0.011300674639642239,-0.44103172421455383
1751120219534525000,8.79352490234375,0.3710896968841553,-0.26128992438316345,-0.2907632887363434
1751120219544472000,8.80347216796875,0.5254813432693481,-1.0433270931243896,-0.27808821201324463
1751120219554414800,8.813414794921876,0.49356457591056824,-1.8624732494354248,-0.6519267559051514
1751120219564357600,8.823357666015625,0.1388150453567505,-2.0093820095062256,-0.6722373962402344
1751120219574300700,8.83330078125,-0.4268295168876648,-1.056002140045166,0.5018110275268555
1751120219584244000,8.843243896484376,-1.0937219858169556,0.9370396733283997,2.027249336242676
1751120219594187500,8.8531875,-1.74137282371521,2.987653970718384,2.728196620941162
1751120219604131000,8.863131103515625,-2.183473587036133,4.208432197570801,2.502335786819458
1751120219614075400,8.873075439453125,-2.1588869094848633,4.613271236419678,1.7609199285507202
1751120219624020000,8.88302001953125,-1.616760015487671,4.644118785858154,0.8681666851043701
1751120219633964800,8.89296484375,-0.70797199010849,4.727346897125244,0.13744063675403595
1751120219643910100,8.90291015625,0.33917292952537537,4.526988983154297,-0.10766182839870453
1751120219653855700,8.912855712890625,1.1317472457885742,3.2614662647247314,0.20234315097332
1751120219663801600,8.922801513671875,1.493826985359192,1.1810731887817383,0.7382088899612427
1751120219673747700,8.932747802734376,1.6089717149734497,-0.5447230339050293,1.1216683387756348
1751120219683694000,8.942694091796875,1.7228946685791016,-1.1338852643966675,1.265522837638855
1751120219693640400,8.952640380859375,1.7974181175231934,-0.3507790267467499,1.1548067331314087
1751120219703587000,8.962587158203124,1.5492613315582275,1.0031639337539673,0.7947123050689697
1751120219713533400,8.972533447265626,0.9069554805755615,1.3078240156173706,0.35474956035614014
1751120219723478800,8.982478759765625,0.16126367449760437,0.7421793937683105,-0.17149536311626434
1751120219733423600,8.992423583984374,-0.4396573007106781,0.4214846193790436,-0.7328640222549438
1751120219743368700,9.00236865234375,-0.976439356803894,0.566408097743988,-1.0184351205825806
1751120219753313500,9.0123134765625,-1.5452908277511597,0.818840742111206,-0.7957812547683716
1751120219763258600,9.022258544921876,-1.894695520401001,0.8667922616004944,-0.41018393635749817
1751120219773203500,9.032203369140625,-1.796654462814331,0.7336275577545166,-0.25029465556144714
1751120219783148300,9.042148193359376,-1.2545275688171387,0.6803311109542847,-0.32603973150253296
1751120219793093000,9.052093017578125,-0.3596363365650177,0.80280601978302,-0.48043137788772583
1751120219803038200,9.0620380859375,0.6949914693832397,1.0085088014602661,-0.60825115442276
1751120219812983000,9.071983154296875,1.6558542251586914,1.2065759897232056,-0.6838434934616089
1751120219832872700,9.091872802734375,2.8393707275390625,1.2907202243804932,-0.5358657836914062
1751120219842817800,9.10181787109375,3.020334243774414,0.976439356803894,-0.188599094748497
1751120219852762600,9.1117626953125,3.020334243774414,0.3298575282096863,0.3280249834060669
1751120219862707500,9.12170751953125,2.9873485565185547,-0.5905365943908691,0.8863393664360046
1751120219872652300,9.13165234375,3.0076591968536377,-1.554606318473816,1.3550119400024414
1751120219882597400,9.141597412109375,3.062940835952759,-2.35787034034729,1.6489821672439575
1751120219892542200,9.151542236328124,3.0875275135040283,-2.8126461505889893,1.7705408334732056
1751120219902487000,9.161487060546875,3.0353000164031982,-2.83188796043396,1.78214693069458
1751120219912431900,9.171431884765624,2.9267218112945557,-2.5154690742492676,1.742747187614441
1751120219922377000,9.181376953125,2.8040943145751953,-2.0669543743133545,1.7129684686660767
1751120219932321800,9.19132177734375,2.6944472789764404,-1.6111096143722534,1.734195351600647
1751120219942266600,9.2012666015625,2.6304609775543213,-0.9761339426040649,1.8833948373794556
1751120219952211500,9.21121142578125,2.6719987392425537,0.19241689145565033,2.2636473178863525
1751120219962156500,9.221156494140626,2.7892813682556152,1.7625997066497803,2.704679012298584
1751120219972101400,9.231101318359375,2.8190600872039795,3.0217087268829346,2.8399815559387207
1751120219982046200,9.241046142578124,2.6603925228118896,3.465947389602661,2.536390542984009
1751120219991991000,9.250990966796875,2.3418357372283936,3.237032413482666,1.9589871168136597
1751120220011881000,9.270880859375,1.4948959350585938,2.727738380432129,0.8670976758003235
1751120220021825800,9.28082568359375,1.0986088514328003,3.1954946517944336,0.525175929069519
1751120220031770600,9.2907705078125,0.8419002294540405,3.6140778064727783,0.3727695345878601
1751120220041715700,9.3007158203125,0.7247702479362488,3.3828721046447754,0.37597647309303284
1751120220051660500,9.31066064453125,0.7076665759086609,2.572277784347534,0.4027010500431061
1751120220061605400,9.32060546875,0.7641699314117432,1.5176500082015991,0.36971530318260193
1751120220071550200,9.33055029296875,0.8686248064041138,0.4769189953804016,0.3142809271812439
1751120220081495300,9.340495361328125,0.9857547879219055,-0.3614688515663147,0.3089359998703003
1751120220091440000,9.350440185546875,1.0816577672958374,-0.8611419200897217,0.3930802047252655
1751120220101385200,9.36038525390625,1.0763128995895386,-0.9581139087677002,0.5656445622444153
1751120220111330000,9.370330078125,0.8780929446220398,-0.6565080881118774,0.7585195899009705
1751120220121275000,9.38027490234375,0.5053234100341797,0.029473381116986275,0.8927532434463501
1751120220131220000,9.390219970703125,0.11438114941120148,0.9584193229675293,0.8979454636573792
1751120220141164800,9.400164794921874,-0.12110047042369843,1.926764965057373,0.6647545099258423
1751120220151110000,9.41010986328125,-0.1754658818244934,2.8161585330963135,0.18004722893238068
1751120220161054700,9.4200546875,-0.23823043704032898,3.3573691844940186,-0.2492256760597229
1751120220180944600,9.439944580078125,-0.34375429153442383,2.879075765609741,-0.4453076422214508
1751120220190889700,9.4498896484375,-0.14553436636924744,2.322899341583252,-0.5581616759300232
1751120220200834600,9.45983447265625,-0.028404397889971733,1.8756065368652344,-0.7371399402618408
1751120220210779600,9.469779541015624,-0.11575555801391602,1.4835952520370483,-0.9150491952896118
1751120220220724500,9.479724365234375,-0.32344362139701843,1.0222529172897339,-1.1270132064819336
1751120220230669300,9.48966943359375,-0.5610632300376892,0.4086568057537079,-1.3837217092514038
1751120220240614400,9.499614501953126,-0.807081937789917,-0.3892624080181122,-1.5521628856658936
1751120220250559200,9.509559326171875,-1.0851701498031616,-1.2893458604812622,-1.5094035863876343
1751120220260504300,9.51950439453125,-1.4600776433944702,-2.0467965602874756,-1.3614258766174316
1751120220270449200,9.52944921875,-2.0289292335510254,-2.3151111602783203,-1.3560808897018433
1751120220280394200,9.539394287109374,-2.867316961288452,-1.852852463722229,-1.5894246101379395
1751120220290339000,9.549339111328125,-3.870786428451538,-0.7641699314117432,-1.8536159992218018
1751120220300284200,9.5592841796875,-4.893497467041016,0.5099047422409058,-1.9504352807998657
1751120220310229000,9.56922900390625,-5.803201675415039,1.3684505224227905,-1.955780267715454
1751120220320174000,9.579174072265625,-6.435886859893799,1.6816625595092773,-2.065579891204834
1751120220330119000,9.589118896484376,-6.7214579582214355,2.001288414001465,-2.2466962337493896
1751120220340063700,9.599063720703125,-6.751236438751221,3.0323984622955322,-2.106048583984375
1751120220350008800,9.6090087890625,-6.62555456161499,4.551575660705566,-1.265522837638855
1751120220359953700,9.61895361328125,-6.262253284454346,5.576272010803223,0.01175880990922451
1751120220369898800,9.628898681640624,-5.368583679199219,5.714781761169434,1.1015102863311768
1751120220379843600,9.638843505859375,-4.017848014831543,5.059648036956787,1.401894450187683
1751120220389788700,9.64878857421875,-2.915268659591675,3.552229404449463,0.529451847076416
1751120220399733500,9.6587333984375,-2.2579967975616455,1.8478130102157593,-0.48791423439979553
1751120220409678600,9.6686787109375,-1.728545069694519,0.550373375415802,-0.6476507782936096
1751120220419623400,9.67862353515625,-1.2055070400238037,-0.5543438792228699,-0.37597647309303284
1751120220429568500,9.688568603515625,-0.798530101776123,-1.5715572834014893,-0.3365768492221832
1751120220439513300,9.698513427734374,-0.5642701387405396,-2.308849811553955,-0.5667135715484619
1751120220449458200,9.708458251953125,-0.49493899941444397,-2.6229782104492188,-0.851215660572052
1751120220459403300,9.7184033203125,-0.5790832042694092,-2.482483148574829,-1.0610417127609253
1751120220469348000,9.72834814453125,-0.7495095729827881,-2.0755062103271484,-1.1771026849746704
1751120220479293200,9.738293212890625,-0.9338327646255493,-1.7708462476730347,-1.2378820180892944
1751120220489238000,9.748238037109376,-1.1170868873596191,-1.7772600650787354,-1.253764033317566
1751120220499183000,9.75818310546875,-1.3024790287017822,-1.9988449811935425,-1.2271921634674072
1751120220509128000,9.7681279296875,-1.45366370677948,-2.2544844150543213,-1.1856545209884644
1751120220519073000,9.778072998046875,-1.506960153579712,-2.3940632343292236,-1.2111574411392212
1751120220529017900,9.788017822265624,-1.4324368238449097,-2.366269588470459,-1.3389772176742554
1751120220538962700,9.797962646484375,-1.2427687644958496,-2.1510987281799316,-1.4806936979293823
1751120220548907800,9.80790771484375,-0.9753703474998474,-1.8389556407928467,-1.5168864727020264
1751120220558852600,9.8178525390625,-0.6642963886260986,-1.6195087432861328,-1.3976185321807861
1751120220568797700,9.827797607421875,-0.30221667885780334,-1.5109306573867798,-1.1366339921951294
1751120220578742500,9.837742431640624,0.12720894813537598,-1.4246485233306885,-0.7893673777580261
1751120220588687600,9.8476875,0.5745018720626831,-1.30644953250885,-0.38880428671836853
1751120220598632400,9.857632568359374,0.9367342591285706,-1.1880979537963867,0.04688252881169319
1751120220608577500,9.86757763671875,1.1264023780822754,-1.0133955478668213,0.3823903799057007
1751120220618522400,9.8775224609375,1.09219491481781,-0.3465031087398529,0.6157340407371521
1751120220628467500,9.887467529296876,0.828003466129303,0.8646543025970459,1.1590826511383057
1751120220638412300,9.897412353515625,0.3274141252040863,1.6773865222930908,2.0645110607147217
1751120220648357000,9.907357177734376,-0.3309265077114105,2.091846466064453,2.669555187225342
1751120220658302200,9.91730224609375,-0.7623373866081238,2.530740261077881,2.629086494445801
1751120220668247000,9.9272470703125,-0.5375455617904663,2.673372983932495,2.094289779663086
1751120220678192000,9.937192138671875,0.2486148327589035,2.215390205383301,1.3592878580093384
1751120220688137000,9.947136962890625,1.0656230449676514,1.502684235572815,0.7392778992652893
1751120220698082000,9.95708203125,1.509861707687378,1.0265288352966309,0.43141087889671326
1751120220708027000,9.96702685546875,1.5726262331008911,1.45366370677948,0.47829338908195496
1751120220717972000,9.976971923828126,1.3490561246871948,3.231687307357788,0.8799254894256592
1751120220727916800,9.986916748046875,0.8568660020828247,4.012503147125244,1.2473500967025757
1751120220737862000,9.99686181640625,0.13453911244869232,1.7051801681518555,1.1015102863311768
1751120220747806700,10.006806640625,-0.5088357925415039,-1.351194143295288,0.33764582872390747
1751120220757751600,10.01675146484375,-0.712247908115387,-2.606027126312256,-0.7669187188148499
1751120220767696600,10.026696533203125,-0.5951179265975952,-1.9040108919143677,-1.5669759511947632
1751120220777641500,10.036641357421875,-0.4811949133872986,-0.091932512819767,-1.2591089010238647
1751120220787586600,10.046586669921876,-0.45767730474472046,1.449387788772583,-0.22906772792339325
1751120220797531400,10.056531494140625,-0.2883199155330658,1.845674991607666,0.4559974670410156
1751120220807476500,10.0664765625,0.1441599577665329,1.5741534233093262,0.5102101564407349
1751120220817421300,10.07642138671875,0.7333221435546875,1.2917892932891846,0.27060532569885254
1751120220827366100,10.0863662109375,1.3490561246871948,1.1245697736740112,0.006413896102458239
1751120220837311000,10.09631103515625,1.9337897300720215,1.01370108127594,-0.22479179501533508
1751120220847256000,10.106256103515625,2.4056692123413086,0.9817842841148376,-0.40483900904655457
1751120220857201000,10.116200927734376,2.701930046081543,0.9839222431182861,-0.5166240930557251
1751120220867145700,10.126145751953125,2.855252742767334,0.8357917666435242,-0.4975350797176361
1751120220877090600,10.136090576171876,2.9267218112945557,0.37567105889320374,-0.2438807636499405
1751120220887035600,10.14603564453125,2.9575695991516113,-0.3742966651916504,0.23227466642856598
1751120220896980500,10.15598046875,2.9873485565185547,-1.2381874322891235,0.7574505805969238
1751120220906925300,10.16592529296875,3.028886079788208,-1.9637212753295898,1.1430479288101196
1751120220916870100,10.1758701171875,3.066147804260254,-2.349318504333496,1.345391035079956
1751120220926815200,10.185815185546875,3.0682857036590576,-2.391925096511841,1.4263283014297485
1751120220936760000,10.195760009765625,3.0181963443756104,-2.209739923477173,1.4423631429672241
1751120220946705000,10.205704833984376,2.9256529808044434,-1.8507144451141357,1.4370181560516357
1751120220956649700,10.215649658203125,2.817991018295288,-1.3574553728103638,1.4359492063522339
1751120220966594800,10.2255947265625,2.7092602252960205,-0.8354863524436951,1.45198392868042
1751120220976539600,10.23553955078125,2.603889226913452,-0.3614688515663147,1.5094035863876343
1751120220986484500,10.245484375,2.521883010864258,0.04963133856654167,1.6192033290863037
1751120220996429300,10.25542919921875,2.45255184173584,0.4459185004234314,1.7225892543792725
1751120221006374400,10.26537451171875,2.3396975994110107,0.8561024069786072,1.7215203046798706
1751120221016319200,10.2753193359375,2.163926362991333,1.1851963996887207,1.579803705215454
1751120221026264000,10.28526416015625,1.9359276294708252,1.4249539375305176,1.3421841859817505
1751120221036209000,10.295208984375,1.6760121583938599,1.7700825929641724,1.0983033180236816
1751120221046154000,10.305154052734375,1.4193036556243896,2.230355978012085,0.8959602117538452
1751120221056098800,10.315098876953124,1.1913049221038818,2.539292097091675,0.7127060294151306
1751120221066043600,10.325043701171875,1.0219475030899048,2.5360851287841797,0.5433486104011536
1751120221075988500,10.334988525390624,0.9517000317573547,2.287775754928589,0.44423866271972656
1751120221085933600,10.34493359375,1.0069817304611206,1.9373021125793457,0.47081053256988525
1751120221095878400,10.35487841796875,1.165802001953125,1.5527737140655518,0.5911474227905273
1751120221105823200,10.3648232421875,1.3692141771316528,1.154348611831665,0.6902574300765991
1751120221115768000,10.37476806640625,1.5226894617080688,0.7837170362472534,0.6817055344581604
1751120221125713200,10.384713134765626,1.5556752681732178,0.4790569543838501,0.5485408306121826
1751120221135658000,10.394657958984375,1.4267865419387817,0.23181653022766113,0.3035911023616791
1751120221145602800,10.404602783203124,1.1401463747024536,0.03374931216239929,-0.012827792204916477
1751120221155547600,10.414547607421875,0.7566870450973511,-0.08658760040998459,-0.33764582872390747
1751120221165492700,10.42449267578125,0.3455868363380432,-0.029167955741286278,-0.5752654075622559
1751120221175437600,10.4344375,-0.0528382882475853,0.27656111121177673,-0.6615476012229919
1751120221195327200,10.4543271484375,-0.7346965670585632,0.890157163143158,-0.687050461769104
1751120221205272300,10.464272216796875,-0.9423846006393433,0.8263236284255981,-0.8522846102714539
1751120221215217200,10.474217041015624,-1.032942771911621,0.5439594984054565,-1.0886825323104858
1751120221225162000,10.484161865234375,-1.0702043771743774,0.0975828468799591,-1.2879714965820312
1751120221235106800,10.49410693359375,-1.1160179376602173,-0.36253786087036133,-1.3507360219955444
1751120221245052000,10.504052001953125,-1.2491827011108398,-0.27091076970100403,-1.2346750497817993
1751120221254996700,10.513996826171875,-1.7051801681518555,0.7207997441291809,-1.2931636571884155
1751120221264941600,10.523941650390626,-2.545553207397461,1.5814836025238037,-1.7491611242294312
1751120221274886400,10.533886474609375,-3.4926719665527344,1.2982031106948853,-2.166675329208374
1751120221284831500,10.54383154296875,-4.290438652038574,0.5833591222763062,-2.273267984390259
1751120221294777600,10.553777587890625,-4.902965545654297,0.41293275356292725,-2.2583022117614746
1751120221304722400,10.563722412109374,-5.36965274810791,0.8550334572792053,-2.345653533935547
1751120221314667500,10.57366748046875,-5.695539951324463,1.4857332706451416,-2.5374596118927
1751120221324612400,10.5836123046875,-5.8160295486450195,2.0811564922332764,-2.716437816619873
1751120221334557200,10.59355712890625,-5.710505485534668,2.86624813079834,-2.623741626739502
1751120221344502000,10.603501953125,-5.394086837768555,3.943171739578247,-1.9718149900436401
1751120221354447000,10.613447021484374,-4.795456409454346,4.798663139343262,-0.8670976758003235
1751120221364392000,10.623391845703125,-3.79840087890625,4.921138286590576,0.2802261710166931
1751120221374336800,10.633336669921874,-2.5583810806274414,4.154219627380371,1.1473238468170166
1751120221384281600,10.643281494140625,-1.4994772672653198,2.739497184753418,1.7694717645645142
1751120221394226700,10.653226806640625,-0.8241856694221497,1.113879919052124,2.227454423904419
1751120221404171500,10.663171630859376,-0.4022429287433624,-0.3817795515060425,2.41819167137146
1751120221414116400,10.673116455078125,-0.23502348363399506,-1.2818629741668701,1.9835737943649292
1751120221424061200,10.683061279296876,-0.4246915578842163,-1.326607584953308,0.930014967918396
1751120221434006300,10.69300634765625,-0.7974610924720764,-1.30644953250885,0.19394400715827942
1751120221443951000,10.702951171875,-1.1479346752166748,-1.8091769218444824,0.03298575058579445
1751120221453896000,10.71289599609375,-1.388761281967163,-2.551661729812622,0.0787992998957634
1751120221463840800,10.7228408203125,-1.4919943809509277,-3.205726385116577,0.06917845457792282
1751120221473785900,10.732785888671875,-1.4761123657226562,-3.7298333644866943,-0.02764083817601204
1751120221483730700,10.742730712890625,-1.3844853639602661,-4.144293308258057,-0.1629435122013092
1751120221493675500,10.752675537109376,-1.2662863731384277,-4.325409412384033,-0.28541839122772217
1751120221503620400,10.762620361328125,-1.1373976469039917,-4.131465435028076,-0.3823903799057007
1751120221513565400,10.7725654296875,-0.9956810474395752,-3.604151487350464,-0.4485146105289459
1751120221523510300,10.78251025390625,-0.8454126119613647,-2.9809346199035645,-0.4953971207141876
1751120221533455000,10.792455078125,-0.6974348425865173,-2.4227728843688965,-0.5422796607017517
1751120221543400000,10.80239990234375,-0.5610632300376892,-1.986017107963562,-0.5996993184089661
1751120221553345000,10.812344970703125,-0.44484952092170715,-1.735722541809082,-0.6476507782936096
1751120221563289900,10.822289794921875,-0.35230615735054016,-1.671736240386963,-0.624285876750946
1751120221573234700,10.832234619140625,-0.2510582208633423,-1.683495044708252,-0.5187620520591736
1751120221583179500,10.842179443359376,-0.07742489129304886,-1.6195087432861328,-0.3590254783630371
1751120221593124600,10.85212451171875,0.18142163753509521,-1.403268814086914,-0.12781979143619537
1751120221603069400,10.8620693359375,0.44988900423049927,-1.0645540952682495,0.23120568692684174
1751120221613014300,10.87201416015625,0.6513158679008484,-0.7343910932540894,0.6210789680480957
1751120221622959000,10.881958984375,0.7470661997795105,-0.43293800950050354,0.846939742565155
1751120221632904200,10.891904296875,0.7044596076011658,-0.08139539510011673,0.9000834226608276
1751120221642849000,10.90184912109375,0.4957025647163391,0.35536038875579834,0.9651386737823486
1751120221652793900,10.9117939453125,0.10262233763933182,0.8338065147399902,1.1877925395965576
1751120221662738700,10.92173876953125,-0.2990097403526306,1.3620367050170898,1.5211623907089233
1751120221672683800,10.931683837890626,-0.31382277607917786,2.0214462280273438,1.737402319908142
1751120221682628600,10.941628662109375,0.18569757044315338,2.5157744884490967,1.6628789901733398
1751120221692573400,10.951573486328124,0.8951966762542725,2.39223051071167,1.3400461673736572
1751120221702518300,10.961518310546875,1.4353383779525757,1.683800458908081,0.9779664874076843
1751120221712463400,10.97146337890625,1.6642533540725708,0.7186617851257324,0.7488987445831299
1751120221722408200,10.981408203125,1.6494402885437012,-0.30084228515625,0.7009472250938416
1751120221732353000,10.99135302734375,1.4086138010025024,-1.0613471269607544,0.687050461769104
1751120221742297900,11.0012978515625,0.8845068216323853,-0.9367342591285706,0.6189410090446472
1751120221752243000,11.011242919921875,0.22937314212322235,-0.04504998400807381,0.5838172435760498
1751120221762187800,11.021187744140626,-0.27976804971694946,0.6015318632125854,0.3984251320362091
1751120221772132600,11.031132568359375,-0.4737120568752289,0.9051229357719421,0.021379653364419937
1751120221782077400,11.041077392578124,-0.4193466305732727,1.3461546897888184,-0.10231691598892212
1751120221792022500,11.0510224609375,-0.3574983477592468,1.7135792970657349,0.18111620843410492
1751120221801967400,11.06096728515625,-0.32344362139701843,1.5953803062438965,0.4027010500431061
1751120221811912200,11.070912109375,-0.18279604613780975,1.1299147605895996,0.2652604281902313
1751120221831802000,11.090802001953126,0.5787777900695801,0.45767730474472046,-0.30252209305763245
1751120221841747000,11.100746826171875,1.0773818492889404,0.23823043704032898,-0.39201122522354126
1751120221851691800,11.11069189453125,1.51734459400177,-0.23685602843761444,-0.41232189536094666
1751120221871581700,11.130581787109374,2.0382444858551025,-0.9825478196144104,-0.5070032477378845
1751120221891471400,11.150471435546875,2.1010091304779053,-0.5053234100341797,-0.5731274485588074
1751120221901416200,11.160416259765626,2.069092273712158,-0.2655658423900604,-0.46012070775032043
1751120221911361300,11.170361328125,2.042520523071289,-0.11972606182098389,-0.2226538211107254
1751120221921306000,11.18030615234375,2.051072359085083,-0.16553960740566254,0.1438545286655426
1751120221931251200,11.190251220703125,2.1138370037078857,-0.4265241026878357,0.6071822047233582
1751120221941196000,11.200196044921874,2.218291759490967,-0.735460102558136,1.0567657947540283
1751120221951140900,11.210140869140625,2.322593927383423,-0.9643751382827759,1.3614258766174316
1751120221971030800,11.23003076171875,2.4004769325256348,-1.1401463747024536,1.492452621459961
1751120221980975900,11.239975830078125,2.3673386573791504,-0.9590302109718323,1.4806936979293823
1751120221990920700,11.249920654296876,2.3131258487701416,-0.6001574397087097,1.45198392868042
1751120222000865800,11.25986572265625,2.2491395473480225,-0.23364907503128052,1.385859727859497
1751120222010810600,11.269810546875,2.169271230697632,0.03374931216239929,1.3006465435028076
1751120222020755700,11.279755615234375,2.0755062103271484,0.26907822489738464,1.229330062866211
1751120222030700500,11.289700439453124,2.004189968109131,0.5034908652305603,1.167481780052185
1751120222040645600,11.299645751953125,1.9870861768722534,0.6238277554512024,1.0897514820098877
1751120222050590500,11.309590576171875,2.03076171875,0.5557183027267456,1.0034693479537964
1751120222060535300,11.319535400390626,2.103147029876709,0.4172086715698242,0.9364288449287415
1751120222070480400,11.32948046875,2.146822690963745,0.3501681983470917,0.9054283499717712
1751120222080425200,11.33942529296875,2.1362855434417725,0.3906368315219879,0.8968765139579773
1751120222090370300,11.349370361328125,2.0722992420196533,0.5152496695518494,0.8916842937469482
1751120222100315100,11.359315185546874,1.9667754173278809,0.6591041684150696,0.8959602117538452
1751120222110260200,11.36926025390625,1.8539214134216309,0.7527165412902832,0.9332218766212463
1751120222120205000,11.379205078125,1.7494665384292603,0.7314895987510681,1.0077452659606934
1751120222130150100,11.389150146484376,1.6355435848236084,0.5642701387405396,1.0822685956954956
1751120222140095000,11.399094970703125,1.5077236890792847,0.3703261613845825,1.1163233518600464
1751120222150040000,11.4090400390625,1.3863178491592407,0.2829749882221222,1.0822685956954956
1751120222159985000,11.41898486328125,1.2722420692443848,0.3298575282096863,0.9565867781639099
1751120222169929700,11.4289296875,1.1178505420684814,0.4874561131000519,0.6859814524650574
1751120222189819600,11.448819580078125,0.6310052275657654,0.5439594984054565,-0.14706148207187653
1751120222199764700,11.4587646484375,0.38605546951293945,0.18065807223320007,-0.3802524209022522
1751120222209709600,11.46870947265625,0.1516428291797638,-0.14095300436019897,-0.42392799258232117
1751120222219654700,11.478654541015626,-0.0859767496585846,-0.18783552944660187,-0.34512871503829956
1751120222229599500,11.488599609375,-0.3095468580722809,0.0018325417768210173,-0.2301367074251175
1751120222239544600,11.498544677734374,-0.4874561131000519,0.21058958768844604,-0.24281178414821625
1751120222249489400,11.508489501953125,-0.6174138784408569,0.32130566239356995,-0.5241069197654724
1751120222259434200,11.518434326171874,-0.7357655167579651,0.26694026589393616,-1.0077452659606934
1751120222269379300,11.52837939453125,-0.890157163143158,-0.05894676223397255,-1.4753488302230835
1751120222279324200,11.53832421875,-1.113879919052124,-0.6575770974159241,-1.8142163753509521
1751120222289269000,11.54826904296875,-1.389830231666565,-1.4043378829956055,-2.0325942039489746
1751120222299213800,11.5582138671875,-1.6283661127090454,-1.97853422164917,-2.1039106845855713
1751120222309159000,11.568158935546874,-1.8606407642364502,-1.7879499197006226,-1.939898133277893
1751120222319103700,11.578103759765625,-2.3070173263549805,-0.7598940134048462,-1.7566440105438232
1751120222329048600,11.588048583984374,-3.002619743347168,0.4225535988807678,-1.8568229675292969
1751120222338993400,11.597993408203125,-3.7386906147003174,1.3003411293029785,-2.1998136043548584
1751120222348938500,11.6079384765625,-4.368321418762207,1.9117991924285889,-2.5757901668548584
1751120222358883300,11.61788330078125,-4.881738662719727,2.4262852668762207,-2.9082438945770264
1751120222368828200,11.627828125,-5.301390647888184,2.962151050567627,-3.2362687587738037
1751120222378773000,11.63777294921875,-5.56771993637085,3.552229404449463,-3.3533987998962402
1751120222388718000,11.647718017578125,-5.610326766967773,4.210570335388184,-2.8187546730041504
1751120222398663000,11.657662841796874,-5.352549076080322,4.643050193786621,-1.5937005281448364
1751120222408607700,11.667607666015625,-4.660153865814209,4.526988983154297,-0.14492350816726685
1751120222418552600,11.677552490234374,-3.5736091136932373,3.7823662757873535,0.9811733961105347
1751120222428497700,11.68749755859375,-2.4508719444274902,2.702235460281372,1.6511201858520508
1751120222438442500,11.6974423828125,-1.6210359334945679,1.6411938667297363,2.0645110607147217
1751120222448387300,11.70738720703125,-1.1415208578109741,0.4822639226913452,2.264716148376465
1751120222458332200,11.717332275390625,-0.9648332595825195,-0.6629219651222229,1.8365123271942139
1751120222468277200,11.72727734375,-1.1320526599884033,-1.2563600540161133,0.6232169270515442
1751120222478222000,11.73722216796875,-1.4761123657226562,-1.5109306573867798,-0.29503923654556274
1751120222488167000,11.7471669921875,-1.8351378440856934,-1.8922520875930786,-0.5080721974372864
1751120222498111700,11.75711181640625,-2.115211248397827,-2.346111536026001,-0.46546560525894165
1751120222508056800,11.767056884765625,-2.2462379932403564,-2.698723077774048,-0.4643966257572174
1751120222518001700,11.777001708984375,-2.204700469970703,-2.9490177631378174,-0.5018110275268555
1751120222527946500,11.786946533203125,-2.0034263134002686,-3.002314329147339,-0.5155550837516785
1751120222537891300,11.796891357421876,-1.7062491178512573,-2.7668325901031494,-0.5102101564407349
1751120222547836400,11.80683642578125,-1.4121261835098267,-2.329007863998413,-0.4847072958946228
1751120222557781200,11.81678125,-1.1725213527679443,-1.869956135749817,-0.4549284875392914
1751120222567726000,11.82672607421875,-0.9700254201889038,-1.5375025272369385,-0.469741553068161
1751120222577671000,11.8366708984375,-0.7644753456115723,-1.3756279945373535,-0.5273138880729675
1751120222587616000,11.846615966796875,-0.5289937257766724,-1.3628002405166626,-0.5731274485588074
1751120222597560800,11.856560791015625,-0.26495498418807983,-1.4139586687088013,-0.5444176197052002
1751120222607505700,11.866505615234376,-0.014507622458040714,-1.3777660131454468,-0.4282039403915405
1751120222617450500,11.876450439453125,0.18997350335121155,-1.1369394063949585,-0.2513636350631714
1751120222627395600,11.8863955078125,0.4008685052394867,-0.7907418012619019,-0.04688252881169319
1751120222637340400,11.89634033203125,0.6949914693832397,-0.5106683373451233,0.18539214134216309
1751120222647285200,11.90628515625,1.0837957859039307,-0.34757208824157715,0.504865288734436
1751120222657230000,11.91622998046875,1.46511709690094,-0.29229041934013367,0.8777875304222107
1751120222667175200,11.926175048828124,1.6973918676376343,-0.2038702666759491,1.1195303201675415
1751120222677120000,11.9361201171875,1.7537424564361572,0.0038177953101694584,1.1877925395965576
1751120222687064800,11.94606494140625,1.6973918676376343,0.20096874237060547,1.2665917873382568
1751120222697009700,11.956009765625,1.5066547393798828,0.28725093603134155,1.5286452770233154
1751120222706954800,11.965954833984375,1.1647330522537231,0.44484952092170715,1.9313462972640991
1751120222716899600,11.975899658203126,0.8206732869148254,1.034011721611023,2.166675329208374
1751120222726844400,11.985844482421875,0.7333221435546875,1.877744436264038,2.001593828201294
1751120222736789200,11.995789306640624,1.0570712089538574,2.412388563156128,1.5031423568725586
1751120222746734300,12.005734375,1.5982818603515625,2.3965065479278564,0.9374978542327881
1751120222756679200,12.01567919921875,1.9913620948791504,1.9629576206207275,0.5166240930557251
1751120222766624000,12.0256240234375,2.103147029876709,1.4228159189224243,0.3035911023616791
1751120222776568800,12.03556884765625,1.9881551265716553,1.2917892932891846,0.46332764625549316
1751120222786514000,12.045513916015626,1.5556752681732178,1.8936264514923096,1.1899304389953613
1751120222796459300,12.055459228515625,0.7918107509613037,2.0417568683624268,1.7630579471588135
1751120222806404000,12.065404052734374,-0.11361759155988693,0.6696413159370422,1.430604338645935
1751120222816349200,12.07534912109375,-0.8432746529579163,-0.666128933429718,0.5528167486190796
1751120222826294000,12.0852939453125,-1.1447277069091797,0.9978190064430237,0.28541839122772217
1751120222836238800,12.09523876953125,-1.1415208578109741,5.151275157928467,0.691326379776001
1751120222846183700,12.10518359375,-1.166107416152954,6.745891571044922,0.5996993184089661
1751120222856128800,12.115128662109376,-1.39303719997406,4.822028160095215,-0.1832541823387146
1751120222876018400,12.135018310546876,-1.5452908277511597,0.4981459379196167,-1.5988926887512207
1751120222885963300,12.14496337890625,-1.0894460678100586,-0.46485477685928345,-1.8844637870788574
1751120222895908400,12.154908447265624,-0.3255815804004669,-1.508792757987976,-1.9547111988067627
1751120222905853200,12.164853271484375,0.5777087807655334,-2.852045774459839,-1.766264796257019
1751120222915798000,12.174798095703125,1.3212625980377197,-3.919501543045044,-1.3592878580093384
1751120222925742800,12.184742919921876,1.7271705865859985,-4.108100414276123,-0.9353598356246948
1751120222935688000,12.19468798828125,1.8326945304870605,-3.49755859375,-0.6189410090446472
1751120222945632800,12.2046328125,1.7655012607574463,-2.666653633117676,-0.38132140040397644
1751120222955577600,12.21457763671875,1.674943208694458,-2.0489344596862793,-0.10964708030223846
1751120222965522400,12.2245224609375,1.6695982217788696,-1.7453433275222778,0.20555010437965393
1751120222975467500,12.234467529296875,1.7729841470718384,-1.6152328252792358,0.49860408902168274
1751120222985412400,12.244412353515624,1.9391345977783203,-1.525896430015564,0.7285880446434021
1751120222995357200,12.254357177734375,2.0894031524658203,-1.4011309146881104,0.8968765139579773
1751120223005302000,12.264302001953125,2.178892135620117,-1.1679399013519287,1.0259180068969727
1751120223015247000,12.2742470703125,2.218291759490967,-0.7875348329544067,1.1398409605026245
1751120223025192000,12.28419189453125,2.2288289070129395,-0.2623589038848877,1.285833477973938
1751120223035136800,12.29413671875,2.229897975921631,0.4416425824165344,1.5243693590164185
1751120223045081600,12.30408154296875,2.224705696105957,1.3067549467086792,1.8247535228729248
1751120223055026700,12.314026611328124,2.1799612045288086,2.115211248397827,2.0315253734588623
1751120223064971500,12.323971435546875,2.071230411529541,2.6245052814483643,2.025111436843872
1751120223074916400,12.333916259765624,1.9147007465362549,2.7607240676879883,1.8142163753509521
1751120223084861200,12.343861083984375,1.7697771787643433,2.653215169906616,1.508487343788147
1751120223094806300,12.35380615234375,1.7143428325653076,2.476374864578247,1.2591089010238647
1751120223104751000,12.363751220703126,1.804900884628296,2.3357272148132324,1.207950472831726
1751120223114696000,12.373696044921875,2.010451078414917,2.206838369369507,1.390135645866394
1751120223124640800,12.383640869140624,2.19584321975708,1.910730242729187,1.6159964799880981
1751120223134585900,12.3935859375,2.244863748550415,1.333326816558838,1.6414992809295654
1751120223144530700,12.40353076171875,2.1341476440429688,0.6771242022514343,1.330578088760376
1751120223154475500,12.4134755859375,1.8922520875930786,0.19776180386543274,0.6636855602264404
1751120223164420400,12.42342041015625,1.6079026460647583,-0.3849864900112152,-0.1385096162557602
1751120223174365200,12.433365234375,1.3563863039016724,-1.3585243225097656,-0.756381630897522
1751120223184310300,12.443310302734375,1.128540277481079,-2.3790974617004395,-1.0844066143035889
1751120223194255000,12.453255126953126,0.8579349517822266,-2.9064111709594727,-1.207950472831726
1751120223204200000,12.463199951171875,0.49142661690711975,-2.754004955291748,-1.236812949180603
1751120223214144800,12.473144775390624,0.033443886786699295,-2.096733331680298,-1.2665917873382568
1751120223224089900,12.48308984375,-0.4822639226913452,-1.282931923866272,-1.3731846809387207
1751120223234034700,12.49303466796875,-1.0085088014602661,-0.6449019908905029,-1.5819417238235474
1751120223253924400,12.51292431640625,-1.902178406715393,0.04230117425322533,-2.1124625205993652
1751120223263869400,12.522869384765626,-2.2515830993652344,0.6484143733978271,-2.2572333812713623
1751120223273814300,12.532814208984375,-2.523257255554199,1.7146482467651367,-2.3041157722473145
1751120223283759000,12.542759033203126,-2.6425251960754395,2.8215034008026123,-2.4948530197143555
1751120223293704000,12.552703857421875,-2.6106085777282715,3.150750160217285,-2.9902501106262207
1751120223303649000,12.56264892578125,-2.591366767883301,2.395437479019165,-3.5771214962005615
1751120223313593900,12.57259375,-2.7118563652038574,1.1245697736740112,-4.062897682189941
1751120223323538700,12.58253857421875,-2.9259583950042725,-0.038788799196481705,-4.469874858856201
1751120223333483500,12.5924833984375,-3.1634252071380615,-0.996444582939148,-4.827831268310547
1751120223343428600,12.6024287109375,-3.4179959297180176,-1.7890188694000244,-5.033381462097168
1751120223353373400,12.61237353515625,-3.685394287109375,-2.071230411529541,-4.796830654144287
1751120223363318300,12.622318359375,-3.9900543689727783,-1.9594452381134033,-3.980891704559326
1751120223373263000,12.63226318359375,-4.379927635192871,-2.068023443222046,-2.556701183319092
1751120223383208200,12.642208251953125,-4.775145530700684,-2.6336679458618164,-0.5774033665657043
1751120223393153000,12.652153076171874,-4.893497467041016,-3.4870216846466064,1.5468180179595947
1751120223403097900,12.662097900390625,-4.410928249359131,-3.9066736698150635,3.259633779525757
1751120223413042700,12.672042724609375,-3.378596305847168,-3.014073133468628,4.3058624267578125
1751120223422987800,12.68198779296875,-2.290982723236084,-0.8654178380966187,4.772397041320801
1751120223432932600,12.6919326171875,-1.5559806823730469,1.5921733379364014,4.905561447143555
1751120223442877400,12.70187744140625,-1.178935170173645,3.4095966815948486,4.90983772277832
1751120223452822300,12.711822265625,-0.989267110824585,4.276694297790527,4.876852035522461
1751120223462767400,12.721767333984374,-0.80280601978302,4.8614277839660645,4.710548400878906
1751120223472712200,12.731712158203125,-0.33627140522003174,4.634650707244873,4.139559268951416
1751120223482657000,12.741656982421874,0.23899398744106293,0.6100836992263794,3.1105868816375732
1751120223492601900,12.751601806640625,0.5393781065940857,-5.316051006317139,2.0037317276000977
1751120223502547000,12.761546875,0.5010474920272827,-9.744388580322266,1.2389509677886963
1751120223512491800,12.77149169921875,0.30282753705978394,-11.677720069885254,0.8501466512680054
1751120223522436600,12.7814365234375,0.13026317954063416,-12.036745071411133,0.6540647149085999
1751120223532381400,12.79138134765625,0.06749862432479858,-11.467893600463867,0.5667135715484619
1751120223542326500,12.801326416015625,0.10689827054738998,-10.102191925048828,0.5496098399162292
1751120223552271400,12.811271240234374,0.20280128717422485,-8.067612648010254,0.5635066032409668
1751120223562216200,12.82121630859375,0.275186687707901,-5.842296123504639,0.616802990436554
1751120223572161000,12.8311611328125,0.23899398744106293,-4.087790012359619,0.7553126215934753
1751120223582106000,12.841106201171876,0.14202198386192322,-3.0192651748657227,0.9651386737823486
1751120223592051000,12.851051025390625,0.10796725004911423,-2.3652005195617676,1.2410888671875
1751120223601995800,12.860995849609376,0.1623326539993286,-1.9763963222503662,1.7215203046798706
1751120223611940600,12.870940673828125,0.24220094084739685,-2.004189968109131,2.357412338256836
1751120223621885700,12.8808857421875,0.29442837834358215,-2.3801662921905518,2.7877540588378906
1751120223631830500,12.89083056640625,0.31351736187934875,-2.7764534950256348,2.8282227516174316
1751120223641775400,12.900775390625,0.3381039500236511,-2.9511559009552,2.5672383308410645
1751120223651720200,12.91072021484375,0.4318690001964569,-2.8967905044555664,2.1561381816864014
1751120223661665300,12.920665283203125,0.6395570635795593,-2.68803334236145,1.6937267780303955
1751120223671610000,12.930610107421876,0.9654440879821777,-2.4056692123413086,1.2068815231323242
1751120223681555000,12.940554931640625,1.3531793355941772,-2.1820991039276123,0.7094991207122803
1751120223691499800,12.950499755859376,1.692046880722046,-2.2001190185546875,0.25563958287239075
1751120223701444600,12.960444580078125,1.8826313018798828,-2.586785316467285,-0.05864133685827255
1751120223711389400,12.970389404296874,1.9573073387145996,-3.337822198867798,-0.13209572434425354
1751120223721334300,12.980334228515625,1.9796032905578613,-4.281733989715576,0.04688252881169319
1751120223731279000,12.990279052734374,1.9583762884140015,-5.16043758392334,0.335507869720459
1751120223751168800,13.010168701171875,1.7462595701217651,-5.713407039642334,0.49112120270729065
1751120223761113600,13.020113525390625,1.5982818603515625,-5.183955192565918,0.28969430923461914
1751120223771058400,13.030058349609375,1.4501514434814453,-4.290132999420166,0.0659715011715889
1751120223781003300,13.040003173828126,1.2775870561599731,-3.295215606689453,-0.05650337040424347
1751120223790948000,13.049947998046875,1.0495883226394653,-2.308849811553955,-0.054365407675504684
1751120223800893000,13.059892822265626,0.7673768401145935,-1.2957597970962524,0.025502873584628105
1751120223810837800,13.069837646484375,0.45416492223739624,-0.3402419090270996,0.1310267299413681
1751120223820782600,13.079782470703124,0.16553960740566254,0.38101598620414734,0.20768806338310242
1751120223830727400,13.0897275390625,-0.0198525357991457,0.7974610924720764,0.19394400715827942
1751120223840672500,13.099672607421875,-0.05925218388438225,0.9263498783111572,0.060779303312301636
1751120223850617300,13.109617431640626,0.021685076877474785,0.807081937789917,-0.17149536311626434
1751120223860562200,13.119562255859375,0.11865708231925964,0.5034908652305603,-0.4399627447128296
1751120223870507000,13.129507080078126,0.1313321590423584,0.14339639246463776,-0.6795675754547119
1751120223880451800,13.139451904296875,0.06856760382652283,-0.10903623700141907,-0.8043331503868103
1751120223890396700,13.149396728515624,-0.0018325417768210173,-0.1623326539993286,-0.6583406329154968
1751120223900341500,13.159341552734375,0.001374406274408102,-0.0781884491443634,-0.17149536311626434
1751120223910286300,13.169286376953124,0.1388150453567505,-0.043981000781059265,0.38880428671836853
1751120223920231200,13.179231201171875,0.3775036036968231,-0.21349111199378967,0.5954233407974243
1751120223930176000,13.189176025390625,0.5607577562332153,-0.5607577562332153,0.395218163728714
1751120223940120800,13.199120849609375,0.6597150564193726,-0.9665130972862244,0.05115845799446106
1751120223950065700,13.209065673828125,0.7812736630439758,-1.4193036556243896,-0.2727433145046234
1751120223960010500,13.219010498046876,1.0048437118530273,-1.9541003704071045,-0.5155550837516785
1751120223969955600,13.22895556640625,1.3298144340515137,-2.624047040939331,-0.6274928450584412
1751120223979900400,13.238900390625,1.7025840282440186,-3.4123454093933105,-0.5528167486190796
1751120223989845200,13.24884521484375,2.005258798599243,-4.12825870513916,-0.30038413405418396
1751120223999790000,13.2587900390625,2.1159749031066895,-4.629000663757324,0.04153761267662048
1751120224009735200,13.268735107421875,1.981741189956665,-4.84310245513916,0.38880428671836853
1751120224019680000,13.278679931640625,1.666391372680664,-4.886777877807617,0.6103891134262085
1751120224029624800,13.288624755859376,1.298966646194458,-4.772702217102051,0.677582323551178
1751120224039569700,13.298569580078125,0.9527690410614014,-4.263561248779297,0.6988092660903931
1751120224049514800,13.3085146484375,0.6778877377510071,-3.2962844371795654,0.7159129977226257
1751120224059459600,13.31845947265625,0.5074613690376282,-2.1020781993865967,0.6508577466011047
1751120224069404400,13.328404296875,0.40728241205215454,-0.9782719016075134,0.45920443534851074
1751120224079349200,13.338349365234375,0.30282753705978394,-0.03771981969475746,0.23120568692684174
1751120224089294300,13.34829443359375,0.1782146841287613,0.6878139972686768,0.10231691598892212
1751120224099239200,13.3582392578125,0.055739812552928925,1.1395355463027954,0.14492350816726685
1751120224109184000,13.36818408203125,0.0035123717971146107,1.2982031106948853,0.34405970573425293
1751120224119128800,13.37812890625,0.07711946964263916,1.1810731887817383,0.6232169270515442
1751120224129074000,13.388073974609375,0.2591519355773926,0.8327375054359436,0.8681666851043701
1751120224139018800,13.398018798828126,0.45416492223739624,0.19562382996082306,1.047144889831543
1751120224148963600,13.407963623046875,0.6106945276260376,-0.7834116220474243,1.152668833732605
1751120224158908400,13.417908447265624,0.7928797602653503,-1.901872992515564,1.1205992698669434
1751120224168853500,13.427853515625,1.0485193729400635,-2.7498817443847656,0.9278770089149475
1751120224178798300,13.43779833984375,1.314848780632019,-3.032093048095703,0.6519267559051514
1751120224188743200,13.4477431640625,1.5077236890792847,-2.7498817443847656,0.38880428671836853
1751120224198688000,13.45768798828125,1.5918679237365723,-2.114905834197998,0.20768806338310242
1751120224208633000,13.467633056640626,1.5685030221939087,-1.488482117652893,0.14171656966209412
1751120224218578000,13.477577880859375,1.4587032794952393,-1.1913049221038818,0.16721943020820618
1751120224228522800,13.487522705078124,1.335159420967102,-1.2818629741668701,0.21623992919921875
1751120224238467600,13.497467529296875,1.266897201538086,-1.5481923818588257,0.20768806338310242
1751120224248412700,13.50741259765625,1.2360494136810303,-1.7697771787643433,0.12033691257238388
1751120224258357500,13.517357421875,1.173284888267517,-1.9040108919143677,-0.005344913341104984
1751120224268302300,13.52730224609375,1.0549331903457642,-1.9678444862365723,-0.11926792562007904
1751120224278247200,13.5372470703125,0.9080244302749634,-1.913631796836853,-0.18111620843410492
1751120224288192300,13.547192138671875,0.7823426127433777,-1.6494402885437012,-0.1907370537519455
1751120224298137000,13.55713720703125,0.7033905982971191,-1.1764918565750122,-0.17470231652259827
1751120224308082000,13.56708203125,0.6736118197441101,-0.6502469182014465,-0.16935740411281586
1751120224318026800,13.57702685546875,0.6810947060585022,-0.23258009552955627,-0.2044811248779297
1751120224327971800,13.586971923828125,0.7076665759086609,0.010231691412627697,-0.3014531135559082
1751120224337916700,13.596916748046874,0.7055285573005676,0.03374931216239929,-0.4611896872520447
1751120224347861500,13.606861572265625,0.6160394549369812,-0.18997350335121155,-0.6487197875976562
1751120224357806300,13.616806396484375,0.41797223687171936,-0.6213843822479248,-0.7989882230758667
1751120224367751400,13.62675146484375,0.11010521650314331,-1.1806150674819946,-0.8212841153144836
1751120224377696300,13.6366962890625,-0.31916770339012146,-1.7186187505722046,-0.673306405544281
1751120224397586000,13.6565859375,-1.369519591331482,-2.2864012718200684,-0.4399627447128296
1751120224407531000,13.666531005859374,-1.9246269464492798,-2.1937053203582764,-0.5123481154441833
1751120224417475800,13.676475830078125,-2.4913406372070312,-2.0264856815338135,-0.6583406329154968
1751120224427420700,13.686420654296874,-3.005826711654663,-2.0446584224700928,-0.9064973592758179
1751120224437365500,13.696365478515625,-3.395699977874756,-2.291746139526367,-1.2314680814743042
1751120224447310600,13.706310546875,-3.6374428272247314,-2.5261588096618652,-1.5393351316452026
1751120224457255400,13.71625537109375,-3.751518487930298,-2.3994081020355225,-1.78214693069458
