time,seconds_elapsed,z,y,x
1748142653938539500,0.10753955078125,0.0070171356201171875,-1.3187994956970215,-0.7252668142318726
1748142653956805400,0.125805419921875,4.740386009216309,-3.432166576385498,-2.8086252212524414
1748142653975070000,0.144070068359375,1.6673784255981445,-1.5056562423706055,-1.6402767896652222
1748142653993335800,0.162335693359375,1.4025211334228516,-1.393775224685669,-0.9152774810791016
1748142654011593500,0.180593505859375,1.6592683792114258,-4.067526340484619,-1.4473282098770142
1748142654029864000,0.198864013671875,2.7280988693237305,-2.483278512954712,0.02409684658050537
1748142654048131600,0.217131591796875,1.5039491653442383,-1.6669032573699951,-2.9751996994018555
1748142654066396000,0.23539599609375,0.7600803375244141,-2.1984095573425293,-3.774278163909912
1748142654084659000,0.253658935546875,1.914219856262207,-3.6098647117614746,-2.3699803352355957
1748142654102927400,0.27192724609375,3.28525447845459,-2.8651938438415527,-0.06561243534088135
1748142654121191000,0.29019091796875,0.8519287109375,-2.566929817199707,0.18679141998291016
1748142654139456500,0.30845654296875,-2.124267578125,-1.4289650917053223,-1.5193675756454468
1748142654157715700,0.3267158203125,-2.100266933441162,-1.088000774383545,-1.8711265325546265
1748142654175985200,0.344985107421875,-2.4845714569091797,-2.2608604431152344,-2.164452314376831
1748142654194247700,0.36324755859375,-0.9904003143310547,-1.4840655326843262,-3.481229305267334
1748142654212516600,0.3815166015625,-0.8076272010803223,-1.6502017974853516,-3.7945899963378906
1748142654230780400,0.399780517578125,-2.377868175506592,-3.5269699096679688,-2.3395955562591553
1748142654249046500,0.418046630859375,-2.852281093597412,-2.4785337448120117,-0.462654709815979
1748142654267311000,0.43631103515625,-1.8603801727294922,-1.3734526634216309,0.402410626411438
1748142654285577000,0.454576904296875,-0.8731446266174316,-2.1898019313812256,-0.1797022819519043
1748142654303841000,0.472841064453125,-0.29808616638183594,-3.940490245819092,-0.5291156768798828
1748142654322107000,0.49110693359375,-2.817704677581787,-3.442155361175537,-1.3727397918701172
1748142654340371500,0.509371337890625,-7.297000885009766,-2.660937786102295,-0.19468355178833008
1748142654358637300,0.52763720703125,-0.7154302597045898,-4.009986877441406,-1.5630161762237549
1748142654376901600,0.545901611328125,1.0735583305358887,-4.502254486083984,-0.9455881118774414
1748142654395167200,0.564167236328125,-1.7573928833007812,-5.273259162902832,-1.792233943939209
1748142654413427000,0.582427001953125,-4.330106735229492,-4.871838092803955,-1.4969124794006348
1748142654431696600,0.600696533203125,-2.1998581886291504,-4.963890552520752,-0.671959400177002
1748142654449962000,0.6189619140625,-1.5263547897338867,-4.989527225494385,-1.087264060974121
1748142654468223000,0.637222900390625,-0.6625385284423828,-6.146273136138916,-1.6494598388671875
1748142654486492400,0.655492431640625,0.8207554817199707,-6.685991287231445,-1.594226360321045
1748142654504758000,0.673758056640625,1.2448534965515137,-6.706570625305176,-1.089350700378418
1748142654523021800,0.692021728515625,1.3270773887634277,-6.456047058105469,-2.122934341430664
1748142654541287700,0.71028759765625,1.1680140495300293,-6.541387557983398,-0.16483211517333984
1748142654559552000,0.728552001953125,-0.020404458045959473,-5.566562652587891,2.232428550720215
1748142654577818000,0.746818115234375,0.48233580589294434,-5.401934623718262,3.03656005859375
1748142654596082000,0.76508203125,2.3447420597076416,-5.451053619384766,3.5029067993164062
1748142654614347500,0.783347412109375,4.146630764007568,-4.897046089172363,4.970330238342285
1748142654632602000,0.80160205078125,5.338151454925537,-2.839865207672119,6.059526443481445
1748142654650878200,0.819878173828125,4.520846366882324,-2.294755697250366,6.864134788513184
1748142654669137400,0.838137451171875,3.2285454273223877,-0.7003639936447144,3.472848892211914
1748142654687407400,0.856407470703125,1.8003334999084473,0.013771295547485352,2.0647058486938477
1748142654705673000,0.8746728515625,0.8169009685516357,-0.9454102516174316,0.4003477096557617
1748142654723940400,0.8929404296875,1.746593713760376,-0.801872730255127,3.42330265045166
1748142654742207000,0.91120703125,3.25919246673584,0.617159366607666,5.806890487670898
1748142654760456700,0.929456787109375,1.0794293880462646,1.0177972316741943,5.45858907699585
1748142654778733600,0.947733642578125,1.6901323795318604,1.0524511337280273,4.480027675628662
1748142654796999000,0.9659990234375,4.220362663269043,0.22933483123779297,2.7823338508605957
1748142654815270700,0.984270751953125,2.6438045501708984,0.4552593231201172,7.275673866271973
1748142654833528800,1.00252880859375,1.8601828813552856,2.1262576580047607,10.450102806091309
1748142654851784000,1.020783935546875,0.1060190200805664,2.986862897872925,12.201639175415039
1748142654870060500,1.039060546875,-2.489281177520752,3.710225820541382,11.035865783691406
1748142654888322000,1.057322021484375,-4.942266464233398,2.692591667175293,9.815263748168945
1748142654906589200,1.075589111328125,-3.5648953914642334,2.2407686710357666,7.6191086769104
1748142654924849200,1.09384912109375,-3.831068754196167,1.880613088607788,6.263225078582764
1748142654943118600,1.11211865234375,-6.852553844451904,-1.2250256538391113,-0.9737515449523926
1748142654961384700,1.130384765625,-4.203831672668457,1.6051182746887207,1.0736808776855469
1748142654979648800,1.148648681640625,-0.9596797227859497,-0.5789637565612793,-1.8828449249267578
1748142654997915600,1.16691552734375,-2.2060885429382324,-0.8239197731018066,-1.2969269752502441
1748142655016180200,1.18518017578125,0.5670747756958008,-0.9566662311553955,-2.5520734786987305
1748142655034439700,1.203439697265625,1.2484424114227295,-1.7643630504608154,-3.8836965560913086
1748142655052695000,1.221695068359375,0.955836296081543,-1.496120810508728,-3.751107692718506
1748142655070977300,1.239977294921875,1.2613605260849,-0.700293779373169,-2.0291948318481445
1748142655089235700,1.258235595703125,-0.14222145080566406,-2.086758852005005,-1.1449432373046875
1748142655107504400,1.27650439453125,0.9159011840820312,-3.063333034515381,-0.1887989044189453
1748142655125770500,1.2947705078125,4.483572959899902,-3.354107618331909,0.19969654083251953
1748142655144035000,1.31303515625,4.092092037200928,-5.047989368438721,-1.054234504699707
1748142655162301200,1.33130126953125,3.219564199447632,-4.003253936767578,-2.387460708618164
1748142655180560100,1.34956005859375,4.306861877441406,-5.066217422485352,-1.8403992652893066
1748142655198820900,1.36782080078125,6.048598289489746,-3.464315414428711,1.507615089416504
1748142655217096400,1.386096435546875,7.2013397216796875,0.971016526222229,-1.5748720169067383
1748142655235358200,1.404358154296875,6.121161460876465,1.2272132635116577,-4.188858985900879
1748142655253616400,1.422616455078125,4.721184253692627,0.2952731251716614,-4.678936958312988
1748142655271879000,1.44087890625,4.381199359893799,-1.271031379699707,-5.044587135314941
1748142655290155500,1.459155517578125,3.791017770767212,-3.400090456008911,-2.627878189086914
1748142655308418300,1.477418212890625,2.7508745193481445,-5.126532554626465,-2.4745635986328125
1748142655326687500,1.4956875,2.6323788166046143,-4.7273054122924805,-6.051760673522949
1748142655344952300,1.513952392578125,4.259312629699707,-3.387028217315674,-3.302295207977295
1748142655363211800,1.532211669921875,4.765257358551025,0.2555828094482422,-3.182950735092163
1748142655381481700,1.550481689453125,4.781565189361572,-1.2327637672424316,0.6438198089599609
1748142655399746000,1.56874609375,1.380998134613037,-8.346656799316406,2.3193325996398926
1748142655418011400,1.587011474609375,-1.379493236541748,-13.700575828552246,3.5025529861450195
1748142655436276500,1.6052763671875,1.215331792831421,-8.033720970153809,4.830549240112305
1748142655454536700,1.62353662109375,2.6622307300567627,-0.7700281143188477,4.316409111022949
1748142655472807700,1.6418076171875,2.0978260040283203,3.6008386611938477,2.6101880073547363
1748142655491072300,1.660072265625,0.3188210725784302,3.6408700942993164,0.9487438201904297
1748142655509336300,1.67833642578125,-0.6952857971191406,3.172536849975586,0.7099394798278809
1748142655527598000,1.69659814453125,-1.0556604862213135,2.251042366027832,2.349721908569336
1748142655545865200,1.714865234375,-2.2291791439056396,0.6725177764892578,2.684192419052124
1748142655564133600,1.733133544921875,-1.9568536281585693,-0.10387706756591797,2.4626896381378174
1748142655582397200,1.751397216796875,-1.5315377712249756,1.7918453216552734,2.706056594848633
1748142655600661500,1.76966162109375,-1.6270339488983154,1.1751651763916016,2.614992141723633
1748142655618928400,1.787928466796875,-0.24606245756149292,-0.41373443603515625,2.737907886505127
1748142655637193200,1.806193115234375,-0.7551529407501221,-0.9394149780273438,3.0662710666656494
1748142655655457500,1.82445751953125,-0.13277435302734375,-2.7869997024536133,3.677128553390503
1748142655673723400,1.842723388671875,0.2360711693763733,-4.017839431762695,3.3589229583740234
1748142655691983000,1.860983154296875,0.8395873308181763,-5.416159629821777,3.7883901596069336
1748142655710252000,1.879251953125,2.834014892578125,-4.059353828430176,6.048421382904053
1748142655728519000,1.897518798828125,-2.892971992492676,-2.0826358795166016,3.572455644607544
1748142655746783700,1.91578369140625,-5.101133823394775,-5.184882164001465,-2.7447104454040527
1748142655765047600,1.934047607421875,0.46316981315612793,-5.437314987182617,-0.6165969371795654
1748142655783309000,1.95230908203125,4.520054817199707,-2.974153518676758,4.364750862121582
1748142655801578000,1.970577880859375,5.4469194412231445,-1.9850263595581055,7.370680332183838
1748142655819843000,1.988843017578125,6.241786479949951,-2.443025588989258,6.681156158447266
1748142655838109200,2.007109130859375,8.425682067871094,-3.5967111587524414,1.7860233783721924
1748142655856374300,2.025374267578125,8.906585693359375,-3.5915536880493164,-0.140151709318161
1748142655874634200,2.04363427734375,7.758873462677002,-0.7051873207092285,-4.181929588317871
1748142655892905000,2.061905029296875,6.77998685836792,1.8419461250305176,-5.892988681793213
1748142655911168000,2.08016796875,6.524746417999268,3.560288429260254,-5.064664840698242
1748142655929434600,2.0984345703125,7.15538215637207,3.709110736846924,-4.289618015289307
1748142655947694300,2.1166943359375,7.575277805328369,2.7676615715026855,-3.798448085784912
1748142655965964300,2.13496435546875,5.088763236999512,1.5491752624511719,-1.6658660173416138
1748142655984224000,2.15322412109375,-3.176065444946289,-0.9632101058959961,2.811985492706299
1748142656002494700,2.17149462890625,0.32204389572143555,-1.2450408935546875,3.3487796783447266
1748142656020759300,2.18975927734375,4.226319789886475,-0.49312639236450195,2.4090592861175537
1748142656039020500,2.2080205078125,5.900228500366211,-0.2419900894165039,1.945920705795288
1748142656057288000,2.226287841796875,7.109615802764893,-0.29786062240600586,1.2218499183654785
1748142656075556400,2.244556396484375,7.6299052238464355,0.5964679718017578,1.267746925354004
1748142656093819400,2.2628193359375,6.768607139587402,1.5234928131103516,0.3742968440055847
1748142656112085500,2.28108544921875,4.911291599273682,3.098583221435547,-0.896825909614563
1748142656130349600,2.299349609375,3.0894246101379395,3.321873188018799,-1.6472525596618652
1748142656148615700,2.31761572265625,1.2566933631896973,2.0797252655029297,-2.4063796997070312
1748142656166880000,2.3358798828125,-2.8723535537719727,-0.6590871810913086,-2.297098159790039
1748142656185146000,2.35414599609375,-9.641172409057617,-3.9101791381835938,0.9474608898162842
1748142656203410000,2.372409912109375,-7.122368335723877,-7.104625701904297,3.521035671234131
1748142656221674800,2.3906748046875,-11.267807006835938,-10.153853416442871,3.342207193374634
1748142656239940600,2.408940673828125,-6.8874192237854,-5.242579460144043,1.1335030794143677
1748142656258207500,2.42720751953125,-3.8605947494506836,-0.5751142501831055,-0.24619603157043457
1748142656276470500,2.445470458984375,2.542661428451538,-3.35390567779541,-2.196418285369873
1748142656294732300,2.463732177734375,11.323037147521973,-9.645678520202637,1.0644044876098633
1748142656313000000,2.482,13.586021423339844,-6.585712432861328,2.620610475540161
1748142656331270000,2.500269775390625,11.272272109985352,-1.2039403915405273,-0.351337194442749
1748142656349531100,2.51853125,8.312627792358398,1.299574851989746,-1.0632224082946777
1748142656367797000,2.536796875,5.906973361968994,2.811692714691162,-2.4055023193359375
1748142656386061600,2.5550615234375,4.1825852394104,3.790590286254883,-2.8883628845214844
1748142656404312000,2.57331201171875,3.266650915145874,3.609821319580078,-2.228325605392456
1748142656422594300,2.59159423828125,2.4390199184417725,2.204310417175293,-0.8008882999420166
1748142656440857300,2.609857421875,2.3813250064849854,-1.8669681549072266,0.7782821655273438
1748142656459122000,2.628121826171875,1.4951108694076538,-5.030672073364258,1.9156010150909424
1748142656477388000,2.646387939453125,-3.084559917449951,-2.67437744140625,2.2881367206573486
1748142656495650800,2.66465087890625,-4.3440752029418945,1.762190818786621,2.3010497093200684
1748142656513918700,2.682918701171875,3.647336721420288,3.822211265563965,-0.7030327320098877
1748142656532182300,2.701182373046875,3.126685619354248,0.7160549163818359,0.9850404262542725
1748142656550443300,2.719443359375,2.651012897491455,-0.4884624481201172,-0.3577909469604492
1748142656568711200,2.737711181640625,1.3946634531021118,-0.1754608154296875,0.012330055236816406
1748142656586979600,2.7559794921875,1.3066277503967285,0.40561389923095703,0.0715484619140625
1748142656605237800,2.77423779296875,1.79358971118927,0.48661041259765625,-0.08170747756958008
1748142656623508500,2.792508544921875,1.5873985290527344,0.5926456451416016,0.3938436508178711
1748142656641772500,2.8107724609375,1.0320245027542114,0.6318855285644531,1.4187555313110352
1748142656660038000,2.829037841796875,0.5560494661331177,0.7526950836181641,1.3874127864837646
1748142656678304000,2.847303955078125,0.7455264329910278,0.8524084091186523,0.885770320892334
1748142656696570600,2.865570556640625,1.0258933305740356,1.0835952758789062,0.5251386165618896
1748142656714832000,2.883831787109375,0.0066378116607666016,0.5769720077514648,-0.19602203369140625
1748142656733094700,2.9020947265625,-1.2224135398864746,-0.25156307220458984,-1.3911875486373901
1748142656751368200,2.9203681640625,-3.1045548915863037,0.05714130401611328,0.5070669651031494
1748142656769627000,2.938626953125,-2.846416473388672,-1.4919109344482422,1.2923614978790283
1748142656787896600,2.956896484375,-0.9175757169723511,-0.6364336013793945,2.560981273651123
1748142656806154800,2.97515478515625,0.46585726737976074,0.48902225494384766,3.081902503967285
1748142656824419300,2.99341943359375,-1.9588791131973267,-1.5237703323364258,3.299961805343628
1748142656842689000,3.01168896484375,-3.304530382156372,-4.8809051513671875,4.643248558044434
1748142656860955000,3.029954833984375,-2.076979160308838,-5.453675270080566,5.536263942718506
1748142656879215000,3.048215087890625,-1.269047498703003,-3.8882246017456055,2.1457443237304688
1748142656897480000,3.06647998046875,0.9196716547012329,-3.719411849975586,2.053575038909912
1748142656915749000,3.0847490234375,2.7726082801818848,-3.6354551315307617,1.0271711349487305
1748142656934015700,3.103015625,4.133923053741455,-4.141887664794922,2.1304702758789062
1748142656952280600,3.121280517578125,5.388136386871338,-6.380472183227539,0.469224214553833
1748142656970545200,3.139545166015625,5.913841247558594,-5.178754806518555,2.639138698577881
1748142656988798700,3.157798828125,5.421713352203369,-2.2209696769714355,2.314429759979248
1748142657007074800,3.17607470703125,4.77565860748291,-0.5104589462280273,0.9615118503570557
1748142657025340400,3.19434033203125,4.047745704650879,1.165048599243164,-0.3725275993347168
1748142657043605200,3.212605224609375,3.9386658668518066,1.9698295593261719,-0.3004457950592041
1748142657061870800,3.230870849609375,5.01875114440918,1.6612157821655273,-0.532808780670166
1748142657080126500,3.24912646484375,5.849833011627197,0.9916272163391113,-1.1857560873031616
1748142657098403800,3.26740380859375,5.806831359863281,0.9175925254821777,-1.276134729385376
1748142657116664800,3.285664794921875,6.1253204345703125,0.17936229705810547,-1.9226417541503906
1748142657134932700,3.3039326171875,5.969583988189697,-0.0848245620727539,-1.1820281744003296
1748142657153191000,3.32219091796875,6.383370399475098,-0.289581298828125,-0.7318470478057861
1748142657171461600,3.340461669921875,5.6124043464660645,0.8620200157165527,-0.0036399364471435547
1748142657189726500,3.3587265625,5.4533772468566895,1.8265471458435059,-1.0922870635986328
1748142657207992000,3.376991943359375,5.037990093231201,2.3928675651550293,-2.4584507942199707
1748142657226252800,3.395252685546875,4.971835613250732,2.3997445106506348,-2.9960227012634277
1748142657244517400,3.413517333984375,4.168694019317627,2.268594264984131,-1.9769775867462158
1748142657262786800,3.431786865234375,3.188786745071411,1.5140399932861328,-1.0143132209777832
1748142657281052400,3.450052490234375,1.7652440071105957,0.5699396133422852,0.4477066993713379
1748142657299313400,3.4683134765625,-0.8792753219604492,0.09433794021606445,0.31488728523254395
1748142657317585700,3.486585693359375,-6.026620864868164,-0.9385042190551758,-1.7205013036727905
1748142657335847200,3.50484716796875,-8.904611587524414,-3.7256574630737305,0.1082005500793457
1748142657354113300,3.52311328125,-6.782535552978516,-4.227465629577637,4.936230659484863
1748142657372377300,3.54137744140625,-8.203158378601074,-4.074596405029297,0.8423552513122559
1748142657390642200,3.55964208984375,-2.8106985092163086,-2.2584447860717773,0.6578049659729004
1748142657408898300,3.577898193359375,1.1408731937408447,0.5194849967956543,1.8637406826019287
1748142657427172600,3.596172607421875,1.822298288345337,0.3821887969970703,2.613734483718872
1748142657445439000,3.61443896484375,4.401710510253906,-3.7587928771972656,2.6155638694763184
1748142657463703600,3.63270361328125,9.876310348510742,-10.58793830871582,3.711186647415161
1748142657481968000,3.650968017578125,10.542974472045898,-9.751944541931152,1.5481562614440918
1748142657500229000,3.66922900390625,3.1711387634277344,-3.402707099914551,-4.172783851623535
1748142657518498300,3.687498291015625,0.43510985374450684,2.5173873901367188,-3.168102502822876
1748142657536764400,3.705764404296875,2.564361810684204,4.992193698883057,-3.5524487495422363
1748142657555029000,3.724029052734375,6.51932430267334,2.8940587043762207,-0.28838515281677246
1748142657573294800,3.742294921875,8.50584602355957,-0.49767112731933594,0.4905374050140381
1748142657591559000,3.760558837890625,5.652105808258057,-1.3133831024169922,-0.6811418533325195
1748142657609823500,3.778823486328125,2.5555992126464844,-0.3277244567871094,-0.7103085517883301
1748142657628090000,3.797090087890625,-1.518416166305542,0.8876733779907227,0.506955623626709
1748142657646355200,3.815355224609375,-5.379389762878418,1.7764091491699219,-1.2218337059020996
1748142657664622300,3.833622314453125,-1.2596104145050049,2.166501522064209,-1.5907624959945679
1748142657682883800,3.8518837890625,1.7168045043945312,0.7117404937744141,-1.0622611045837402
1748142657701151000,3.87015087890625,4.027985572814941,0.5693902969360352,-0.4902324676513672
1748142657719415800,3.888415771484375,3.3326070308685303,1.7131328582763672,0.2503659725189209
1748142657737678800,3.906678955078125,0.963811457157135,1.1846809387207031,1.2743923664093018
1748142657755947300,3.924947265625,-0.8115695714950562,-0.4813690185546875,1.6375770568847656
1748142657774206200,3.943206298828125,-1.4437364339828491,-0.7386817932128906,1.2531630992889404
1748142657792476400,3.961476318359375,-1.386193037033081,0.2567291259765625,0.8266372680664062
1748142657810737400,3.9797373046875,0.04720437526702881,0.3267679214477539,0.09084010124206543
1748142657829009000,3.9980087890625,2.344841957092285,0.40126895904541016,-2.7773332595825195
1748142657847270700,4.016270751953125,2.5845258235931396,1.037405014038086,-3.0509166717529297
1748142657865536800,4.034536865234375,1.047788381576538,2.2237048149108887,-2.7650933265686035
1748142657883800800,4.05280078125,0.8747210502624512,1.3068437576293945,-1.2717756032943726
1748142657902066700,4.071066650390625,-0.12142837047576904,-0.36885833740234375,-0.5411819219589233
1748142657920326700,4.08932666015625,-0.18218323588371277,-1.5937156677246094,0.7760329246520996
1748142657938596400,4.107596435546875,0.680939257144928,-1.9676036834716797,2.054936170578003
1748142657956862700,4.12586279296875,1.0858039855957031,-0.4375276565551758,3.566251039505005
1748142657975127600,4.14412744140625,0.734310507774353,0.841252326965332,5.533022880554199
1748142657993391900,4.162391845703125,-0.4223407506942749,0.45153331756591797,7.400229454040527
1748142658011651600,4.180651611328125,-3.4932963848114014,-2.392251968383789,11.270951271057129
1748142658029922000,4.198922119140625,-4.84487771987915,-6.623561859130859,8.870176315307617
1748142658048189700,4.217189697265625,-1.7411521673202515,-6.435848236083984,7.557745933532715
1748142658066452000,4.235451904296875,0.261383593082428,-6.587399482727051,4.462889671325684
1748142658084718600,4.253718505859375,-0.2575312852859497,-5.618617057800293,-3.234198570251465
1748142658102976000,4.27197607421875,0.26137709617614746,-3.475728988647461,-5.10715389251709
1748142658121244700,4.29024462890625,2.9795637130737305,-2.4364843368530273,-3.696255922317505
1748142658139512800,4.308512939453125,5.31243371963501,-1.442244529724121,-3.4388811588287354
1748142658157779000,4.326779052734375,6.386737823486328,-0.07487297058105469,-2.6156020164489746
1748142658176042800,4.345042724609375,5.60922908782959,1.0552101135253906,-0.9801039695739746
1748142658194306000,4.36330615234375,3.8731307983398438,0.8951544761657715,-0.16727757453918457
1748142658212576000,4.381575927734375,2.926006317138672,-0.4007835388183594,0.9864768981933594
1748142658230839300,4.39983935546875,2.9667580127716064,-1.731358528137207,1.5872845649719238
1748142658249103000,4.41810302734375,2.508820056915283,-1.652794361114502,1.289783239364624
1748142658267364900,4.43636474609375,2.3990185260772705,-1.393014907836914,1.2039287090301514
1748142658285634600,4.454634521484375,3.826909065246582,-1.075441837310791,1.1113026142120361
1748142658303880700,4.472880615234375,5.384822368621826,-0.6610226631164551,-0.2875502109527588
1748142658322163700,4.491163818359375,5.935423851013184,-0.25414228439331055,-2.3069605827331543
1748142658340430000,4.50943017578125,6.159380912780762,0.623100757598877,-3.546593427658081
1748142658358696200,4.5276962890625,6.584131717681885,1.6598310470581055,-3.5075936317443848
1748142658376959000,4.545958984375,5.609158992767334,2.3535213470458984,-3.7230374813079834
1748142658395220000,4.564219970703125,4.9184980392456055,2.1538238525390625,-3.550389051437378
1748142658431755300,4.60075537109375,3.565086841583252,1.8173894882202148,-3.265568256378174
1748142658450019800,4.619019775390625,3.034367322921753,1.9336724281311035,-3.153838634490967
1748142658468286200,4.6372861328125,1.7566869258880615,1.2294487953186035,-2.787665605545044
1748142658486551300,4.65555126953125,-0.6699156761169434,-0.3469843864440918,-1.2279733419418335
1748142658504815400,4.6738154296875,-4.166995525360107,-2.475579261779785,2.542590379714966
1748142658523077000,4.6920771484375,-5.527894973754883,-5.9365434646606445,8.59207534790039
1748142658541345500,4.710345458984375,-9.185110092163086,-7.132715225219727,11.18082046508789
1748142658559612000,4.72861181640625,-9.011789321899414,-2.1220016479492188,8.174351692199707
1748142658577876200,4.746876220703125,-4.8482513427734375,1.514493465423584,5.4357500076293945
1748142658596142300,4.765142333984375,0.024594783782958984,-1.125478744506836,0.557459831237793
1748142658614402800,4.78340283203125,5.657025337219238,-6.14289665222168,-0.14688944816589355
1748142658632671200,4.801671142578125,8.159382820129395,-7.584677696228027,-1.1416656970977783
1748142658650937900,4.819937744140625,7.89488410949707,-6.469861030578613,-1.736555814743042
1748142658669206300,4.838206298828125,7.03257942199707,-0.47127532958984375,-2.9248619079589844
1748142658687467000,4.856467041015625,6.351871490478516,4.168375015258789,-4.844050407409668
1748142658705732600,4.874732666015625,4.8502726554870605,5.164224624633789,-5.288555145263672
1748142658723997400,4.89299755859375,3.721015453338623,4.488369941711426,-3.9350736141204834
1748142658742269200,4.911269287109375,2.7943689823150635,2.2445015907287598,-2.478740930557251
1748142658760527600,4.929527587890625,2.9737699031829834,-0.8930273056030273,-1.377563238143921
1748142658778788600,4.94778857421875,2.267310857772827,-4.911762237548828,-0.82594895362854
1748142658797056800,4.966056884765625,0.29585838317871094,-4.25657844543457,-0.8755950927734375
1748142658815325200,4.9843251953125,-2.84523344039917,-0.8706474304199219,-0.2018744945526123
1748142658833588000,5.002587890625,-1.3602957725524902,0.9234590530395508,-0.5663807392120361
1748142658851851300,5.020851318359375,2.9452075958251953,1.2859187126159668,-0.7571985721588135
1748142658870121500,5.03912158203125,5.3393330574035645,0.9327201843261719,-0.2074434757232666
1748142658888383500,5.057383544921875,5.01023006439209,0.7934160232543945,0.5892119407653809
1748142658906648600,5.075648681640625,4.121824741363525,1.1143193244934082,0.9501047134399414
1748142658924916000,5.093916015625,3.237605333328247,1.319840908050537,1.3702311515808105
1748142658943179000,5.112178955078125,1.8912502527236938,1.6470732688903809,2.1960482597351074
1748142658961445000,5.130445068359375,-0.3668516278266907,1.9659857749938965,2.387345790863037
1748142658979710500,5.14871044921875,-2.4549264907836914,1.9455785751342773,2.046858072280884
1748142658997973800,5.166973876953125,-1.1516969203948975,1.290165901184082,1.092524528503418
1748142659016235300,5.1852353515625,0.842100977897644,0.18564510345458984,0.27654027938842773
1748142659034500900,5.2035009765625,0.9613229036331177,-0.984950065612793,-0.7748253345489502
1748142659052768500,5.2217685546875,-0.71037358045578,-1.8223543167114258,-0.6381347179412842
1748142659071036700,5.24003662109375,-3.035167932510376,-1.7441368103027344,-0.2898247241973877
1748142659089300200,5.25830029296875,-3.553060531616211,-1.539048194885254,2.288118839263916
1748142659107566300,5.27656640625,-1.4992111921310425,-0.5993719100952148,3.993722438812256
1748142659125830400,5.294830322265625,0.08441096544265747,0.3793048858642578,3.836998224258423
1748142659144096000,5.313095947265625,0.02808816358447075,-0.13575458526611328,3.871373414993286
1748142659162361000,5.331361083984375,-1.2898821830749512,-2.467013359069824,4.837855339050293
1748142659180632300,5.34963232421875,-3.723297119140625,-4.992237091064453,5.946702003479004
1748142659198887200,5.36788720703125,-3.861424684524536,-4.684571266174316,6.383420944213867
1748142659217156600,5.386156494140625,-0.2785930633544922,-2.3005847930908203,4.57109260559082
1748142659235421400,5.40442138671875,0.7852675318717957,-1.0934953689575195,1.5647356510162354
1748142659253686300,5.422686279296875,-0.03754377365112305,-1.087141990661621,-0.8332290649414062
1748142659271952400,5.440952392578125,1.271770715713501,-2.0909948348999023,-2.266615867614746
1748142659290212400,5.45921240234375,4.017340660095215,-3.2985429763793945,-2.9202334880828857
1748142659308481000,5.47748095703125,5.502823352813721,-3.616580009460449,-3.5329830646514893
1748142659326749000,5.4957490234375,5.292057037353516,-3.1951746940612793,-3.5630130767822266
1748142659345012200,5.51401220703125,5.460303783416748,-1.5739164352416992,-2.025818347930908
1748142659363278000,5.532278076171875,6.000030517578125,1.0097732543945312,-0.4603092670440674
1748142659381538000,5.5505380859375,6.02731990814209,1.3887410163879395,1.3572797775268555
1748142659399808500,5.56880859375,5.245484352111816,0.6765613555908203,2.2440600395202637
1748142659418072800,5.58707275390625,3.158860683441162,0.7378740310668945,4.084415912628174
1748142659436338700,5.605338623046875,1.5967888832092285,0.7224259376525879,5.300382614135742
1748142659454599000,5.623598876953125,2.127176284790039,-0.16054058074951172,4.440067291259766
1748142659472869400,5.641869384765625,3.3012583255767822,-0.9526176452636719,1.0492925643920898
1748142659491133200,5.66013330078125,4.7312211990356445,-1.11968994140625,-2.598264217376709
1748142659509399000,5.67839892578125,5.973067283630371,-0.38059139251708984,-4.227443218231201
1748142659527662800,5.696662841796875,6.754505634307861,0.7748098373413086,-4.698049068450928
1748142659545931000,5.714930908203125,6.449895858764648,1.6617560386657715,-5.154352188110352
1748142659564194800,5.73319482421875,5.283685207366943,2.371368885040283,-5.760356426239014
1748142659582459400,5.75145947265625,3.447136402130127,2.5940608978271484,-6.28740119934082
1748142659600724500,5.769724365234375,1.8893945217132568,2.5947179794311523,-5.7448344230651855
1748142659618990800,5.787990966796875,1.2251732349395752,2.453186511993408,-4.467630386352539
1748142659637249800,5.806249755859375,0.7688071727752686,1.5820989608764648,-3.538562297821045
1748142659655520800,5.824520751953125,-0.6245207786560059,-0.5705242156982422,-2.0283656120300293
1748142659673785000,5.84278515625,-3.7465262413024902,-4.756972312927246,1.9968287944793701
1748142659692051200,5.86105126953125,-8.732832908630371,-8.75258731842041,9.808611869812012
1748142659710314800,5.879314697265625,-12.342935562133789,-6.897844314575195,12.875911712646484
1748142659728581000,5.8975810546875,-7.46151065826416,0.21111679077148438,8.86317253112793
1748142659746845700,5.915845703125,-0.7431881427764893,3.617368221282959,3.3544516563415527
1748142659765111800,5.93411181640625,2.3617265224456787,1.8663830757141113,-1.5002312660217285
1748142659783375600,5.952375732421875,6.007339954376221,-3.0927505493164062,-0.9550831317901611
1748142659801640400,5.970640380859375,7.64091682434082,-8.195283889770508,0.34327173233032227
1748142659819906300,5.98890625,5.77401065826416,-11.74697208404541,0.48104190826416016
1748142659838173400,6.00717333984375,4.83562707901001,-5.968865394592285,-0.9003612995147705
1748142659856436500,6.0254365234375,-3.382599115371704,0.3959474563598633,-5.195681095123291
1748142659874702600,6.04370263671875,-2.089951515197754,3.4001522064208984,-8.15042495727539
1748142659892962300,6.06196240234375,3.899726152420044,4.559126853942871,-7.049129009246826
1748142659911228000,6.080227783203125,4.829956531524658,5.155167579650879,-5.357322692871094
1748142659929494300,6.098494384765625,4.389523506164551,2.6769638061523438,-1.6355812549591064
1748142659947766000,6.11676611328125,3.9654884338378906,-1.5222358703613281,-0.5273487567901611
1748142659966024000,6.13502392578125,4.0704545974731445,-3.891749382019043,-0.1657097339630127
1748142659984297200,6.153297119140625,5.112383842468262,-3.6404829025268555,-0.45710301399230957
1748142660002557700,6.1715576171875,3.473330497741699,-0.8119068145751953,1.4793553352355957
1748142660020823800,6.18982373046875,-3.3639655113220215,0.5817155838012695,1.7502572536468506
1748142660039088400,6.20808837890625,-6.563506603240967,1.6298575401306152,1.0233511924743652
1748142660057354200,6.226354248046875,-1.5424554347991943,1.7965989112854004,0.9019143581390381
1748142660075618600,6.24461865234375,2.856412649154663,0.5440578460693359,0.5502803325653076
1748142660093884200,6.26288427734375,2.6136043071746826,0.061768531799316406,0.6759061813354492
1748142660112148500,6.2811484375,1.1249116659164429,0.5660562515258789,0.06086421012878418
1748142660130414800,6.299414794921875,0.21463565528392792,1.498812198638916,-0.13115334510803223
1748142660148673300,6.31767333984375,-0.313353955745697,1.9707465171813965,0.03729391098022461
1748142660166944800,6.33594482421875,-1.1957058906555176,1.8224687576293945,0.4430410861968994
1748142660185199400,6.354199462890625,-1.6377516984939575,1.3237051963806152,0.9214186668395996
1748142660203475700,6.372475830078125,-1.299407720565796,0.6892309188842773,0.869948148727417
1748142660221729300,6.390729248046875,-0.5996084213256836,0.4465799331665039,0.6463267803192139
1748142660240005600,6.409005615234375,-0.32834160327911377,0.1747579574584961,0.9804139137268066
1748142660258258000,6.4272578125,-0.5664341449737549,-0.11092281341552734,1.6531307697296143
1748142660276524800,6.44552490234375,-1.1627509593963623,0.12299442291259766,2.24308443069458
1748142660294800000,6.4637998046875,-1.3369019031524658,-0.19805049896240234,2.7628846168518066
1748142660313066000,6.48206591796875,-0.9647217988967896,-0.05782318115234375,2.6624703407287598
1748142660331330600,6.50033056640625,-1.295612096786499,-0.012558937072753906,1.4746899604797363
1748142660349596700,6.5185966796875,-1.1834542751312256,-1.021775245666504,0.774071216583252
1748142660367860500,6.536860595703125,-2.4656925201416016,-3.4776878356933594,-0.09677004814147949
1748142660386126600,6.555126708984375,-6.012679100036621,-7.023515701293945,1.3962421417236328
1748142660404374300,6.573374267578125,-6.021770477294922,-6.291114807128906,5.14314079284668
1748142660422656300,6.59165625,-3.043386220932007,-2.749964714050293,5.244059085845947
1748142660440922400,6.60992236328125,0.157581627368927,-0.3158702850341797,4.061306953430176
1748142660459188200,6.628188232421875,1.309820532798767,0.07343673706054688,3.2424044609069824
1748142660477452000,6.6464521484375,3.5959956645965576,-1.285048484802246,1.1659681797027588
1748142660495718400,6.664718505859375,5.206684112548828,-3.3089818954467773,0.052942752838134766
1748142660513982200,6.682982177734375,5.586091041564941,-4.945989608764648,-0.6859381198883057
1748142660532243700,6.70124365234375,3.103224277496338,-4.910739898681641,0.6069650650024414
1748142660550512600,6.7195126953125,0.1609630584716797,-2.0151476860046387,0.6636528968811035
1748142660568778800,6.73777880859375,2.5138914585113525,-0.10299825668334961,-1.2237863540649414
1748142660587045600,6.756045654296875,4.773313999176025,1.6093907356262207,-0.9204685688018799
1748142660605305900,6.774305908203125,5.226205348968506,2.9501681327819824,-0.2393169403076172
1748142660623573500,6.792573486328125,4.549242973327637,3.075087070465088,0.7189855575561523
1748142660641839400,6.81083935546875,3.915846347808838,1.6838507652282715,1.939821720123291
1748142660660098800,6.829098876953125,4.574221134185791,-0.2764291763305664,1.9368431568145752
1748142660678368300,6.8473681640625,5.362051963806152,-1.950965404510498,0.13267254829406738
1748142660696636200,6.86563623046875,5.477598190307617,-1.9692540168762207,-1.4587600231170654
1748142660714899000,6.88389892578125,4.717015743255615,-0.8174643516540527,-2.929459571838379
1748142660733164300,6.902164306640625,5.123077392578125,1.1070337295532227,-3.782273054122925
1748142660751425300,6.92042529296875,5.897780895233154,2.4609875679016113,-5.003341197967529
1748142660769693700,6.938693603515625,5.893701076507568,3.1150598526000977,-5.928325653076172
1748142660787961600,6.956961669921875,5.184322834014893,3.3146965503692627,-6.131252765655518
1748142660806219800,6.9752197265625,4.174914360046387,3.6267590522766113,-5.753339767456055
1748142660824486400,6.993486328125,2.5279061794281006,3.937880754470825,-4.844944953918457
1748142660842755300,7.01175537109375,0.16614627838134766,2.4189748764038086,-3.209770679473877
1748142660861021200,7.030021240234375,-2.2217118740081787,-0.1728839874267578,0.2567107677459717
1748142660879285500,7.048285400390625,-6.405551910400391,-3.0783309936523438,6.32136344909668
1748142660897551400,7.06655126953125,-14.561460494995117,-7.454580307006836,14.85379695892334
1748142660915816200,7.084816162109375,-6.538580894470215,-7.760021209716797,12.660932540893555
1748142660934080500,7.10308056640625,-5.663822174072266,-1.8891820907592773,5.681081771850586
1748142660952347100,7.12134716796875,-4.459124565124512,0.6156854629516602,1.0761053562164307
1748142660970612000,7.139612060546875,-0.10323858261108398,-2.779425621032715,0.11629819869995117
1748142660988876500,7.15787646484375,6.473010063171387,-6.278786659240723,2.1931159496307373
1748142661007140400,7.176140380859375,10.108331680297852,-8.0264310836792,0.7108738422393799
1748142661025409000,7.194408935546875,8.80029296875,-6.122763633728027,-1.1341745853424072
1748142661043669000,7.2126689453125,8.175968170166016,-1.066171646118164,-2.809070587158203
1748142661061941000,7.23094091796875,5.729428291320801,2.630749225616455,-4.451077461242676
1748142661080206800,7.249206787109375,4.52631950378418,4.8399481773376465,-5.178090572357178
1748142661098467300,7.26746728515625,3.9859189987182617,5.869566917419434,-5.475320816040039
1748142661116733400,7.2857333984375,1.9381258487701416,4.112896919250488,-2.4683213233947754
1748142661134998000,7.303998046875,1.0966200828552246,0.3771076202392578,-0.913320779800415
1748142661153269200,7.322269287109375,0.2107265591621399,-4.82327938079834,-1.0945379734039307
1748142661171528000,7.34052783203125,-1.8203036785125732,-6.670598030090332,-2.027723789215088
1748142661189792800,7.358792724609375,-6.166879653930664,-2.015791893005371,-0.2037191390991211
1748142661208060000,7.377059814453125,-4.920677661895752,1.2869138717651367,0.020009994506835938
1748142661226324500,7.395324462890625,0.6721577644348145,1.9565157890319824,-0.9052059650421143
1748142661244584000,7.413583984375,3.231532335281372,1.3902082443237305,-0.8625462055206299
1748142661262842400,7.43184228515625,3.2647347450256348,1.4826812744140625,-0.2952382564544678
1748142661281118200,7.4501181640625,2.491537570953369,1.5224876403808594,0.6425549983978271
1748142661299383000,7.468383056640625,1.4429748058319092,1.4670829772949219,1.6398866176605225
1748142661317651000,7.48665087890625,0.2159430980682373,1.4581918716430664,2.5338878631591797
1748142661335916000,7.504916015625,-1.0222424268722534,1.4923462867736816,2.9443347454071045
1748142661354179800,7.523179931640625,-1.5424048900604248,1.4402422904968262,2.0166547298431396
1748142661372445400,7.541445556640625,-1.009140133857727,1.0467147827148438,0.588205099105835
1748142661390710000,7.5597099609375,-0.6464033126831055,0.40337181091308594,-0.8028252124786377
1748142661408976000,7.577975830078125,-0.7163292765617371,-0.0018014907836914062,-1.1555604934692383
1748142661427235800,7.59623583984375,-1.0740671157836914,-0.49025726318359375,-0.44838833808898926
1748142661445505000,7.614505126953125,-1.6488244533538818,-1.1539545059204102,0.3760709762573242
1748142661463772000,7.63277197265625,-3.1227059364318848,-1.3243885040283203,2.2113747596740723
1748142661482036500,7.651036376953125,-3.5810627937316895,0.2288656234741211,3.9316515922546387
1748142661500301000,7.669301025390625,-1.1965665817260742,1.9852986335754395,4.523778915405273
1748142661518562300,7.687562255859375,-0.3196592330932617,1.0265140533447266,6.114732265472412
1748142661536830200,7.705830322265625,-1.571940302848816,-3.2079362869262695,8.202319145202637
1748142661555098000,7.72409814453125,-3.7844228744506836,-6.703478813171387,7.575292110443115
1748142661573362000,7.74236181640625,-2.48309063911438,-5.8037214279174805,4.632891654968262
1748142661591628800,7.76062890625,-1.5721365213394165,-4.609638214111328,1.8624584674835205
1748142661609889800,7.778889892578125,-1.7444249391555786,-5.261266708374023,-0.2508513927459717
1748142661628159200,7.7971591796875,2.1310932636260986,-5.698795318603516,-1.321329116821289
1748142661646422800,7.8154228515625,6.445012092590332,-3.9222164154052734,-2.0897624492645264
1748142661664687600,7.8336875,5.6234965324401855,-1.4178838729858398,-2.4397802352905273
1748142661682953500,7.851953369140625,1.4559962749481201,1.547184944152832,-1.2629263401031494
1748142661701214000,7.8702138671875,-0.2687258720397949,2.181760311126709,-0.5657744407653809
1748142661719483400,7.8884833984375,1.2466301918029785,1.6616153717041016,-0.6894271373748779
1748142661737749200,7.906749267578125,2.883899450302124,0.7675976753234863,-0.5319840908050537
1748142661756013300,7.925013427734375,4.191596984863281,-0.08338260650634766,-0.12885737419128418
1748142661774274800,7.94327490234375,4.306944847106934,-0.4516267776489258,-0.14849042892456055
1748142661792542700,7.961542724609375,3.5154335498809814,-0.6687006950378418,0.10394167900085449
1748142661810810600,7.979810546875,3.523609161376953,-0.6643505096435547,0.463184118270874
1748142661829074200,7.99807421875,5.011595726013184,-0.3782472610473633,-0.30400824546813965
1748142661847340000,8.016340087890624,6.884285926818848,-0.07945585250854492,-1.841529369354248
1748142661865604600,8.0346044921875,5.6207194328308105,1.140932559967041,-3.1158061027526855
1748142661883870700,8.05287060546875,3.5387415885925293,2.7874088287353516,-4.735691070556641
1748142661902134500,8.071134521484375,2.753484010696411,3.852980375289917,-5.303452491760254
1748142661920401000,8.08940087890625,3.2536885738372803,4.111647129058838,-5.003098964691162
1748142661938664200,8.107664306640626,3.7750184535980225,3.278587818145752,-5.213789939880371
1748142661956932400,8.125932373046876,3.621152877807617,3.2611494064331055,-4.732016563415527
1748142661975196000,8.14419580078125,3.2941362857818604,3.8897180557250977,-4.453733921051025
1748142661993461500,8.16246142578125,2.1740174293518066,3.953925609588623,-3.75614857673645
1748142662011725600,8.1807255859375,-0.9336209297180176,1.1685709953308105,-0.6934328079223633
1748142662029990400,8.198990478515626,-14.18038558959961,-4.915010452270508,7.764432907104492
1748142662048247300,8.217247314453125,-14.791299819946289,-15.606731414794922,17.749631881713867
1748142662066523100,8.235523193359375,-4.661681175231934,-10.319117546081543,10.369458198547363
1748142662084786700,8.25378662109375,-3.650409460067749,0.27350711822509766,2.070361614227295
1748142662103052500,8.272052490234374,-2.7544960975646973,1.5461812019348145,-3.226839065551758
1748142662121309000,8.290308837890626,-0.6202430725097656,-5.250575065612793,-3.054762363433838
1748142662139585800,8.308585693359374,6.324926376342773,-7.11799430847168,1.0294857025146484
1748142662157847300,8.326847412109375,9.627989768981934,-6.736888885498047,-0.2796182632446289
1748142662176113200,8.345113037109375,7.643611431121826,-2.560037612915039,-1.480281114578247
1748142662194375200,8.363375244140625,7.315586090087891,0.8160061836242676,-1.7439719438552856
1748142662212645400,8.381645263671874,6.304619312286377,3.2684288024902344,-2.3948581218719482
1748142662230909000,8.399908935546875,5.121189594268799,5.09500789642334,-2.4067845344543457
1748142662249173800,8.418173828125,3.6470448970794678,6.055237293243408,-2.1666064262390137
1748142662267438000,8.43643798828125,3.4180493354797363,5.080565452575684,-2.4855217933654785
1748142662285699300,8.45469921875,1.79511296749115,-0.9145212173461914,-3.0446043014526367
1748142662303955700,8.472955810546875,-0.48896968364715576,-5.792847633361816,-1.1275205612182617
1748142662322231300,8.491231201171875,-2.0279388427734375,-3.7648448944091797,2.205008029937744
1748142662340486700,8.509486572265626,-3.2354378700256348,0.7223024368286133,2.3124608993530273
1748142662358764500,8.5277646484375,-1.4443739652633667,2.452726364135742,1.516859531402588
1748142662377015600,8.546015625,1.540173888206482,1.9725308418273926,1.3311066627502441
1748142662395295200,8.564295166015626,2.122253656387329,1.495316505432129,0.8089873790740967
1748142662413559300,8.582559326171875,1.3786813020706177,0.9955320358276367,0.816119909286499
1748142662431825400,8.600825439453125,0.6049901843070984,0.842524528503418,1.042187213897705
1748142662450090000,8.619090087890624,-1.2902140617370605,0.33197498321533203,0.25838255882263184
1748142662468355800,8.63735595703125,-2.6616227626800537,1.0413122177124023,-0.07539749145507812
1748142662486620000,8.655619873046875,-1.5415544509887695,1.4803357124328613,0.12831473350524902
1748142662504886000,8.673885986328125,0.24902504682540894,1.1660747528076172,-0.004572629928588867
1748142662523150800,8.69215087890625,0.8135159611701965,0.7113418579101562,0.12319064140319824
1748142662541416700,8.710416748046875,0.3354138135910034,0.2563323974609375,0.1720421314239502
1748142662559679200,8.72867919921875,-0.5445406436920166,-0.14134979248046875,0.025324344635009766
1748142662577947600,8.74694775390625,-1.8922080993652344,-0.5846309661865234,0.32132387161254883
1748142662596206800,8.765206787109374,-3.035519599914551,-0.9594707489013672,1.382755994796753
1748142662614472700,8.78347265625,-2.904073476791382,-0.8836841583251953,3.5865304470062256
1748142662632736800,8.80173681640625,-1.9262852668762207,0.08985424041748047,3.5921247005462646
1748142662651006200,8.820006103515626,-1.3194904327392578,0.7752065658569336,3.614489793777466
1748142662669273000,8.838273193359376,-2.653318405151367,-1.2300424575805664,3.7832326889038086
1748142662687538200,8.8565380859375,-5.684627532958984,-5.1016950607299805,4.903107643127441
1748142662705802000,8.874802001953125,-5.278316497802734,-5.673797607421875,6.2869462966918945
1748142662724068400,8.893068359375,-3.215364694595337,-2.722994804382324,5.3300981521606445
1748142662742332700,8.911332763671876,-0.8828661441802979,-1.3818597793579102,3.7829642295837402
1748142662760599000,8.92959912109375,-0.6005315780639648,-2.2124338150024414,2.1597084999084473
1748142662778862800,8.94786279296875,0.6272925138473511,-3.6527528762817383,1.0827903747558594
1748142662797129000,8.96612890625,3.071324348449707,-4.4357452392578125,-0.5179588794708252
1748142662815393500,8.9843935546875,4.126027584075928,-4.109488487243652,-0.9786241054534912
1748142662833658400,9.002658447265626,4.4626312255859375,-2.635000228881836,-1.1355202198028564
1748142662851924700,9.0209248046875,4.520204544067383,-0.4880990982055664,-0.6366310119628906
1748142662870190000,9.039190185546875,3.518930673599243,1.2992501258850098,-0.7326886653900146
1748142662888449300,9.05744921875,3.0228018760681152,2.2444686889648438,-0.3836493492126465
1748142662906718700,9.07571875,2.205315589904785,2.4971375465393066,0.09582948684692383
1748142662924985300,9.0939853515625,1.8070650100708008,2.1142749786376953,0.70155930519104
1748142662943246000,9.11224609375,2.6123650074005127,1.2338109016418457,0.9820358753204346
1748142662961515000,9.130514892578125,4.636983394622803,-0.2826042175292969,0.5434384346008301
1748142662979780900,9.14878076171875,6.219150543212891,-1.7103004455566406,-1.3005499839782715
1748142662998045000,9.167044921875,6.586053371429443,-1.5103697776794434,-2.782405376434326
1748142663016311000,9.18531103515625,5.390894412994385,0.11557149887084961,-3.539024591445923
1748142663034573000,9.203572998046875,4.840485572814941,1.875293254852295,-4.0872650146484375
1748142663052841500,9.221841552734375,4.787006855010986,2.947056293487549,-5.167032718658447
1748142663071105500,9.24010546875,4.259223461151123,3.3204784393310547,-5.683408260345459
1748142663089371400,9.258371337890624,3.6195693016052246,3.37424373626709,-5.626150131225586
1748142663107637200,9.27663720703125,3.2051992416381836,3.480851173400879,-5.580235481262207
1748142663125901600,9.294901611328125,2.4424052238464355,3.1462182998657227,-5.386368274688721
1748142663144161500,9.31316162109375,0.5211517810821533,2.722538948059082,-4.14695930480957
1748142663162431000,9.331430908203124,-3.842461585998535,0.7934060096740723,-0.2816333770751953
1748142663180699400,9.349699462890625,-18.361997604370117,-4.236968040466309,10.340119361877441
1748142663198967800,9.3679677734375,-11.004011154174805,-12.456486701965332,15.972121238708496
1748142663217222400,9.386222412109374,-6.545661926269531,-7.927691459655762,10.668895721435547
1748142663235492900,9.404492919921875,-4.000845909118652,1.5612001419067383,2.9713757038116455
1748142663253757400,9.42275732421875,-1.482100486755371,5.211850166320801,-2.827568769454956
1748142663272023300,9.441023193359374,1.8784658908843994,1.0664072036743164,-3.832550287246704
1748142663290287900,9.459287841796876,6.746236801147461,-5.621125221252441,-0.2694683074951172
1748142663308553700,9.4775537109375,10.460710525512695,-13.870115280151367,1.3635060787200928
1748142663326818000,9.495818115234375,9.207792282104492,-11.356868743896484,-0.8544909954071045
1748142663345084200,9.514084228515625,2.5164239406585693,-3.711024284362793,-4.940033435821533
1748142663363348500,9.532348388671876,-0.05582451820373535,2.4421229362487793,-4.705519199371338
1748142663381614300,9.5506142578125,-0.29213154315948486,5.703798294067383,-4.564275741577148
1748142663399873000,9.568873046875,1.3829797506332397,6.913183212280273,-5.011096477508545
1748142663418144500,9.58714453125,2.8728561401367188,6.565609931945801,-3.6410202980041504
1748142663436409900,9.605409912109375,2.804838180541992,3.6418557167053223,-0.7257685661315918
1748142663454671600,9.623671630859375,2.6780858039855957,-1.9193906784057617,1.1927006244659424
1748142663472940500,9.6419404296875,2.864305019378662,-5.568813323974609,1.3087060451507568
1748142663491192300,9.6601923828125,5.193550109863281,-5.10572624206543,-0.28258204460144043
1748142663509471000,9.678470947265625,2.1300036907196045,-1.9018545150756836,2.238131523132324
1748142663527735300,9.6967353515625,-9.685877799987793,1.3330001831054688,5.167403221130371
1748142663546000400,9.71500048828125,-10.340092658996582,3.331305980682373,3.1900529861450195
1748142663564262400,9.733262451171875,-1.7948424816131592,2.7074508666992188,1.2930426597595215
1748142663582530600,9.751530517578125,3.5256967544555664,2.3791756629943848,1.895421028137207
1748142663600796200,9.769796142578125,2.7779531478881836,1.6442875862121582,2.2869808673858643
1748142663619061000,9.78806103515625,0.8408795595169067,2.0983948707580566,1.4157302379608154
1748142663637326600,9.80632666015625,0.20749789476394653,3.313347339630127,1.4494647979736328
1748142663655586300,9.82458642578125,0.3987710475921631,4.001156330108643,1.3886988162994385
1748142663673855500,9.84285546875,0.12502646446228027,3.643709659576416,1.1645879745483398
1748142663692122600,9.86112255859375,-0.4964418411254883,1.9458670616149902,0.837296724319458
1748142663710387200,9.87938720703125,-1.4015369415283203,-0.2484760284423828,1.0466907024383545
1748142663728650800,9.897650634765625,-4.228726863861084,-2.282771110534668,1.5883119106292725
1748142663746919000,9.9159189453125,-7.147916793823242,-2.7039670944213867,2.690437078475952
1748142663765182500,9.934182373046875,-4.167509078979492,-1.0631885528564453,2.8384642601013184
1748142663783448600,9.952448486328125,-0.9374269247055054,0.6233816146850586,3.3897461891174316
1748142663801712000,9.970712158203124,-0.4247843027114868,0.14971065521240234,4.310667991638184
1748142663819977500,9.9889775390625,-0.9958059787750244,-2.825190544128418,5.800976276397705
1748142663838239500,10.007239501953125,-2.6598012447357178,-5.506519317626953,7.640120506286621
1748142663856509000,10.025509033203125,-5.7261152267456055,-5.448829650878906,5.543486595153809
1748142663874773000,10.04377294921875,-3.8615453243255615,-3.862380027770996,4.621335983276367
1748142663893039000,10.0620390625,-1.4796100854873657,-4.188226699829102,2.551240921020508
1748142663911303400,10.080303466796876,0.39487648010253906,-3.9446229934692383,-0.9747903347015381
1748142663929568300,10.098568359375,2.9594125747680664,-2.7258119583129883,-1.6525537967681885
1748142663947835100,10.116835205078125,4.952924728393555,-1.6885004043579102,-0.47278285026550293
1748142663966100000,10.135099853515625,4.603048324584961,-1.7294998168945312,0.4420034885406494
1748142663984364500,10.153364501953124,1.6422195434570312,-1.7162151336669922,1.9452874660491943
1748142664002626600,10.17162646484375,-1.191758394241333,-2.274909019470215,2.7200992107391357
1748142664020892700,10.189892578125,0.7809622287750244,-2.752875328063965,0.7821733951568604
1748142664039161600,10.20816162109375,3.6066086292266846,-2.420461654663086,-1.5307893753051758
1748142664057425000,10.2264248046875,4.8560709953308105,-1.4330921173095703,-2.5334091186523438
1748142664075690200,10.244690185546874,5.758971214294434,-0.17886066436767578,-2.9755284786224365
1748142664093956400,10.262956298828126,6.334223747253418,1.3274011611938477,-2.4554243087768555
1748142664112216000,10.281216064453124,5.974638938903809,2.7204689979553223,-1.724888563156128
1748142664130485800,10.29948583984375,4.968696117401123,3.1083688735961914,-1.040041446685791
1748142664148752000,10.317751953125,4.804206371307373,2.6504979133605957,-0.5271384716033936
1748142664167015700,10.336015625,4.040672302246094,2.7986598014831543,-1.0551908016204834
1748142664185281800,10.35428173828125,4.776417255401611,3.2046942710876465,-2.4916460514068604
1748142664203535000,10.37253515625,5.2091593742370605,3.5113630294799805,-4.145155906677246
1748142664221816800,10.39081689453125,4.940062999725342,3.6001176834106445,-5.236645698547363
1748142664240076300,10.409076171875,4.13875150680542,4.266454696655273,-5.880983352661133
1748142664258337800,10.427337890625,3.285414934158325,4.641485691070557,-6.718026161193848
1748142664276607000,10.44560693359375,2.2205586433410645,3.1940221786499023,-6.0306901931762695
1748142664294873300,10.463873291015625,-0.24645113945007324,0.13552188873291016,-2.893488645553589
1748142664313137000,10.482136962890625,-15.381629943847656,-4.975297927856445,4.998145580291748
1748142664331403300,10.5004033203125,-14.622722625732422,-12.061907768249512,18.154895782470703
1748142664349666600,10.51866650390625,-5.4627580642700195,-9.67406177520752,13.728521347045898
1748142664367935000,10.53693505859375,-4.194843292236328,-1.6731672286987305,4.970053672790527
1748142664386200600,10.55520068359375,-3.968068838119507,2.915238380432129,-0.5152792930603027
1748142664404444000,10.57344384765625,0.6170058250427246,-0.6059808731079102,-3.1648507118225098
1748142664422731300,10.591731201171875,5.871045112609863,-2.8502702713012695,-0.29480791091918945
1748142664440994600,10.60999462890625,10.29892635345459,-6.968178749084473,0.9542949199676514
1748142664459254300,10.628254150390624,7.596903324127197,-4.219245910644531,-2.0244669914245605
1748142664477524700,10.646524658203125,1.1586600542068481,-0.40126991271972656,-2.9503369331359863
1748142664495777000,10.664777099609376,-3.2108240127563477,3.3638124465942383,-1.6734765768051147
1748142664514050300,10.68305029296875,1.3285913467407227,4.797188758850098,-3.6116185188293457
1748142664532305200,10.70130517578125,4.930624008178711,3.2057533264160156,-2.279265880584717
1748142664550586400,10.71958642578125,5.572598934173584,1.6033086776733398,-0.023807048797607422
1748142664568849400,10.737849365234375,5.269703388214111,-2.2349157333374023,0.9024229049682617
1748142664587115300,10.756115234375,3.6131932735443115,-2.8391475677490234,1.134441614151001
1748142664605379300,10.77437939453125,0.4825557470321655,-0.7487382888793945,-0.4872157573699951
1748142664623645000,10.79264501953125,-1.4638104438781738,0.804295539855957,-1.7002722024917603
1748142664641911300,10.810911376953126,-1.9786372184753418,1.1923561096191406,-2.2891604900360107
1748142664660176600,10.8291767578125,-0.4093577265739441,1.3904595375061035,-1.9118238687515259
1748142664678440400,10.8474404296875,-0.2066344916820526,1.5473895072937012,-0.599482536315918
1748142664696706800,10.865706787109374,-0.25091710686683655,0.9518299102783203,1.0214931964874268
1748142664714970600,10.883970703125,0.03980943560600281,0.890965461730957,1.5233056545257568
1748142664733233000,10.90223291015625,0.5140674114227295,1.5236387252807617,1.067260980606079
1748142664751500800,10.920500732421875,0.9581457376480103,2.059305191040039,0.637763261795044
1748142664769767400,10.938767333984375,0.930235743522644,2.554567813873291,0.4875802993774414
1748142664788030700,10.95703076171875,-0.4134262204170227,2.686194896697998,0.5986700057983398
1748142664806299000,10.975298828125,-4.140598773956299,1.7055892944335938,0.6972386837005615
1748142664824573400,10.993573486328126,-5.221656799316406,0.7197713851928711,0.6365785598754883
1748142664842828000,11.011828125,-3.153031826019287,-0.22769641876220703,1.1209042072296143
1748142664861092900,11.0300927734375,-1.725337028503418,-0.8141040802001953,2.158390998840332
1748142664879358200,11.048358154296874,-1.034109115600586,-1.337965965270996,3.0629987716674805
1748142664897622800,11.066622802734376,-0.7391749620437622,-1.4451732635498047,3.690403461456299
1748142664915888400,11.084888427734375,-0.6207034587860107,-0.2648200988769531,4.129532337188721
1748142664934153200,11.1031533203125,-0.7452468872070312,0.28603076934814453,4.938794136047363
1748142664952419000,11.121419189453125,-6.426374912261963,-1.5298576354980469,6.500120162963867
1748142664970682400,11.139682373046876,-9.414116859436035,-3.502046585083008,9.282089233398438
1748142664988950300,11.1579501953125,-3.5294010639190674,-2.2796363830566406,10.345598220825195
1748142665007209500,11.17620947265625,-2.168214797973633,-0.7185821533203125,7.931550979614258
1748142665025475000,11.19447509765625,-1.2764256000518799,0.42492008209228516,5.316066265106201
1748142665043743000,11.212742919921874,-3.1581809520721436,-1.2072601318359375,2.6170780658721924
1748142665062011100,11.23101123046875,-1.812652587890625,-4.66827392578125,0.668412446975708
1748142665080274700,11.249274658203126,3.102534532546997,-5.483556747436523,0.9815094470977783
1748142665098540800,11.267540771484375,4.422334671020508,-8.019721031188965,1.484682321548462
1748142665116804600,11.2858046875,3.939523458480835,-10.194918632507324,-1.0582892894744873
1748142665135070700,11.30407080078125,-1.9528298377990723,-9.358667373657227,-4.1463751792907715
1748142665153335000,11.3223349609375,-0.5041821002960205,-6.283753395080566,-5.594881057739258
1748142665171601400,11.340601318359376,2.4029173851013184,-2.519563674926758,-5.357181549072266
1748142665189864400,11.358864501953125,3.911693811416626,0.5285358428955078,-4.490720272064209
1748142665208132400,11.37713232421875,3.781813621520996,1.6158747673034668,-2.9837779998779297
1748142665226396200,11.395396240234374,4.96148681640625,2.1905674934387207,-1.466526746749878
1748142665244660500,11.413660400390626,5.775259971618652,3.469986915588379,0.4269692897796631
1748142665262927000,11.431927001953126,5.736712455749512,4.197824001312256,1.5363469123840332
1748142665281190000,11.45018994140625,4.620882034301758,4.010859966278076,2.1768665313720703
1748142665299457300,11.468457275390625,3.688108205795288,4.263368606567383,0.38494396209716797
1748142665317721900,11.486721923828124,4.467423915863037,5.259483337402344,-3.709998369216919
1748142665335989500,11.504989501953125,5.248981952667236,5.7559051513671875,-5.724985599517822
1748142665354248400,11.52324853515625,5.678556442260742,5.888023853302002,-6.312705039978027
1748142665372512500,11.541512451171876,5.719465732574463,6.103726863861084,-6.340548515319824
1748142665390782000,11.559781982421875,5.086872577667236,5.745129585266113,-6.138782978057861
1748142665409036300,11.578036376953126,3.2573914527893066,4.7287797927856445,-5.02243709564209
1748142665427313200,11.596313232421876,-0.9945156574249268,2.967195510864258,-3.7213470935821533
1748142665445577700,11.61457763671875,-14.823189735412598,-2.167682647705078,2.9296748638153076
1748142665463843800,11.63284375,-16.382875442504883,-11.249996185302734,19.01373863220215
1748142665482108000,11.65110791015625,-9.27938461303711,-14.74200439453125,12.815269470214844
1748142665500374000,11.6693740234375,-6.489748477935791,-4.428518295288086,4.940402030944824
1748142665518638300,11.687638427734376,-4.504196643829346,1.972738265991211,0.02703070640563965
1748142665536904700,11.70590478515625,-0.8903913497924805,3.7017078399658203,-4.867342948913574
1748142665555168800,11.724168701171875,1.418006181716919,1.8996706008911133,-8.310528755187988
1748142665573434400,11.742434326171875,-1.2359576225280762,-4.842153549194336,-10.855403900146484
1748142665591699500,11.760699462890624,-2.986511707305908,-13.062010765075684,-9.85451889038086
1748142665609960700,11.778960693359375,7.443483352661133,-5.736790657043457,3.440739870071411
1748142665628225300,11.797225341796874,12.47415828704834,0.5212039947509766,3.356707811355591
1748142665646495200,11.8154951171875,9.559534072875977,2.934295654296875,0.014708757400512695
1748142665664760000,11.833760009765625,8.247119903564453,1.3116827011108398,-0.5760157108306885
1748142665683025700,11.852025634765624,6.786588191986084,-0.6447153091430664,2.164609670639038
1748142665701289700,11.870289794921876,4.931356430053711,-3.2791576385498047,6.35744571685791
1748142665719555600,11.8885556640625,0.5254933834075928,-3.3248720169067383,7.986139297485352
1748142665737820700,11.906820556640625,-4.2243428230285645,-1.2088079452514648,3.010267496109009
1748142665756086500,11.92508642578125,-4.209944248199463,1.5779671669006348,0.9556629657745361
1748142665774350800,11.943350830078124,-0.8501473665237427,2.7783756256103516,-0.05928230285644531
1748142665792616400,11.961616455078126,1.838312029838562,2.8812718391418457,-1.1166445016860962
1748142665810880500,11.979880615234375,2.581537961959839,3.262218952178955,-2.086246967315674
1748142665829147000,11.99814697265625,0.8500734567642212,3.568476676940918,-2.618356227874756
1748142665847411200,12.0164111328125,-1.7273544073104858,3.479562759399414,-2.7690751552581787
1748142665865676000,12.034676025390626,-1.8635423183441162,3.2873687744140625,-1.9185371398925781
1748142665883938300,12.052938232421875,-0.3186926245689392,3.8772826194763184,-1.3112034797668457
1748142665902204000,12.071203857421875,0.12470746040344238,5.366910457611084,-1.313413143157959
1748142665920473000,12.08947314453125,-5.074265003204346,4.810474395751953,-0.9035384654998779
1748142665938738000,12.107738037109375,-7.047102451324463,2.682908058166504,1.9290978908538818
1748142665957002500,12.12600244140625,-1.58217191696167,0.3498363494873047,3.403047800064087
1748142665975269600,12.14426953125,0.17477107048034668,-0.4241628646850586,4.244199275970459
1748142665993532700,12.16253271484375,-0.7985517978668213,-0.6202945709228516,5.042192459106445
1748142666011798300,12.18079833984375,-0.7969645261764526,-1.4194831848144531,5.678696632385254
1748142666030063900,12.19906396484375,-1.2426027059555054,-3.08266544342041,5.533532619476318
1748142666048328400,12.217328369140626,-1.3237450122833252,-4.809569358825684,5.039287567138672
1748142666066593300,12.23559326171875,-1.2271937131881714,-5.326626777648926,4.61006498336792
1748142666084859100,12.253859130859375,-5.689220428466797,-6.209486961364746,3.156555652618408
1748142666103124000,12.2721240234375,-13.789298057556152,-5.256752014160156,2.7797765731811523
1748142666139652900,12.30865283203125,-5.390396595001221,0.89337158203125,7.371051788330078
1748142666157920300,12.326920166015626,-3.4430956840515137,3.6003665924072266,5.8234148025512695
1748142666176186000,12.34518603515625,-4.129679203033447,5.442572593688965,5.987351417541504
1748142666194445800,12.36344580078125,-4.575953006744385,4.8809003829956055,8.357625007629395
1748142666212714500,12.381714599609374,0.4646869897842407,1.025639533996582,6.9094953536987305
1748142666230980600,12.399980712890626,4.2546892166137695,-2.3669748306274414,4.460623741149902
1748142666249240800,12.41824072265625,7.201223373413086,-5.973627090454102,3.7336432933807373
1748142666267511600,12.436511474609375,5.351197242736816,-8.461713790893555,3.6956589221954346
1748142666285775400,12.454775390625,-9.399792671203613,-12.356546401977539,10.038708686828613
1748142666304027000,12.47302685546875,-16.27153778076172,-11.884833335876465,9.211220741271973
1748142666322306000,12.49130615234375,0.18497800827026367,-9.328554153442383,8.477360725402832
1748142666340572000,12.509572021484376,1.7998311519622803,-11.329133033752441,10.27004623413086
1748142666358836000,12.5278359375,2.260704517364502,-14.601714134216309,10.95440673828125
1748142666377102000,12.54610205078125,4.93385124206543,-9.664731979370117,7.730621814727783
1748142666395360800,12.56436083984375,0.5528123378753662,-0.5983953475952148,5.001762866973877
1748142666413632500,12.582632568359376,2.0261425971984863,2.625164270401001,1.5517520904541016
1748142666431897600,12.600897705078125,5.6549072265625,3.2651920318603516,-6.6132001876831055
1748142666450162700,12.61916259765625,8.393508911132812,2.8890469074249268,-9.380351066589355
1748142666468427300,12.63742724609375,7.86643123626709,4.519773006439209,-8.324386596679688
1748142666486695200,12.655695068359375,6.175705432891846,6.504899024963379,-6.939766883850098
1748142666504955400,12.673955322265625,6.844640731811523,8.296904563903809,-6.0939178466796875
1748142666523218400,12.692218505859374,6.708037376403809,9.011209487915039,-6.395227432250977
1748142666541487900,12.71048779296875,10.259284019470215,11.239522933959961,-9.586809158325195
1748142666559754000,12.72875390625,8.919203758239746,11.444086074829102,-12.464516639709473
1748142666578017800,12.747017822265626,5.442493438720703,10.69245433807373,-11.838557243347168
1748142666596283600,12.76528369140625,-5.4077277183532715,14.43705940246582,-2.7867493629455566
1748142666614544000,12.7835439453125,-8.19075870513916,10.675459861755371,-3.955442190170288
1748142666632814300,12.801814453125,-2.5890073776245117,7.084688663482666,-4.542031288146973
1748142666651078000,12.820077880859374,-5.666015625,4.965424537658691,-4.319375991821289
1748142666669343200,12.83834326171875,-6.5293169021606445,-0.7522125244140625,-7.773509502410889
1748142666687592000,12.856592041015626,-8.198858261108398,-16.265220642089844,-15.298089027404785
1748142666705875700,12.874875732421875,9.759843826293945,-28.5604248046875,-13.205108642578125
1748142666724138800,12.893138671875,7.09404993057251,-11.776259422302246,2.1219286918640137
1748142666742400500,12.911400390625,8.564638137817383,0.5901813507080078,1.6274272203445435
1748142666760668200,12.929668212890626,11.421953201293945,-1.1574621200561523,-0.7097189426422119
1748142666778936600,12.9479365234375,12.646342277526855,-10.093997955322266,-0.9812179803848267
1748142666797203200,12.966203125,9.771925926208496,-14.680403709411621,3.984901189804077
1748142666815465700,12.9844658203125,5.607428550720215,-15.658980369567871,6.540995121002197
1748142666833730000,13.00272998046875,3.34051513671875,-15.13897705078125,6.563802719116211
1748142666851996400,13.020996337890624,14.50018310546875,-12.639581680297852,18.344947814941406
1748142666870268200,13.03926806640625,-30.051509857177734,-12.340307235717773,49.43427276611328
1748142666888526600,13.057526611328125,-34.84602737426758,0.5081319808959961,30.280508041381836
1748142666906791000,13.075791015625,4.53265905380249,6.255169868469238,13.457191467285156
1748142666925057300,13.094057373046875,5.064495086669922,5.321160316467285,6.442836761474609
1748142666943321000,13.112321044921876,-1.781732439994812,6.372262954711914,4.081002235412598
1748142666961587200,13.130587158203125,-4.676873683929443,8.877331733703613,-0.5066214799880981
1748142666979850500,13.1488505859375,-9.78094482421875,13.613714218139648,-1.5674610137939453
1748142666998119000,13.167118896484375,-5.504190921783447,13.591391563415527,-0.6667520999908447
1748142667016381700,13.185381591796874,-0.3943607807159424,12.176868438720703,-1.9695247411727905
1748142667034646800,13.203646728515626,-2.214670181274414,10.806819915771484,-5.1972336769104
1748142667052913400,13.221913330078126,-4.100407123565674,7.48823356628418,-4.836968421936035
1748142667071178200,13.24017822265625,-0.13788698613643646,7.132024765014648,-2.8123505115509033
1748142667089442300,13.2584423828125,-1.5967152118682861,5.958758354187012,-0.26623010635375977
1748142667107708400,13.27670849609375,-6.669294357299805,-7.918352127075195,11.627668380737305
1748142667125972700,13.29497265625,-3.2070181369781494,-34.74627685546875,15.423421859741211
1748142667144234200,13.313234130859374,-1.2044355869293213,-44.76444625854492,4.728435039520264
1748142667162503000,13.3315029296875,2.4800329208374023,-23.156030654907227,17.884674072265625
1748142667180769000,13.34976904296875,-2.605919599533081,-10.395451545715332,19.646291732788086
1748142667199030300,13.3680302734375,-1.6046569347381592,-7.2526421546936035,11.460965156555176
1748142667217302800,13.386302734375,3.5628697872161865,-5.756972312927246,3.0439200401306152
1748142667235563500,13.4045634765625,6.177769660949707,-3.4931225776672363,-1.6830759048461914
1748142667253825000,13.422824951171876,6.089598178863525,0.22535037994384766,-6.706595420837402
1748142667272093000,13.441093017578124,6.7300310134887695,2.6559484004974365,-8.79574966430664
1748142667290361600,13.459361572265625,7.113455772399902,4.467652320861816,-7.089114665985107
1748142667308624400,13.477624267578125,6.825899600982666,6.917032241821289,-5.536149024963379
1748142667326890200,13.49589013671875,7.0656914710998535,8.200785636901855,-4.764232635498047
1748142667345155000,13.514155029296875,12.138862609863281,9.665672302246094,-5.902758598327637
1748142667363421000,13.5324208984375,16.610258102416992,11.606250762939453,-10.157690048217773
1748142667381684000,13.55068408203125,12.515792846679688,12.378256797790527,-11.351993560791016
1748142667399950600,13.56895068359375,6.912372589111328,12.8253173828125,-8.724909782409668
1748142667418212400,13.58721240234375,1.0289825201034546,10.665616989135742,-7.220095634460449
1748142667436481800,13.605481689453125,-25.27403450012207,1.6825389862060547,-1.5244243144989014
1748142667454745300,13.623745361328124,-10.797072410583496,3.404778003692627,0.1745133399963379
1748142667473007400,13.64200732421875,-2.6973910331726074,3.1076507568359375,-4.0947675704956055
1748142667491280600,13.66028076171875,13.284126281738281,-0.09798240661621094,-12.512659072875977
1748142667509537000,13.678537109375,10.30572509765625,-5.61059045791626,-13.246828079223633
1748142667527805200,13.69680517578125,-1.6790897846221924,-15.602588653564453,-9.900310516357422
1748142667546073300,13.7150732421875,1.2260568141937256,-19.067716598510742,-8.345531463623047
1748142667564337000,13.7333369140625,5.126496315002441,-11.501996994018555,-0.47734761238098145
1748142667582602800,13.751602783203126,7.845020771026611,-12.435956001281738,1.962268590927124
1748142667600866600,13.769866455078125,11.918146133422852,-19.860576629638672,6.4905805587768555
1748142667619133000,13.7881328125,8.437934875488281,-23.68062973022461,14.234172821044922
1748142667637397500,13.8063974609375,4.210883617401123,-19.168960571289062,11.260775566101074
1748142667655662000,13.824662109375,11.243596076965332,-10.859294891357422,17.137958526611328
1748142667673928700,13.8429287109375,-17.590980529785156,-7.964692115783691,37.73997116088867
1748142667692199000,13.861198974609374,-46.84266662597656,4.520263671875,34.11174774169922
1748142667710457600,13.87945751953125,1.3689837455749512,6.4093732833862305,13.479032516479492
1748142667728710700,13.897710693359375,5.401598930358887,4.354789733886719,7.003829002380371
1748142667746988000,13.915988037109376,-1.6566414833068848,5.722891807556152,5.453746795654297
1748142667765256000,13.934255859375,-3.6246871948242188,9.62116813659668,3.616300582885742
1748142667783517400,13.952517333984375,-7.299169540405273,14.452253341674805,5.058717250823975
1748142667801785600,13.97078564453125,-1.705448865890503,13.868205070495605,3.5248517990112305
1748142667820047400,13.98904736328125,-1.634652018547058,12.089929580688477,0.22555220127105713
1748142667838315500,14.0073154296875,-1.8703733682632446,10.243099212646484,-2.4922902584075928
1748142667856579600,14.02557958984375,-1.1454567909240723,9.48625659942627,-4.17425537109375
1748142667874845000,14.043844970703125,1.329805850982666,9.049458503723145,-3.2274036407470703
1748142667893109200,14.062109130859374,1.446761131286621,8.08334732055664,-1.2344458103179932
1748142667911374600,14.08037451171875,1.5263755321502686,7.265172958374023,-0.35239386558532715
1748142667929639200,14.09863916015625,-2.7897872924804688,-1.494375228881836,7.4894795417785645
1748142667947906300,14.11690625,-18.185077667236328,-48.62093734741211,12.848471641540527
1748142667966170000,14.135170166015625,3.2094345092773438,-58.47746276855469,-1.4839065074920654
1748142667984430800,14.153430908203125,0.2943539619445801,-23.958515167236328,11.730420112609863
1748142668002700800,14.17170068359375,-7.712451457977295,-8.38728141784668,16.656940460205078
1748142668020966400,14.18996630859375,-2.806488037109375,-3.464095115661621,11.569987297058105
1748142668039224300,14.208224365234376,2.7639870643615723,0.9835391044616699,5.373720169067383
1748142668057497900,14.226497802734375,7.339646339416504,4.448334693908691,-2.970877170562744
1748142668075761200,14.24476123046875,9.036703109741211,4.501160621643066,-7.898011207580566
1748142668094027000,14.263027099609374,9.487333297729492,4.309989929199219,-7.593657493591309
1748142668112286000,14.281285888671874,7.818540096282959,5.55136775970459,-6.0158891677856445
1748142668130557200,14.29955712890625,6.600205898284912,7.084420680999756,-4.273022651672363
1748142668148821800,14.31782177734375,10.277952194213867,9.420854568481445,-1.354526162147522
1748142668167087600,14.336087646484375,12.364431381225586,11.194150924682617,-3.3500192165374756
1748142668185351700,14.3543515625,13.331722259521484,13.01616096496582,-4.640369892120361
1748142668203617500,14.372617431640625,14.556015014648438,14.635597229003906,-5.182839870452881
1748142668221882000,14.390882080078125,6.6343488693237305,14.337282180786133,-4.9680609703063965
1748142668240148500,14.4091484375,2.3246335983276367,10.132349967956543,-5.201055526733398
1748142668258412500,14.42741259765625,-8.6793212890625,3.6841797828674316,-2.9628334045410156
1748142668276672500,14.445672607421875,-29.188262939453125,0.5111894607543945,10.382513046264648
1748142668294942700,14.463942626953125,4.213471412658691,6.46853494644165,-1.722398281097412
1748142668313206300,14.482206298828125,12.177267074584961,0.12197589874267578,-9.006686210632324
1748142668331473200,14.50047314453125,16.64089584350586,-9.408971786499023,-15.445169448852539
1748142668349738800,14.51873876953125,19.361909866333008,-25.38466453552246,-17.003801345825195
1748142668368003600,14.537003662109376,0.8379168510437012,-21.34601402282715,0.3384578227996826
1748142668386270000,14.55527001953125,0.8813344240188599,-12.169778823852539,4.330167293548584
1748142668404532700,14.57353271484375,2.030054807662964,-14.181636810302734,5.6087799072265625
1748142668422799600,14.591799560546875,4.969018459320068,-16.28586196899414,12.823399543762207
1748142668441064400,14.610064453125,2.7430124282836914,-17.360904693603516,10.313956260681152
1748142668459330000,14.628330078125,6.726681709289551,-14.330279350280762,11.521949768066406
1748142668477594000,14.646593994140625,-0.6446977853775024,-11.110766410827637,29.20187759399414
1748142668495860200,14.664860107421875,-41.49199295043945,1.1127996444702148,35.53006362915039
1748142668514124500,14.68312451171875,-14.17322063446045,6.82938814163208,19.86104965209961
1748142668532391000,14.701390869140624,2.8229780197143555,6.631284713745117,8.437749862670898
1748142668550654000,14.719654052734375,-0.6780804395675659,6.329267501831055,6.527949810028076
1748142668568921000,14.737921142578125,-3.9439773559570312,8.919490814208984,3.691739797592163
1748142668587186200,14.756186279296875,-11.843966484069824,14.381904602050781,3.263967514038086
1748142668605451000,14.774450927734375,-3.359344959259033,13.993462562561035,2.413602352142334
1748142668623710500,14.79271044921875,-1.1433616876602173,12.523479461669922,-0.07097256183624268
1748142668641980000,14.81097998046875,-0.37887418270111084,10.782206535339355,-2.3945305347442627
1748142668660242700,14.82924267578125,-0.04934096336364746,10.012687683105469,-3.948245048522949
1748142668678512000,14.84751220703125,-0.5963329672813416,8.763258934020996,-3.5214056968688965
1748142668696776000,14.86577587890625,0.7448350191116333,7.7013773918151855,-2.0825421810150146
1748142668715042000,14.8840419921875,0.004384785890579224,6.33308219909668,0.3007335662841797
1748142668733306600,14.902306640625,-6.869762897491455,-7.206154823303223,12.417119026184082
1748142668751572500,14.920572509765625,-15.705497741699219,-44.652366638183594,16.338829040527344
1748142668769835300,14.938835205078124,-0.4875357151031494,-64.17112731933594,-1.4596459865570068
1748142668788103400,14.957103515625,-4.327458381652832,-21.37063217163086,11.354120254516602
1748142668806370800,14.975370849609375,-2.8519082069396973,-6.946474552154541,13.739970207214355
1748142668824635000,14.993634765625,0.8410581350326538,-0.21186113357543945,12.014904975891113
1748142668842884000,15.011884033203126,2.072403907775879,4.8967413902282715,10.05517578125
1748142668861163300,15.030163330078125,5.7885541915893555,8.16740608215332,-1.0847811698913574
1748142668879422700,15.048422607421875,8.789814949035645,5.247635841369629,-7.126845359802246
1748142668897692700,15.066692626953126,10.118070602416992,2.962106943130493,-8.488212585449219
1748142668915958800,15.084958740234375,10.083916664123535,2.90480899810791,-7.43134880065918
1748142668934219000,15.103218994140626,8.822588920593262,4.264665603637695,-6.012784004211426
1748142668952488200,15.12148828125,8.370329856872559,6.153218746185303,-4.029017448425293
1748142668970754000,15.139754150390624,16.127017974853516,8.350296020507812,-4.520451068878174
1748142668989017900,15.158017822265625,16.866622924804688,11.233158111572266,-5.9411468505859375
1748142669007284500,15.176284423828125,16.081668853759766,13.019231796264648,-7.849304676055908
1748142669025548800,15.194548828125,7.3458147048950195,12.94976806640625,-6.912840843200684
1748142669043814700,15.212814697265625,2.259401321411133,10.998128890991211,-4.972856521606445
1748142669062078700,15.23107861328125,-23.816423416137695,4.632214546203613,4.416162014007568
1748142669080345000,15.249344970703126,-23.911901473999023,2.2095208168029785,9.858749389648438
1748142669098609700,15.267609619140625,8.689423561096191,4.829136848449707,-5.8337788581848145
1748142669116875500,15.28587548828125,12.749074935913086,-5.184183120727539,-14.731847763061523
1748142669135134700,15.304134765625,13.269193649291992,-13.796743392944336,-15.813148498535156
1748142669153404400,15.322404296875,4.268606185913086,-20.51376724243164,-3.254910469055176
1748142669171670000,15.340669921875,-4.436725616455078,-8.61491584777832,5.836418628692627
1748142669189936000,15.35893603515625,0.02113175392150879,-10.21031665802002,4.949179649353027
1748142669208204500,15.37720458984375,5.7671942710876465,-16.95195770263672,2.584296703338623
1748142669226466000,15.395466064453124,10.135091781616211,-20.483430862426758,8.121106147766113
1748142669244730600,15.413730712890626,4.401993751525879,-17.435138702392578,7.443256855010986
1748142669262996500,15.43199658203125,0.757020115852356,-12.01545524597168,5.742378234863281
1748142669281268500,15.4502685546875,-2.9224677085876465,-8.789693832397461,24.055143356323242
1748142669299526700,15.468526611328125,-44.14633560180664,-0.04122447967529297,37.717140197753906
1748142669317791500,15.48679150390625,-15.320068359375,5.751084327697754,17.1123104095459
1748142669336057000,15.50505712890625,7.044226169586182,6.406925201416016,7.935744285583496
1748142669354321400,15.5233212890625,1.6149241924285889,6.507068634033203,4.782628536224365
1748142669372587500,15.54158740234375,-3.403327703475952,7.226895809173584,2.4058358669281006
1748142669390851600,15.5598515625,-5.349672317504883,10.028456687927246,1.8071393966674805
1748142669409117400,15.578117431640624,-12.592121124267578,14.555980682373047,4.495188236236572
1748142669427381800,15.5963818359375,-5.107732772827148,13.28628158569336,1.0905632972717285
1748142669445646800,15.614646728515625,-0.04154706001281738,11.992685317993164,-1.7924712896347046
1748142669463913700,15.632913818359375,-1.3503464460372925,11.621843338012695,-3.6001129150390625
1748142669482178600,15.651178466796875,-3.8018412590026855,9.79873275756836,-3.9116501808166504
1748142669500442600,15.669442626953124,-0.9831976890563965,8.265604019165039,-1.3062617778778076
1748142669518708500,15.68770849609375,-0.48299628496170044,7.875794887542725,-0.43660271167755127
1748142669536973000,15.70597314453125,-2.7079904079437256,-0.901153564453125,7.835743427276611
1748142669555234300,15.724234375,-12.598658561706543,-48.94147491455078,12.45132827758789
1748142669573503000,15.7425029296875,8.092721939086914,-65.66657257080078,12.425840377807617
1748142669591769000,15.76076904296875,-7.413564682006836,-23.80289649963379,12.212594985961914
1748142669610032000,15.7790322265625,-9.102667808532715,-9.338180541992188,11.808843612670898
1748142669628300000,15.797300048828125,1.3335813283920288,-4.30451774597168,6.034238815307617
1748142669646559500,15.8155595703125,5.2720441818237305,0.2665848731994629,5.182346820831299
1748142669664828700,15.83382861328125,2.0258195400238037,4.103775978088379,2.11643648147583
1748142669683095300,15.85209521484375,4.366264343261719,5.159244060516357,-7.1729536056518555
1748142669701359900,15.87035986328125,6.476820945739746,4.709131240844727,-8.224461555480957
1748142669719624200,15.888624267578125,7.066153049468994,5.782334804534912,-6.855359077453613
1748142669737890000,15.90689013671875,7.801196098327637,6.618813991546631,-5.485150337219238
1748142669756154600,15.925154541015624,7.29426908493042,7.45307731628418,-4.2008771896362305
1748142669774416000,15.943415771484375,20.17461395263672,10.061269760131836,-6.475710868835449
1748142669792683800,15.961683837890625,22.074392318725586,13.330080032348633,-10.183982849121094
1748142669810951200,15.979951171875,11.024163246154785,14.210058212280273,-7.389944076538086
1748142669829211100,15.998211181640626,8.556756973266602,14.078142166137695,-9.675382614135742
1748142669847480800,16.016480712890626,2.983013868331909,8.711797714233398,-6.178279399871826
1748142669865745400,16.034745361328124,-2.0424695014953613,5.265429496765137,-4.714338302612305
1748142669883997400,16.05299755859375,-33.97755813598633,-2.6641950607299805,5.8825459480285645
1748142669902277600,16.071277587890624,-6.204941272735596,-0.9708404541015625,-1.3952488899230957
1748142669920541400,16.08954150390625,13.998574256896973,-10.216506004333496,-19.82145881652832
1748142669938805800,16.1078056640625,23.148967742919922,-11.547757148742676,-14.972548484802246
1748142669957071400,16.1260712890625,9.888263702392578,-10.75656509399414,-5.593110084533691
1748142669975336400,16.14433642578125,-14.015034675598145,-4.564751625061035,7.479947090148926
1748142669993597400,16.162597412109374,1.7422645092010498,-3.706563949584961,-0.24023044109344482
1748142670011864600,16.180864501953124,5.775147438049316,-12.580225944519043,-3.500983238220215
1748142670030133200,16.19913330078125,7.311062335968018,-24.90736198425293,2.7479238510131836
1748142670048396800,16.217396728515624,4.003376007080078,-24.54941177368164,14.80174732208252
1748142670066661600,16.23566162109375,0.4858182668685913,-18.563350677490234,15.87470817565918
1748142670084928000,16.253927978515627,-1.0110547542572021,-11.583353996276855,13.980134963989258
1748142670103193000,16.272193115234376,-3.780970573425293,-5.546382904052734,20.80472755432129
1748142670121457400,16.29045751953125,-41.10969543457031,0.5934886932373047,30.70173454284668
1748142670139723000,16.308722900390624,-7.779031276702881,7.42365026473999,18.722370147705078
1748142670157987800,16.32698779296875,4.430270195007324,7.115022659301758,8.355963706970215
1748142670176249000,16.3452490234375,-1.4438929557800293,6.717475414276123,5.040197849273682
1748142670194513700,16.363513671875,-1.8924307823181152,9.273932456970215,3.5797677040100098
1748142670212783900,16.381783935546874,-6.03959846496582,12.852910995483398,3.560821056365967
1748142670231048000,16.4000478515625,-7.120973110198975,13.736007690429688,1.440590739250183
1748142670249309400,16.418309326171876,-1.1661787033081055,11.31727123260498,-0.25169825553894043
1748142670267578600,16.43657861328125,0.15854299068450928,10.39848518371582,-1.3722937107086182
1748142670285844700,16.4548447265625,0.7356860637664795,10.068382263183594,-1.7798817157745361
1748142670304103200,16.473103271484376,0.23846018314361572,8.898025512695312,-0.7275884747505188
1748142670322374700,16.491374755859376,0.18952929973602295,8.123639106750488,-0.7538855075836182
1748142670340639000,16.509638916015625,-4.199377059936523,5.087361812591553,0.058684349060058594
1748142670358905300,16.5279052734375,-22.236217498779297,-40.708404541015625,1.5886437892913818
1748142670377169200,16.546169189453124,-0.36145949363708496,-69.63368225097656,3.004025459289551
1748142670395435000,16.56443505859375,-4.728488922119141,-34.00667190551758,13.483855247497559
1748142670413699800,16.582699951171875,0.6487090587615967,-10.969995498657227,9.850488662719727
1748142670431965400,16.60096533203125,2.2880423069000244,-1.7684249877929688,7.125552177429199
1748142670450224600,16.619224609375,2.3900413513183594,1.8532252311706543,3.3145318031311035
1748142670468495600,16.63749560546875,2.845757484436035,5.580196380615234,-3.048753499984741
1748142670486760400,16.655760498046874,5.083724021911621,8.747010231018066,-5.795454025268555
1748142670505021200,16.674021240234374,6.987059593200684,8.449882507324219,-7.314042091369629
1748142670523289000,16.6922890625,6.430581092834473,7.547414302825928,-6.631390571594238
1748142670541557200,16.71055712890625,6.276829719543457,7.939156532287598,-5.85308313369751
1748142670559821800,16.72882177734375,5.848759174346924,8.562037467956543,-4.952500343322754
1748142670578085600,16.747085693359374,7.625316619873047,8.890799522399902,-4.596900939941406
1748142670596350700,16.765350830078123,13.542037963867188,9.882375717163086,-7.086279392242432
1748142670614612700,16.78361279296875,13.602019309997559,11.544548034667969,-8.664485931396484
1748142670632881200,16.801881103515626,8.117185592651367,11.682412147521973,-7.339719772338867
1748142670651147300,16.820147216796876,2.3847362995147705,9.71606159210205,-4.500868797302246
1748142670669411000,16.8384111328125,0.4383485019207001,8.440751075744629,-3.297964334487915
1748142670687676200,16.85667626953125,-28.495487213134766,0.5468406677246094,4.033252716064453
1748142670705940000,16.87493994140625,-1.5606054067611694,8.302499771118164,-1.4130659103393555
1748142670724207900,16.893207763671874,3.333867073059082,8.178044319152832,-5.502521514892578
1748142670742471700,16.9114716796875,6.655862808227539,1.9246444702148438,-11.872804641723633
1748142670760737800,16.92973779296875,10.375665664672852,-6.818939208984375,-14.663236618041992
1748142670779001300,16.94800146484375,14.614912033081055,-42.374900817871094,-20.996320724487305
1748142670797270300,16.966270263671873,0.6163161993026733,-27.673351287841797,1.1717662811279297
1748142670815532300,16.9845322265625,-11.062738418579102,-13.986671447753906,13.046194076538086
1748142670833798700,17.002798583984376,-4.214951038360596,-13.979385375976562,15.711566925048828
1748142670852063000,17.02106298828125,2.6925501823425293,-16.354766845703125,11.355215072631836
1748142670870328800,17.039328857421875,4.506646156311035,-12.715241432189941,9.94679069519043
1748142670888593000,17.057593017578125,2.6318359375,-9.37012767791748,15.43510627746582
1748142670906858800,17.075858642578126,-29.343843460083008,-3.470189094543457,25.1103515625
1748142670925121000,17.09412109375,-29.537456512451172,2.1201729774475098,15.647029876708984
1748142670943389400,17.112389404296874,0.16716670989990234,3.48905611038208,9.373674392700195
1748142670961641200,17.13064111328125,2.3643031120300293,3.935962200164795,5.407005786895752
1748142670979919600,17.148919677734376,-4.237801551818848,4.701724052429199,5.130022048950195
1748142670998186000,17.16718603515625,-4.2244553565979,7.668907642364502,3.6276445388793945
1748142671016445200,17.185445068359375,-11.851470947265625,12.421542167663574,4.288922309875488
1748142671034712300,17.20371240234375,-6.5400590896606445,12.331637382507324,2.0067861080169678
1748142671052981000,17.22198095703125,-2.5196964740753174,10.715644836425781,-0.5254762768745422
1748142671071240000,17.240239990234375,-0.6423670053482056,10.345919609069824,-2.269775867462158
1748142671091783700,17.26078369140625,-0.9654679298400879,9.386486053466797,-2.238692283630371
1748142671110060300,17.279060302734376,-0.664879322052002,8.557235717773438,-0.9996238946914673
1748142671128324400,17.297324462890625,-1.5675461292266846,7.734246730804443,-0.7628426551818848
1748142671146589700,17.315589599609375,-13.936505317687988,-1.8293952941894531,3.8887457847595215
1748142671164855800,17.333855712890625,-11.278721809387207,-42.919883728027344,7.968438148498535
1748142671183120000,17.352119873046874,3.4274520874023438,-60.09836196899414,3.280805826187134
1748142671201377000,17.370376953125,-0.7706499099731445,-37.184547424316406,14.598981857299805
1748142671219650600,17.388650634765625,-8.279219627380371,-14.487998008728027,21.19670867919922
1748142671237919700,17.406919677734376,-1.1572260856628418,-4.0666985511779785,9.164604187011719
1748142671256180500,17.425180419921876,1.445009708404541,-0.2252483367919922,-1.5067992210388184
1748142671274445600,17.443445556640626,2.825183153152466,3.7581169605255127,-7.13313102722168
1748142671292710700,17.461710693359375,7.864782333374023,5.597430229187012,-8.444777488708496
1748142671310971600,17.4799716796875,10.989192962646484,4.35907506942749,-7.8208417892456055
1748142671329241300,17.498241455078126,10.836620330810547,3.9565916061401367,-7.350847244262695
1748142671347506000,17.516505859375,10.284590721130371,5.294313430786133,-6.321416854858398
1748142671365771300,17.534771240234374,10.266841888427734,6.2611494064331055,-6.002718448638916
1748142671384032500,17.553032470703126,18.105079650878906,8.185327529907227,-7.249533653259277
1748142671402290200,17.571290283203126,18.256153106689453,12.74496078491211,-8.39593505859375
1748142671420566500,17.58956640625,9.900805473327637,12.50939655303955,-6.581424236297607
1748142671438831900,17.607831787109376,7.564776420593262,17.84450912475586,-3.1372556686401367
1748142671457098000,17.626097900390626,1.170151948928833,9.709232330322266,-5.018105983734131
1748142671475361500,17.644361572265623,-19.246000289916992,5.176868915557861,0.534604549407959
1748142671493627600,17.662627685546877,-15.060481071472168,3.7766761779785156,2.2623167037963867
1748142671511892000,17.68089208984375,2.00941801071167,7.295660495758057,-5.048838138580322
1748142671530157000,17.699156982421876,4.568897247314453,2.425358772277832,-11.655813217163086
1748142671548418800,17.717418701171876,4.632767200469971,-12.890961647033691,-20.96369171142578
1748142671566687000,17.73568701171875,1.99569833278656,-36.04578399658203,-24.462583541870117
1748142671584948500,17.753948486328124,4.279974937438965,-17.271865844726562,-1.427534818649292
1748142671603218700,17.77221875,4.876497268676758,-9.172901153564453,4.915278434753418
1748142671621483000,17.79048291015625,7.7010979652404785,-10.392844200134277,6.3719868659973145
1748142671639748000,17.808748046875,6.157553672790527,-16.001800537109375,8.09394645690918
1748142671658013200,17.82701318359375,4.586706161499023,-18.330305099487305,14.74843978881836
1748142671676279300,17.845279296875,-1.429880976676941,-16.794174194335938,6.368114471435547
1748142671694543400,17.86354345703125,-0.7655196189880371,-11.047676086425781,10.591473579406738
1748142671712808700,17.88180859375,2.3469536304473877,-7.3107500076293945,23.617103576660156
1748142671731073800,17.90007373046875,-57.73466110229492,1.112741470336914,31.045087814331055
1748142671749339400,17.91833935546875,-17.9675235748291,4.523674964904785,14.33332633972168
1748142671767603200,17.936603271484376,7.050481796264648,5.837782859802246,5.963073253631592
1748142671785869300,17.954869384765626,-0.8347975015640259,5.364962577819824,5.185470104217529
1748142671804129000,17.97312890625,-2.5305709838867188,7.2615861892700195,4.226476192474365
1748142671822399700,17.991399658203125,-2.5237996578216553,9.913522720336914,4.0430803298950195
1748142671840664800,18.009664794921875,-6.2111992835998535,13.550820350646973,6.662235736846924
1748142671858925000,18.027925048828124,-5.752666473388672,13.22048568725586,3.023163080215454
1748142671877194500,18.046194580078126,-2.796818256378174,10.765427589416504,-0.1297835111618042
1748142671895455700,18.064455810546875,-2.549896478652954,9.56776237487793,-1.7118210792541504
1748142671913723400,18.082723388671877,-4.686343193054199,8.738425254821777,-4.01373291015625
1748142671950255000,18.119255126953124,0.6629002094268799,7.7823486328125,-0.8888200521469116
1748142671968521000,18.13752099609375,-0.21562719345092773,1.5649728775024414,5.418601989746094
1748142671986785300,18.155785400390624,-10.945976257324219,-32.71648406982422,16.3270206451416
1748142672005050000,18.174050048828125,-1.2865917682647705,-63.088348388671875,9.869309425354004
1748142672023315700,18.192315673828126,-2.0709891319274902,-44.28773498535156,11.521509170532227
1748142672041581800,18.210581787109376,-1.385520577430725,-13.215660095214844,11.099345207214355
1748142672059846000,18.228845947265626,1.0681504011154175,-1.6809358596801758,5.876566410064697
1748142672078110700,18.24711083984375,-2.8465332984924316,5.515237808227539,3.974691390991211
1748142672096363000,18.265363037109374,-3.1140899658203125,7.002948760986328,-1.363905429840088
1748142672114631000,18.283630859375,1.387328028678894,5.069304466247559,-7.194971084594727
1748142672132895500,18.3018955078125,5.884957313537598,3.82266902923584,-8.43655776977539
1748142672151166500,18.32016650390625,7.095236778259277,3.8787107467651367,-7.832307815551758
1748142672169436000,18.338435791015623,6.7263503074646,5.033066749572754,-6.75907564163208
1748142672187703000,18.356703125,6.705045700073242,6.9710822105407715,-5.221987247467041
1748142672205963000,18.374962890625,6.742056846618652,8.66521167755127,-3.8961896896362305
1748142672224232000,18.39323193359375,10.171127319335938,10.58566665649414,-4.010956764221191
1748142672242497000,18.4114970703125,16.804677963256836,12.562429428100586,-7.999030113220215
1748142672260763100,18.42976318359375,17.707839965820312,13.045427322387695,-10.974127769470215
1748142672279027500,18.44802734375,5.489450931549072,10.861842155456543,-7.384127616882324
1748142672297292000,18.4662919921875,0.5012690424919128,9.326028823852539,-3.6445817947387695
1748142672315557600,18.4845576171875,-51.28066635131836,-3.36159610748291,24.034820556640625
1748142672333823700,18.50282373046875,0.8222309350967407,6.7673187255859375,-2.664700508117676
1748142672352088000,18.521088134765623,4.2627410888671875,0.9253664016723633,-9.331897735595703
1748142672370353400,18.539353515625,6.948984622955322,-11.834227561950684,-16.907207489013672
1748142672388617500,18.557617431640626,8.707573890686035,-34.45282745361328,-22.829395294189453
1748142672406879000,18.57587890625,2.8175888061523438,-16.887561798095703,0.3611699342727661
1748142672425147600,18.594147705078125,-7.812046527862549,-10.742683410644531,9.787374496459961
1748142672443414800,18.612414794921875,-6.7965288162231445,-13.909770011901855,11.764496803283691
1748142672461677600,18.630677490234376,-0.10030290484428406,-14.585886001586914,8.637375831604004
1748142672479939800,18.64893994140625,1.4836400747299194,-13.111023902893066,8.03152084350586
1748142672498208500,18.66720849609375,-0.11269497871398926,-11.085476875305176,7.311886310577393
1748142672516473600,18.6854736328125,-12.052106857299805,-7.423811912536621,20.035776138305664
1748142672534739000,18.703739013671875,-30.407114028930664,-0.23697185516357422,25.846359252929688
1748142672553005000,18.722005126953125,-9.456236839294434,4.168390274047852,14.328428268432617
1748142672571269400,18.740269287109374,2.989678144454956,5.048410415649414,7.5600199699401855
1748142672589528600,18.758528564453126,-2.394432306289673,5.4560699462890625,4.088113784790039
1748142672623780600,18.792780517578127,-9.997969627380371,11.34081745147705,1.469728708267212
1748142672642045200,18.811045166015624,-5.796385765075684,13.008874893188477,1.78488290309906
1748142672660310500,18.829310546875,-4.000087738037109,12.439509391784668,0.833541989326477
1748142672678575600,18.84757568359375,-1.6457338333129883,11.546074867248535,-1.8439229726791382
1748142672696841000,18.865841064453125,-1.8302022218704224,10.17382526397705,-3.918257474899292
1748142672715105500,18.88410546875,-2.4360709190368652,9.188207626342773,-4.8722076416015625
1748142672733366300,18.9023662109375,-2.422956943511963,7.884426116943359,-3.720277786254883
1748142672751637200,18.92063720703125,-0.9785193204879761,7.105833530426025,-1.771357774734497
1748142672769899000,18.93889892578125,-3.403404474258423,4.492032527923584,1.9204292297363281
1748142672788167200,18.957167236328125,-8.510457992553711,-18.669004440307617,9.72095775604248
1748142672806431200,18.97543115234375,4.9569010734558105,-52.6679801940918,9.970392227172852
1748142672824697000,18.993697021484376,-13.980073928833008,-49.0284538269043,27.128196716308594
1748142672842961200,19.011961181640626,-10.93085765838623,-15.348271369934082,13.872135162353516
1748142672861219000,19.030218994140625,0.9574209451675415,-4.610666751861572,2.3770885467529297
1748142672879494400,19.048494384765625,3.735344648361206,1.284743309020996,1.7755985260009766
1748142672897757000,19.0667568359375,3.0073494911193848,5.641619682312012,-0.24245500564575195
1748142672916021500,19.085021484375,5.469511032104492,6.877436637878418,-5.044368267059326
1748142672934287600,19.10328759765625,7.133884429931641,6.146982192993164,-7.750820159912109
1748142672952552400,19.121552490234375,7.313640117645264,5.235037326812744,-7.902912139892578
1748142672970817500,19.139817626953125,6.922572135925293,5.663909435272217,-6.663392543792725
1748142672989078300,19.158078369140625,6.872201442718506,6.888128280639648,-5.057962417602539
1748142673007347500,19.176347412109376,6.808619499206543,7.603668212890625,-4.16389799118042
1748142673025613000,19.194613037109374,13.475497245788574,9.591567039489746,-5.094976425170898
1748142673043878000,19.2128779296875,12.832701683044434,11.194173812866211,-6.510692596435547
1748142673062143200,19.231143310546877,11.187712669372559,12.718140602111816,-5.565131187438965
1748142673080407600,19.249407470703126,5.653958320617676,10.333183288574219,-5.773916721343994
1748142673098672000,19.267672119140624,1.2838939428329468,8.986367225646973,-3.8251566886901855
1748142673116939300,19.285939208984374,-47.656185150146484,-2.646731376647949,8.16231918334961
1748142673135207700,19.304207763671876,1.7658816576004028,6.891848564147949,-3.4825401306152344
1748142673153468200,19.32246826171875,7.951449394226074,2.3551106452941895,-12.282768249511719
1748142673171733800,19.340733642578126,10.943772315979004,-5.391923904418945,-14.51865291595459
1748142673190000400,19.35900048828125,16.049392700195312,-23.82912826538086,-24.266843795776367
1748142673208267300,19.377267333984374,5.864321708679199,-22.193979263305664,-4.9234514236450195
1748142673226528500,19.395528564453127,-7.3848676681518555,-10.940484046936035,6.175796985626221
1748142673244789500,19.41378955078125,-19.5125732421875,-20.788516998291016,13.002625465393066
1748142673263058000,19.432057861328126,-1.0015381574630737,-19.358455657958984,8.417475700378418
1748142673281325800,19.450325927734376,1.6888281106948853,-14.529786109924316,12.320873260498047
1748142673299588900,19.4685888671875,-0.8113447427749634,-10.753552436828613,13.32712173461914
1748142673317854700,19.486854736328127,0.9293529987335205,-7.136773109436035,13.136213302612305
1748142673336119300,19.505119384765624,-34.916786193847656,-6.8171234130859375,26.41678810119629
1748142673354387500,19.523387451171875,-20.0460205078125,1.876739501953125,19.613101959228516
1748142673372648200,19.541648193359375,2.1862666606903076,5.263682842254639,10.590219497680664
1748142673390916000,19.559916015625,-2.3001627922058105,6.178295612335205,4.944931983947754
1748142673409179600,19.5781796875,-4.998558044433594,8.218555450439453,2.211881637573242
1748142673427445800,19.59644580078125,-7.061537742614746,11.028141021728516,2.649604320526123
1748142673445710000,19.6147099609375,-6.349942207336426,13.945603370666504,3.6784372329711914
1748142673463975400,19.632975341796875,-2.9775869846343994,13.612316131591797,1.2788662910461426
1748142673482235600,19.651235595703124,-1.58860182762146,12.766196250915527,0.03249514102935791
1748142673500501200,19.669501220703125,-1.4446732997894287,11.06796646118164,-1.304847240447998
1748142673518769400,19.687769287109376,-0.243804931640625,9.704146385192871,-1.565483570098877
1748142673537036800,19.706036865234374,-0.8995054364204407,8.34882640838623,-1.2833170890808105
1748142673555300900,19.72430078125,-3.200145721435547,6.382303237915039,0.36214685440063477
1748142673573566500,19.74256640625,-14.212366104125977,-9.11247444152832,6.16379451751709
1748142673591831000,19.7608310546875,-8.929464340209961,-67.28239440917969,1.0337028503417969
1748142673610095900,19.779095947265624,9.582401275634766,-52.86224365234375,10.469541549682617
1748142673628361500,19.797361572265626,-1.9693597555160522,-19.54747772216797,16.242706298828125
1748142673646626800,19.815626708984375,-4.741056442260742,-5.852015495300293,8.498933792114258
1748142673664891400,19.833891357421876,0.4707261621952057,0.48701906204223633,5.341264724731445
1748142673683156700,19.85215673828125,-2.1288585662841797,4.839083194732666,4.767585277557373
1748142673701421600,19.870421630859376,-0.8826030492782593,7.506523132324219,-4.050259590148926
1748142673719686400,19.888686279296873,4.037461280822754,7.283160209655762,-8.439760208129883
1748142673737952800,19.906952880859375,6.471890926361084,5.725374221801758,-8.282626152038574
1748142673756212500,19.92521240234375,7.20394229888916,5.962442398071289,-7.788863658905029
1748142673774476500,19.9434765625,7.903071403503418,6.794638633728027,-6.865478515625
1748142673792748800,19.961748779296876,12.241458892822266,8.375921249389648,-6.363658905029297
1748142673811011800,19.98001171875,15.686532020568848,10.307609558105469,-8.184221267700195
1748142673829277700,19.998277587890627,13.711776733398438,12.898553848266602,-8.594810485839844
1748142673847538000,20.016537841796875,8.504919052124023,13.089994430541992,-6.980812072753906
1748142673865808100,20.03480810546875,4.41135311126709,12.495462417602539,-5.425331115722656
1748142673884072700,20.05307275390625,2.0658631324768066,12.049051284790039,-1.8974404335021973
1748142673902335200,20.071335205078125,-35.777687072753906,1.0517101287841797,1.1194415092468262
1748142673920606000,20.08960595703125,-2.645646572113037,5.412856101989746,-0.12320280075073242
1748142673938864000,20.107864013671875,6.276944637298584,1.6563849449157715,-3.987746477127075
1748142673957137400,20.126137451171875,26.43907356262207,-14.20816707611084,-12.706644058227539
1748142673975398400,20.1443984375,7.545414924621582,-17.341976165771484,-14.763741493225098
1748142673993662500,20.162662353515625,-0.17265844345092773,-7.231476783752441,-6.806865692138672
1748142674011929900,20.180929931640627,-8.106807708740234,-10.63489055633545,-0.7387714385986328
1748142674030194200,20.199194091796876,3.877835512161255,-20.180885314941406,-3.742356777191162
1748142674048459000,20.217458984375,8.838822364807129,-27.851205825805664,5.295196056365967
1748142674066724000,20.23572412109375,12.163352966308594,-20.97113609313965,14.525543212890625
1748142674084989400,20.253989501953125,7.216137409210205,-15.298395156860352,11.525435447692871
1748142674103249400,20.27224951171875,6.5666399002075195,-16.80260467529297,3.981917142868042
1748142674121519400,20.290519287109376,-50.211795806884766,-11.903707504272461,29.97092628479004
1748142674139784700,20.30878466796875,-37.792911529541016,0.5751276016235352,23.94675064086914
1748142674158049500,20.327049560546875,1.1207969188690186,5.422702312469482,8.101054191589355
1748142674176314600,20.345314697265625,3.542322874069214,6.833423137664795,3.6661155223846436
1748142674194574800,20.363574951171874,-5.004861831665039,6.257370471954346,4.411149501800537
1748142674212844500,20.381844482421876,-4.234651565551758,8.78729248046875,3.480949878692627
1748142674231110100,20.400110107421874,-3.1430487632751465,11.332629203796387,3.7789697647094727
1748142674249375000,20.418375,-8.763955116271973,14.92999267578125,3.657978057861328
1748142674267639000,20.43663916015625,-5.880056381225586,14.3936128616333,3.4543633460998535
1748142674285904600,20.454904541015626,-2.7330965995788574,11.80428695678711,1.2644891738891602
1748142674304160800,20.473160888671874,-1.137314796447754,10.309123039245605,-0.4994194507598877
1748142674322435000,20.49143505859375,-0.934304416179657,8.973100662231445,-0.1470431089401245
1748142674340700700,20.50970068359375,-0.9844427108764648,7.516659736633301,0.6814382076263428
1748142674358960000,20.527960205078124,-2.4981350898742676,3.9429521560668945,2.6207756996154785
1748142674377226000,20.54622607421875,-23.456317901611328,-41.43656921386719,4.226714611053467
1748142674395495400,20.564495361328124,5.512007236480713,-74.15106201171875,-2.2891335487365723
1748142674413760800,20.5827607421875,2.3833377361297607,-32.52155685424805,7.9412736892700195
1748142674432026000,20.601026123046875,-6.552175521850586,-12.58125114440918,14.766918182373047
1748142674450291200,20.619291259765625,-5.381125450134277,-4.622187614440918,13.75118350982666
1748142674468555800,20.6375556640625,-2.922034740447998,0.49271631240844727,8.229904174804688
1748142674486821400,20.6558212890625,-0.13982892036437988,3.145240306854248,1.8030905723571777
1748142674505086000,20.6740859375,3.051191568374634,4.642163276672363,-5.510006427764893
1748142674523351800,20.692351806640627,7.2923994064331055,4.475236415863037,-7.933302879333496
1748142674541616400,20.710616455078124,7.513123512268066,4.867127418518066,-8.489313125610352
1748142674559880400,20.72888037109375,8.72944450378418,5.322259426116943,-7.537762641906738
1748142674578147300,20.747147216796876,13.75571060180664,5.531278133392334,-7.907392501831055
1748142674596413200,20.7654130859375,24.614242553710938,9.17920207977295,-9.066324234008789
1748142674614670800,20.7836708984375,22.384798049926758,14.788276672363281,-10.169458389282227
1748142674632942000,20.801942138671876,9.280638694763184,16.294410705566406,-8.178979873657227
1748142674651205400,20.820205322265625,7.318421363830566,20.777177810668945,-3.013044595718384
1748142674669472800,20.83847265625,1.4846054315567017,8.184005737304688,-6.657411098480225
1748142674687737000,20.856737060546877,-27.165809631347656,1.5953164100646973,-6.101578712463379
1748142674706002400,20.87500244140625,-26.245519638061523,-2.477482795715332,-2.311798334121704
1748142674724263400,20.893263427734375,11.419830322265625,3.012270450592041,-10.29818344116211
1748142674742532900,20.911532958984374,19.1613826751709,-8.067395210266113,-21.262434005737305
1748142674760797400,20.92979736328125,-18.48375701904297,-17.726133346557617,-14.17140007019043
1748142674779062800,20.948062744140625,-1.2131271362304688,-17.86477279663086,-11.012474060058594
1748142674797328100,20.966328125,6.380011081695557,-7.396030426025391,-4.214033603668213
1748142674815593500,20.984593505859376,8.700249671936035,-8.153982162475586,-1.4504241943359375
1748142674833857800,21.00285791015625,9.09641170501709,-16.26455307006836,0.3235691785812378
1748142674852123400,21.021123291015623,9.29741382598877,-34.467952728271484,10.824289321899414
1748142674870383400,21.03938330078125,3.9217214584350586,-33.70216369628906,15.96827507019043
1748142674888652500,21.057652587890626,-4.441411972045898,-21.737165451049805,7.3130059242248535
1748142674906919400,21.07591943359375,2.362248659133911,-7.608777046203613,5.52097225189209
1748142674925184300,21.094184326171874,-25.605926513671875,-3.276291847229004,18.670019149780273
1748142674943448800,21.11244873046875,-45.193084716796875,1.2337079048156738,19.748607635498047
1748142674961714000,21.1307138671875,1.000969409942627,4.4105305671691895,7.971641540527344
1748142674979975700,21.1489755859375,-0.688446044921875,5.8061981201171875,7.176858901977539
1748142674998242600,21.16724267578125,-1.1008591651916504,7.156330585479736,6.914092540740967
1748142675016506000,21.185506103515625,-0.39284801483154297,10.24456787109375,6.081606864929199
1748142675034777300,21.20377734375,-2.026765823364258,13.909530639648438,5.491890907287598
1748142675053039000,21.2220390625,-8.225830078125,13.960487365722656,2.7399730682373047
1748142675071304400,21.240304443359374,-5.866246223449707,12.10018539428711,1.1336607933044434
1748142675089569500,21.258569580078124,-4.9551897048950195,10.765624046325684,-0.1748954951763153
1748142675107835100,21.276835205078125,-3.1666479110717773,9.877747535705566,-1.3310433626174927
1748142675126094600,21.295094482421874,0.07523322105407715,8.72000503540039,-0.362499475479126
1748142675144364000,21.313364013671876,0.20007842779159546,7.35655403137207,1.129046082496643
1748142675162631700,21.331631591796874,-4.810614109039307,2.118093490600586,5.349697113037109
1748142675180894700,21.349894775390624,-23.306665420532227,-32.71588134765625,13.911298751831055
1748142675199158300,21.368158203125,1.391465425491333,-66.48077392578125,2.9639816284179688
1748142675217422000,21.386422119140626,1.2043070793151855,-42.89816665649414,4.5851616859436035
1748142675235678700,21.4046787109375,-4.889591217041016,-15.778925895690918,9.241085052490234
1748142675253956900,21.422956787109374,-2.913013219833374,-3.689610481262207,5.717747211456299
1748142675272215300,21.44121533203125,-2.483950138092041,3.068565845489502,3.1179981231689453
1748142675290485800,21.45948583984375,-1.4965636730194092,6.3854146003723145,1.1171188354492188
1748142675308737300,21.4777373046875,1.0829293727874756,6.6646528244018555,-5.589668273925781
1748142675327017200,21.496017333984376,4.161587715148926,6.032852649688721,-8.049545288085938
1748142675345280500,21.514280517578126,5.1521501541137695,7.08261251449585,-7.175101280212402
1748142675363546000,21.532546142578123,5.461465835571289,7.540199279785156,-6.4117960929870605
1748142675381811000,21.55081103515625,8.161542892456055,7.229497909545898,-5.170011520385742
1748142675400075000,21.569074951171874,19.37708854675293,9.332831382751465,-6.195413589477539
1748142675418342000,21.587341796875,28.990325927734375,12.704944610595703,-10.28071403503418
1748142675436606500,21.6056064453125,10.874761581420898,11.926291465759277,-7.537055015563965
1748142675454871300,21.623871337890623,3.558703899383545,12.011908531188965,-5.906782627105713
1748142675473137000,21.642136962890625,-0.4493432939052582,10.037945747375488,-3.1047544479370117
1748142675491401200,21.660401123046874,-18.66878318786621,2.5784144401550293,-1.808716058731079
1748142675509665000,21.6786650390625,-16.898691177368164,4.4561357498168945,1.2763924598693848
1748142675527932700,21.6969326171875,1.6255645751953125,7.7333903312683105,-5.324389457702637
1748142675546199300,21.71519921875,4.623580455780029,0.8445682525634766,-13.380066871643066
1748142675564457000,21.73345703125,6.778073787689209,-10.07060718536377,-17.663942337036133
1748142675582727200,21.75172705078125,-8.592519760131836,-35.374481201171875,-8.339216232299805
1748142675600992000,21.769991943359376,4.447439193725586,-10.984830856323242,1.6698029041290283
1748142675619253500,21.78825341796875,4.310415267944336,-3.886995315551758,3.401712656021118
1748142675637522200,21.806522216796875,6.856553554534912,-13.075453758239746,7.8340959548950195
1748142675655786500,21.824786376953124,7.043700218200684,-24.907840728759766,17.021242141723633
1748142675674053600,21.8430537109375,-0.12619149684906006,-24.41147232055664,11.850905418395996
1748142675692317700,21.861317626953124,-3.273346424102783,-17.9556884765625,5.517794609069824
1748142675710582000,21.87958203125,-6.816049575805664,-10.454575538635254,17.452320098876953
1748142675728843000,21.897843017578126,-56.8604736328125,-0.665104866027832,25.671886444091797
1748142675747113000,21.916113037109376,-8.554458618164062,3.1658835411071777,11.12078857421875
1748142675765378300,21.93437841796875,4.343920707702637,6.257159233093262,4.851278781890869
1748142675783641600,21.9526416015625,-4.000013828277588,5.0588531494140625,6.0872602462768555
1748142675801909200,21.9709091796875,-3.0587644577026367,7.587436676025391,4.386007785797119
1748142675820173300,21.98917333984375,-2.0805139541625977,10.612119674682617,2.9223783016204834
1748142675838438700,22.007438720703124,-9.9142484664917,14.690740585327148,2.7933287620544434
1748142675856703200,22.025703125,-5.559473991394043,12.799102783203125,0.0565718412399292
1748142675874968600,22.043968505859375,-1.4987187385559082,10.922983169555664,-1.0623637437820435
1748142675893228800,22.062228759765624,0.3881490230560303,10.410150527954102,-1.5449806451797485
1748142675911498500,22.08049853515625,0.15065109729766846,9.869868278503418,-0.7400994896888733
1748142675929763600,22.098763671875,-0.36237770318984985,8.372514724731445,0.0020761489868164062
1748142675948029000,22.11702880859375,-0.3720868229866028,6.9346604347229,0.7208423614501953
1748142675966294000,22.1352939453125,-15.96169376373291,-11.883997917175293,6.81876277923584
1748142675984568800,22.15356884765625,-0.31434082984924316,-69.0543441772461,-0.19664525985717773
1748142676002822700,22.17182275390625,10.138567924499512,-55.5311164855957,19.342304229736328
1748142676021090600,22.190090576171876,-20.726173400878906,-18.835386276245117,26.023483276367188
1748142676039354400,22.208354248046874,-10.276815414428711,-4.533390045166016,11.583612442016602
1748142676057617000,22.226616943359375,-0.09154891967773438,0.6837983131408691,2.636575222015381
1748142676075887400,22.244887451171873,4.023940086364746,3.6875810623168945,-3.4561405181884766
1748142676094147600,22.263147705078126,6.493249893188477,4.554131031036377,-7.408916473388672
1748142676112416500,22.28141650390625,8.75575065612793,5.537680625915527,-6.695594787597656
1748142676130679000,22.299678955078125,10.324984550476074,6.029875755310059,-5.750905513763428
1748142676148945700,22.317945556640623,15.921218872070312,5.039377212524414,-6.193709373474121
1748142676167206000,22.336205810546875,28.454896926879883,6.1550092697143555,-4.438799858093262
1748142676185475000,22.35447509765625,29.682697296142578,12.66707992553711,-5.853167533874512
1748142676203732200,22.372732177734374,12.46917724609375,17.55821418762207,-8.80445671081543
1748142676222005000,22.3910048828125,4.880958080291748,14.120294570922852,-10.253396987915039
1748142676240265200,22.40926513671875,2.796233654022217,10.069995880126953,-10.06332778930664
1748142676258534100,22.4275341796875,-2.730438709259033,3.8675456047058105,-7.569239616394043
1748142676276802000,22.445802001953126,-32.013343811035156,-0.05520057678222656,7.449062347412109
1748142676295065000,22.464065185546875,-14.974035263061523,-1.1463403701782227,0.13654661178588867
1748142676313314800,22.482314697265625,2.4468705654144287,-3.842721939086914,-10.47386360168457
1748142676331595800,22.500595703125,16.902124404907227,-15.271439552307129,-23.785884857177734
1748142676349859600,22.518859619140624,12.528627395629883,-21.11520004272461,-16.44113540649414
1748142676368126500,22.53712646484375,4.389334678649902,-16.57705307006836,-1.1062663793563843
1748142676386390800,22.555390869140624,5.233860969543457,-4.686185836791992,7.136163711547852
1748142676404647400,22.5736474609375,5.863164901733398,-6.1305437088012695,3.820263624191284
1748142676422922500,22.591922607421875,4.723492622375488,-16.88924789428711,4.311880588531494
1748142676441186800,22.610186767578124,2.8109285831451416,-26.745105743408203,10.809371948242188
1748142676459451100,22.628451171875,-2.9433672428131104,-21.481382369995117,8.057438850402832
1748142676477716500,22.646716552734375,-0.8332706689834595,-12.527154922485352,11.467669486999512
1748142676495976700,22.664976806640624,-12.116209983825684,-6.551529884338379,18.598909378051758
1748142676514241500,22.683241455078125,-51.96639633178711,-2.5850963592529297,20.465198516845703
1748142676532512500,22.701512451171876,-6.029965400695801,1.3994708061218262,11.174346923828125
1748142676550776800,22.71977685546875,3.740950584411621,3.698869228363037,6.9918293952941895
1748142676569041700,22.738041748046875,-2.705329179763794,4.293188571929932,7.905019760131836
1748142676587301600,22.756301513671875,-1.8458200693130493,6.546797752380371,7.288011074066162
1748142676605571800,22.77457177734375,-1.5942692756652832,10.284120559692383,6.4066290855407715
1748142676623837200,22.792837158203124,-10.253870010375977,14.079170227050781,5.880799293518066
1748142676642102500,22.8111025390625,-3.937513828277588,12.7264404296875,1.548753023147583
1748142676660367000,22.8293671875,-1.2232826948165894,11.05143928527832,-0.6759171485900879
1748142676678633200,22.84763330078125,-0.9368671774864197,10.21176528930664,-1.5807926654815674
1748142676699124000,22.8681240234375,-0.9698374271392822,9.591328620910645,-2.154428720474243
1748142676717449500,22.886449462890624,-0.24535438418388367,8.62821102142334,-2.1830708980560303
1748142676735711700,22.904711669921873,0.31097525358200073,7.300097465515137,-1.9206528663635254
1748142676753973000,22.922972900390626,1.2909287214279175,6.078789710998535,-1.0375146865844727
1748142676772238300,22.94123828125,-4.077359199523926,-18.798425674438477,5.063119411468506
1748142676790507500,22.959507568359374,-2.0923728942871094,-92.06067657470703,11.796914100646973
1748142676808772400,22.9777724609375,-15.581781387329102,-36.81157684326172,21.025131225585938
1748142676827037200,22.996037109375,-10.110166549682617,-7.443704605102539,8.523577690124512
1748142676845301200,23.01430126953125,-1.9435571432113647,0.970679759979248,-0.029838085174560547
1748142676863569700,23.032569580078125,1.5840845108032227,5.595839500427246,-1.4755749702453613
1748142676881832400,23.05083251953125,0.10918569564819336,8.725428581237793,-2.38936710357666
1748142676900097500,23.06909765625,4.048146724700928,8.825672149658203,-6.10295295715332
1748142676918362000,23.087362060546877,6.904757499694824,6.965461730957031,-7.144357204437256
1748142676936629500,23.10562939453125,7.327516555786133,6.768174648284912,-6.393159866333008
1748142676954892500,23.123892578125,6.807885646820068,7.2202935218811035,-5.120517730712891
1748142676973157600,23.14215771484375,7.376984596252441,7.595795631408691,-3.8515195846557617
1748142676991422700,23.160422607421875,11.775449752807617,8.792247772216797,-3.2407386302948
1748142677009688800,23.178688720703125,13.455230712890625,10.473730087280273,-3.2304301261901855
1748142677027948500,23.196948486328125,16.161542892456055,12.239595413208008,-4.864186763763428
1748142677046217500,23.215217529296876,12.965353012084961,10.491756439208984,-8.883382797241211
1748142677064483800,23.23348388671875,1.837996006011963,8.14713191986084,-5.617397785186768
1748142677082749400,23.25174951171875,-1.7753230333328247,7.421600341796875,-4.074235439300537
1748142677101013500,23.270013427734376,-33.1806640625,0.17241191864013672,3.4774436950683594
1748142677119278600,23.288278564453126,-5.687714576721191,3.641226291656494,-8.366294860839844
1748142677137544700,23.306544677734376,-21.52389907836914,-11.130953788757324,-7.9026103019714355
1748142677155810300,23.324810302734374,2.453253746032715,-19.76288604736328,-18.834369659423828
1748142677174078000,23.343077880859376,8.58015251159668,-29.38177490234375,-14.501707077026367
